[{"view_history":"[{\"page_index\":0,\"viewing_time\":7280},{\"page_index\":1,\"viewing_time\":11788},{\"page_index\":2,\"viewing_time\":14980},{\"page_index\":3,\"viewing_time\":3439}]","rt":37488,"trial_type":"instructions","trial_index":0,"time_elapsed":37492,"internal_node_id":"0.0-0.0"},{"view_history":"[{\"page_index\":0,\"viewing_time\":9969},{\"page_index\":1,\"viewing_time\":13949}]","rt":23919,"trial_type":"instructions","trial_index":1,"time_elapsed":62415,"internal_node_id":"0.0-1.0"},{"group":"hexagon_tri","room_assignment":["green","grey","purple","red","yellow","blue"],"door_color_assignment":["black","white"],"door_generator_assignment":[0,1],"goal":4,"start":0,"action_noise":0.15,"location_history":"[0,5,0,1,5,4]","action_history":"[1,1,1,1,0]","door_history":"[1,1,1,1,0]","location_rts":"[3325,3797,1920,1669,1427]","trial_type":"two-door-navigation","trial_index":2,"time_elapsed":83445,"internal_node_id":"0.0-2.0-0.0"},{"group":"hexagon_tri","room_assignment":["green","grey","purple","red","yellow","blue"],"door_color_assignment":["black","white"],"door_generator_assignment":[0,1],"goal":3,"start":4,"action_noise":0.15,"location_history":"[4,0,5,0,1,5,0,5,4,0,1,5,4,0,5,4,2,1,5,4,0,5,4,0,1,3]","action_history":"[0,0,1,1,1,1,0,0,0,1,0,0,0,0,0,0,1,1,0,0,0,0,0,0,0]","door_history":"[0,0,1,1,1,1,0,0,0,1,0,0,0,0,0,0,1,1,0,0,0,0,0,0,0]","location_rts":"[3286,1829,1565,1049,804,862,1280,1736,1022,1203,973,1458,840,780,709,944,2364,1020,801,707,660,618,666,614,613]","trial_type":"two-door-navigation","trial_index":3,"time_elapsed":141614,"internal_node_id":"0.0-2.0-1.0"},{"group":"hexagon_tri","room_assignment":["green","grey","purple","red","yellow","blue"],"door_color_assignment":["black","white"],"door_generator_assignment":[0,1],"goal":5,"start":3,"action_noise":0.15,"location_history":"[3,4,2,3,4,2,3,4,2,3,4,0,1,3,4,2,3,4,0,5]","action_history":"[1,1,1,1,1,1,1,1,0,0,0,0,1,1,1,1,1,0,0]","door_history":"[1,1,1,1,1,1,1,1,0,0,0,0,1,1,1,1,1,0,0]","location_rts":"[2675,765,697,724,555,768,1570,615,657,599,819,662,1202,774,680,716,665,589,666]","trial_type":"two-door-navigation","trial_index":4,"time_elapsed":181477,"internal_node_id":"0.0-2.0-2.0"},{"group":"hexagon_tri","room_assignment":["green","grey","purple","red","yellow","blue"],"door_color_assignment":["black","white"],"door_generator_assignment":[0,1],"goal":2,"start":5,"action_noise":0.15,"location_history":"[5,4,2]","action_history":"[0,1]","door_history":"[0,1]","location_rts":"[2123,926]","trial_type":"two-door-navigation","trial_index":5,"time_elapsed":190139,"internal_node_id":"0.0-2.0-3.0"},{"group":"hexagon_tri","room_assignment":["green","grey","purple","red","yellow","blue"],"door_color_assignment":["black","white"],"door_generator_assignment":[0,1],"goal":1,"start":2,"action_noise":0.15,"location_history":"[2,3,4,2,3,4,0,5,4,2,3,4,0,5,4,0,1]","action_history":"[1,1,1,1,1,1,1,1,1,1,1,0,0,0,0,0]","door_history":"[1,1,1,1,1,1,1,1,1,1,1,0,0,0,0,0]","location_rts":"[2197,856,631,679,638,866,819,726,640,630,692,545,871,661,714,602]","trial_type":"two-door-navigation","trial_index":6,"time_elapsed":223222,"internal_node_id":"0.0-2.0-4.0"},{"group":"hexagon_tri","room_assignment":["green","grey","purple","red","yellow","blue"],"door_color_assignment":["black","white"],"door_generator_assignment":[0,1],"goal":4,"start":1,"action_noise":0.15,"location_history":"[1,3,2,1,3,2,1,5,0,1,3,4]","action_history":"[0,0,0,0,0,0,1,1,1,1,1]","door_history":"[0,0,0,0,0,0,1,1,1,1,1]","location_rts":"[2848,975,891,684,685,677,550,800,795,680,761]","trial_type":"two-door-navigation","trial_index":7,"time_elapsed":248575,"internal_node_id":"0.0-2.0-5.0"},{"group":"hexagon_tri","room_assignment":["green","grey","purple","red","yellow","blue"],"door_color_assignment":["black","white"],"door_generator_assignment":[0,1],"goal":1,"start":4,"action_noise":0.15,"location_history":"[4,0,5,4,2,1]","action_history":"[0,0,0,0,0]","door_history":"[0,0,0,0,0]","location_rts":"[2447,951,799,2176,733]","trial_type":"two-door-navigation","trial_index":8,"time_elapsed":264482,"internal_node_id":"0.0-2.0-6.0"},{"group":"hexagon_tri","room_assignment":["green","grey","purple","red","yellow","blue"],"door_color_assignment":["black","white"],"door_generator_assignment":[0,1],"goal":5,"start":1,"action_noise":0.15,"location_history":"[1,3,4,0,1,3,2,1,3,4,2,3,2,3,4,2,1,5]","action_history":"[0,0,0,0,0,0,0,0,1,1,1,1,1,1,1,1,1]","door_history":"[0,0,0,0,0,0,0,0,1,1,1,1,1,1,1,1,1]","location_rts":"[8829,1067,1835,1028,1355,846,965,1201,1126,1012,1094,982,3424,2123,1092,1522,1703]","trial_type":"two-door-navigation","trial_index":9,"time_elapsed":316909,"internal_node_id":"0.0-2.0-7.0"},{"group":"hexagon_tri","room_assignment":["green","grey","purple","red","yellow","blue"],"door_color_assignment":["black","white"],"door_generator_assignment":[0,1],"goal":0,"start":5,"action_noise":0.15,"location_history":"[5,0]","action_history":"[1]","door_history":"[1]","location_rts":"[6937]","trial_type":"two-door-navigation","trial_index":10,"time_elapsed":328393,"internal_node_id":"0.0-2.0-8.0"},{"group":"hexagon_tri","room_assignment":["green","grey","purple","red","yellow","blue"],"door_color_assignment":["black","white"],"door_generator_assignment":[0,1],"goal":2,"start":0,"action_noise":0.15,"location_history":"[0,5,4,0,5,4,0,5,4,0,1,5,0,1,3,4,2]","action_history":"[0,0,0,0,0,0,0,0,0,0,1,1,1,1,1,1]","door_history":"[0,0,0,0,0,0,0,0,0,0,1,1,1,1,1,1]","location_rts":"[1640,910,2665,1229,1571,909,923,1080,1438,788,934,953,1277,2224,714,645]","trial_type":"two-door-navigation","trial_index":11,"time_elapsed":368544,"internal_node_id":"0.0-2.0-9.0"},{"group":"hexagon_tri","room_assignment":["green","grey","purple","red","yellow","blue"],"door_color_assignment":["black","white"],"door_generator_assignment":[0,1],"goal":3,"start":2,"action_noise":0.15,"location_history":"[2,3]","action_history":"[1]","door_history":"[1]","location_rts":"[1560]","trial_type":"two-door-navigation","trial_index":12,"time_elapsed":374633,"internal_node_id":"0.0-2.0-10.0"},{"group":"hexagon_tri","room_assignment":["green","grey","purple","red","yellow","blue"],"door_color_assignment":["black","white"],"door_generator_assignment":[0,1],"goal":0,"start":3,"action_noise":0.15,"location_history":"[3,2,1,5,4,0]","action_history":"[0,0,0,0,0]","door_history":"[0,0,0,0,0]","location_rts":"[10793,3638,681,729,649]","trial_type":"two-door-navigation","trial_index":13,"time_elapsed":399944,"internal_node_id":"0.0-2.0-11.0"},{"group":"hexagon_tri","room_assignment":["green","grey","purple","red","yellow","blue"],"door_color_assignment":["black","white"],"door_generator_assignment":[0,1],"goal":2,"start":0,"action_noise":0.15,"location_history":"[0,5,0,1,5,4,0,5,0,5,4,0,5,0,1,3,2]","action_history":"[1,1,1,1,0,0,0,0,0,0,0,0,0,0,0,0]","door_history":"[1,1,1,1,0,0,0,0,0,0,0,0,0,0,0,0]","location_rts":"[1716,3075,2063,817,901,934,934,887,1089,875,885,781,727,795,836,755]","trial_type":"two-door-navigation","trial_index":14,"time_elapsed":438173,"internal_node_id":"0.0-2.0-12.0"},{"group":"hexagon_tri","room_assignment":["green","grey","purple","red","yellow","blue"],"door_color_assignment":["black","white"],"door_generator_assignment":[0,1],"goal":5,"start":2,"action_noise":0.15,"location_history":"[2,3,4,0,1,3,4,2,3,4,0,1,5]","action_history":"[1,1,1,1,1,1,1,1,1,1,1,1]","door_history":"[1,1,1,1,1,1,1,1,1,1,1,1]","location_rts":"[2128,1532,137,888,681,694,660,1474,619,697,709,727]","trial_type":"two-door-navigation","trial_index":15,"time_elapsed":465079,"internal_node_id":"0.0-2.0-13.0"},{"group":"hexagon_tri","room_assignment":["green","grey","purple","red","yellow","blue"],"door_color_assignment":["black","white"],"door_generator_assignment":[0,1],"goal":4,"start":5,"action_noise":0.15,"location_history":"[5,4]","action_history":"[0]","door_history":"[0]","location_rts":"[1964]","trial_type":"two-door-navigation","trial_index":16,"time_elapsed":471657,"internal_node_id":"0.0-2.0-14.0"},{"group":"hexagon_tri","room_assignment":["green","grey","purple","red","yellow","blue"],"door_color_assignment":["black","white"],"door_generator_assignment":[0,1],"goal":3,"start":4,"action_noise":0.15,"location_history":"[4,2,3]","action_history":"[1,1]","door_history":"[1,1]","location_rts":"[1701,698]","trial_type":"two-door-navigation","trial_index":17,"time_elapsed":479701,"internal_node_id":"0.0-2.0-15.0"},{"group":"hexagon_tri","room_assignment":["green","grey","purple","red","yellow","blue"],"door_color_assignment":["black","white"],"door_generator_assignment":[0,1],"goal":1,"start":3,"action_noise":0.15,"location_history":"[3,2,1]","action_history":"[0,0]","door_history":"[0,0]","location_rts":"[1598,737]","trial_type":"two-door-navigation","trial_index":18,"time_elapsed":487644,"internal_node_id":"0.0-2.0-16.0"},{"group":"hexagon_tri","room_assignment":["green","grey","purple","red","yellow","blue"],"door_color_assignment":["black","white"],"door_generator_assignment":[0,1],"goal":5,"start":1,"action_noise":0.15,"location_history":"[1,3,4,2,1,5]","action_history":"[1,1,1,1,1]","door_history":"[1,1,1,1,1]","location_rts":"[1747,1191,1024,797,1650]","trial_type":"two-door-navigation","trial_index":19,"time_elapsed":502784,"internal_node_id":"0.0-2.0-17.0"},{"group":"hexagon_tri","room_assignment":["green","grey","purple","red","yellow","blue"],"door_color_assignment":["black","white"],"door_generator_assignment":[0,1],"goal":4,"start":5,"action_noise":0.15,"location_history":"[5,4]","action_history":"[0]","door_history":"[0]","location_rts":"[1821]","trial_type":"two-door-navigation","trial_index":20,"time_elapsed":509159,"internal_node_id":"0.0-2.0-18.0"},{"group":"hexagon_tri","room_assignment":["green","grey","purple","red","yellow","blue"],"door_color_assignment":["black","white"],"door_generator_assignment":[0,1],"goal":0,"start":4,"action_noise":0.15,"location_history":"[4,2,3,4,2,3,4,2,3,4,2,3,4,2,1,5,0]","action_history":"[1,1,1,1,1,1,1,1,1,1,1,1,1,1,1,1]","door_history":"[1,1,1,1,1,1,1,1,1,1,1,1,1,1,1,1]","location_rts":"[1115,783,775,1358,934,1318,783,783,757,731,674,845,737,1205,1039,4946]","trial_type":"two-door-navigation","trial_index":21,"time_elapsed":548170,"internal_node_id":"0.0-2.0-19.0"},{"group":"hexagon_tri","room_assignment":["green","grey","purple","red","yellow","blue"],"door_color_assignment":["black","white"],"door_generator_assignment":[0,1],"goal":1,"start":0,"action_noise":0.15,"location_history":"[0,5,0,5,4,0,5,0,5,4,0,1]","action_history":"[0,0,0,0,0,0,0,0,0,0,1]","door_history":"[0,0,0,0,0,0,0,0,0,0,1]","location_rts":"[1393,835,1435,748,967,1153,874,981,2646,4602,4132]","trial_type":"two-door-navigation","trial_index":22,"time_elapsed":583005,"internal_node_id":"0.0-2.0-20.0"},{"group":"hexagon_tri","room_assignment":["green","grey","purple","red","yellow","blue"],"door_color_assignment":["black","white"],"door_generator_assignment":[0,1],"goal":3,"start":1,"action_noise":0.15,"location_history":"[1,5,4,0,5,4,0,5,4,0,5,0,5,4,0,5,4,0,5,4,2,3]","action_history":"[1,0,1,0,0,0,0,0,0,0,0,0,0,0,0,0,0,0,0,1,1]","door_history":"[1,0,1,0,0,0,0,0,0,0,0,0,0,0,0,0,0,0,0,1,1]","location_rts":"[1657,1509,961,865,743,771,723,703,579,719,801,715,772,1005,1501,926,550,1526,886,738,1130]","trial_type":"two-door-navigation","trial_index":23,"time_elapsed":628307,"internal_node_id":"0.0-2.0-21.0"},{"group":"hexagon_tri","room_assignment":["green","grey","purple","red","yellow","blue"],"door_color_assignment":["black","white"],"door_generator_assignment":[0,1],"goal":2,"start":3,"action_noise":0.15,"location_history":"[3,2]","action_history":"[0]","door_history":"[0]","location_rts":"[1884]","trial_type":"two-door-navigation","trial_index":24,"time_elapsed":634729,"internal_node_id":"0.0-2.0-22.0"},{"group":"hexagon_tri","room_assignment":["green","grey","purple","red","yellow","blue"],"door_color_assignment":["black","white"],"door_generator_assignment":[0,1],"goal":0,"start":2,"action_noise":0.15,"location_history":"[2,1,5,0]","action_history":"[1,1,1]","door_history":"[1,1,1]","location_rts":"[1259,1535,5304]","trial_type":"two-door-navigation","trial_index":25,"time_elapsed":649432,"internal_node_id":"0.0-2.0-23.0"},{"group":"hexagon_tri","room_assignment":["green","grey","purple","red","yellow","blue"],"door_color_assignment":["black","white"],"door_generator_assignment":[0,1],"goal":3,"start":0,"action_noise":0.15,"location_history":"[0,5,4,0,5,4,0,5,0,1,5,0,1,5,0,1,3]","action_history":"[0,0,0,0,0,0,0,1,1,1,1,1,1,1,1,0]","door_history":"[0,0,0,0,0,0,0,1,1,1,1,1,1,1,1,0]","location_rts":"[1690,938,845,727,779,703,593,674,627,698,670,606,593,588,620,582]","trial_type":"two-door-navigation","trial_index":26,"time_elapsed":681758,"internal_node_id":"0.0-2.0-24.0"},{"group":"hexagon_tri","room_assignment":["green","grey","purple","red","yellow","blue"],"door_color_assignment":["black","white"],"door_generator_assignment":[0,1],"goal":1,"start":3,"action_noise":0.15,"location_history":"[3,4,2,3,4,2,1]","action_history":"[1,1,1,1,1,0]","door_history":"[1,1,1,1,1,0]","location_rts":"[2164,1193,744,866,668,675]","trial_type":"two-door-navigation","trial_index":27,"time_elapsed":697955,"internal_node_id":"0.0-2.0-25.0"},{"group":"hexagon_tri","room_assignment":["green","grey","purple","red","yellow","blue"],"door_color_assignment":["black","white"],"door_generator_assignment":[0,1],"goal":2,"start":1,"action_noise":0.15,"location_history":"[1,5,0,1,5,0,1,5,0,1,5,4,0,5,4,0,5,0,1,3,4,2]","action_history":"[1,1,1,1,1,1,1,1,1,1,0,0,0,0,0,0,1,1,1,1,1]","door_history":"[1,1,1,1,1,1,1,1,1,1,0,0,0,0,0,0,1,1,1,1,1]","location_rts":"[1452,835,930,871,828,3453,1096,2227,11310,996,1583,1194,1728,289,5325,936,2409,1352,756,942,944]","trial_type":"two-door-navigation","trial_index":28,"time_elapsed":765024,"internal_node_id":"0.0-2.0-26.0"},{"group":"hexagon_tri","room_assignment":["green","grey","purple","red","yellow","blue"],"door_color_assignment":["black","white"],"door_generator_assignment":[0,1],"goal":5,"start":2,"action_noise":0.15,"location_history":"[2,1,3,2,1,5]","action_history":"[0,0,0,0,1]","door_history":"[0,0,0,0,1]","location_rts":"[8819,641,625,4631,4080]","trial_type":"two-door-navigation","trial_index":29,"time_elapsed":792526,"internal_node_id":"0.0-2.0-27.0"},{"group":"hexagon_tri","room_assignment":["green","grey","purple","red","yellow","blue"],"door_color_assignment":["black","white"],"door_generator_assignment":[0,1],"goal":4,"start":5,"action_noise":0.15,"location_history":"[5,4]","action_history":"[1]","door_history":"[1]","location_rts":"[1545]","trial_type":"two-door-navigation","trial_index":30,"time_elapsed":798620,"internal_node_id":"0.0-2.0-28.0"},{"group":"hexagon_tri","room_assignment":["green","grey","purple","red","yellow","blue"],"door_color_assignment":["black","white"],"door_generator_assignment":[0,1],"goal":5,"start":4,"action_noise":0.15,"location_history":"[4,2,1,3,4,0,5]","action_history":"[1,0,0,0,0,0]","door_history":"[1,0,0,0,0,0]","location_rts":"[1786,999,605,677,634,593]","trial_type":"two-door-navigation","trial_index":31,"time_elapsed":813745,"internal_node_id":"0.0-2.0-29.0"},{"group":"hexagon_tri","room_assignment":["green","grey","purple","red","yellow","blue"],"door_color_assignment":["black","white"],"door_generator_assignment":[0,1],"goal":3,"start":5,"action_noise":0.15,"location_history":"[5,0,5,0,1,5,4,2,1,3]","action_history":"[1,1,1,1,1,1,0,0,0]","door_history":"[1,1,1,1,1,1,0,0,0]","location_rts":"[4593,723,4355,1972,2019,3776,867,747,761]","trial_type":"two-door-navigation","trial_index":32,"time_elapsed":846443,"internal_node_id":"0.0-2.0-30.0"},{"group":"hexagon_tri","room_assignment":["green","grey","purple","red","yellow","blue"],"door_color_assignment":["black","white"],"door_generator_assignment":[0,1],"goal":0,"start":3,"action_noise":0.15,"location_history":"[3,2,1,5,4,0]","action_history":"[0,0,0,0,0]","door_history":"[0,0,0,0,0]","location_rts":"[3110,2351,717,765,1763]","trial_type":"two-door-navigation","trial_index":33,"time_elapsed":863892,"internal_node_id":"0.0-2.0-31.0"},{"group":"hexagon_tri","room_assignment":["green","grey","purple","red","yellow","blue"],"door_color_assignment":["black","white"],"door_generator_assignment":[0,1],"goal":4,"start":0,"action_noise":0.15,"location_history":"[0,1,5,0,1,5,0,1,5,0,1,5,0,5,0,1,5,0,1,5,0,1,5,0,5,4]","action_history":"[1,1,1,1,1,1,1,1,1,1,1,1,1,1,1,1,1,1,1,1,1,1,1,1,0]","door_history":"[1,1,1,1,1,1,1,1,1,1,1,1,1,1,1,1,1,1,1,1,1,1,1,1,0]","location_rts":"[1384,3886,1489,649,653,706,770,855,768,674,584,668,597,549,498,501,557,713,668,621,2116,2022,1397,1097,933]","trial_type":"two-door-navigation","trial_index":34,"time_elapsed":919151,"internal_node_id":"0.0-2.0-32.0"},{"group":"hexagon_tri","room_assignment":["green","grey","purple","red","yellow","blue"],"door_color_assignment":["black","white"],"door_generator_assignment":[0,1],"goal":1,"start":4,"action_noise":0.15,"location_history":"[4,0,5,4,0,1]","action_history":"[0,0,0,0,0]","door_history":"[0,0,0,0,0]","location_rts":"[1776,12835,922,1203,1070]","trial_type":"two-door-navigation","trial_index":35,"time_elapsed":945614,"internal_node_id":"0.0-2.0-33.0"},{"group":"hexagon_tri","room_assignment":["green","grey","purple","red","yellow","blue"],"door_color_assignment":["black","white"],"door_generator_assignment":[0,1],"goal":2,"start":1,"action_noise":0.15,"location_history":"[1,3,4,2]","action_history":"[0,1,1]","door_history":"[0,1,1]","location_rts":"[1606,1484,720]","trial_type":"two-door-navigation","trial_index":36,"time_elapsed":956032,"internal_node_id":"0.0-2.0-34.0"},{"group":"hexagon_tri","room_assignment":["green","grey","purple","red","yellow","blue"],"door_color_assignment":["black","white"],"door_generator_assignment":[0,1],"goal":0,"start":2,"action_noise":0.15,"location_history":"[2,3,2,3,2,1,5,4,0]","action_history":"[1,0,0,0,0,0,0,0]","door_history":"[1,0,0,0,0,0,0,0]","location_rts":"[1767,1443,4774,1033,781,944,616,753]","trial_type":"two-door-navigation","trial_index":37,"time_elapsed":980007,"internal_node_id":"0.0-2.0-35.0"},{"group":"hexagon_tri","room_assignment":["green","grey","purple","red","yellow","blue"],"door_color_assignment":["black","white"],"door_generator_assignment":[0,1],"goal":5,"start":0,"action_noise":0.15,"location_history":"[0,1,5]","action_history":"[1,1]","door_history":"[1,1]","location_rts":"[1759,884]","trial_type":"two-door-navigation","trial_index":38,"time_elapsed":988198,"internal_node_id":"0.0-2.0-36.0"},{"group":"hexagon_tri","room_assignment":["green","grey","purple","red","yellow","blue"],"door_color_assignment":["black","white"],"door_generator_assignment":[0,1],"goal":2,"start":5,"action_noise":0.15,"location_history":"[5,4,0,5,4,2]","action_history":"[0,0,0,0,0]","door_history":"[0,0,0,0,0]","location_rts":"[1150,1035,925,939,776]","trial_type":"two-door-navigation","trial_index":39,"time_elapsed":1001869,"internal_node_id":"0.0-2.0-37.0"},{"group":"hexagon_tri","room_assignment":["green","grey","purple","red","yellow","blue"],"door_color_assignment":["black","white"],"door_generator_assignment":[0,1],"goal":1,"start":2,"action_noise":0.15,"location_history":"[2,1]","action_history":"[0]","door_history":"[0]","location_rts":"[5269]","trial_type":"two-door-navigation","trial_index":40,"time_elapsed":1011693,"internal_node_id":"0.0-2.0-38.0"},{"group":"hexagon_tri","room_assignment":["green","grey","purple","red","yellow","blue"],"door_color_assignment":["black","white"],"door_generator_assignment":[0,1],"goal":4,"start":1,"action_noise":0.15,"location_history":"[1,3,2,1,3,2,1,3,2,3,2,1,3,2,1,3,4]","action_history":"[0,0,0,0,0,0,0,0,0,0,0,0,0,0,0,1]","door_history":"[0,0,0,0,0,0,0,0,0,0,0,0,0,0,0,1]","location_rts":"[2597,909,1379,748,871,724,2687,1533,823,2962,3380,2915,4230,807,3487,735]","trial_type":"two-door-navigation","trial_index":41,"time_elapsed":1062787,"internal_node_id":"0.0-2.0-39.0"},{"group":"hexagon_tri","room_assignment":["green","grey","purple","red","yellow","blue"],"door_color_assignment":["black","white"],"door_generator_assignment":[0,1],"goal":3,"start":4,"action_noise":0.15,"location_history":"[4,0,5,4,0,1,3]","action_history":"[0,0,0,0,0,0]","door_history":"[0,0,0,0,0,0]","location_rts":"[1816,790,727,733,844,1406]","trial_type":"two-door-navigation","trial_index":42,"time_elapsed":1078864,"internal_node_id":"0.0-2.0-40.0"},{"group":"hexagon_tri","room_assignment":["green","grey","purple","red","yellow","blue"],"door_color_assignment":["black","white"],"door_generator_assignment":[0,1],"goal":5,"start":3,"action_noise":0.15,"location_history":"[3,2,1,3,2,1,3,2,1,3,2,1,3,2,3,4,0,1,5]","action_history":"[0,0,0,0,0,0,0,0,0,0,0,0,0,1,1,1,1,1]","door_history":"[0,0,0,0,0,0,0,0,0,0,0,0,0,1,1,1,1,1]","location_rts":"[12401,3160,786,742,939,712,750,755,821,559,987,680,642,690,751,1565,1066,2636]","trial_type":"two-door-navigation","trial_index":43,"time_elapsed":1131825,"internal_node_id":"0.0-2.0-41.0"},{"group":"hexagon_tri","room_assignment":["green","grey","purple","red","yellow","blue"],"door_color_assignment":["black","white"],"door_generator_assignment":[0,1],"goal":3,"start":5,"action_noise":0.15,"location_history":"[5,0,1,5,0,1,5,4,0,1,5,0,5,4,0,1,5,4,0,5,4,0,5,0,1,5,0,1,3]","action_history":"[1,1,1,1,1,1,1,1,1,1,1,0,0,0,0,0,0,0,0,0,0,0,1,1,1,1,1,0]","door_history":"[1,1,1,1,1,1,1,1,1,1,1,0,0,0,0,0,0,0,0,0,0,0,1,1,1,1,1,0]","location_rts":"[5329,860,1456,677,1828,260,778,727,719,704,664,543,665,722,653,709,1753,1587,371,5857,645,667,6137,788,6253,680,1962,702]","trial_type":"two-door-navigation","trial_index":44,"time_elapsed":1209298,"internal_node_id":"0.0-2.0-42.0"},{"group":"hexagon_tri","room_assignment":["green","grey","purple","red","yellow","blue"],"door_color_assignment":["black","white"],"door_generator_assignment":[0,1],"goal":0,"start":3,"action_noise":0.15,"location_history":"[3,4,0]","action_history":"[1,1]","door_history":"[1,1]","location_rts":"[1819,622]","trial_type":"two-door-navigation","trial_index":45,"time_elapsed":1217314,"internal_node_id":"0.0-2.0-43.0"},{"group":"hexagon_tri","room_assignment":["green","grey","purple","red","yellow","blue"],"door_color_assignment":["black","white"],"door_generator_assignment":[0,1],"goal":2,"start":0,"action_noise":0.15,"location_history":"[0,5,4,2]","action_history":"[0,0,0]","door_history":"[0,0,0]","location_rts":"[2123,573,634]","trial_type":"two-door-navigation","trial_index":46,"time_elapsed":1227294,"internal_node_id":"0.0-2.0-44.0"},{"group":"hexagon_tri","room_assignment":["green","grey","purple","red","yellow","blue"],"door_color_assignment":["black","white"],"door_generator_assignment":[0,1],"goal":4,"start":2,"action_noise":0.15,"location_history":"[2,3,2,3,4]","action_history":"[1,1,1,1]","door_history":"[1,1,1,1]","location_rts":"[1501,838,837,797]","trial_type":"two-door-navigation","trial_index":47,"time_elapsed":1238965,"internal_node_id":"0.0-2.0-45.0"},{"group":"hexagon_tri","room_assignment":["green","grey","purple","red","yellow","blue"],"door_color_assignment":["black","white"],"door_generator_assignment":[0,1],"goal":1,"start":4,"action_noise":0.15,"location_history":"[4,0,1]","action_history":"[0,0]","door_history":"[0,0]","location_rts":"[1733,819]","trial_type":"two-door-navigation","trial_index":48,"time_elapsed":1247078,"internal_node_id":"0.0-2.0-46.0"},{"group":"hexagon_tri","room_assignment":["green","grey","purple","red","yellow","blue"],"door_color_assignment":["black","white"],"door_generator_assignment":[0,1],"goal":4,"start":1,"action_noise":0.15,"location_history":"[1,3,2,1,3,2,1,5,4]","action_history":"[0,0,0,0,0,0,0,0]","door_history":"[0,0,0,0,0,0,0,0]","location_rts":"[799,935,838,1524,834,720,6948,2857]","trial_type":"two-door-navigation","trial_index":49,"time_elapsed":1274440,"internal_node_id":"0.0-2.0-47.0"},{"group":"hexagon_tri","room_assignment":["green","grey","purple","red","yellow","blue"],"door_color_assignment":["black","white"],"door_generator_assignment":[0,1],"goal":3,"start":4,"action_noise":0.15,"location_history":"[4,2,3]","action_history":"[1,1]","door_history":"[1,1]","location_rts":"[1412,877]","trial_type":"two-door-navigation","trial_index":50,"time_elapsed":1282379,"internal_node_id":"0.0-2.0-48.0"},{"group":"hexagon_tri","room_assignment":["green","grey","purple","red","yellow","blue"],"door_color_assignment":["black","white"],"door_generator_assignment":[0,1],"goal":5,"start":3,"action_noise":0.15,"location_history":"[3,4,0,5]","action_history":"[0,0,0]","door_history":"[0,0,0]","location_rts":"[1576,8776,648]","trial_type":"two-door-navigation","trial_index":51,"time_elapsed":1300052,"internal_node_id":"0.0-2.0-49.0"},{"view_history":"[{\"page_index\":0,\"viewing_time\":2655}]","rt":2656,"trial_type":"instructions","trial_index":52,"time_elapsed":1303709,"internal_node_id":"0.0-3.0"},{"view_history":"[{\"page_index\":0,\"viewing_time\":2497},{\"page_index\":1,\"viewing_time\":14506}]","rt":17004,"trial_type":"instructions","trial_index":53,"time_elapsed":1321714,"internal_node_id":"0.0-4.0"},{"group":"hexagon_bi","fractal_assignment":["../images/blu_wht.png","../images/cyn_red.png","../images/gry_blk.png","../images/org_blu.png","../images/ylw_slt.png","../images/pnk_blu.png"],"mutagen_generator_assignment":[1,0],"goal":4,"start":0,"action_noise":0.15,"location_history":"[0,1,0,1,2,3,2,1,2,3,4]","action_history":"[1,1,0,0,1,0,1,0,0,0]","mutagen_history":"[0,0,1,1,0,1,0,1,1,1]","location_rts":"[5500,1877,1777,1477,1766,1739,1683,2435,1536,3620]","trial_type":"fractal-mutation","trial_index":54,"time_elapsed":1359536,"internal_node_id":"0.0-5.0-0.0"},{"group":"hexagon_bi","fractal_assignment":["../images/blu_wht.png","../images/cyn_red.png","../images/gry_blk.png","../images/org_blu.png","../images/ylw_slt.png","../images/pnk_blu.png"],"mutagen_generator_assignment":[1,0],"goal":3,"start":4,"action_noise":0.15,"location_history":"[4,5,4,5,4,3]","action_history":"[1,1,1,1,0]","mutagen_history":"[0,0,0,0,1]","location_rts":"[2094,965,668,1171,1493]","trial_type":"fractal-mutation","trial_index":55,"time_elapsed":1374800,"internal_node_id":"0.0-5.0-1.0"},{"group":"hexagon_bi","fractal_assignment":["../images/blu_wht.png","../images/cyn_red.png","../images/gry_blk.png","../images/org_blu.png","../images/ylw_slt.png","../images/pnk_blu.png"],"mutagen_generator_assignment":[1,0],"goal":5,"start":3,"action_noise":0.15,"location_history":"[3,4,3,4,3,2,1,0,5]","action_history":"[0,0,0,0,0,0,1,1]","mutagen_history":"[1,1,1,1,1,1,0,0]","location_rts":"[2343,803,1296,944,1328,1019,838,1120]","trial_type":"fractal-mutation","trial_index":56,"time_elapsed":1396735,"internal_node_id":"0.0-5.0-2.0"},{"group":"hexagon_bi","fractal_assignment":["../images/blu_wht.png","../images/cyn_red.png","../images/gry_blk.png","../images/org_blu.png","../images/ylw_slt.png","../images/pnk_blu.png"],"mutagen_generator_assignment":[1,0],"goal":2,"start":5,"action_noise":0.15,"location_history":"[5,0,5,0,1,2]","action_history":"[0,0,0,0,0]","mutagen_history":"[1,1,1,1,1]","location_rts":"[1703,1098,1288,4802,1025]","trial_type":"fractal-mutation","trial_index":57,"time_elapsed":1415515,"internal_node_id":"0.0-5.0-3.0"},{"group":"hexagon_bi","fractal_assignment":["../images/blu_wht.png","../images/cyn_red.png","../images/gry_blk.png","../images/org_blu.png","../images/ylw_slt.png","../images/pnk_blu.png"],"mutagen_generator_assignment":[1,0],"goal":1,"start":2,"action_noise":0.15,"location_history":"[2,1]","action_history":"[0]","mutagen_history":"[1]","location_rts":"[1697]","trial_type":"fractal-mutation","trial_index":58,"time_elapsed":1421765,"internal_node_id":"0.0-5.0-4.0"},{"group":"hexagon_bi","fractal_assignment":["../images/blu_wht.png","../images/cyn_red.png","../images/gry_blk.png","../images/org_blu.png","../images/ylw_slt.png","../images/pnk_blu.png"],"mutagen_generator_assignment":[1,0],"goal":4,"start":1,"action_noise":0.15,"location_history":"[1,2,1,2,1,2,3,2,3,2,1,2,1,2,1,2,3,4]","action_history":"[0,0,0,0,0,1,1,1,0,0,0,0,0,0,0,1,1]","mutagen_history":"[1,1,1,1,1,0,0,0,1,1,1,1,1,1,1,0,0]","location_rts":"[1653,518,519,1011,662,409,1450,610,498,449,1120,606,645,526,682,413,783]","trial_type":"fractal-mutation","trial_index":59,"time_elapsed":1456044,"internal_node_id":"0.0-5.0-5.0"},{"group":"hexagon_bi","fractal_assignment":["../images/blu_wht.png","../images/cyn_red.png","../images/gry_blk.png","../images/org_blu.png","../images/ylw_slt.png","../images/pnk_blu.png"],"mutagen_generator_assignment":[1,0],"goal":1,"start":4,"action_noise":0.15,"location_history":"[4,5,0,1]","action_history":"[1,0,0]","mutagen_history":"[0,1,1]","location_rts":"[878,699,555]","trial_type":"fractal-mutation","trial_index":60,"time_elapsed":1464898,"internal_node_id":"0.0-5.0-6.0"},{"group":"hexagon_bi","fractal_assignment":["../images/blu_wht.png","../images/cyn_red.png","../images/gry_blk.png","../images/org_blu.png","../images/ylw_slt.png","../images/pnk_blu.png"],"mutagen_generator_assignment":[1,0],"goal":5,"start":1,"action_noise":0.15,"location_history":"[1,2,1,2,1,0,5]","action_history":"[0,0,0,0,0,0]","mutagen_history":"[1,1,1,1,1,1]","location_rts":"[4467,905,873,1705,894,595]","trial_type":"fractal-mutation","trial_index":61,"time_elapsed":1484340,"internal_node_id":"0.0-5.0-7.0"},{"group":"hexagon_bi","fractal_assignment":["../images/blu_wht.png","../images/cyn_red.png","../images/gry_blk.png","../images/org_blu.png","../images/ylw_slt.png","../images/pnk_blu.png"],"mutagen_generator_assignment":[1,0],"goal":0,"start":5,"action_noise":0.15,"location_history":"[5,4,5,4,3,2,3,2,3,4,3,4,3,4,3,4,5,0]","action_history":"[1,1,1,1,1,1,1,1,1,0,0,0,0,0,0,0,0]","mutagen_history":"[0,0,0,0,0,0,0,0,0,1,1,1,1,1,1,1,1]","location_rts":"[1532,1022,729,592,540,519,577,886,976,1496,538,539,497,524,573,550,491]","trial_type":"fractal-mutation","trial_index":62,"time_elapsed":1518642,"internal_node_id":"0.0-5.0-8.0"},{"group":"hexagon_bi","fractal_assignment":["../images/blu_wht.png","../images/cyn_red.png","../images/gry_blk.png","../images/org_blu.png","../images/ylw_slt.png","../images/pnk_blu.png"],"mutagen_generator_assignment":[1,0],"goal":2,"start":0,"action_noise":0.15,"location_history":"[0,5,0,5,0,5,0,1,0,1,0,1,2]","action_history":"[0,0,0,0,0,0,0,1,1,1,1,0]","mutagen_history":"[1,1,1,1,1,1,1,0,0,0,0,1]","location_rts":"[1608,734,623,574,645,588,664,412,759,545,1015,607]","trial_type":"fractal-mutation","trial_index":63,"time_elapsed":1543925,"internal_node_id":"0.0-5.0-9.0"},{"group":"hexagon_bi","fractal_assignment":["../images/blu_wht.png","../images/cyn_red.png","../images/gry_blk.png","../images/org_blu.png","../images/ylw_slt.png","../images/pnk_blu.png"],"mutagen_generator_assignment":[1,0],"goal":3,"start":2,"action_noise":0.15,"location_history":"[2,1,2,1,2,1,2,1,2,3]","action_history":"[0,0,0,0,0,0,0,0,1]","mutagen_history":"[1,1,1,1,1,1,1,1,0]","location_rts":"[10641,1109,727,934,569,401,460,121,761]","trial_type":"fractal-mutation","trial_index":64,"time_elapsed":1572915,"internal_node_id":"0.0-5.0-10.0"},{"group":"hexagon_bi","fractal_assignment":["../images/blu_wht.png","../images/cyn_red.png","../images/gry_blk.png","../images/org_blu.png","../images/ylw_slt.png","../images/pnk_blu.png"],"mutagen_generator_assignment":[1,0],"goal":0,"start":3,"action_noise":0.15,"location_history":"[3,2,1,0]","action_history":"[1,1,1]","mutagen_history":"[0,0,0]","location_rts":"[1098,941,2117]","trial_type":"fractal-mutation","trial_index":65,"time_elapsed":1583734,"internal_node_id":"0.0-5.0-11.0"},{"group":"hexagon_bi","fractal_assignment":["../images/blu_wht.png","../images/cyn_red.png","../images/gry_blk.png","../images/org_blu.png","../images/ylw_slt.png","../images/pnk_blu.png"],"mutagen_generator_assignment":[1,0],"goal":2,"start":0,"action_noise":0.15,"location_history":"[0,1,0,5,0,1,2]","action_history":"[1,0,0,0,0,0]","mutagen_history":"[0,1,1,1,1,1]","location_rts":"[686,9158,799,540,800,773]","trial_type":"fractal-mutation","trial_index":66,"time_elapsed":1606571,"internal_node_id":"0.0-5.0-12.0"},{"group":"hexagon_bi","fractal_assignment":["../images/blu_wht.png","../images/cyn_red.png","../images/gry_blk.png","../images/org_blu.png","../images/ylw_slt.png","../images/pnk_blu.png"],"mutagen_generator_assignment":[1,0],"goal":5,"start":2,"action_noise":0.15,"location_history":"[2,3,4,3,4,3,4,5]","action_history":"[0,0,0,0,0,0,1]","mutagen_history":"[1,1,1,1,1,1,0]","location_rts":"[1967,627,2,540,463,519,130]","trial_type":"fractal-mutation","trial_index":67,"time_elapsed":1621982,"internal_node_id":"0.0-5.0-13.0"},{"group":"hexagon_bi","fractal_assignment":["../images/blu_wht.png","../images/cyn_red.png","../images/gry_blk.png","../images/org_blu.png","../images/ylw_slt.png","../images/pnk_blu.png"],"mutagen_generator_assignment":[1,0],"goal":4,"start":5,"action_noise":0.15,"location_history":"[5,4]","action_history":"[0]","mutagen_history":"[1]","location_rts":"[2293]","trial_type":"fractal-mutation","trial_index":68,"time_elapsed":1628845,"internal_node_id":"0.0-5.0-14.0"},{"group":"hexagon_bi","fractal_assignment":["../images/blu_wht.png","../images/cyn_red.png","../images/gry_blk.png","../images/org_blu.png","../images/ylw_slt.png","../images/pnk_blu.png"],"mutagen_generator_assignment":[1,0],"goal":3,"start":4,"action_noise":0.15,"location_history":"[4,3]","action_history":"[0]","mutagen_history":"[1]","location_rts":"[5531]","trial_type":"fractal-mutation","trial_index":69,"time_elapsed":1638966,"internal_node_id":"0.0-5.0-15.0"},{"group":"hexagon_bi","fractal_assignment":["../images/blu_wht.png","../images/cyn_red.png","../images/gry_blk.png","../images/org_blu.png","../images/ylw_slt.png","../images/pnk_blu.png"],"mutagen_generator_assignment":[1,0],"goal":1,"start":3,"action_noise":0.15,"location_history":"[3,4,3,4,3,4,3,4,3,2,3,2,3,2,3,2,3,4,3,4,3,4,3,2,1]","action_history":"[0,0,0,0,0,0,0,0,0,1,1,1,1,1,1,0,0,0,0,0,0,0,0,0]","mutagen_history":"[1,1,1,1,1,1,1,1,1,0,0,0,0,0,0,1,1,1,1,1,1,1,1,1]","location_rts":"[1467,573,460,504,503,588,563,563,465,433,793,516,496,481,403,416,509,634,206,795,6010,493,467,613]","trial_type":"fractal-mutation","trial_index":70,"time_elapsed":1687008,"internal_node_id":"0.0-5.0-16.0"},{"group":"hexagon_bi","fractal_assignment":["../images/blu_wht.png","../images/cyn_red.png","../images/gry_blk.png","../images/org_blu.png","../images/ylw_slt.png","../images/pnk_blu.png"],"mutagen_generator_assignment":[1,0],"goal":5,"start":1,"action_noise":0.15,"location_history":"[1,0,1,0,1,0,1,2,1,2,1,2,1,2,1,2,1,2,1,0,1,2,3,2,3,2,3,2,1,0,5]","action_history":"[1,1,1,1,1,1,0,0,0,0,0,0,0,0,0,0,0,0,1,1,1,1,1,1,1,1,1,1,1,1]","mutagen_history":"[0,0,0,0,0,0,1,1,1,1,1,1,1,1,1,1,1,1,0,0,0,0,0,0,0,0,0,0,0,0]","location_rts":"[1810,309,569,4797,1063,688,495,578,3207,591,2073,525,154,479,1737,628,426,476,307,719,506,518,1604,1544,565,606,414,681,502,850]","trial_type":"fractal-mutation","trial_index":71,"time_elapsed":1752026,"internal_node_id":"0.0-5.0-17.0"},{"group":"hexagon_bi","fractal_assignment":["../images/blu_wht.png","../images/cyn_red.png","../images/gry_blk.png","../images/org_blu.png","../images/ylw_slt.png","../images/pnk_blu.png"],"mutagen_generator_assignment":[1,0],"goal":4,"start":5,"action_noise":0.15,"location_history":"[5,4]","action_history":"[1]","mutagen_history":"[0]","location_rts":"[2420]","trial_type":"fractal-mutation","trial_index":72,"time_elapsed":1758992,"internal_node_id":"0.0-5.0-18.0"},{"group":"hexagon_bi","fractal_assignment":["../images/blu_wht.png","../images/cyn_red.png","../images/gry_blk.png","../images/org_blu.png","../images/ylw_slt.png","../images/pnk_blu.png"],"mutagen_generator_assignment":[1,0],"goal":0,"start":4,"action_noise":0.15,"location_history":"[4,3,4,3,4,3,4,3,4,3,4,3,4,5,0]","action_history":"[0,0,0,0,0,0,0,0,0,0,0,0,0,0]","mutagen_history":"[1,1,1,1,1,1,1,1,1,1,1,1,1,1]","location_rts":"[11043,4333,943,2839,1301,503,908,532,1157,1231,985,601,1406,2366]","trial_type":"fractal-mutation","trial_index":73,"time_elapsed":1807722,"internal_node_id":"0.0-5.0-19.0"},{"group":"hexagon_bi","fractal_assignment":["../images/blu_wht.png","../images/cyn_red.png","../images/gry_blk.png","../images/org_blu.png","../images/ylw_slt.png","../images/pnk_blu.png"],"mutagen_generator_assignment":[1,0],"goal":1,"start":0,"action_noise":0.15,"location_history":"[0,5,4,3,4,3,4,3,4,3,4,5,4,5,4,5,0,5,0,5,0,5,4,3,4,5,4,5,4,5,4,5,4,5,0,5,0,5,0,5,0,5,0,5,0,5,4,3,4,3,2,3,2,3,2,3,2,3,2,3,2,1]","action_history":"[0,0,0,0,0,0,0,0,0,0,1,1,1,1,1,0,0,0,0,0,0,0,0,0,1,1,1,1,1,1,1,1,1,0,0,0,0,0,0,0,0,0,0,0,0,0,0,0,0,1,1,1,1,1,1,1,1,1,1,1,0]","mutagen_history":"[1,1,1,1,1,1,1,1,1,1,0,0,0,0,0,1,1,1,1,1,1,1,1,1,0,0,0,0,0,0,0,0,0,1,1,1,1,1,1,1,1,1,1,1,1,1,1,1,1,0,0,0,0,0,0,0,0,0,0,0,1]","location_rts":"[3596,1135,1437,482,449,665,1153,2467,972,2086,2966,859,115,707,424,406,365,715,433,597,514,498,391,339,378,488,570,439,1276,771,4343,1015,907,9490,971,690,442,450,397,4455,1080,722,959,1851,4780,1063,1181,486,503,375,467,453,389,473,784,1174,876,1063,24168,442,493]","trial_type":"fractal-mutation","trial_index":74,"time_elapsed":1971361,"internal_node_id":"0.0-5.0-20.0"},{"group":"hexagon_bi","fractal_assignment":["../images/blu_wht.png","../images/cyn_red.png","../images/gry_blk.png","../images/org_blu.png","../images/ylw_slt.png","../images/pnk_blu.png"],"mutagen_generator_assignment":[1,0],"goal":3,"start":1,"action_noise":0.15,"location_history":"[1,2,1,0,1,0,1,0,5,4,5,0,1,0,5,0,1,0,1,2,1,2,1,2,1,2,3]","action_history":"[0,1,1,1,1,1,1,1,1,1,1,1,0,0,0,0,0,0,0,0,0,0,0,0,0,0]","mutagen_history":"[1,0,0,0,0,0,0,0,0,0,0,0,1,1,1,1,1,1,1,1,1,1,1,1,1,1]","location_rts":"[1285,775,494,606,628,393,578,460,289,430,886,334,1105,1081,521,437,621,510,470,389,393,884,590,783,642,981]","trial_type":"fractal-mutation","trial_index":75,"time_elapsed":2019553,"internal_node_id":"0.0-5.0-21.0"},{"group":"hexagon_bi","fractal_assignment":["../images/blu_wht.png","../images/cyn_red.png","../images/gry_blk.png","../images/org_blu.png","../images/ylw_slt.png","../images/pnk_blu.png"],"mutagen_generator_assignment":[1,0],"goal":2,"start":3,"action_noise":0.15,"location_history":"[3,2]","action_history":"[1]","mutagen_history":"[0]","location_rts":"[657]","trial_type":"fractal-mutation","trial_index":76,"time_elapsed":2024788,"internal_node_id":"0.0-5.0-22.0"},{"group":"hexagon_bi","fractal_assignment":["../images/blu_wht.png","../images/cyn_red.png","../images/gry_blk.png","../images/org_blu.png","../images/ylw_slt.png","../images/pnk_blu.png"],"mutagen_generator_assignment":[1,0],"goal":0,"start":2,"action_noise":0.15,"location_history":"[2,1,2,1,0]","action_history":"[0,0,0,0]","mutagen_history":"[1,1,1,1]","location_rts":"[970,510,415,426]","trial_type":"fractal-mutation","trial_index":77,"time_elapsed":2035037,"internal_node_id":"0.0-5.0-23.0"},{"group":"hexagon_bi","fractal_assignment":["../images/blu_wht.png","../images/cyn_red.png","../images/gry_blk.png","../images/org_blu.png","../images/ylw_slt.png","../images/pnk_blu.png"],"mutagen_generator_assignment":[1,0],"goal":3,"start":0,"action_noise":0.15,"location_history":"[0,5,0,5,4,3]","action_history":"[0,0,0,0,0]","mutagen_history":"[1,1,1,1,1]","location_rts":"[1414,499,697,1391,603]","trial_type":"fractal-mutation","trial_index":78,"time_elapsed":2048563,"internal_node_id":"0.0-5.0-24.0"},{"group":"hexagon_bi","fractal_assignment":["../images/blu_wht.png","../images/cyn_red.png","../images/gry_blk.png","../images/org_blu.png","../images/ylw_slt.png","../images/pnk_blu.png"],"mutagen_generator_assignment":[1,0],"goal":1,"start":3,"action_noise":0.15,"location_history":"[3,4,3,4,3,4,3,2,3,2,3,2,3,2,3,4,3,4,3,4,3,4,3,4,3,2,1]","action_history":"[0,0,0,0,0,0,1,1,1,1,1,1,1,1,0,0,0,0,0,0,0,0,0,0,0,0]","mutagen_history":"[1,1,1,1,1,1,0,0,0,0,0,0,0,0,1,1,1,1,1,1,1,1,1,1,1,1]","location_rts":"[1400,431,355,430,367,562,45,599,684,987,486,122,466,919,424,556,688,856,395,367,364,297,323,380,313,210]","trial_type":"fractal-mutation","trial_index":79,"time_elapsed":2093274,"internal_node_id":"0.0-5.0-25.0"},{"group":"hexagon_bi","fractal_assignment":["../images/blu_wht.png","../images/cyn_red.png","../images/gry_blk.png","../images/org_blu.png","../images/ylw_slt.png","../images/pnk_blu.png"],"mutagen_generator_assignment":[1,0],"goal":2,"start":1,"action_noise":0.15,"location_history":"[1,0,5,0,5,0,5,4,3,4,5,4,5,4,5,4,5,4,5,4,5,4,5,4,5,4,5,4,5,4,5,0,1,0,1,0,5,0,1,2]","action_history":"[0,0,0,0,0,0,0,0,0,0,0,1,1,1,1,1,1,1,1,1,1,1,1,1,1,1,1,1,1,1,1,1,1,1,1,0,0,0,0]","mutagen_history":"[1,1,1,1,1,1,1,1,1,1,1,0,0,0,0,0,0,0,0,0,0,0,0,0,0,0,0,0,0,0,0,0,0,0,0,1,1,1,1]","location_rts":"[1542,397,475,533,696,774,267,282,329,343,351,335,325,509,287,327,446,467,687,876,601,398,330,430,221,993,740,813,492,538,682,586,369,66,301,1669,462,323,317]","trial_type":"fractal-mutation","trial_index":80,"time_elapsed":2159565,"internal_node_id":"0.0-5.0-26.0"},{"group":"hexagon_bi","fractal_assignment":["../images/blu_wht.png","../images/cyn_red.png","../images/gry_blk.png","../images/org_blu.png","../images/ylw_slt.png","../images/pnk_blu.png"],"mutagen_generator_assignment":[1,0],"goal":5,"start":2,"action_noise":0.15,"location_history":"[2,1,2,3,4,3,4,3,4,3,4,3,2,1,2,1,2,1,0,1,0,1,0,1,0,1,0,1,0,5]","action_history":"[0,0,0,0,0,0,0,0,0,0,0,0,0,0,0,0,0,1,1,1,1,1,1,1,1,1,1,1,1]","mutagen_history":"[1,1,1,1,1,1,1,1,1,1,1,1,1,1,1,1,1,0,0,0,0,0,0,0,0,0,0,0,0]","location_rts":"[970,1667,252,786,367,251,79,153,2051,531,575,256,88,232,1084,310,565,409,626,556,994,3970,680,1535,1074,1228,2025,1506,68]","trial_type":"fractal-mutation","trial_index":81,"time_elapsed":2219402,"internal_node_id":"0.0-5.0-27.0"},{"group":"hexagon_bi","fractal_assignment":["../images/blu_wht.png","../images/cyn_red.png","../images/gry_blk.png","../images/org_blu.png","../images/ylw_slt.png","../images/pnk_blu.png"],"mutagen_generator_assignment":[1,0],"goal":4,"start":5,"action_noise":0.15,"location_history":"[5,0,5,0,5,4]","action_history":"[0,0,0,0,0]","mutagen_history":"[1,1,1,1,1]","location_rts":"[881,454,1108,883,501]","trial_type":"fractal-mutation","trial_index":82,"time_elapsed":2232145,"internal_node_id":"0.0-5.0-28.0"},{"group":"hexagon_bi","fractal_assignment":["../images/blu_wht.png","../images/cyn_red.png","../images/gry_blk.png","../images/org_blu.png","../images/ylw_slt.png","../images/pnk_blu.png"],"mutagen_generator_assignment":[1,0],"goal":5,"start":4,"action_noise":0.15,"location_history":"[4,3,4,3,4,3,2,1,2,1,2,1,2,3,2,3,2,3,2,1,2,1,2,1,0,5]","action_history":"[0,0,0,0,0,0,0,0,0,0,0,0,1,1,1,1,1,1,1,0,0,0,0,0,0]","mutagen_history":"[1,1,1,1,1,1,1,1,1,1,1,1,0,0,0,0,0,0,0,1,1,1,1,1,1]","location_rts":"[4778,410,1752,560,2041,320,1778,769,471,834,3159,557,316,1665,707,3628,1004,1320,2179,609,2449,1488,1277,3330,1889]","trial_type":"fractal-mutation","trial_index":83,"time_elapsed":2302233,"internal_node_id":"0.0-5.0-29.0"},{"group":"hexagon_bi","fractal_assignment":["../images/blu_wht.png","../images/cyn_red.png","../images/gry_blk.png","../images/org_blu.png","../images/ylw_slt.png","../images/pnk_blu.png"],"mutagen_generator_assignment":[1,0],"goal":3,"start":5,"action_noise":0.15,"location_history":"[5,0,5,4,3]","action_history":"[0,0,0,0]","mutagen_history":"[1,1,1,1]","location_rts":"[562,26,218,3077]","trial_type":"fractal-mutation","trial_index":84,"time_elapsed":2314014,"internal_node_id":"0.0-5.0-30.0"},{"group":"hexagon_bi","fractal_assignment":["../images/blu_wht.png","../images/cyn_red.png","../images/gry_blk.png","../images/org_blu.png","../images/ylw_slt.png","../images/pnk_blu.png"],"mutagen_generator_assignment":[1,0],"goal":0,"start":3,"action_noise":0.15,"location_history":"[3,4,3,4,3,2,3,4,3,4,3,4,3,4,3,4,3,4,3,2,3,2,3,4,5,4,3,2,3,2,3,2,3,4,3,4,3,2,3,4,3,2,3,2,3,2,3,4,5,4,3,4,3,4,3,2,3,2,1,2,1,2,3,2,3,4,5,4,5,4,3,4,3,4,3,4,5,0]","action_history":"[0,0,0,0,0,0,0,0,0,0,0,0,0,0,0,0,0,1,1,1,1,1,1,1,1,1,1,1,1,1,1,1,0,0,0,0,0,0,0,0,0,1,1,1,1,1,0,0,0,0,0,0,0,0,0,0,0,0,0,0,0,1,1,1,1,1,1,1,1,0,0,0,0,0,0,0,0]","mutagen_history":"[1,1,1,1,1,1,1,1,1,1,1,1,1,1,1,1,1,0,0,0,0,0,0,0,0,0,0,0,0,0,0,0,1,1,1,1,1,1,1,1,1,0,0,0,0,0,1,1,1,1,1,1,1,1,1,1,1,1,1,1,1,0,0,0,0,0,0,0,0,1,1,1,1,1,1,1,1]","location_rts":"[648,596,9067,4205,445,3986,509,22,317,364,399,253,804,8399,982,549,2753,792,1073,547,509,1476,2319,532,1788,941,417,919,975,879,414,861,681,889,1423,1097,519,665,472,374,402,401,490,422,463,472,317,487,446,558,512,603,370,242,683,528,287,357,397,373,1349,483,459,503,615,609,666,402,739,310,416,416,474,362,345,396,683]","trial_type":"fractal-mutation","trial_index":85,"time_elapsed":2474280,"internal_node_id":"0.0-5.0-31.0"},{"group":"hexagon_bi","fractal_assignment":["../images/blu_wht.png","../images/cyn_red.png","../images/gry_blk.png","../images/org_blu.png","../images/ylw_slt.png","../images/pnk_blu.png"],"mutagen_generator_assignment":[1,0],"goal":4,"start":0,"action_noise":0.15,"location_history":"[0,5,4]","action_history":"[0,1]","mutagen_history":"[1,0]","location_rts":"[1932,622]","trial_type":"fractal-mutation","trial_index":86,"time_elapsed":2482556,"internal_node_id":"0.0-5.0-32.0"},{"group":"hexagon_bi","fractal_assignment":["../images/blu_wht.png","../images/cyn_red.png","../images/gry_blk.png","../images/org_blu.png","../images/ylw_slt.png","../images/pnk_blu.png"],"mutagen_generator_assignment":[1,0],"goal":1,"start":4,"action_noise":0.15,"location_history":"[4,3,4,5,4,3,2,3,2,3,4,5,4,5,4,5,0,1]","action_history":"[0,0,1,1,1,1,1,1,1,1,1,1,1,1,1,0,1]","mutagen_history":"[1,1,0,0,0,0,0,0,0,0,0,0,0,0,0,1,0]","location_rts":"[1537,534,328,479,418,358,371,213,563,343,272,298,827,908,382,459,380]","trial_type":"fractal-mutation","trial_index":87,"time_elapsed":2513091,"internal_node_id":"0.0-5.0-33.0"},{"group":"hexagon_bi","fractal_assignment":["../images/blu_wht.png","../images/cyn_red.png","../images/gry_blk.png","../images/org_blu.png","../images/ylw_slt.png","../images/pnk_blu.png"],"mutagen_generator_assignment":[1,0],"goal":2,"start":1,"action_noise":0.15,"location_history":"[1,2]","action_history":"[0]","mutagen_history":"[1]","location_rts":"[1242]","trial_type":"fractal-mutation","trial_index":88,"time_elapsed":2518956,"internal_node_id":"0.0-5.0-34.0"},{"group":"hexagon_bi","fractal_assignment":["../images/blu_wht.png","../images/cyn_red.png","../images/gry_blk.png","../images/org_blu.png","../images/ylw_slt.png","../images/pnk_blu.png"],"mutagen_generator_assignment":[1,0],"goal":0,"start":2,"action_noise":0.15,"location_history":"[2,3,4,5,4,5,4,3,2,3,4,5,0]","action_history":"[1,1,1,1,1,1,1,1,1,0,0,0]","mutagen_history":"[0,0,0,0,0,0,0,0,0,1,1,1]","location_rts":"[795,893,562,675,538,755,922,736,571,559,930,608]","trial_type":"fractal-mutation","trial_index":89,"time_elapsed":2543891,"internal_node_id":"0.0-5.0-35.0"},{"group":"hexagon_bi","fractal_assignment":["../images/blu_wht.png","../images/cyn_red.png","../images/gry_blk.png","../images/org_blu.png","../images/ylw_slt.png","../images/pnk_blu.png"],"mutagen_generator_assignment":[1,0],"goal":5,"start":0,"action_noise":0.15,"location_history":"[0,1,2,3,2,3,2,3,2,3,4,3,4,5]","action_history":"[1,1,1,1,1,1,1,1,1,0,0,0,0]","mutagen_history":"[0,0,0,0,0,0,0,0,0,1,1,1,1]","location_rts":"[1141,1295,646,1734,670,847,1145,1227,611,1824,869,478,472]","trial_type":"fractal-mutation","trial_index":90,"time_elapsed":2574385,"internal_node_id":"0.0-5.0-36.0"},{"group":"hexagon_bi","fractal_assignment":["../images/blu_wht.png","../images/cyn_red.png","../images/gry_blk.png","../images/org_blu.png","../images/ylw_slt.png","../images/pnk_blu.png"],"mutagen_generator_assignment":[1,0],"goal":2,"start":5,"action_noise":0.15,"location_history":"[5,0,5,0,5,0,5,0,1,2]","action_history":"[0,0,0,0,0,0,0,0,0]","mutagen_history":"[1,1,1,1,1,1,1,1,1]","location_rts":"[2596,626,436,416,455,348,525,110,827]","trial_type":"fractal-mutation","trial_index":91,"time_elapsed":2593990,"internal_node_id":"0.0-5.0-37.0"},{"group":"hexagon_bi","fractal_assignment":["../images/blu_wht.png","../images/cyn_red.png","../images/gry_blk.png","../images/org_blu.png","../images/ylw_slt.png","../images/pnk_blu.png"],"mutagen_generator_assignment":[1,0],"goal":1,"start":2,"action_noise":0.15,"location_history":"[2,3,2,1]","action_history":"[1,1,0]","mutagen_history":"[0,0,1]","location_rts":"[1135,589,450]","trial_type":"fractal-mutation","trial_index":92,"time_elapsed":2602952,"internal_node_id":"0.0-5.0-38.0"},{"group":"hexagon_bi","fractal_assignment":["../images/blu_wht.png","../images/cyn_red.png","../images/gry_blk.png","../images/org_blu.png","../images/ylw_slt.png","../images/pnk_blu.png"],"mutagen_generator_assignment":[1,0],"goal":4,"start":1,"action_noise":0.15,"location_history":"[1,0,5,4]","action_history":"[0,0,1]","mutagen_history":"[1,1,0]","location_rts":"[1010,429,388]","trial_type":"fractal-mutation","trial_index":93,"time_elapsed":2611530,"internal_node_id":"0.0-5.0-39.0"},{"group":"hexagon_bi","fractal_assignment":["../images/blu_wht.png","../images/cyn_red.png","../images/gry_blk.png","../images/org_blu.png","../images/ylw_slt.png","../images/pnk_blu.png"],"mutagen_generator_assignment":[1,0],"goal":3,"start":4,"action_noise":0.15,"location_history":"[4,5,4,5,4,3]","action_history":"[1,1,0,0,0]","mutagen_history":"[0,0,1,1,1]","location_rts":"[685,92,412,722,768]","trial_type":"fractal-mutation","trial_index":94,"time_elapsed":2623139,"internal_node_id":"0.0-5.0-40.0"},{"group":"hexagon_bi","fractal_assignment":["../images/blu_wht.png","../images/cyn_red.png","../images/gry_blk.png","../images/org_blu.png","../images/ylw_slt.png","../images/pnk_blu.png"],"mutagen_generator_assignment":[1,0],"goal":5,"start":3,"action_noise":0.15,"location_history":"[3,4,3,2,3,2,1,2,1,2,1,2,3,2,3,2,3,2,1,2,3,4,5]","action_history":"[0,0,1,1,1,0,0,0,0,0,0,1,1,1,1,1,1,1,0,0,0,0]","mutagen_history":"[1,1,0,0,0,1,1,1,1,1,1,0,0,0,0,0,0,0,1,1,1,1]","location_rts":"[1078,288,392,724,844,412,708,441,685,560,530,518,412,592,630,597,589,674,339,387,534,1547]","trial_type":"fractal-mutation","trial_index":95,"time_elapsed":2663752,"internal_node_id":"0.0-5.0-41.0"},{"group":"hexagon_bi","fractal_assignment":["../images/blu_wht.png","../images/cyn_red.png","../images/gry_blk.png","../images/org_blu.png","../images/ylw_slt.png","../images/pnk_blu.png"],"mutagen_generator_assignment":[1,0],"goal":3,"start":5,"action_noise":0.15,"location_history":"[5,4,3]","action_history":"[0,0]","mutagen_history":"[1,1]","location_rts":"[803,441]","trial_type":"fractal-mutation","trial_index":96,"time_elapsed":2670686,"internal_node_id":"0.0-5.0-42.0"},{"group":"hexagon_bi","fractal_assignment":["../images/blu_wht.png","../images/cyn_red.png","../images/gry_blk.png","../images/org_blu.png","../images/ylw_slt.png","../images/pnk_blu.png"],"mutagen_generator_assignment":[1,0],"goal":0,"start":3,"action_noise":0.15,"location_history":"[3,2,3,2,3,4,3,4,3,4,3,4,3,4,5,4,5,4,3,2,1,0]","action_history":"[1,1,1,1,0,0,0,0,0,0,0,0,0,1,1,1,1,1,1,1,1]","mutagen_history":"[0,0,0,0,1,1,1,1,1,1,1,1,1,0,0,0,0,0,0,0,0]","location_rts":"[547,122,552,623,417,810,518,427,419,403,447,462,320,17,1501,618,1403,1235,557,2646,1649]","trial_type":"fractal-mutation","trial_index":97,"time_elapsed":2712542,"internal_node_id":"0.0-5.0-43.0"},{"group":"hexagon_bi","fractal_assignment":["../images/blu_wht.png","../images/cyn_red.png","../images/gry_blk.png","../images/org_blu.png","../images/ylw_slt.png","../images/pnk_blu.png"],"mutagen_generator_assignment":[1,0],"goal":2,"start":0,"action_noise":0.15,"location_history":"[0,1,2]","action_history":"[1,1]","mutagen_history":"[0,0]","location_rts":"[974,56]","trial_type":"fractal-mutation","trial_index":98,"time_elapsed":2719246,"internal_node_id":"0.0-5.0-44.0"},{"group":"hexagon_bi","fractal_assignment":["../images/blu_wht.png","../images/cyn_red.png","../images/gry_blk.png","../images/org_blu.png","../images/ylw_slt.png","../images/pnk_blu.png"],"mutagen_generator_assignment":[1,0],"goal":4,"start":2,"action_noise":0.15,"location_history":"[2,3,4]","action_history":"[1,1]","mutagen_history":"[0,0]","location_rts":"[1142,2911]","trial_type":"fractal-mutation","trial_index":99,"time_elapsed":2728930,"internal_node_id":"0.0-5.0-45.0"},{"group":"hexagon_bi","fractal_assignment":["../images/blu_wht.png","../images/cyn_red.png","../images/gry_blk.png","../images/org_blu.png","../images/ylw_slt.png","../images/pnk_blu.png"],"mutagen_generator_assignment":[1,0],"goal":1,"start":4,"action_noise":0.15,"location_history":"[4,3,4,3,4,3,4,5,0,1]","action_history":"[0,0,0,0,0,1,1,1,1]","mutagen_history":"[1,1,1,1,1,0,0,0,0]","location_rts":"[1400,188,491,1763,2701,421,1207,1237,1184]","trial_type":"fractal-mutation","trial_index":100,"time_elapsed":2752694,"internal_node_id":"0.0-5.0-46.0"},{"group":"hexagon_bi","fractal_assignment":["../images/blu_wht.png","../images/cyn_red.png","../images/gry_blk.png","../images/org_blu.png","../images/ylw_slt.png","../images/pnk_blu.png"],"mutagen_generator_assignment":[1,0],"goal":4,"start":1,"action_noise":0.15,"location_history":"[1,0,1,2,1,2,1,0,5,4]","action_history":"[1,1,0,0,0,0,0,0,1]","mutagen_history":"[0,0,1,1,1,1,1,1,0]","location_rts":"[1016,1840,1640,1149,1842,690,2947,649,283]","trial_type":"fractal-mutation","trial_index":101,"time_elapsed":2777975,"internal_node_id":"0.0-5.0-47.0"},{"group":"hexagon_bi","fractal_assignment":["../images/blu_wht.png","../images/cyn_red.png","../images/gry_blk.png","../images/org_blu.png","../images/ylw_slt.png","../images/pnk_blu.png"],"mutagen_generator_assignment":[1,0],"goal":3,"start":4,"action_noise":0.15,"location_history":"[4,5,4,5,4,3]","action_history":"[1,1,0,0,0]","mutagen_history":"[0,0,1,1,1]","location_rts":"[1112,359,923,1028,1746]","trial_type":"fractal-mutation","trial_index":102,"time_elapsed":2791995,"internal_node_id":"0.0-5.0-48.0"},{"group":"hexagon_bi","fractal_assignment":["../images/blu_wht.png","../images/cyn_red.png","../images/gry_blk.png","../images/org_blu.png","../images/ylw_slt.png","../images/pnk_blu.png"],"mutagen_generator_assignment":[1,0],"goal":5,"start":3,"action_noise":0.15,"location_history":"[3,4,3,2,1,2,1,2,3,4,5]","action_history":"[0,0,1,0,0,0,0,1,1,1]","mutagen_history":"[1,1,0,1,1,1,1,0,0,0]","location_rts":"[1002,609,299,5828,478,482,915,403,813,1389]","trial_type":"fractal-mutation","trial_index":103,"time_elapsed":2818451,"internal_node_id":"0.0-5.0-49.0"},{"view_history":"[{\"page_index\":0,\"viewing_time\":7684}]","rt":7684,"trial_type":"instructions","trial_index":104,"time_elapsed":2827136,"internal_node_id":"0.0-6.0"},{"rt":7862,"responses":"{\"Q0\":\"thanks, this was interesting \"}","trial_type":"survey-text","trial_index":105,"time_elapsed":2836006,"internal_node_id":"0.0-7.0"}]