[{"view_history":"[{\"page_index\":0,\"viewing_time\":6362},{\"page_index\":1,\"viewing_time\":9310},{\"page_index\":2,\"viewing_time\":13559},{\"page_index\":3,\"viewing_time\":6491}]","rt":35722,"trial_type":"instructions","trial_index":0,"time_elapsed":35723,"internal_node_id":"0.0-0.0"},{"view_history":"[{\"page_index\":0,\"viewing_time\":3255},{\"page_index\":1,\"viewing_time\":25073}]","rt":28328,"trial_type":"instructions","trial_index":1,"time_elapsed":65053,"internal_node_id":"0.0-1.0"},{"group":"hexagon_bi","room_assignment":["red","grey","yellow","purple","green","blue"],"door_color_assignment":["black","white"],"door_generator_assignment":[1,0],"goal":4,"start":0,"action_noise":0.15,"location_history":"[0,1,0,1,0,1,0,5,4]","action_history":"[1,1,1,1,1,1,0,1]","door_history":"[0,0,0,0,0,0,1,0]","location_rts":"[4293,6402,2943,2443,2628,1705,2003,2470]","trial_type":"two-door-navigation","trial_index":2,"time_elapsed":101638,"internal_node_id":"0.0-2.0-0.0"},{"group":"hexagon_bi","room_assignment":["red","grey","yellow","purple","green","blue"],"door_color_assignment":["black","white"],"door_generator_assignment":[1,0],"goal":3,"start":4,"action_noise":0.15,"location_history":"[4,5,4,5,0,5,0,5,0,1,0,1,2,3]","action_history":"[1,1,1,0,0,0,0,0,1,1,0,0,0]","door_history":"[0,0,0,1,1,1,1,1,0,0,1,1,1]","location_rts":"[4934,1088,1568,1359,1514,1094,1084,864,829,1628,1183,948,2427]","trial_type":"two-door-navigation","trial_index":3,"time_elapsed":138990,"internal_node_id":"0.0-2.0-1.0"},{"group":"hexagon_bi","room_assignment":["red","grey","yellow","purple","green","blue"],"door_color_assignment":["black","white"],"door_generator_assignment":[1,0],"goal":5,"start":3,"action_noise":0.15,"location_history":"[3,2,3,4,3,4,5]","action_history":"[1,1,0,0,0,1]","door_history":"[0,0,1,1,1,0]","location_rts":"[1867,962,1270,1119,2284,1044]","trial_type":"two-door-navigation","trial_index":4,"time_elapsed":157173,"internal_node_id":"0.0-2.0-2.0"},{"group":"hexagon_bi","room_assignment":["red","grey","yellow","purple","green","blue"],"door_color_assignment":["black","white"],"door_generator_assignment":[1,0],"goal":2,"start":5,"action_noise":0.15,"location_history":"[5,0,5,0,1,0,5,4,3,4,3,2]","action_history":"[0,0,0,1,1,1,1,0,0,0,1]","door_history":"[1,1,1,0,0,0,0,1,1,1,0]","location_rts":"[2985,783,939,821,932,1284,2316,1719,3819,946,991]","trial_type":"two-door-navigation","trial_index":5,"time_elapsed":189476,"internal_node_id":"0.0-2.0-3.0"},{"group":"hexagon_bi","room_assignment":["red","grey","yellow","purple","green","blue"],"door_color_assignment":["black","white"],"door_generator_assignment":[1,0],"goal":1,"start":2,"action_noise":0.15,"location_history":"[2,3,2,3,2,1]","action_history":"[1,1,1,0,0]","door_history":"[0,0,0,1,1]","location_rts":"[2371,1285,1246,836,3206]","trial_type":"two-door-navigation","trial_index":6,"time_elapsed":207042,"internal_node_id":"0.0-2.0-4.0"},{"group":"hexagon_bi","room_assignment":["red","grey","yellow","purple","green","blue"],"door_color_assignment":["black","white"],"door_generator_assignment":[1,0],"goal":4,"start":1,"action_noise":0.15,"location_history":"[1,0,1,2,1,0,1,0,5,0,1,2,1,2,3,2,3,4]","action_history":"[1,1,0,0,0,1,1,0,0,1,1,0,0,1,1,1,0]","door_history":"[0,0,1,1,1,0,0,1,1,0,0,1,1,0,0,0,1]","location_rts":"[2363,2388,1536,1050,2780,1065,1445,915,1666,1230,1480,868,1073,1449,852,1105,1337]","trial_type":"two-door-navigation","trial_index":7,"time_elapsed":252532,"internal_node_id":"0.0-2.0-5.0"},{"group":"hexagon_bi","room_assignment":["red","grey","yellow","purple","green","blue"],"door_color_assignment":["black","white"],"door_generator_assignment":[1,0],"goal":1,"start":4,"action_noise":0.15,"location_history":"[4,3,2,3,4,5,0,1]","action_history":"[1,1,0,1,1,0,1]","door_history":"[0,0,1,0,0,1,0]","location_rts":"[1084,1664,758,861,961,1062,741]","trial_type":"two-door-navigation","trial_index":8,"time_elapsed":270334,"internal_node_id":"0.0-2.0-6.0"},{"group":"hexagon_bi","room_assignment":["red","grey","yellow","purple","green","blue"],"door_color_assignment":["black","white"],"door_generator_assignment":[1,0],"goal":5,"start":1,"action_noise":0.15,"location_history":"[1,2,1,2,3,2,3,4,5]","action_history":"[1,0,0,1,1,0,0,1]","door_history":"[0,1,1,0,0,1,1,0]","location_rts":"[2710,1348,1531,1054,3442,1244,1642,813]","trial_type":"two-door-navigation","trial_index":9,"time_elapsed":295790,"internal_node_id":"0.0-2.0-7.0"},{"group":"hexagon_bi","room_assignment":["red","grey","yellow","purple","green","blue"],"door_color_assignment":["black","white"],"door_generator_assignment":[1,0],"goal":0,"start":5,"action_noise":0.15,"location_history":"[5,0]","action_history":"[0]","door_history":"[1]","location_rts":"[4919]","trial_type":"two-door-navigation","trial_index":10,"time_elapsed":305232,"internal_node_id":"0.0-2.0-8.0"},{"group":"hexagon_bi","room_assignment":["red","grey","yellow","purple","green","blue"],"door_color_assignment":["black","white"],"door_generator_assignment":[1,0],"goal":2,"start":0,"action_noise":0.15,"location_history":"[0,1,2]","action_history":"[1,0]","door_history":"[0,1]","location_rts":"[3034,1388]","trial_type":"two-door-navigation","trial_index":11,"time_elapsed":315204,"internal_node_id":"0.0-2.0-9.0"},{"group":"hexagon_bi","room_assignment":["red","grey","yellow","purple","green","blue"],"door_color_assignment":["black","white"],"door_generator_assignment":[1,0],"goal":3,"start":2,"action_noise":0.15,"location_history":"[2,3]","action_history":"[1]","door_history":"[0]","location_rts":"[2331]","trial_type":"two-door-navigation","trial_index":12,"time_elapsed":322062,"internal_node_id":"0.0-2.0-10.0"},{"group":"hexagon_bi","room_assignment":["red","grey","yellow","purple","green","blue"],"door_color_assignment":["black","white"],"door_generator_assignment":[1,0],"goal":0,"start":3,"action_noise":0.15,"location_history":"[3,2,1,0]","action_history":"[1,0,1]","door_history":"[0,1,0]","location_rts":"[4593,1495,1651]","trial_type":"two-door-navigation","trial_index":13,"time_elapsed":336378,"internal_node_id":"0.0-2.0-11.0"},{"group":"hexagon_bi","room_assignment":["red","grey","yellow","purple","green","blue"],"door_color_assignment":["black","white"],"door_generator_assignment":[1,0],"goal":2,"start":0,"action_noise":0.15,"location_history":"[0,1,2]","action_history":"[1,0]","door_history":"[0,1]","location_rts":"[2435,1992]","trial_type":"two-door-navigation","trial_index":14,"time_elapsed":346355,"internal_node_id":"0.0-2.0-12.0"},{"group":"hexagon_bi","room_assignment":["red","grey","yellow","purple","green","blue"],"door_color_assignment":["black","white"],"door_generator_assignment":[1,0],"goal":5,"start":2,"action_noise":0.15,"location_history":"[2,3,4,5]","action_history":"[1,0,1]","door_history":"[0,1,0]","location_rts":"[2406,1431,1839]","trial_type":"two-door-navigation","trial_index":15,"time_elapsed":358597,"internal_node_id":"0.0-2.0-13.0"},{"group":"hexagon_bi","room_assignment":["red","grey","yellow","purple","green","blue"],"door_color_assignment":["black","white"],"door_generator_assignment":[1,0],"goal":4,"start":5,"action_noise":0.15,"location_history":"[5,4]","action_history":"[1]","door_history":"[0]","location_rts":"[2092]","trial_type":"two-door-navigation","trial_index":16,"time_elapsed":365218,"internal_node_id":"0.0-2.0-14.0"},{"group":"hexagon_bi","room_assignment":["red","grey","yellow","purple","green","blue"],"door_color_assignment":["black","white"],"door_generator_assignment":[1,0],"goal":3,"start":4,"action_noise":0.15,"location_history":"[4,5,0,1,2,1,2,1,2,3]","action_history":"[1,0,1,0,1,1,0,0,1]","door_history":"[0,1,0,1,0,0,1,1,0]","location_rts":"[1653,1203,1224,2182,1868,1593,952,2243,2553]","trial_type":"two-door-navigation","trial_index":17,"time_elapsed":393406,"internal_node_id":"0.0-2.0-15.0"},{"group":"hexagon_bi","room_assignment":["red","grey","yellow","purple","green","blue"],"door_color_assignment":["black","white"],"door_generator_assignment":[1,0],"goal":1,"start":3,"action_noise":0.15,"location_history":"[3,2,1]","action_history":"[1,0]","door_history":"[0,1]","location_rts":"[1818,1491]","trial_type":"two-door-navigation","trial_index":18,"time_elapsed":402263,"internal_node_id":"0.0-2.0-16.0"},{"group":"hexagon_bi","room_assignment":["red","grey","yellow","purple","green","blue"],"door_color_assignment":["black","white"],"door_generator_assignment":[1,0],"goal":5,"start":1,"action_noise":0.15,"location_history":"[1,2,3,4,5]","action_history":"[1,1,0,1]","door_history":"[0,0,1,0]","location_rts":"[2857,1744,2304,1506]","trial_type":"two-door-navigation","trial_index":19,"time_elapsed":418270,"internal_node_id":"0.0-2.0-17.0"},{"group":"hexagon_bi","room_assignment":["red","grey","yellow","purple","green","blue"],"door_color_assignment":["black","white"],"door_generator_assignment":[1,0],"goal":4,"start":5,"action_noise":0.15,"location_history":"[5,4]","action_history":"[0]","door_history":"[1]","location_rts":"[2337]","trial_type":"two-door-navigation","trial_index":20,"time_elapsed":425135,"internal_node_id":"0.0-2.0-18.0"},{"group":"hexagon_bi","room_assignment":["red","grey","yellow","purple","green","blue"],"door_color_assignment":["black","white"],"door_generator_assignment":[1,0],"goal":0,"start":4,"action_noise":0.15,"location_history":"[4,5,0]","action_history":"[1,0]","door_history":"[0,1]","location_rts":"[2357,1107]","trial_type":"two-door-navigation","trial_index":21,"time_elapsed":434151,"internal_node_id":"0.0-2.0-19.0"},{"group":"hexagon_bi","room_assignment":["red","grey","yellow","purple","green","blue"],"door_color_assignment":["black","white"],"door_generator_assignment":[1,0],"goal":1,"start":0,"action_noise":0.15,"location_history":"[0,1]","action_history":"[1]","door_history":"[0]","location_rts":"[2103]","trial_type":"two-door-navigation","trial_index":22,"time_elapsed":440785,"internal_node_id":"0.0-2.0-20.0"},{"group":"hexagon_bi","room_assignment":["red","grey","yellow","purple","green","blue"],"door_color_assignment":["black","white"],"door_generator_assignment":[1,0],"goal":3,"start":1,"action_noise":0.15,"location_history":"[1,0,5,4,3]","action_history":"[1,0,1,0]","door_history":"[0,1,0,1]","location_rts":"[2359,1210,2062,1177]","trial_type":"two-door-navigation","trial_index":23,"time_elapsed":455185,"internal_node_id":"0.0-2.0-21.0"},{"group":"hexagon_bi","room_assignment":["red","grey","yellow","purple","green","blue"],"door_color_assignment":["black","white"],"door_generator_assignment":[1,0],"goal":2,"start":3,"action_noise":0.15,"location_history":"[3,2]","action_history":"[1]","door_history":"[0]","location_rts":"[2202]","trial_type":"two-door-navigation","trial_index":24,"time_elapsed":461912,"internal_node_id":"0.0-2.0-22.0"},{"group":"hexagon_bi","room_assignment":["red","grey","yellow","purple","green","blue"],"door_color_assignment":["black","white"],"door_generator_assignment":[1,0],"goal":0,"start":2,"action_noise":0.15,"location_history":"[2,3,2,3,4,5,0]","action_history":"[1,1,1,0,1,0]","door_history":"[0,0,0,1,0,1]","location_rts":"[2312,1497,1471,1078,1240,1238]","trial_type":"two-door-navigation","trial_index":25,"time_elapsed":480373,"internal_node_id":"0.0-2.0-23.0"},{"group":"hexagon_bi","room_assignment":["red","grey","yellow","purple","green","blue"],"door_color_assignment":["black","white"],"door_generator_assignment":[1,0],"goal":3,"start":0,"action_noise":0.15,"location_history":"[0,1,0,5,4,5,0,1,0,5,0,1,2,3]","action_history":"[1,1,0,1,0,0,1,1,0,0,1,0,1]","door_history":"[0,0,1,0,1,1,0,0,1,1,0,1,0]","location_rts":"[3051,1317,1462,2315,777,1344,1312,3477,925,1038,1450,2331,2145]","trial_type":"two-door-navigation","trial_index":26,"time_elapsed":520121,"internal_node_id":"0.0-2.0-24.0"},{"group":"hexagon_bi","room_assignment":["red","grey","yellow","purple","green","blue"],"door_color_assignment":["black","white"],"door_generator_assignment":[1,0],"goal":1,"start":3,"action_noise":0.15,"location_history":"[3,2,3,2,1]","action_history":"[1,1,1,0]","door_history":"[0,0,0,1]","location_rts":"[2400,2643,1411,687]","trial_type":"two-door-navigation","trial_index":27,"time_elapsed":534853,"internal_node_id":"0.0-2.0-25.0"},{"group":"hexagon_bi","room_assignment":["red","grey","yellow","purple","green","blue"],"door_color_assignment":["black","white"],"door_generator_assignment":[1,0],"goal":2,"start":1,"action_noise":0.15,"location_history":"[1,0,5,4,3,2]","action_history":"[0,1,1,0,1]","door_history":"[1,0,0,1,0]","location_rts":"[1842,1266,1690,1029,1190]","trial_type":"two-door-navigation","trial_index":28,"time_elapsed":550488,"internal_node_id":"0.0-2.0-26.0"},{"group":"hexagon_bi","room_assignment":["red","grey","yellow","purple","green","blue"],"door_color_assignment":["black","white"],"door_generator_assignment":[1,0],"goal":5,"start":2,"action_noise":0.15,"location_history":"[2,3,2,1,0,5]","action_history":"[1,1,0,1,0]","door_history":"[0,0,1,0,1]","location_rts":"[2159,2035,1331,2540,1036]","trial_type":"two-door-navigation","trial_index":29,"time_elapsed":568208,"internal_node_id":"0.0-2.0-27.0"},{"group":"hexagon_bi","room_assignment":["red","grey","yellow","purple","green","blue"],"door_color_assignment":["black","white"],"door_generator_assignment":[1,0],"goal":4,"start":5,"action_noise":0.15,"location_history":"[5,0,1,2,1,2,3,4]","action_history":"[1,1,0,0,0,1,1]","door_history":"[0,0,1,1,1,0,0]","location_rts":"[1342,1879,1185,1355,1036,720,1739]","trial_type":"two-door-navigation","trial_index":30,"time_elapsed":588126,"internal_node_id":"0.0-2.0-28.0"},{"group":"hexagon_bi","room_assignment":["red","grey","yellow","purple","green","blue"],"door_color_assignment":["black","white"],"door_generator_assignment":[1,0],"goal":5,"start":4,"action_noise":0.15,"location_history":"[4,5]","action_history":"[1]","door_history":"[0]","location_rts":"[2834]","trial_type":"two-door-navigation","trial_index":31,"time_elapsed":595489,"internal_node_id":"0.0-2.0-29.0"},{"group":"hexagon_bi","room_assignment":["red","grey","yellow","purple","green","blue"],"door_color_assignment":["black","white"],"door_generator_assignment":[1,0],"goal":3,"start":5,"action_noise":0.15,"location_history":"[5,0,1,2,3]","action_history":"[0,1,0,1]","door_history":"[1,0,1,0]","location_rts":"[2697,689,1734,1048]","trial_type":"two-door-navigation","trial_index":32,"time_elapsed":609247,"internal_node_id":"0.0-2.0-30.0"},{"group":"hexagon_bi","room_assignment":["red","grey","yellow","purple","green","blue"],"door_color_assignment":["black","white"],"door_generator_assignment":[1,0],"goal":0,"start":3,"action_noise":0.15,"location_history":"[3,2,3,2,1,2,3,4,5,4,5,4,3,4,3,2,3,4,5,4,3,4,5,0]","action_history":"[0,1,1,0,0,1,1,1,0,1,1,0,0,0,1,1,0,1,1,0,0,1,0]","door_history":"[1,0,0,1,1,0,0,0,1,0,0,1,1,1,0,0,1,0,0,1,1,0,1]","location_rts":"[2367,1022,1491,1721,1612,988,1491,1587,1127,2007,1436,1188,1065,1576,1041,1074,1274,1421,2025,994,979,890,2114]","trial_type":"two-door-navigation","trial_index":33,"time_elapsed":668783,"internal_node_id":"0.0-2.0-31.0"},{"group":"hexagon_bi","room_assignment":["red","grey","yellow","purple","green","blue"],"door_color_assignment":["black","white"],"door_generator_assignment":[1,0],"goal":4,"start":0,"action_noise":0.15,"location_history":"[0,5,4]","action_history":"[1,0]","door_history":"[0,1]","location_rts":"[2607,2703]","trial_type":"two-door-navigation","trial_index":34,"time_elapsed":679645,"internal_node_id":"0.0-2.0-32.0"},{"group":"hexagon_bi","room_assignment":["red","grey","yellow","purple","green","blue"],"door_color_assignment":["black","white"],"door_generator_assignment":[1,0],"goal":1,"start":4,"action_noise":0.15,"location_history":"[4,5,4,5,0,5,4,3,2,1]","action_history":"[1,1,1,0,0,1,0,1,0]","door_history":"[0,0,0,1,1,0,1,0,1]","location_rts":"[2357,1999,1582,1164,1049,1115,1614,2178,1418]","trial_type":"two-door-navigation","trial_index":35,"time_elapsed":706839,"internal_node_id":"0.0-2.0-33.0"},{"group":"hexagon_bi","room_assignment":["red","grey","yellow","purple","green","blue"],"door_color_assignment":["black","white"],"door_generator_assignment":[1,0],"goal":2,"start":1,"action_noise":0.15,"location_history":"[1,2]","action_history":"[0]","door_history":"[1]","location_rts":"[3600]","trial_type":"two-door-navigation","trial_index":36,"time_elapsed":714968,"internal_node_id":"0.0-2.0-34.0"},{"group":"hexagon_bi","room_assignment":["red","grey","yellow","purple","green","blue"],"door_color_assignment":["black","white"],"door_generator_assignment":[1,0],"goal":0,"start":2,"action_noise":0.15,"location_history":"[2,1,0]","action_history":"[1,1]","door_history":"[0,0]","location_rts":"[2140,1834]","trial_type":"two-door-navigation","trial_index":37,"time_elapsed":724494,"internal_node_id":"0.0-2.0-35.0"},{"group":"hexagon_bi","room_assignment":["red","grey","yellow","purple","green","blue"],"door_color_assignment":["black","white"],"door_generator_assignment":[1,0],"goal":5,"start":0,"action_noise":0.15,"location_history":"[0,5]","action_history":"[0]","door_history":"[1]","location_rts":"[2845]","trial_type":"two-door-navigation","trial_index":38,"time_elapsed":731862,"internal_node_id":"0.0-2.0-36.0"},{"group":"hexagon_bi","room_assignment":["red","grey","yellow","purple","green","blue"],"door_color_assignment":["black","white"],"door_generator_assignment":[1,0],"goal":2,"start":5,"action_noise":0.15,"location_history":"[5,4,3,2]","action_history":"[1,0,1]","door_history":"[0,1,0]","location_rts":"[2525,1444,1652]","trial_type":"two-door-navigation","trial_index":39,"time_elapsed":744060,"internal_node_id":"0.0-2.0-37.0"},{"group":"hexagon_bi","room_assignment":["red","grey","yellow","purple","green","blue"],"door_color_assignment":["black","white"],"door_generator_assignment":[1,0],"goal":1,"start":2,"action_noise":0.15,"location_history":"[2,3,2,1]","action_history":"[0,1,1]","door_history":"[1,0,0]","location_rts":"[2181,1253,1061]","trial_type":"two-door-navigation","trial_index":40,"time_elapsed":755131,"internal_node_id":"0.0-2.0-38.0"},{"group":"hexagon_bi","room_assignment":["red","grey","yellow","purple","green","blue"],"door_color_assignment":["black","white"],"door_generator_assignment":[1,0],"goal":4,"start":1,"action_noise":0.15,"location_history":"[1,0,1,2,3,2,3,2,1,2,3,4]","action_history":"[1,1,0,1,0,1,1,0,0,1,0]","door_history":"[0,0,1,0,1,0,0,1,1,0,1]","location_rts":"[2483,1943,1429,1277,1100,1140,888,1519,1893,1220,1695]","trial_type":"two-door-navigation","trial_index":41,"time_elapsed":786487,"internal_node_id":"0.0-2.0-39.0"},{"group":"hexagon_bi","room_assignment":["red","grey","yellow","purple","green","blue"],"door_color_assignment":["black","white"],"door_generator_assignment":[1,0],"goal":3,"start":4,"action_noise":0.15,"location_history":"[4,5,0,5,4,3]","action_history":"[1,0,1,1,0]","door_history":"[0,1,0,0,1]","location_rts":"[4078,2038,1020,1417,1931]","trial_type":"two-door-navigation","trial_index":42,"time_elapsed":805598,"internal_node_id":"0.0-2.0-40.0"},{"group":"hexagon_bi","room_assignment":["red","grey","yellow","purple","green","blue"],"door_color_assignment":["black","white"],"door_generator_assignment":[1,0],"goal":5,"start":3,"action_noise":0.15,"location_history":"[3,2,3,4,3,2,1,2,3,4,3,4,5]","action_history":"[1,1,0,0,1,1,1,1,0,0,0,1]","door_history":"[0,0,1,1,0,0,0,0,1,1,1,0]","location_rts":"[2000,2224,1614,1874,1293,1134,1562,1573,1372,1479,1278,815]","trial_type":"two-door-navigation","trial_index":43,"time_elapsed":839601,"internal_node_id":"0.0-2.0-41.0"},{"group":"hexagon_bi","room_assignment":["red","grey","yellow","purple","green","blue"],"door_color_assignment":["black","white"],"door_generator_assignment":[1,0],"goal":3,"start":5,"action_noise":0.15,"location_history":"[5,0,5,4,3]","action_history":"[1,0,1,0]","door_history":"[0,1,0,1]","location_rts":"[2803,2321,1313,2833]","trial_type":"two-door-navigation","trial_index":44,"time_elapsed":856462,"internal_node_id":"0.0-2.0-42.0"},{"group":"hexagon_bi","room_assignment":["red","grey","yellow","purple","green","blue"],"door_color_assignment":["black","white"],"door_generator_assignment":[1,0],"goal":0,"start":3,"action_noise":0.15,"location_history":"[3,4,3,4,5,0]","action_history":"[1,0,1,1,0]","door_history":"[0,1,0,0,1]","location_rts":"[3501,2216,1634,999,1060]","trial_type":"two-door-navigation","trial_index":45,"time_elapsed":874486,"internal_node_id":"0.0-2.0-43.0"},{"group":"hexagon_bi","room_assignment":["red","grey","yellow","purple","green","blue"],"door_color_assignment":["black","white"],"door_generator_assignment":[1,0],"goal":2,"start":0,"action_noise":0.15,"location_history":"[0,1,2]","action_history":"[1,0]","door_history":"[0,1]","location_rts":"[2510,1777]","trial_type":"two-door-navigation","trial_index":46,"time_elapsed":884321,"internal_node_id":"0.0-2.0-44.0"},{"group":"hexagon_bi","room_assignment":["red","grey","yellow","purple","green","blue"],"door_color_assignment":["black","white"],"door_generator_assignment":[1,0],"goal":4,"start":2,"action_noise":0.15,"location_history":"[2,1,0,5,4]","action_history":"[0,1,0,1]","door_history":"[1,0,1,0]","location_rts":"[2882,1741,1582,1174]","trial_type":"two-door-navigation","trial_index":47,"time_elapsed":899297,"internal_node_id":"0.0-2.0-45.0"},{"group":"hexagon_bi","room_assignment":["red","grey","yellow","purple","green","blue"],"door_color_assignment":["black","white"],"door_generator_assignment":[1,0],"goal":1,"start":4,"action_noise":0.15,"location_history":"[4,3,2,1]","action_history":"[0,1,0]","door_history":"[1,0,1]","location_rts":"[3845,1083,1595]","trial_type":"two-door-navigation","trial_index":48,"time_elapsed":912385,"internal_node_id":"0.0-2.0-46.0"},{"group":"hexagon_bi","room_assignment":["red","grey","yellow","purple","green","blue"],"door_color_assignment":["black","white"],"door_generator_assignment":[1,0],"goal":4,"start":1,"action_noise":0.15,"location_history":"[1,0,5,4]","action_history":"[1,0,1]","door_history":"[0,1,0]","location_rts":"[1917,1033,1141]","trial_type":"two-door-navigation","trial_index":49,"time_elapsed":923468,"internal_node_id":"0.0-2.0-47.0"},{"group":"hexagon_bi","room_assignment":["red","grey","yellow","purple","green","blue"],"door_color_assignment":["black","white"],"door_generator_assignment":[1,0],"goal":3,"start":4,"action_noise":0.15,"location_history":"[4,3]","action_history":"[1]","door_history":"[0]","location_rts":"[13109]","trial_type":"two-door-navigation","trial_index":50,"time_elapsed":942108,"internal_node_id":"0.0-2.0-48.0"},{"group":"hexagon_bi","room_assignment":["red","grey","yellow","purple","green","blue"],"door_color_assignment":["black","white"],"door_generator_assignment":[1,0],"goal":5,"start":3,"action_noise":0.15,"location_history":"[3,4,3,2,3,4,3,2,1,0,5]","action_history":"[1,0,1,1,0,0,1,0,1,0]","door_history":"[0,1,0,0,1,1,0,1,0,1]","location_rts":"[2202,1445,1338,2061,1286,1014,2328,1581,1257,1481]","trial_type":"two-door-navigation","trial_index":51,"time_elapsed":971844,"internal_node_id":"0.0-2.0-49.0"},{"view_history":"[{\"page_index\":0,\"viewing_time\":3521}]","rt":3521,"trial_type":"instructions","trial_index":52,"time_elapsed":976365,"internal_node_id":"0.0-3.0"},{"view_history":"[{\"page_index\":0,\"viewing_time\":6283},{\"page_index\":1,\"viewing_time\":26331}]","rt":32614,"trial_type":"instructions","trial_index":53,"time_elapsed":1009980,"internal_node_id":"0.0-4.0"},{"group":"hexagon_bi","fractal_assignment":["../images/org_blu.png","../images/cyn_red.png","../images/gry_blk.png","../images/ylw_slt.png","../images/blu_wht.png","../images/pnk_blu.png"],"mutagen_generator_assignment":[0,1],"goal":4,"start":0,"action_noise":0.15,"location_history":"[0,5,0,1,2,3,4]","action_history":"[0,0,1,0,1,0]","mutagen_history":"[0,0,1,0,1,0]","location_rts":"[7749,8344,11858,4025,3629,1767]","trial_type":"fractal-mutation","trial_index":54,"time_elapsed":1057095,"internal_node_id":"0.0-5.0-0.0"},{"group":"hexagon_bi","fractal_assignment":["../images/org_blu.png","../images/cyn_red.png","../images/gry_blk.png","../images/ylw_slt.png","../images/blu_wht.png","../images/pnk_blu.png"],"mutagen_generator_assignment":[0,1],"goal":3,"start":4,"action_noise":0.15,"location_history":"[4,5,0,1,0,1,2,1,2,1,0,5,4,5,4,3]","action_history":"[1,0,1,1,0,0,0,0,0,1,1,1,1,1,0]","mutagen_history":"[1,0,1,1,0,0,0,0,0,1,1,1,1,1,0]","location_rts":"[1610,1851,2498,1718,1663,1471,1431,1580,3120,1419,1311,1420,1399,1183,1405]","trial_type":"fractal-mutation","trial_index":55,"time_elapsed":1101242,"internal_node_id":"0.0-5.0-1.0"},{"group":"hexagon_bi","fractal_assignment":["../images/org_blu.png","../images/cyn_red.png","../images/gry_blk.png","../images/ylw_slt.png","../images/blu_wht.png","../images/pnk_blu.png"],"mutagen_generator_assignment":[0,1],"goal":5,"start":3,"action_noise":0.15,"location_history":"[3,2,1,2,1,2,1,2,3,4,5]","action_history":"[1,0,0,0,0,0,0,0,1,1]","mutagen_history":"[1,0,0,0,0,0,0,0,1,1]","location_rts":"[2639,1114,2150,1117,1132,724,1199,883,1318,1297]","trial_type":"fractal-mutation","trial_index":56,"time_elapsed":1128664,"internal_node_id":"0.0-5.0-2.0"},{"group":"hexagon_bi","fractal_assignment":["../images/org_blu.png","../images/cyn_red.png","../images/gry_blk.png","../images/ylw_slt.png","../images/blu_wht.png","../images/pnk_blu.png"],"mutagen_generator_assignment":[0,1],"goal":2,"start":5,"action_noise":0.15,"location_history":"[5,0,5,0,1,2]","action_history":"[0,0,0,1,1]","mutagen_history":"[0,0,0,1,1]","location_rts":"[2152,1014,1360,899,1190]","trial_type":"fractal-mutation","trial_index":57,"time_elapsed":1143968,"internal_node_id":"0.0-5.0-3.0"},{"group":"hexagon_bi","fractal_assignment":["../images/org_blu.png","../images/cyn_red.png","../images/gry_blk.png","../images/ylw_slt.png","../images/blu_wht.png","../images/pnk_blu.png"],"mutagen_generator_assignment":[0,1],"goal":1,"start":2,"action_noise":0.15,"location_history":"[2,3,2,3,4,5,4,5,4,3,2,3,2,3,4,3,4,3,2,1]","action_history":"[1,0,1,0,1,1,1,0,0,0,1,1,1,0,0,1,0,1,1]","mutagen_history":"[1,0,1,0,1,1,1,0,0,0,1,1,1,0,0,1,0,1,1]","location_rts":"[2169,1584,2001,1737,1115,1003,1019,980,1396,1184,2863,1946,7186,1294,1288,1272,1310,844,1300]","trial_type":"fractal-mutation","trial_index":58,"time_elapsed":1200664,"internal_node_id":"0.0-5.0-4.0"},{"group":"hexagon_bi","fractal_assignment":["../images/org_blu.png","../images/cyn_red.png","../images/gry_blk.png","../images/ylw_slt.png","../images/blu_wht.png","../images/pnk_blu.png"],"mutagen_generator_assignment":[0,1],"goal":4,"start":1,"action_noise":0.15,"location_history":"[1,0,1,0,5,4]","action_history":"[1,1,1,0,1]","mutagen_history":"[1,1,1,0,1]","location_rts":"[2169,1125,1271,760,2010]","trial_type":"fractal-mutation","trial_index":59,"time_elapsed":1216695,"internal_node_id":"0.0-5.0-5.0"},{"group":"hexagon_bi","fractal_assignment":["../images/org_blu.png","../images/cyn_red.png","../images/gry_blk.png","../images/ylw_slt.png","../images/blu_wht.png","../images/pnk_blu.png"],"mutagen_generator_assignment":[0,1],"goal":1,"start":4,"action_noise":0.15,"location_history":"[4,5,4,3,2,3,4,3,2,3,4,5,4,3,2,3,2,1]","action_history":"[1,0,0,1,1,0,0,1,1,0,1,0,1,1,1,0,1]","mutagen_history":"[1,0,0,1,1,0,0,1,1,0,1,0,1,1,1,0,1]","location_rts":"[2194,1276,1124,921,2304,1174,1251,947,1362,5171,1602,943,1564,1092,2878,931,1059]","trial_type":"fractal-mutation","trial_index":60,"time_elapsed":1265627,"internal_node_id":"0.0-5.0-6.0"},{"group":"hexagon_bi","fractal_assignment":["../images/org_blu.png","../images/cyn_red.png","../images/gry_blk.png","../images/ylw_slt.png","../images/blu_wht.png","../images/pnk_blu.png"],"mutagen_generator_assignment":[0,1],"goal":5,"start":1,"action_noise":0.15,"location_history":"[1,2,1,0,1,2,1,0,5]","action_history":"[0,0,1,1,1,0,1,0]","mutagen_history":"[0,0,1,1,1,0,1,0]","location_rts":"[6278,2188,5040,3051,1925,5990,1089,1194]","trial_type":"fractal-mutation","trial_index":61,"time_elapsed":1304165,"internal_node_id":"0.0-5.0-7.0"},{"group":"hexagon_bi","fractal_assignment":["../images/org_blu.png","../images/cyn_red.png","../images/gry_blk.png","../images/ylw_slt.png","../images/blu_wht.png","../images/pnk_blu.png"],"mutagen_generator_assignment":[0,1],"goal":0,"start":5,"action_noise":0.15,"location_history":"[5,4,3,4,3,2,3,2,1,0]","action_history":"[1,0,0,0,1,1,1,0,1]","mutagen_history":"[1,0,0,0,1,1,1,0,1]","location_rts":"[19511,2753,1276,783,1105,1129,925,867,1195]","trial_type":"fractal-mutation","trial_index":62,"time_elapsed":1346824,"internal_node_id":"0.0-5.0-8.0"},{"group":"hexagon_bi","fractal_assignment":["../images/org_blu.png","../images/cyn_red.png","../images/gry_blk.png","../images/ylw_slt.png","../images/blu_wht.png","../images/pnk_blu.png"],"mutagen_generator_assignment":[0,1],"goal":2,"start":0,"action_noise":0.15,"location_history":"[0,1,2]","action_history":"[1,0]","mutagen_history":"[1,0]","location_rts":"[4066,1322]","trial_type":"fractal-mutation","trial_index":63,"time_elapsed":1357792,"internal_node_id":"0.0-5.0-9.0"},{"group":"hexagon_bi","fractal_assignment":["../images/org_blu.png","../images/cyn_red.png","../images/gry_blk.png","../images/ylw_slt.png","../images/blu_wht.png","../images/pnk_blu.png"],"mutagen_generator_assignment":[0,1],"goal":3,"start":2,"action_noise":0.15,"location_history":"[2,3]","action_history":"[1]","mutagen_history":"[1]","location_rts":"[1867]","trial_type":"fractal-mutation","trial_index":64,"time_elapsed":1364209,"internal_node_id":"0.0-5.0-10.0"},{"group":"hexagon_bi","fractal_assignment":["../images/org_blu.png","../images/cyn_red.png","../images/gry_blk.png","../images/ylw_slt.png","../images/blu_wht.png","../images/pnk_blu.png"],"mutagen_generator_assignment":[0,1],"goal":0,"start":3,"action_noise":0.15,"location_history":"[3,2,1,2,1,2,3,4,5,0]","action_history":"[1,0,0,0,0,1,0,1,0]","mutagen_history":"[1,0,0,0,0,1,0,1,0]","location_rts":"[3513,752,869,1546,1004,1021,895,1431,920]","trial_type":"fractal-mutation","trial_index":65,"time_elapsed":1388955,"internal_node_id":"0.0-5.0-11.0"},{"group":"hexagon_bi","fractal_assignment":["../images/org_blu.png","../images/cyn_red.png","../images/gry_blk.png","../images/ylw_slt.png","../images/blu_wht.png","../images/pnk_blu.png"],"mutagen_generator_assignment":[0,1],"goal":2,"start":0,"action_noise":0.15,"location_history":"[0,5,4,5,0,1,0,5,0,1,0,1,0,5,4,5,4,3,4,5,0,5,0,1,2]","action_history":"[0,1,1,0,1,1,0,1,0,1,1,1,0,0,1,1,0,0,1,1,0,0,1,0]","mutagen_history":"[0,1,1,0,1,1,0,1,0,1,1,1,0,0,1,1,0,0,1,1,0,0,1,0]","location_rts":"[2235,767,1050,1352,1091,1440,1017,1157,1607,1219,1479,2210,1383,2013,881,1341,1142,925,1024,1131,1017,1040,1268,843]","trial_type":"fractal-mutation","trial_index":66,"time_elapsed":1447949,"internal_node_id":"0.0-5.0-12.0"},{"group":"hexagon_bi","fractal_assignment":["../images/org_blu.png","../images/cyn_red.png","../images/gry_blk.png","../images/ylw_slt.png","../images/blu_wht.png","../images/pnk_blu.png"],"mutagen_generator_assignment":[0,1],"goal":5,"start":2,"action_noise":0.15,"location_history":"[2,3,2,1,2,1,0,1,2,3,4,5]","action_history":"[1,1,0,0,0,1,1,0,1,0,1]","mutagen_history":"[1,1,0,0,0,1,1,0,1,0,1]","location_rts":"[4543,1966,1499,851,10848,1478,2021,1095,6042,2967,4079]","trial_type":"fractal-mutation","trial_index":67,"time_elapsed":1500251,"internal_node_id":"0.0-5.0-13.0"},{"group":"hexagon_bi","fractal_assignment":["../images/org_blu.png","../images/cyn_red.png","../images/gry_blk.png","../images/ylw_slt.png","../images/blu_wht.png","../images/pnk_blu.png"],"mutagen_generator_assignment":[0,1],"goal":4,"start":5,"action_noise":0.15,"location_history":"[5,4]","action_history":"[1]","mutagen_history":"[1]","location_rts":"[7064]","trial_type":"fractal-mutation","trial_index":68,"time_elapsed":1511857,"internal_node_id":"0.0-5.0-14.0"},{"group":"hexagon_bi","fractal_assignment":["../images/org_blu.png","../images/cyn_red.png","../images/gry_blk.png","../images/ylw_slt.png","../images/blu_wht.png","../images/pnk_blu.png"],"mutagen_generator_assignment":[0,1],"goal":3,"start":4,"action_noise":0.15,"location_history":"[4,5,0,1,2,1,2,3]","action_history":"[1,0,0,1,0,0,1]","mutagen_history":"[1,0,0,1,0,0,1]","location_rts":"[4088,3059,2962,2528,3629,1945,1348]","trial_type":"fractal-mutation","trial_index":69,"time_elapsed":1542177,"internal_node_id":"0.0-5.0-15.0"},{"group":"hexagon_bi","fractal_assignment":["../images/org_blu.png","../images/cyn_red.png","../images/gry_blk.png","../images/ylw_slt.png","../images/blu_wht.png","../images/pnk_blu.png"],"mutagen_generator_assignment":[0,1],"goal":1,"start":3,"action_noise":0.15,"location_history":"[3,4,3,2,1]","action_history":"[0,0,1,0]","mutagen_history":"[0,0,1,0]","location_rts":"[3752,3161,2979,1924]","trial_type":"fractal-mutation","trial_index":70,"time_elapsed":1561626,"internal_node_id":"0.0-5.0-16.0"},{"group":"hexagon_bi","fractal_assignment":["../images/org_blu.png","../images/cyn_red.png","../images/gry_blk.png","../images/ylw_slt.png","../images/blu_wht.png","../images/pnk_blu.png"],"mutagen_generator_assignment":[0,1],"goal":5,"start":1,"action_noise":0.15,"location_history":"[1,2,1,2,3,4,3,4,5]","action_history":"[0,0,0,1,1,0,0,1]","mutagen_history":"[0,0,0,1,1,0,0,1]","location_rts":"[1832,1546,845,1073,1420,1807,1268,1032]","trial_type":"fractal-mutation","trial_index":71,"time_elapsed":1584233,"internal_node_id":"0.0-5.0-17.0"},{"group":"hexagon_bi","fractal_assignment":["../images/org_blu.png","../images/cyn_red.png","../images/gry_blk.png","../images/ylw_slt.png","../images/blu_wht.png","../images/pnk_blu.png"],"mutagen_generator_assignment":[0,1],"goal":4,"start":5,"action_noise":0.15,"location_history":"[5,4]","action_history":"[1]","mutagen_history":"[1]","location_rts":"[2433]","trial_type":"fractal-mutation","trial_index":72,"time_elapsed":1591214,"internal_node_id":"0.0-5.0-18.0"},{"group":"hexagon_bi","fractal_assignment":["../images/org_blu.png","../images/cyn_red.png","../images/gry_blk.png","../images/ylw_slt.png","../images/blu_wht.png","../images/pnk_blu.png"],"mutagen_generator_assignment":[0,1],"goal":0,"start":4,"action_noise":0.15,"location_history":"[4,3,4,3,2,1,2,3,4,3,4,5,0]","action_history":"[0,0,0,1,0,0,0,1,0,0,1,0]","mutagen_history":"[0,0,0,1,0,0,0,1,0,0,1,0]","location_rts":"[5813,1658,1658,2084,932,2245,1280,620,1263,1278,1144,940]","trial_type":"fractal-mutation","trial_index":73,"time_elapsed":1628041,"internal_node_id":"0.0-5.0-19.0"},{"group":"hexagon_bi","fractal_assignment":["../images/org_blu.png","../images/cyn_red.png","../images/gry_blk.png","../images/ylw_slt.png","../images/blu_wht.png","../images/pnk_blu.png"],"mutagen_generator_assignment":[0,1],"goal":1,"start":0,"action_noise":0.15,"location_history":"[0,5,4,3,4,3,4,3,2,1]","action_history":"[0,1,0,0,1,1,0,1,0]","mutagen_history":"[0,1,0,0,1,1,0,1,0]","location_rts":"[4505,1268,1770,1466,1152,1018,912,1123,1317]","trial_type":"fractal-mutation","trial_index":74,"time_elapsed":1655400,"internal_node_id":"0.0-5.0-20.0"},{"group":"hexagon_bi","fractal_assignment":["../images/org_blu.png","../images/cyn_red.png","../images/gry_blk.png","../images/ylw_slt.png","../images/blu_wht.png","../images/pnk_blu.png"],"mutagen_generator_assignment":[0,1],"goal":3,"start":1,"action_noise":0.15,"location_history":"[1,0,5,4,5,0,5,4,3]","action_history":"[1,0,1,1,0,1,1,0]","mutagen_history":"[1,0,1,1,0,1,1,0]","location_rts":"[2570,2019,1569,1401,858,1465,1499,1021]","trial_type":"fractal-mutation","trial_index":75,"time_elapsed":1679601,"internal_node_id":"0.0-5.0-21.0"},{"group":"hexagon_bi","fractal_assignment":["../images/org_blu.png","../images/cyn_red.png","../images/gry_blk.png","../images/ylw_slt.png","../images/blu_wht.png","../images/pnk_blu.png"],"mutagen_generator_assignment":[0,1],"goal":2,"start":3,"action_noise":0.15,"location_history":"[3,4,5,0,1,0,5,0,1,2]","action_history":"[0,0,0,1,1,1,0,1,0]","mutagen_history":"[0,0,0,1,1,1,0,1,0]","location_rts":"[2878,1874,1192,1020,1944,1279,576,1916,955]","trial_type":"fractal-mutation","trial_index":76,"time_elapsed":1706070,"internal_node_id":"0.0-5.0-22.0"},{"group":"hexagon_bi","fractal_assignment":["../images/org_blu.png","../images/cyn_red.png","../images/gry_blk.png","../images/ylw_slt.png","../images/blu_wht.png","../images/pnk_blu.png"],"mutagen_generator_assignment":[0,1],"goal":0,"start":2,"action_noise":0.15,"location_history":"[2,1,0]","action_history":"[0,1]","mutagen_history":"[0,1]","location_rts":"[2995,1065]","trial_type":"fractal-mutation","trial_index":77,"time_elapsed":1715706,"internal_node_id":"0.0-5.0-23.0"},{"group":"hexagon_bi","fractal_assignment":["../images/org_blu.png","../images/cyn_red.png","../images/gry_blk.png","../images/ylw_slt.png","../images/blu_wht.png","../images/pnk_blu.png"],"mutagen_generator_assignment":[0,1],"goal":3,"start":0,"action_noise":0.15,"location_history":"[0,1,2,3]","action_history":"[1,0,1]","mutagen_history":"[1,0,1]","location_rts":"[2848,1793,1007]","trial_type":"fractal-mutation","trial_index":78,"time_elapsed":1727981,"internal_node_id":"0.0-5.0-24.0"},{"group":"hexagon_bi","fractal_assignment":["../images/org_blu.png","../images/cyn_red.png","../images/gry_blk.png","../images/ylw_slt.png","../images/blu_wht.png","../images/pnk_blu.png"],"mutagen_generator_assignment":[0,1],"goal":1,"start":3,"action_noise":0.15,"location_history":"[3,2,3,2,1]","action_history":"[0,1,1,0]","mutagen_history":"[0,1,1,0]","location_rts":"[1786,1444,1551,2141]","trial_type":"fractal-mutation","trial_index":79,"time_elapsed":1742550,"internal_node_id":"0.0-5.0-25.0"},{"group":"hexagon_bi","fractal_assignment":["../images/org_blu.png","../images/cyn_red.png","../images/gry_blk.png","../images/ylw_slt.png","../images/blu_wht.png","../images/pnk_blu.png"],"mutagen_generator_assignment":[0,1],"goal":2,"start":1,"action_noise":0.15,"location_history":"[1,2]","action_history":"[0]","mutagen_history":"[0]","location_rts":"[19128]","trial_type":"fractal-mutation","trial_index":80,"time_elapsed":1766218,"internal_node_id":"0.0-5.0-26.0"},{"group":"hexagon_bi","fractal_assignment":["../images/org_blu.png","../images/cyn_red.png","../images/gry_blk.png","../images/ylw_slt.png","../images/blu_wht.png","../images/pnk_blu.png"],"mutagen_generator_assignment":[0,1],"goal":5,"start":2,"action_noise":0.15,"location_history":"[2,3,2,1,0,5]","action_history":"[1,1,0,0,1]","mutagen_history":"[1,1,0,0,1]","location_rts":"[14877,2218,1122,1075,1097]","trial_type":"fractal-mutation","trial_index":81,"time_elapsed":1795290,"internal_node_id":"0.0-5.0-27.0"},{"group":"hexagon_bi","fractal_assignment":["../images/org_blu.png","../images/cyn_red.png","../images/gry_blk.png","../images/ylw_slt.png","../images/blu_wht.png","../images/pnk_blu.png"],"mutagen_generator_assignment":[0,1],"goal":4,"start":5,"action_noise":0.15,"location_history":"[5,0,5,4]","action_history":"[0,0,1]","mutagen_history":"[0,0,1]","location_rts":"[2165,1348,1115]","trial_type":"fractal-mutation","trial_index":82,"time_elapsed":1806524,"internal_node_id":"0.0-5.0-28.0"},{"group":"hexagon_bi","fractal_assignment":["../images/org_blu.png","../images/cyn_red.png","../images/gry_blk.png","../images/ylw_slt.png","../images/blu_wht.png","../images/pnk_blu.png"],"mutagen_generator_assignment":[0,1],"goal":5,"start":4,"action_noise":0.15,"location_history":"[4,5]","action_history":"[1]","mutagen_history":"[1]","location_rts":"[1765]","trial_type":"fractal-mutation","trial_index":83,"time_elapsed":1812833,"internal_node_id":"0.0-5.0-29.0"},{"group":"hexagon_bi","fractal_assignment":["../images/org_blu.png","../images/cyn_red.png","../images/gry_blk.png","../images/ylw_slt.png","../images/blu_wht.png","../images/pnk_blu.png"],"mutagen_generator_assignment":[0,1],"goal":3,"start":5,"action_noise":0.15,"location_history":"[5,4,3]","action_history":"[1,0]","mutagen_history":"[1,0]","location_rts":"[3252,653]","trial_type":"fractal-mutation","trial_index":84,"time_elapsed":1822317,"internal_node_id":"0.0-5.0-30.0"},{"group":"hexagon_bi","fractal_assignment":["../images/org_blu.png","../images/cyn_red.png","../images/gry_blk.png","../images/ylw_slt.png","../images/blu_wht.png","../images/pnk_blu.png"],"mutagen_generator_assignment":[0,1],"goal":0,"start":3,"action_noise":0.15,"location_history":"[3,4,5,4,5,4,3,4,5,4,5,4,5,4,3,2,1,0]","action_history":"[0,1,0,1,1,0,0,0,1,1,1,1,0,0,1,0,1]","mutagen_history":"[0,1,0,1,1,0,0,0,1,1,1,1,0,0,1,0,1]","location_rts":"[2611,1577,749,1303,839,720,797,1018,1135,909,1223,915,430,820,1733,972,1302]","trial_type":"fractal-mutation","trial_index":85,"time_elapsed":1862451,"internal_node_id":"0.0-5.0-31.0"},{"group":"hexagon_bi","fractal_assignment":["../images/org_blu.png","../images/cyn_red.png","../images/gry_blk.png","../images/ylw_slt.png","../images/blu_wht.png","../images/pnk_blu.png"],"mutagen_generator_assignment":[0,1],"goal":4,"start":0,"action_noise":0.15,"location_history":"[0,1,0,5,4]","action_history":"[1,1,0,1]","mutagen_history":"[1,1,0,1]","location_rts":"[2750,2524,1072,1628]","trial_type":"fractal-mutation","trial_index":86,"time_elapsed":1878085,"internal_node_id":"0.0-5.0-32.0"},{"group":"hexagon_bi","fractal_assignment":["../images/org_blu.png","../images/cyn_red.png","../images/gry_blk.png","../images/ylw_slt.png","../images/blu_wht.png","../images/pnk_blu.png"],"mutagen_generator_assignment":[0,1],"goal":1,"start":4,"action_noise":0.15,"location_history":"[4,5,0,1]","action_history":"[1,0,1]","mutagen_history":"[1,0,1]","location_rts":"[2849,950,1494]","trial_type":"fractal-mutation","trial_index":87,"time_elapsed":1889992,"internal_node_id":"0.0-5.0-33.0"},{"group":"hexagon_bi","fractal_assignment":["../images/org_blu.png","../images/cyn_red.png","../images/gry_blk.png","../images/ylw_slt.png","../images/blu_wht.png","../images/pnk_blu.png"],"mutagen_generator_assignment":[0,1],"goal":2,"start":1,"action_noise":0.15,"location_history":"[1,2]","action_history":"[0]","mutagen_history":"[0]","location_rts":"[2208]","trial_type":"fractal-mutation","trial_index":88,"time_elapsed":1896735,"internal_node_id":"0.0-5.0-34.0"},{"group":"hexagon_bi","fractal_assignment":["../images/org_blu.png","../images/cyn_red.png","../images/gry_blk.png","../images/ylw_slt.png","../images/blu_wht.png","../images/pnk_blu.png"],"mutagen_generator_assignment":[0,1],"goal":0,"start":2,"action_noise":0.15,"location_history":"[2,3,4,5,0]","action_history":"[1,0,1,0]","mutagen_history":"[1,0,1,0]","location_rts":"[2328,1898,982,1459]","trial_type":"fractal-mutation","trial_index":89,"time_elapsed":1911047,"internal_node_id":"0.0-5.0-35.0"},{"group":"hexagon_bi","fractal_assignment":["../images/org_blu.png","../images/cyn_red.png","../images/gry_blk.png","../images/ylw_slt.png","../images/blu_wht.png","../images/pnk_blu.png"],"mutagen_generator_assignment":[0,1],"goal":5,"start":0,"action_noise":0.15,"location_history":"[0,5]","action_history":"[0]","mutagen_history":"[0]","location_rts":"[10048]","trial_type":"fractal-mutation","trial_index":90,"time_elapsed":1925630,"internal_node_id":"0.0-5.0-36.0"},{"group":"hexagon_bi","fractal_assignment":["../images/org_blu.png","../images/cyn_red.png","../images/gry_blk.png","../images/ylw_slt.png","../images/blu_wht.png","../images/pnk_blu.png"],"mutagen_generator_assignment":[0,1],"goal":2,"start":5,"action_noise":0.15,"location_history":"[5,4,5,4,5,4,5,4,3,4,3,2]","action_history":"[1,0,1,1,0,1,1,0,0,0,1]","mutagen_history":"[1,0,1,1,0,1,1,0,0,0,1]","location_rts":"[5510,649,1529,1258,669,1262,1564,386,472,665,526]","trial_type":"fractal-mutation","trial_index":91,"time_elapsed":1955012,"internal_node_id":"0.0-5.0-37.0"},{"group":"hexagon_bi","fractal_assignment":["../images/org_blu.png","../images/cyn_red.png","../images/gry_blk.png","../images/ylw_slt.png","../images/blu_wht.png","../images/pnk_blu.png"],"mutagen_generator_assignment":[0,1],"goal":1,"start":2,"action_noise":0.15,"location_history":"[2,3,2,1]","action_history":"[1,0,0]","mutagen_history":"[1,0,0]","location_rts":"[3131,785,911]","trial_type":"fractal-mutation","trial_index":92,"time_elapsed":1966440,"internal_node_id":"0.0-5.0-38.0"},{"group":"hexagon_bi","fractal_assignment":["../images/org_blu.png","../images/cyn_red.png","../images/gry_blk.png","../images/ylw_slt.png","../images/blu_wht.png","../images/pnk_blu.png"],"mutagen_generator_assignment":[0,1],"goal":4,"start":1,"action_noise":0.15,"location_history":"[1,2,3,2,1,2,3,2,3,2,1,0,1,2,3,4]","action_history":"[0,1,0,0,1,0,1,1,0,0,1,1,0,1,0]","mutagen_history":"[0,1,0,0,1,0,1,1,0,0,1,1,0,1,0]","location_rts":"[3820,1060,1780,1085,446,1339,670,1270,878,1062,1574,1503,941,1118,519]","trial_type":"fractal-mutation","trial_index":93,"time_elapsed":2004536,"internal_node_id":"0.0-5.0-39.0"},{"group":"hexagon_bi","fractal_assignment":["../images/org_blu.png","../images/cyn_red.png","../images/gry_blk.png","../images/ylw_slt.png","../images/blu_wht.png","../images/pnk_blu.png"],"mutagen_generator_assignment":[0,1],"goal":3,"start":4,"action_noise":0.15,"location_history":"[4,3]","action_history":"[0]","mutagen_history":"[0]","location_rts":"[2922]","trial_type":"fractal-mutation","trial_index":94,"time_elapsed":2011998,"internal_node_id":"0.0-5.0-40.0"},{"group":"hexagon_bi","fractal_assignment":["../images/org_blu.png","../images/cyn_red.png","../images/gry_blk.png","../images/ylw_slt.png","../images/blu_wht.png","../images/pnk_blu.png"],"mutagen_generator_assignment":[0,1],"goal":5,"start":3,"action_noise":0.15,"location_history":"[3,2,1,2,3,4,5]","action_history":"[1,0,0,1,1,0]","mutagen_history":"[1,0,0,1,1,0]","location_rts":"[1772,2207,1000,552,1109,2106]","trial_type":"fractal-mutation","trial_index":95,"time_elapsed":2030467,"internal_node_id":"0.0-5.0-41.0"},{"group":"hexagon_bi","fractal_assignment":["../images/org_blu.png","../images/cyn_red.png","../images/gry_blk.png","../images/ylw_slt.png","../images/blu_wht.png","../images/pnk_blu.png"],"mutagen_generator_assignment":[0,1],"goal":3,"start":5,"action_noise":0.15,"location_history":"[5,4,3]","action_history":"[1,1]","mutagen_history":"[1,1]","location_rts":"[1844,766]","trial_type":"fractal-mutation","trial_index":96,"time_elapsed":2038650,"internal_node_id":"0.0-5.0-42.0"},{"group":"hexagon_bi","fractal_assignment":["../images/org_blu.png","../images/cyn_red.png","../images/gry_blk.png","../images/ylw_slt.png","../images/blu_wht.png","../images/pnk_blu.png"],"mutagen_generator_assignment":[0,1],"goal":0,"start":3,"action_noise":0.15,"location_history":"[3,2,1,2,3,2,3,4,3,2,1,0]","action_history":"[1,0,0,1,0,1,1,0,0,0,1]","mutagen_history":"[1,0,0,1,0,1,1,0,0,0,1]","location_rts":"[2376,404,842,922,476,1345,984,670,839,383,470]","trial_type":"fractal-mutation","trial_index":97,"time_elapsed":2063264,"internal_node_id":"0.0-5.0-43.0"},{"group":"hexagon_bi","fractal_assignment":["../images/org_blu.png","../images/cyn_red.png","../images/gry_blk.png","../images/ylw_slt.png","../images/blu_wht.png","../images/pnk_blu.png"],"mutagen_generator_assignment":[0,1],"goal":2,"start":0,"action_noise":0.15,"location_history":"[0,5,0,1,2]","action_history":"[0,1,1,0]","mutagen_history":"[0,1,1,0]","location_rts":"[2832,993,830,1739]","trial_type":"fractal-mutation","trial_index":98,"time_elapsed":2077307,"internal_node_id":"0.0-5.0-44.0"},{"group":"hexagon_bi","fractal_assignment":["../images/org_blu.png","../images/cyn_red.png","../images/gry_blk.png","../images/ylw_slt.png","../images/blu_wht.png","../images/pnk_blu.png"],"mutagen_generator_assignment":[0,1],"goal":4,"start":2,"action_noise":0.15,"location_history":"[2,3,2,1,0,1,2,1,2,3,4]","action_history":"[0,1,0,1,1,0,0,0,1,0]","mutagen_history":"[0,1,0,1,1,0,0,0,1,0]","location_rts":"[1865,797,1697,741,833,917,868,742,800,1797]","trial_type":"fractal-mutation","trial_index":99,"time_elapsed":2102207,"internal_node_id":"0.0-5.0-45.0"},{"group":"hexagon_bi","fractal_assignment":["../images/org_blu.png","../images/cyn_red.png","../images/gry_blk.png","../images/ylw_slt.png","../images/blu_wht.png","../images/pnk_blu.png"],"mutagen_generator_assignment":[0,1],"goal":1,"start":4,"action_noise":0.15,"location_history":"[4,5,4,3,4,3,2,1]","action_history":"[1,1,0,0,0,1,1]","mutagen_history":"[1,1,0,0,0,1,1]","location_rts":"[7700,2277,762,730,1381,420,2391]","trial_type":"fractal-mutation","trial_index":100,"time_elapsed":2128611,"internal_node_id":"0.0-5.0-46.0"},{"group":"hexagon_bi","fractal_assignment":["../images/org_blu.png","../images/cyn_red.png","../images/gry_blk.png","../images/ylw_slt.png","../images/blu_wht.png","../images/pnk_blu.png"],"mutagen_generator_assignment":[0,1],"goal":4,"start":1,"action_noise":0.15,"location_history":"[1,2,1,0,1,2,3,4]","action_history":"[0,0,1,1,0,0,0]","mutagen_history":"[0,0,1,1,0,0,0]","location_rts":"[2327,1302,1821,1460,1125,1386,779]","trial_type":"fractal-mutation","trial_index":101,"time_elapsed":2149569,"internal_node_id":"0.0-5.0-47.0"},{"group":"hexagon_bi","fractal_assignment":["../images/org_blu.png","../images/cyn_red.png","../images/gry_blk.png","../images/ylw_slt.png","../images/blu_wht.png","../images/pnk_blu.png"],"mutagen_generator_assignment":[0,1],"goal":3,"start":4,"action_noise":0.15,"location_history":"[4,5,0,5,4,5,4,3]","action_history":"[1,0,0,1,1,1,0]","mutagen_history":"[1,0,0,1,1,1,0]","location_rts":"[2219,540,750,1678,1152,747,706]","trial_type":"fractal-mutation","trial_index":102,"time_elapsed":2168106,"internal_node_id":"0.0-5.0-48.0"},{"group":"hexagon_bi","fractal_assignment":["../images/org_blu.png","../images/cyn_red.png","../images/gry_blk.png","../images/ylw_slt.png","../images/blu_wht.png","../images/pnk_blu.png"],"mutagen_generator_assignment":[0,1],"goal":5,"start":3,"action_noise":0.15,"location_history":"[3,4,3,2,1,2,3,4,3,2,1,2,3,2,3,4,5]","action_history":"[1,0,1,0,1,1,0,0,1,0,1,1,1,1,0,1]","mutagen_history":"[1,0,1,0,1,1,0,0,1,0,1,1,1,1,0,1]","location_rts":"[1970,1940,1256,1333,890,1117,1132,1081,978,1216,973,818,1010,615,451,1187]","trial_type":"fractal-mutation","trial_index":103,"time_elapsed":2206141,"internal_node_id":"0.0-5.0-49.0"},{"view_history":"[{\"page_index\":0,\"viewing_time\":8908}]","rt":8911,"trial_type":"instructions","trial_index":104,"time_elapsed":2216054,"internal_node_id":"0.0-6.0"},{"rt":61638,"responses":"{\"Q0\":\"That second experiment was pretty tough for me. I got a little better as I went on but I would often get stuck and I have to cycle through quite a few patterns. Interesting research!\"}","trial_type":"survey-text","trial_index":105,"time_elapsed":2278698,"internal_node_id":"0.0-7.0"}]