[{"view_history":"[{\"page_index\":0,\"viewing_time\":1184184},{\"page_index\":1,\"viewing_time\":50793},{\"page_index\":2,\"viewing_time\":23996},{\"page_index\":3,\"viewing_time\":4151}]","rt":1263125,"trial_type":"instructions","trial_index":0,"time_elapsed":1263125,"internal_node_id":"0.0-0.0"},{"view_history":"[{\"page_index\":0,\"viewing_time\":1360},{\"page_index\":1,\"viewing_time\":18628}]","rt":19988,"trial_type":"instructions","trial_index":1,"time_elapsed":1284117,"internal_node_id":"0.0-1.0"},{"group":"hexagon_tri","room_assignment":["blue","yellow","grey","green","purple","red"],"door_color_assignment":["black","white"],"door_generator_assignment":[1,0],"goal":4,"start":0,"action_noise":0.15,"location_history":"[0,5,0,1,3,2,1,5,4]","action_history":"[0,1,1,0,0,0,1,0]","door_history":"[1,0,0,1,1,1,0,1]","location_rts":"[1336,1310,561,696,383,814,709,1027]","trial_type":"two-door-navigation","trial_index":2,"time_elapsed":1302974,"internal_node_id":"0.0-2.0-0.0"},{"group":"hexagon_tri","room_assignment":["blue","yellow","grey","green","purple","red"],"door_color_assignment":["black","white"],"door_generator_assignment":[1,0],"goal":3,"start":4,"action_noise":0.15,"location_history":"[4,0,5,0,5,4,2,3]","action_history":"[0,1,1,0,0,1,1]","door_history":"[1,0,0,1,1,0,0]","location_rts":"[1326,375,342,352,644,398,261]","trial_type":"two-door-navigation","trial_index":3,"time_elapsed":1317509,"internal_node_id":"0.0-2.0-1.0"},{"group":"hexagon_tri","room_assignment":["blue","yellow","grey","green","purple","red"],"door_color_assignment":["black","white"],"door_generator_assignment":[1,0],"goal":5,"start":3,"action_noise":0.15,"location_history":"[3,4,2,1,5]","action_history":"[1,1,0,1]","door_history":"[0,0,1,0]","location_rts":"[3674,334,628,316]","trial_type":"two-door-navigation","trial_index":4,"time_elapsed":1330196,"internal_node_id":"0.0-2.0-2.0"},{"group":"hexagon_tri","room_assignment":["blue","yellow","grey","green","purple","red"],"door_color_assignment":["black","white"],"door_generator_assignment":[1,0],"goal":2,"start":5,"action_noise":0.15,"location_history":"[5,0,1,5,0,5,4,2]","action_history":"[1,1,1,1,0,0,1]","door_history":"[0,0,0,0,1,1,0]","location_rts":"[777,371,309,327,328,343,274]","trial_type":"two-door-navigation","trial_index":5,"time_elapsed":1343823,"internal_node_id":"0.0-2.0-3.0"},{"group":"hexagon_tri","room_assignment":["blue","yellow","grey","green","purple","red"],"door_color_assignment":["black","white"],"door_generator_assignment":[1,0],"goal":1,"start":2,"action_noise":0.15,"location_history":"[2,3,2,1]","action_history":"[1,0,0]","door_history":"[0,1,1]","location_rts":"[624,313,650]","trial_type":"two-door-navigation","trial_index":6,"time_elapsed":1352044,"internal_node_id":"0.0-2.0-4.0"},{"group":"hexagon_tri","room_assignment":["blue","yellow","grey","green","purple","red"],"door_color_assignment":["black","white"],"door_generator_assignment":[1,0],"goal":4,"start":1,"action_noise":0.15,"location_history":"[1,3,2,1,5,0,5,0,5,0,5,0,5,4]","action_history":"[1,0,0,1,1,0,1,1,1,0,0,0,0]","door_history":"[0,1,1,0,0,1,0,0,0,1,1,1,1]","location_rts":"[1080,250,278,299,308,474,827,374,649,756,323,365,372]","trial_type":"two-door-navigation","trial_index":7,"time_elapsed":1375622,"internal_node_id":"0.0-2.0-5.0"},{"group":"hexagon_tri","room_assignment":["blue","yellow","grey","green","purple","red"],"door_color_assignment":["black","white"],"door_generator_assignment":[1,0],"goal":1,"start":4,"action_noise":0.15,"location_history":"[4,0,5,4,2,3,2,1]","action_history":"[1,0,0,1,1,0,0]","door_history":"[0,1,1,0,0,1,1]","location_rts":"[968,245,257,234,294,293,309]","trial_type":"two-door-navigation","trial_index":8,"time_elapsed":1389151,"internal_node_id":"0.0-2.0-6.0"},{"group":"hexagon_tri","room_assignment":["blue","yellow","grey","green","purple","red"],"door_color_assignment":["black","white"],"door_generator_assignment":[1,0],"goal":5,"start":1,"action_noise":0.15,"location_history":"[1,3,4,0,5]","action_history":"[0,1,1,0]","door_history":"[1,0,0,1]","location_rts":"[3841,243,321,329]","trial_type":"two-door-navigation","trial_index":9,"time_elapsed":1401634,"internal_node_id":"0.0-2.0-7.0"},{"group":"hexagon_tri","room_assignment":["blue","yellow","grey","green","purple","red"],"door_color_assignment":["black","white"],"door_generator_assignment":[1,0],"goal":0,"start":5,"action_noise":0.15,"location_history":"[5,0]","action_history":"[1]","door_history":"[0]","location_rts":"[2249]","trial_type":"two-door-navigation","trial_index":10,"time_elapsed":1408438,"internal_node_id":"0.0-2.0-8.0"},{"group":"hexagon_tri","room_assignment":["blue","yellow","grey","green","purple","red"],"door_color_assignment":["black","white"],"door_generator_assignment":[1,0],"goal":2,"start":0,"action_noise":0.15,"location_history":"[0,1,5,4,0,1,5,4,0,5,4,2]","action_history":"[1,0,0,0,1,1,0,0,0,1,1]","door_history":"[0,1,1,1,0,0,1,1,1,0,0]","location_rts":"[1006,34,259,285,496,298,310,299,347,302,374]","trial_type":"two-door-navigation","trial_index":11,"time_elapsed":1427587,"internal_node_id":"0.0-2.0-9.0"},{"group":"hexagon_tri","room_assignment":["blue","yellow","grey","green","purple","red"],"door_color_assignment":["black","white"],"door_generator_assignment":[1,0],"goal":3,"start":2,"action_noise":0.15,"location_history":"[2,1,5,0,1,3]","action_history":"[0,1,1,1,0]","door_history":"[1,0,0,0,1]","location_rts":"[1516,459,1338,315,235]","trial_type":"two-door-navigation","trial_index":12,"time_elapsed":1440207,"internal_node_id":"0.0-2.0-10.0"},{"group":"hexagon_tri","room_assignment":["blue","yellow","grey","green","purple","red"],"door_color_assignment":["black","white"],"door_generator_assignment":[1,0],"goal":0,"start":3,"action_noise":0.15,"location_history":"[3,4,2,3,2,1,3,4,2,3,4,2,3,2,1,3,2,3,4,2,3,4,2,3,2,3,2,1,5,0]","action_history":"[1,1,1,0,0,0,1,1,1,1,1,1,0,0,0,0,1,1,1,1,1,0,0,1,1,0,0,1,0]","door_history":"[0,0,0,1,1,1,0,0,0,0,0,0,1,1,1,1,0,0,0,0,0,1,1,0,0,1,1,0,1]","location_rts":"[1375,254,280,214,234,297,140,377,293,273,390,326,307,393,293,322,693,29,284,339,315,296,436,363,355,1048,938,346,303]","trial_type":"two-door-navigation","trial_index":13,"time_elapsed":1485934,"internal_node_id":"0.0-2.0-11.0"},{"group":"hexagon_tri","room_assignment":["blue","yellow","grey","green","purple","red"],"door_color_assignment":["black","white"],"door_generator_assignment":[1,0],"goal":2,"start":0,"action_noise":0.15,"location_history":"[0,5,4,2]","action_history":"[0,0,0]","door_history":"[1,1,1]","location_rts":"[4813,1390,22893]","trial_type":"two-door-navigation","trial_index":14,"time_elapsed":1521713,"internal_node_id":"0.0-2.0-12.0"},{"group":"hexagon_tri","room_assignment":["blue","yellow","grey","green","purple","red"],"door_color_assignment":["black","white"],"door_generator_assignment":[1,0],"goal":5,"start":2,"action_noise":0.15,"location_history":"[2,3,4,0,1,3,2,1,5]","action_history":"[1,1,1,1,1,0,0,1]","door_history":"[0,0,0,0,0,1,1,0]","location_rts":"[10400,304,1034,398,542,638,235,431]","trial_type":"two-door-navigation","trial_index":15,"time_elapsed":1547662,"internal_node_id":"0.0-2.0-13.0"},{"group":"hexagon_tri","room_assignment":["blue","yellow","grey","green","purple","red"],"door_color_assignment":["black","white"],"door_generator_assignment":[1,0],"goal":4,"start":5,"action_noise":0.15,"location_history":"[5,0,1,5,0,1,5,4]","action_history":"[1,0,1,1,1,0,0]","door_history":"[0,1,0,0,0,1,1]","location_rts":"[1291,694,486,424,618,448,143]","trial_type":"two-door-navigation","trial_index":16,"time_elapsed":1562741,"internal_node_id":"0.0-2.0-14.0"},{"group":"hexagon_tri","room_assignment":["blue","yellow","grey","green","purple","red"],"door_color_assignment":["black","white"],"door_generator_assignment":[1,0],"goal":3,"start":4,"action_noise":0.15,"location_history":"[4,2,1,3]","action_history":"[1,0,0]","door_history":"[0,1,1]","location_rts":"[2714,270,251]","trial_type":"two-door-navigation","trial_index":17,"time_elapsed":1572648,"internal_node_id":"0.0-2.0-15.0"},{"group":"hexagon_tri","room_assignment":["blue","yellow","grey","green","purple","red"],"door_color_assignment":["black","white"],"door_generator_assignment":[1,0],"goal":1,"start":3,"action_noise":0.15,"location_history":"[3,2,3,4,2,3,4,2,1]","action_history":"[0,1,1,1,1,0,0,0]","door_history":"[1,0,0,0,0,1,1,1]","location_rts":"[3595,1029,287,316,305,216,255,297]","trial_type":"two-door-navigation","trial_index":18,"time_elapsed":1590947,"internal_node_id":"0.0-2.0-16.0"},{"group":"hexagon_tri","room_assignment":["blue","yellow","grey","green","purple","red"],"door_color_assignment":["black","white"],"door_generator_assignment":[1,0],"goal":5,"start":1,"action_noise":0.15,"location_history":"[1,3,4,0,1,5]","action_history":"[0,1,1,1,1]","door_history":"[1,0,0,0,0]","location_rts":"[4569,732,284,370,221]","trial_type":"two-door-navigation","trial_index":19,"time_elapsed":1605955,"internal_node_id":"0.0-2.0-17.0"},{"group":"hexagon_tri","room_assignment":["blue","yellow","grey","green","purple","red"],"door_color_assignment":["black","white"],"door_generator_assignment":[1,0],"goal":4,"start":5,"action_noise":0.15,"location_history":"[5,0,5,0,1,5,0,5,4]","action_history":"[1,0,1,1,1,0,0,0]","door_history":"[0,1,0,0,0,1,1,1]","location_rts":"[1260,299,803,351,305,280,93,136]","trial_type":"two-door-navigation","trial_index":20,"time_elapsed":1621445,"internal_node_id":"0.0-2.0-18.0"},{"group":"hexagon_tri","room_assignment":["blue","yellow","grey","green","purple","red"],"door_color_assignment":["black","white"],"door_generator_assignment":[1,0],"goal":0,"start":4,"action_noise":0.15,"location_history":"[4,0]","action_history":"[1]","door_history":"[0]","location_rts":"[2319]","trial_type":"two-door-navigation","trial_index":21,"time_elapsed":1628351,"internal_node_id":"0.0-2.0-19.0"},{"group":"hexagon_tri","room_assignment":["blue","yellow","grey","green","purple","red"],"door_color_assignment":["black","white"],"door_generator_assignment":[1,0],"goal":1,"start":0,"action_noise":0.15,"location_history":"[0,5,4,2,3,2,1]","action_history":"[0,0,1,1,0,0]","door_history":"[1,1,0,0,1,1]","location_rts":"[845,393,283,156,225,285]","trial_type":"two-door-navigation","trial_index":22,"time_elapsed":1640384,"internal_node_id":"0.0-2.0-20.0"},{"group":"hexagon_tri","room_assignment":["blue","yellow","grey","green","purple","red"],"door_color_assignment":["black","white"],"door_generator_assignment":[1,0],"goal":3,"start":1,"action_noise":0.15,"location_history":"[1,5,0,5,4,0,1,5,4,0,5,4,0,1,5,0,1,3]","action_history":"[1,1,0,0,0,0,1,0,0,0,0,0,0,1,1,1,0]","door_history":"[0,0,1,1,1,1,0,1,1,1,1,1,1,0,0,0,1]","location_rts":"[1708,341,218,89,304,249,822,301,107,171,129,283,348,187,295,1011,219]","trial_type":"two-door-navigation","trial_index":23,"time_elapsed":1668656,"internal_node_id":"0.0-2.0-21.0"},{"group":"hexagon_tri","room_assignment":["blue","yellow","grey","green","purple","red"],"door_color_assignment":["black","white"],"door_generator_assignment":[1,0],"goal":2,"start":3,"action_noise":0.15,"location_history":"[3,4,0,5,4,2]","action_history":"[1,0,0,0,1]","door_history":"[0,1,1,1,0]","location_rts":"[2452,187,448,110,630]","trial_type":"two-door-navigation","trial_index":24,"time_elapsed":1681290,"internal_node_id":"0.0-2.0-22.0"},{"group":"hexagon_tri","room_assignment":["blue","yellow","grey","green","purple","red"],"door_color_assignment":["black","white"],"door_generator_assignment":[1,0],"goal":0,"start":2,"action_noise":0.15,"location_history":"[2,1,5,4,2,3,4,2,3,4,2,3,2,1,3,2,1,3,4,2,1,3,4,2,1,5,0]","action_history":"[1,1,0,0,0,1,1,1,1,1,1,0,0,0,0,0,1,0,1,0,0,1,1,1,1,0]","door_history":"[0,0,1,1,1,0,0,0,0,0,0,1,1,1,1,1,0,1,0,1,1,0,0,0,0,1]","location_rts":"[2293,356,649,1442,171,362,350,324,2017,1268,341,389,229,243,236,263,272,260,719,169,32,40,471,331,233,66]","trial_type":"two-door-navigation","trial_index":25,"time_elapsed":1725762,"internal_node_id":"0.0-2.0-23.0"},{"group":"hexagon_tri","room_assignment":["blue","yellow","grey","green","purple","red"],"door_color_assignment":["black","white"],"door_generator_assignment":[1,0],"goal":3,"start":0,"action_noise":0.15,"location_history":"[0,1,3]","action_history":"[1,0]","door_history":"[0,1]","location_rts":"[5002,2920]","trial_type":"two-door-navigation","trial_index":26,"time_elapsed":1739303,"internal_node_id":"0.0-2.0-24.0"},{"group":"hexagon_tri","room_assignment":["blue","yellow","grey","green","purple","red"],"door_color_assignment":["black","white"],"door_generator_assignment":[1,0],"goal":1,"start":3,"action_noise":0.15,"location_history":"[3,4,0,5,0,1]","action_history":"[1,0,0,1,0]","door_history":"[0,1,1,0,1]","location_rts":"[2152,829,254,185,327]","trial_type":"two-door-navigation","trial_index":27,"time_elapsed":1751774,"internal_node_id":"0.0-2.0-25.0"},{"group":"hexagon_tri","room_assignment":["blue","yellow","grey","green","purple","red"],"door_color_assignment":["black","white"],"door_generator_assignment":[1,0],"goal":2,"start":1,"action_noise":0.15,"location_history":"[1,3,2]","action_history":"[0,1]","door_history":"[1,0]","location_rts":"[9248,1199]","trial_type":"two-door-navigation","trial_index":28,"time_elapsed":1767839,"internal_node_id":"0.0-2.0-26.0"},{"group":"hexagon_tri","room_assignment":["blue","yellow","grey","green","purple","red"],"door_color_assignment":["black","white"],"door_generator_assignment":[1,0],"goal":5,"start":2,"action_noise":0.15,"location_history":"[2,3,4,2,3,4,0,5]","action_history":"[1,1,1,1,1,0,0]","door_history":"[0,0,0,0,0,1,1]","location_rts":"[668,396,499,294,144,703,4613]","trial_type":"two-door-navigation","trial_index":29,"time_elapsed":1786037,"internal_node_id":"0.0-2.0-27.0"},{"group":"hexagon_tri","room_assignment":["blue","yellow","grey","green","purple","red"],"door_color_assignment":["black","white"],"door_generator_assignment":[1,0],"goal":4,"start":5,"action_noise":0.15,"location_history":"[5,0,1,3,2,1,3,2,3,4]","action_history":"[1,1,0,0,0,0,0,1,1]","door_history":"[0,0,1,1,1,1,1,0,0]","location_rts":"[3140,502,731,365,285,526,583,1099,649]","trial_type":"two-door-navigation","trial_index":30,"time_elapsed":1806846,"internal_node_id":"0.0-2.0-28.0"},{"group":"hexagon_tri","room_assignment":["blue","yellow","grey","green","purple","red"],"door_color_assignment":["black","white"],"door_generator_assignment":[1,0],"goal":5,"start":4,"action_noise":0.15,"location_history":"[4,2,3,4,2,1,5]","action_history":"[1,1,1,1,0,0]","door_history":"[0,0,0,0,1,1]","location_rts":"[1296,406,606,1111,799,484]","trial_type":"two-door-navigation","trial_index":31,"time_elapsed":1821414,"internal_node_id":"0.0-2.0-29.0"},{"group":"hexagon_tri","room_assignment":["blue","yellow","grey","green","purple","red"],"door_color_assignment":["black","white"],"door_generator_assignment":[1,0],"goal":3,"start":5,"action_noise":0.15,"location_history":"[5,4,2,3]","action_history":"[0,1,1]","door_history":"[1,0,0]","location_rts":"[1341,727,660]","trial_type":"two-door-navigation","trial_index":32,"time_elapsed":1830868,"internal_node_id":"0.0-2.0-30.0"},{"group":"hexagon_tri","room_assignment":["blue","yellow","grey","green","purple","red"],"door_color_assignment":["black","white"],"door_generator_assignment":[1,0],"goal":0,"start":3,"action_noise":0.15,"location_history":"[3,4,2,1,3,2,1,3,4,2,3,2,1,3,2,3,4,0]","action_history":"[1,1,0,0,0,0,0,1,1,0,0,0,0,1,1,1,0]","door_history":"[0,0,1,1,1,1,1,0,0,1,1,1,1,0,0,0,1]","location_rts":"[1878,1208,300,301,149,90,312,6,153,38,481,17,336,314,18,74,911]","trial_type":"two-door-navigation","trial_index":33,"time_elapsed":1858980,"internal_node_id":"0.0-2.0-31.0"},{"group":"hexagon_tri","room_assignment":["blue","yellow","grey","green","purple","red"],"door_color_assignment":["black","white"],"door_generator_assignment":[1,0],"goal":4,"start":0,"action_noise":0.15,"location_history":"[0,5,0,1,5,4]","action_history":"[0,1,1,1,0]","door_history":"[1,0,0,0,1]","location_rts":"[2789,2388,700,324,376]","trial_type":"two-door-navigation","trial_index":34,"time_elapsed":1874378,"internal_node_id":"0.0-2.0-32.0"},{"group":"hexagon_tri","room_assignment":["blue","yellow","grey","green","purple","red"],"door_color_assignment":["black","white"],"door_generator_assignment":[1,0],"goal":1,"start":4,"action_noise":0.15,"location_history":"[4,0,1]","action_history":"[0,1]","door_history":"[1,0]","location_rts":"[2739,328]","trial_type":"two-door-navigation","trial_index":35,"time_elapsed":1883078,"internal_node_id":"0.0-2.0-33.0"},{"group":"hexagon_tri","room_assignment":["blue","yellow","grey","green","purple","red"],"door_color_assignment":["black","white"],"door_generator_assignment":[1,0],"goal":2,"start":1,"action_noise":0.15,"location_history":"[1,3,2]","action_history":"[0,1]","door_history":"[1,0]","location_rts":"[1856,293]","trial_type":"two-door-navigation","trial_index":36,"time_elapsed":1890820,"internal_node_id":"0.0-2.0-34.0"},{"group":"hexagon_tri","room_assignment":["blue","yellow","grey","green","purple","red"],"door_color_assignment":["black","white"],"door_generator_assignment":[1,0],"goal":0,"start":2,"action_noise":0.15,"location_history":"[2,3,4,0]","action_history":"[1,1,0]","door_history":"[0,0,1]","location_rts":"[504,340,252]","trial_type":"two-door-navigation","trial_index":37,"time_elapsed":1898569,"internal_node_id":"0.0-2.0-35.0"},{"group":"hexagon_tri","room_assignment":["blue","yellow","grey","green","purple","red"],"door_color_assignment":["black","white"],"door_generator_assignment":[1,0],"goal":5,"start":0,"action_noise":0.15,"location_history":"[0,5]","action_history":"[0]","door_history":"[1]","location_rts":"[1384]","trial_type":"two-door-navigation","trial_index":38,"time_elapsed":1904530,"internal_node_id":"0.0-2.0-36.0"},{"group":"hexagon_tri","room_assignment":["blue","yellow","grey","green","purple","red"],"door_color_assignment":["black","white"],"door_generator_assignment":[1,0],"goal":2,"start":5,"action_noise":0.15,"location_history":"[5,0,1,3,2]","action_history":"[1,0,0,0]","door_history":"[0,1,1,1]","location_rts":"[1745,88,299,120]","trial_type":"two-door-navigation","trial_index":39,"time_elapsed":1914511,"internal_node_id":"0.0-2.0-37.0"},{"group":"hexagon_tri","room_assignment":["blue","yellow","grey","green","purple","red"],"door_color_assignment":["black","white"],"door_generator_assignment":[1,0],"goal":1,"start":2,"action_noise":0.15,"location_history":"[2,1]","action_history":"[0]","door_history":"[1]","location_rts":"[11713]","trial_type":"two-door-navigation","trial_index":40,"time_elapsed":1930809,"internal_node_id":"0.0-2.0-38.0"},{"group":"hexagon_tri","room_assignment":["blue","yellow","grey","green","purple","red"],"door_color_assignment":["black","white"],"door_generator_assignment":[1,0],"goal":4,"start":1,"action_noise":0.15,"location_history":"[1,5,4]","action_history":"[1,0]","door_history":"[0,1]","location_rts":"[8654,236]","trial_type":"two-door-navigation","trial_index":41,"time_elapsed":1945277,"internal_node_id":"0.0-2.0-39.0"},{"group":"hexagon_tri","room_assignment":["blue","yellow","grey","green","purple","red"],"door_color_assignment":["black","white"],"door_generator_assignment":[1,0],"goal":3,"start":4,"action_noise":0.15,"location_history":"[4,0,5,0,5,4,2,1,5,4,0,1,5,0,1,3]","action_history":"[1,0,0,0,0,1,0,0,0,1,1,1,0,0,0]","door_history":"[0,1,1,1,1,0,1,1,1,0,0,0,1,1,1]","location_rts":"[824,158,35,258,348,194,779,447,307,334,209,102,28,242,87]","trial_type":"two-door-navigation","trial_index":42,"time_elapsed":1968999,"internal_node_id":"0.0-2.0-40.0"},{"group":"hexagon_tri","room_assignment":["blue","yellow","grey","green","purple","red"],"door_color_assignment":["black","white"],"door_generator_assignment":[1,0],"goal":5,"start":3,"action_noise":0.15,"location_history":"[3,2,3,4,0,5]","action_history":"[1,1,0,0,0]","door_history":"[0,0,1,1,1]","location_rts":"[773,242,63,198,203]","trial_type":"two-door-navigation","trial_index":43,"time_elapsed":1979281,"internal_node_id":"0.0-2.0-41.0"},{"group":"hexagon_tri","room_assignment":["blue","yellow","grey","green","purple","red"],"door_color_assignment":["black","white"],"door_generator_assignment":[1,0],"goal":3,"start":5,"action_noise":0.15,"location_history":"[5,0,5,4,0,5,0,1,3]","action_history":"[1,0,0,0,0,1,0,0]","door_history":"[0,1,1,1,1,0,1,1]","location_rts":"[706,98,289,247,314,355,366,100]","trial_type":"two-door-navigation","trial_index":44,"time_elapsed":1993715,"internal_node_id":"0.0-2.0-42.0"},{"group":"hexagon_tri","room_assignment":["blue","yellow","grey","green","purple","red"],"door_color_assignment":["black","white"],"door_generator_assignment":[1,0],"goal":0,"start":3,"action_noise":0.15,"location_history":"[3,4,0]","action_history":"[1,0]","door_history":"[0,1]","location_rts":"[558,569]","trial_type":"two-door-navigation","trial_index":45,"time_elapsed":2000464,"internal_node_id":"0.0-2.0-43.0"},{"group":"hexagon_tri","room_assignment":["blue","yellow","grey","green","purple","red"],"door_color_assignment":["black","white"],"door_generator_assignment":[1,0],"goal":2,"start":0,"action_noise":0.15,"location_history":"[0,1,5,4,0,5,4,0,5,4,0,5,4,0,5,0,1,3,4,2]","action_history":"[1,1,0,0,0,0,1,0,0,0,1,0,0,0,1,1,1,1,1]","door_history":"[0,0,1,1,1,1,0,1,1,1,0,1,1,1,0,0,0,0,0]","location_rts":"[828,304,210,2,161,144,151,68,112,95,41,275,6,97,80,153,79,151,295]","trial_type":"two-door-navigation","trial_index":46,"time_elapsed":2027266,"internal_node_id":"0.0-2.0-44.0"},{"group":"hexagon_tri","room_assignment":["blue","yellow","grey","green","purple","red"],"door_color_assignment":["black","white"],"door_generator_assignment":[1,0],"goal":4,"start":2,"action_noise":0.15,"location_history":"[2,3,2,1,5,0,5,4]","action_history":"[1,0,0,0,0,0,0]","door_history":"[0,1,1,1,1,1,1]","location_rts":"[442,864,43,172,97,94,197]","trial_type":"two-door-navigation","trial_index":47,"time_elapsed":2040121,"internal_node_id":"0.0-2.0-45.0"},{"group":"hexagon_tri","room_assignment":["blue","yellow","grey","green","purple","red"],"door_color_assignment":["black","white"],"door_generator_assignment":[1,0],"goal":1,"start":4,"action_noise":0.15,"location_history":"[4,0,5,4,0,5,4,0,5,0,5,0,1]","action_history":"[1,0,0,0,0,0,1,0,0,0,1,1]","door_history":"[0,1,1,1,1,1,0,1,1,1,0,0]","location_rts":"[381,86,295,171,124,399,278,317,459,221,126,541]","trial_type":"two-door-navigation","trial_index":48,"time_elapsed":2059710,"internal_node_id":"0.0-2.0-46.0"},{"group":"hexagon_tri","room_assignment":["blue","yellow","grey","green","purple","red"],"door_color_assignment":["black","white"],"door_generator_assignment":[1,0],"goal":4,"start":1,"action_noise":0.15,"location_history":"[1,5,4]","action_history":"[0,0]","door_history":"[1,1]","location_rts":"[1636,423]","trial_type":"two-door-navigation","trial_index":49,"time_elapsed":2067429,"internal_node_id":"0.0-2.0-47.0"},{"group":"hexagon_tri","room_assignment":["blue","yellow","grey","green","purple","red"],"door_color_assignment":["black","white"],"door_generator_assignment":[1,0],"goal":3,"start":4,"action_noise":0.15,"location_history":"[4,0,1,3]","action_history":"[1,0,0]","door_history":"[0,1,1]","location_rts":"[770,100,303]","trial_type":"two-door-navigation","trial_index":50,"time_elapsed":2075286,"internal_node_id":"0.0-2.0-48.0"},{"group":"hexagon_tri","room_assignment":["blue","yellow","grey","green","purple","red"],"door_color_assignment":["black","white"],"door_generator_assignment":[1,0],"goal":5,"start":3,"action_noise":0.15,"location_history":"[3,2,3,2,3,2,1,5]","action_history":"[0,0,0,1,0,0,1]","door_history":"[1,1,1,0,1,1,0]","location_rts":"[562,308,330,274,385,193,287]","trial_type":"two-door-navigation","trial_index":51,"time_elapsed":2088576,"internal_node_id":"0.0-2.0-49.0"},{"view_history":"[{\"page_index\":0,\"viewing_time\":1851}]","rt":1852,"trial_type":"instructions","trial_index":52,"time_elapsed":2091433,"internal_node_id":"0.0-3.0"},{"view_history":"[{\"page_index\":0,\"viewing_time\":3488},{\"page_index\":1,\"viewing_time\":9112}]","rt":12600,"trial_type":"instructions","trial_index":53,"time_elapsed":2105033,"internal_node_id":"0.0-4.0"},{"group":"hexagon_tri","fractal_assignment":["../images/org_blu.png","../images/blu_wht.png","../images/pnk_blu.png","../images/cyn_red.png","../images/gry_blk.png","../images/ylw_slt.png"],"mutagen_generator_assignment":[0,1],"goal":4,"start":0,"action_noise":0.15,"location_history":"[0,5,4]","action_history":"[0,1]","mutagen_history":"[0,1]","location_rts":"[2688,1987]","trial_type":"fractal-mutation","trial_index":54,"time_elapsed":2115393,"internal_node_id":"0.0-5.0-0.0"},{"group":"hexagon_tri","fractal_assignment":["../images/org_blu.png","../images/blu_wht.png","../images/pnk_blu.png","../images/cyn_red.png","../images/gry_blk.png","../images/ylw_slt.png"],"mutagen_generator_assignment":[0,1],"goal":3,"start":4,"action_noise":0.15,"location_history":"[4,0,5,4,0,1,5,4,2,1,3]","action_history":"[1,0,0,0,1,1,1,1,1,0]","mutagen_history":"[1,0,0,0,1,1,1,1,1,0]","location_rts":"[356,605,464,403,421,337,332,447,457,556]","trial_type":"fractal-mutation","trial_index":55,"time_elapsed":2134020,"internal_node_id":"0.0-5.0-1.0"},{"group":"hexagon_tri","fractal_assignment":["../images/org_blu.png","../images/blu_wht.png","../images/pnk_blu.png","../images/cyn_red.png","../images/gry_blk.png","../images/ylw_slt.png"],"mutagen_generator_assignment":[0,1],"goal":5,"start":3,"action_noise":0.15,"location_history":"[3,2,3,4,2,3,4,2,3,2,1,3,2,1,3,4,0,5]","action_history":"[0,1,1,0,1,1,1,1,0,0,0,0,0,1,1,0,0]","mutagen_history":"[0,1,1,0,1,1,1,1,0,0,0,0,0,1,1,0,0]","location_rts":"[362,436,579,763,383,278,502,436,523,371,459,665,481,363,364,828,629]","trial_type":"fractal-mutation","trial_index":56,"time_elapsed":2164234,"internal_node_id":"0.0-5.0-2.0"},{"group":"hexagon_tri","fractal_assignment":["../images/org_blu.png","../images/blu_wht.png","../images/pnk_blu.png","../images/cyn_red.png","../images/gry_blk.png","../images/ylw_slt.png"],"mutagen_generator_assignment":[0,1],"goal":2,"start":5,"action_noise":0.15,"location_history":"[5,4,0,1,5,0,1,5,0,1,3,4,2]","action_history":"[0,0,1,1,1,1,1,1,1,0,1,1]","mutagen_history":"[0,0,1,1,1,1,1,1,1,0,1,1]","location_rts":"[449,347,345,327,314,343,439,395,325,195,257,309]","trial_type":"fractal-mutation","trial_index":57,"time_elapsed":2184686,"internal_node_id":"0.0-5.0-3.0"},{"group":"hexagon_tri","fractal_assignment":["../images/org_blu.png","../images/blu_wht.png","../images/pnk_blu.png","../images/cyn_red.png","../images/gry_blk.png","../images/ylw_slt.png"],"mutagen_generator_assignment":[0,1],"goal":1,"start":2,"action_noise":0.15,"location_history":"[2,3,4,0,5,4,0,1]","action_history":"[1,1,0,0,0,0,1]","mutagen_history":"[1,1,0,0,0,0,1]","location_rts":"[327,286,454,345,163,150,351]","trial_type":"fractal-mutation","trial_index":58,"time_elapsed":2197810,"internal_node_id":"0.0-5.0-4.0"},{"group":"hexagon_tri","fractal_assignment":["../images/org_blu.png","../images/blu_wht.png","../images/pnk_blu.png","../images/cyn_red.png","../images/gry_blk.png","../images/ylw_slt.png"],"mutagen_generator_assignment":[0,1],"goal":4,"start":1,"action_noise":0.15,"location_history":"[1,5,0,5,0,5,4]","action_history":"[1,1,0,0,0,0]","mutagen_history":"[1,1,0,0,0,0]","location_rts":"[412,296,354,692,154,335]","trial_type":"fractal-mutation","trial_index":59,"time_elapsed":2210017,"internal_node_id":"0.0-5.0-5.0"},{"group":"hexagon_tri","fractal_assignment":["../images/org_blu.png","../images/blu_wht.png","../images/pnk_blu.png","../images/cyn_red.png","../images/gry_blk.png","../images/ylw_slt.png"],"mutagen_generator_assignment":[0,1],"goal":1,"start":4,"action_noise":0.15,"location_history":"[4,2,1]","action_history":"[1,0]","mutagen_history":"[1,0]","location_rts":"[380,163]","trial_type":"fractal-mutation","trial_index":60,"time_elapsed":2216208,"internal_node_id":"0.0-5.0-6.0"},{"group":"hexagon_tri","fractal_assignment":["../images/org_blu.png","../images/blu_wht.png","../images/pnk_blu.png","../images/cyn_red.png","../images/gry_blk.png","../images/ylw_slt.png"],"mutagen_generator_assignment":[0,1],"goal":5,"start":1,"action_noise":0.15,"location_history":"[1,5]","action_history":"[0]","mutagen_history":"[0]","location_rts":"[489]","trial_type":"fractal-mutation","trial_index":61,"time_elapsed":2221280,"internal_node_id":"0.0-5.0-7.0"},{"group":"hexagon_tri","fractal_assignment":["../images/org_blu.png","../images/blu_wht.png","../images/pnk_blu.png","../images/cyn_red.png","../images/gry_blk.png","../images/ylw_slt.png"],"mutagen_generator_assignment":[0,1],"goal":0,"start":5,"action_noise":0.15,"location_history":"[5,0]","action_history":"[1]","mutagen_history":"[1]","location_rts":"[517]","trial_type":"fractal-mutation","trial_index":62,"time_elapsed":2226389,"internal_node_id":"0.0-5.0-8.0"},{"group":"hexagon_tri","fractal_assignment":["../images/org_blu.png","../images/blu_wht.png","../images/pnk_blu.png","../images/cyn_red.png","../images/gry_blk.png","../images/ylw_slt.png"],"mutagen_generator_assignment":[0,1],"goal":2,"start":0,"action_noise":0.15,"location_history":"[0,5,4,0,1,5,0,1,3,2]","action_history":"[1,0,0,1,1,1,1,0,0]","mutagen_history":"[1,0,0,1,1,1,1,0,0]","location_rts":"[484,437,353,415,265,268,442,164,188]","trial_type":"fractal-mutation","trial_index":63,"time_elapsed":2242600,"internal_node_id":"0.0-5.0-9.0"},{"group":"hexagon_tri","fractal_assignment":["../images/org_blu.png","../images/blu_wht.png","../images/pnk_blu.png","../images/cyn_red.png","../images/gry_blk.png","../images/ylw_slt.png"],"mutagen_generator_assignment":[0,1],"goal":3,"start":2,"action_noise":0.15,"location_history":"[2,1,3]","action_history":"[1,0]","mutagen_history":"[1,0]","location_rts":"[762,253]","trial_type":"fractal-mutation","trial_index":64,"time_elapsed":2249278,"internal_node_id":"0.0-5.0-10.0"},{"group":"hexagon_tri","fractal_assignment":["../images/org_blu.png","../images/blu_wht.png","../images/pnk_blu.png","../images/cyn_red.png","../images/gry_blk.png","../images/ylw_slt.png"],"mutagen_generator_assignment":[0,1],"goal":0,"start":3,"action_noise":0.15,"location_history":"[3,4,0]","action_history":"[1,0]","mutagen_history":"[1,0]","location_rts":"[645,277]","trial_type":"fractal-mutation","trial_index":65,"time_elapsed":2255876,"internal_node_id":"0.0-5.0-11.0"},{"group":"hexagon_tri","fractal_assignment":["../images/org_blu.png","../images/blu_wht.png","../images/pnk_blu.png","../images/cyn_red.png","../images/gry_blk.png","../images/ylw_slt.png"],"mutagen_generator_assignment":[0,1],"goal":2,"start":0,"action_noise":0.15,"location_history":"[0,1,5,0,5,0,5,4,0,5,4,2]","action_history":"[0,0,1,1,1,1,0,0,0,0,1]","mutagen_history":"[0,0,1,1,1,1,0,0,0,0,1]","location_rts":"[684,1362,16,60,207,314,264,328,136,380,37]","trial_type":"fractal-mutation","trial_index":66,"time_elapsed":2274985,"internal_node_id":"0.0-5.0-12.0"},{"group":"hexagon_tri","fractal_assignment":["../images/org_blu.png","../images/blu_wht.png","../images/pnk_blu.png","../images/cyn_red.png","../images/gry_blk.png","../images/ylw_slt.png"],"mutagen_generator_assignment":[0,1],"goal":5,"start":2,"action_noise":0.15,"location_history":"[2,3,4,0,1,3,4,2,3,4,0,5]","action_history":"[1,1,0,0,0,1,1,1,1,0,0]","mutagen_history":"[1,1,0,0,0,1,1,1,1,0,0]","location_rts":"[4528,179,257,394,150,267,260,487,226,339,274]","trial_type":"fractal-mutation","trial_index":67,"time_elapsed":2297733,"internal_node_id":"0.0-5.0-13.0"},{"group":"hexagon_tri","fractal_assignment":["../images/org_blu.png","../images/blu_wht.png","../images/pnk_blu.png","../images/cyn_red.png","../images/gry_blk.png","../images/ylw_slt.png"],"mutagen_generator_assignment":[0,1],"goal":4,"start":5,"action_noise":0.15,"location_history":"[5,0,1,5,4]","action_history":"[1,1,1,1]","mutagen_history":"[1,1,1,1]","location_rts":"[4015,1827,1118,329]","trial_type":"fractal-mutation","trial_index":68,"time_elapsed":2312837,"internal_node_id":"0.0-5.0-14.0"},{"group":"hexagon_tri","fractal_assignment":["../images/org_blu.png","../images/blu_wht.png","../images/pnk_blu.png","../images/cyn_red.png","../images/gry_blk.png","../images/ylw_slt.png"],"mutagen_generator_assignment":[0,1],"goal":3,"start":4,"action_noise":0.15,"location_history":"[4,0,1,3]","action_history":"[0,1,0]","mutagen_history":"[0,1,0]","location_rts":"[762,677,470]","trial_type":"fractal-mutation","trial_index":69,"time_elapsed":2321477,"internal_node_id":"0.0-5.0-15.0"},{"group":"hexagon_tri","fractal_assignment":["../images/org_blu.png","../images/blu_wht.png","../images/pnk_blu.png","../images/cyn_red.png","../images/gry_blk.png","../images/ylw_slt.png"],"mutagen_generator_assignment":[0,1],"goal":1,"start":3,"action_noise":0.15,"location_history":"[3,4,2,3,2,1]","action_history":"[1,1,1,0,0]","mutagen_history":"[1,1,1,0,0]","location_rts":"[559,285,766,164,384]","trial_type":"fractal-mutation","trial_index":70,"time_elapsed":2332532,"internal_node_id":"0.0-5.0-16.0"},{"group":"hexagon_tri","fractal_assignment":["../images/org_blu.png","../images/blu_wht.png","../images/pnk_blu.png","../images/cyn_red.png","../images/gry_blk.png","../images/ylw_slt.png"],"mutagen_generator_assignment":[0,1],"goal":5,"start":1,"action_noise":0.15,"location_history":"[1,3,4,2,1,3,2,1,3,4,0,1,5]","action_history":"[0,1,1,0,0,0,0,0,1,0,1,1]","mutagen_history":"[0,1,1,0,0,0,0,0,1,0,1,1]","location_rts":"[241,354,277,381,267,85,166,118,92,270,128,271]","trial_type":"fractal-mutation","trial_index":71,"time_elapsed":2351592,"internal_node_id":"0.0-5.0-17.0"},{"group":"hexagon_tri","fractal_assignment":["../images/org_blu.png","../images/blu_wht.png","../images/pnk_blu.png","../images/cyn_red.png","../images/gry_blk.png","../images/ylw_slt.png"],"mutagen_generator_assignment":[0,1],"goal":4,"start":5,"action_noise":0.15,"location_history":"[5,4]","action_history":"[1]","mutagen_history":"[1]","location_rts":"[480]","trial_type":"fractal-mutation","trial_index":72,"time_elapsed":2356655,"internal_node_id":"0.0-5.0-18.0"},{"group":"hexagon_tri","fractal_assignment":["../images/org_blu.png","../images/blu_wht.png","../images/pnk_blu.png","../images/cyn_red.png","../images/gry_blk.png","../images/ylw_slt.png"],"mutagen_generator_assignment":[0,1],"goal":0,"start":4,"action_noise":0.15,"location_history":"[4,0]","action_history":"[0]","mutagen_history":"[0]","location_rts":"[2169]","trial_type":"fractal-mutation","trial_index":73,"time_elapsed":2363417,"internal_node_id":"0.0-5.0-19.0"},{"group":"hexagon_tri","fractal_assignment":["../images/org_blu.png","../images/blu_wht.png","../images/pnk_blu.png","../images/cyn_red.png","../images/gry_blk.png","../images/ylw_slt.png"],"mutagen_generator_assignment":[0,1],"goal":1,"start":0,"action_noise":0.15,"location_history":"[0,5,0,5,4,2,3,2,3,4,2,1]","action_history":"[1,1,0,1,1,1,0,1,1,1,0]","mutagen_history":"[1,1,0,1,1,1,0,1,1,1,0]","location_rts":"[2159,505,402,386,522,465,526,262,303,86,204]","trial_type":"fractal-mutation","trial_index":74,"time_elapsed":2384564,"internal_node_id":"0.0-5.0-20.0"},{"group":"hexagon_tri","fractal_assignment":["../images/org_blu.png","../images/blu_wht.png","../images/pnk_blu.png","../images/cyn_red.png","../images/gry_blk.png","../images/ylw_slt.png"],"mutagen_generator_assignment":[0,1],"goal":3,"start":1,"action_noise":0.15,"location_history":"[1,5,4,2,3]","action_history":"[1,0,1,1]","mutagen_history":"[1,0,1,1]","location_rts":"[3112,409,8,379]","trial_type":"fractal-mutation","trial_index":75,"time_elapsed":2396276,"internal_node_id":"0.0-5.0-21.0"},{"group":"hexagon_tri","fractal_assignment":["../images/org_blu.png","../images/blu_wht.png","../images/pnk_blu.png","../images/cyn_red.png","../images/gry_blk.png","../images/ylw_slt.png"],"mutagen_generator_assignment":[0,1],"goal":2,"start":3,"action_noise":0.15,"location_history":"[3,4,2]","action_history":"[1,1]","mutagen_history":"[1,1]","location_rts":"[1747,441]","trial_type":"fractal-mutation","trial_index":76,"time_elapsed":2404139,"internal_node_id":"0.0-5.0-22.0"},{"group":"hexagon_tri","fractal_assignment":["../images/org_blu.png","../images/blu_wht.png","../images/pnk_blu.png","../images/cyn_red.png","../images/gry_blk.png","../images/ylw_slt.png"],"mutagen_generator_assignment":[0,1],"goal":0,"start":2,"action_noise":0.15,"location_history":"[2,3,2,1,3,2,3,4,2,3,4,0]","action_history":"[1,0,0,0,0,0,1,0,1,1,0]","mutagen_history":"[1,0,0,0,0,0,1,0,1,1,0]","location_rts":"[659,533,354,302,447,582,9,574,589,256,389]","trial_type":"fractal-mutation","trial_index":77,"time_elapsed":2424212,"internal_node_id":"0.0-5.0-23.0"},{"group":"hexagon_tri","fractal_assignment":["../images/org_blu.png","../images/blu_wht.png","../images/pnk_blu.png","../images/cyn_red.png","../images/gry_blk.png","../images/ylw_slt.png"],"mutagen_generator_assignment":[0,1],"goal":3,"start":0,"action_noise":0.15,"location_history":"[0,1,5,4,0,5,0,1,3]","action_history":"[1,0,0,0,0,1,1,0]","mutagen_history":"[1,0,0,0,0,1,1,0]","location_rts":"[3461,508,498,319,415,318,929,429]","trial_type":"fractal-mutation","trial_index":78,"time_elapsed":2443215,"internal_node_id":"0.0-5.0-24.0"},{"group":"hexagon_tri","fractal_assignment":["../images/org_blu.png","../images/blu_wht.png","../images/pnk_blu.png","../images/cyn_red.png","../images/gry_blk.png","../images/ylw_slt.png"],"mutagen_generator_assignment":[0,1],"goal":1,"start":3,"action_noise":0.15,"location_history":"[3,4,0,5,4,2,3,2,3,4,0,5,0,5,0,1]","action_history":"[1,0,0,0,1,1,1,1,1,0,0,0,0,1,1]","mutagen_history":"[1,0,0,0,1,1,1,1,1,0,0,0,0,1,1]","location_rts":"[721,613,309,203,245,484,260,233,768,500,271,75,298,260,269]","trial_type":"fractal-mutation","trial_index":79,"time_elapsed":2468381,"internal_node_id":"0.0-5.0-25.0"},{"group":"hexagon_tri","fractal_assignment":["../images/org_blu.png","../images/blu_wht.png","../images/pnk_blu.png","../images/cyn_red.png","../images/gry_blk.png","../images/ylw_slt.png"],"mutagen_generator_assignment":[0,1],"goal":2,"start":1,"action_noise":0.15,"location_history":"[1,5,0,1,3,2]","action_history":"[1,1,1,0,0]","mutagen_history":"[1,1,1,0,0]","location_rts":"[693,379,155,99,183]","trial_type":"fractal-mutation","trial_index":80,"time_elapsed":2478804,"internal_node_id":"0.0-5.0-26.0"},{"group":"hexagon_tri","fractal_assignment":["../images/org_blu.png","../images/blu_wht.png","../images/pnk_blu.png","../images/cyn_red.png","../images/gry_blk.png","../images/ylw_slt.png"],"mutagen_generator_assignment":[0,1],"goal":5,"start":2,"action_noise":0.15,"location_history":"[2,3,4,2,3,2,1,3,2,1,3,4,0,1,5]","action_history":"[1,1,1,1,1,0,0,0,0,0,1,1,1,1]","mutagen_history":"[1,1,1,1,1,0,0,0,0,0,1,1,1,1]","location_rts":"[7106,317,602,274,708,215,363,281,34,655,121,377,414,346]","trial_type":"fractal-mutation","trial_index":81,"time_elapsed":2509198,"internal_node_id":"0.0-5.0-27.0"},{"group":"hexagon_tri","fractal_assignment":["../images/org_blu.png","../images/blu_wht.png","../images/pnk_blu.png","../images/cyn_red.png","../images/gry_blk.png","../images/ylw_slt.png"],"mutagen_generator_assignment":[0,1],"goal":4,"start":5,"action_noise":0.15,"location_history":"[5,4]","action_history":"[1]","mutagen_history":"[1]","location_rts":"[430]","trial_type":"fractal-mutation","trial_index":82,"time_elapsed":2514220,"internal_node_id":"0.0-5.0-28.0"},{"group":"hexagon_tri","fractal_assignment":["../images/org_blu.png","../images/blu_wht.png","../images/pnk_blu.png","../images/cyn_red.png","../images/gry_blk.png","../images/ylw_slt.png"],"mutagen_generator_assignment":[0,1],"goal":5,"start":4,"action_noise":0.15,"location_history":"[4,2,1,3,2,3,4,2,3,2,1,5]","action_history":"[1,0,0,0,1,1,1,1,1,1,1]","mutagen_history":"[1,0,0,0,1,1,1,1,1,1,1]","location_rts":"[479,319,89,43,110,51,501,34,76,319,775]","trial_type":"fractal-mutation","trial_index":83,"time_elapsed":2532390,"internal_node_id":"0.0-5.0-29.0"},{"group":"hexagon_tri","fractal_assignment":["../images/org_blu.png","../images/blu_wht.png","../images/pnk_blu.png","../images/cyn_red.png","../images/gry_blk.png","../images/ylw_slt.png"],"mutagen_generator_assignment":[0,1],"goal":3,"start":5,"action_noise":0.15,"location_history":"[5,0,1,5,0,1,3]","action_history":"[1,1,1,1,1,0]","mutagen_history":"[1,1,1,1,1,0]","location_rts":"[846,620,574,297,309,485]","trial_type":"fractal-mutation","trial_index":84,"time_elapsed":2545443,"internal_node_id":"0.0-5.0-30.0"},{"group":"hexagon_tri","fractal_assignment":["../images/org_blu.png","../images/blu_wht.png","../images/pnk_blu.png","../images/cyn_red.png","../images/gry_blk.png","../images/ylw_slt.png"],"mutagen_generator_assignment":[0,1],"goal":0,"start":3,"action_noise":0.15,"location_history":"[3,2,1,5,4,0]","action_history":"[1,0,0,0,0]","mutagen_history":"[1,0,0,0,0]","location_rts":"[1222,476,481,315,332]","trial_type":"fractal-mutation","trial_index":85,"time_elapsed":2557134,"internal_node_id":"0.0-5.0-31.0"},{"group":"hexagon_tri","fractal_assignment":["../images/org_blu.png","../images/blu_wht.png","../images/pnk_blu.png","../images/cyn_red.png","../images/gry_blk.png","../images/ylw_slt.png"],"mutagen_generator_assignment":[0,1],"goal":4,"start":0,"action_noise":0.15,"location_history":"[0,1,3,2,1,3,4]","action_history":"[1,0,0,0,0,1]","mutagen_history":"[1,0,0,0,0,1]","location_rts":"[718,740,263,359,798,875]","trial_type":"fractal-mutation","trial_index":86,"time_elapsed":2570858,"internal_node_id":"0.0-5.0-32.0"},{"group":"hexagon_tri","fractal_assignment":["../images/org_blu.png","../images/blu_wht.png","../images/pnk_blu.png","../images/cyn_red.png","../images/gry_blk.png","../images/ylw_slt.png"],"mutagen_generator_assignment":[0,1],"goal":1,"start":4,"action_noise":0.15,"location_history":"[4,2,3,4,0,1]","action_history":"[1,1,0,0,1]","mutagen_history":"[1,1,0,0,1]","location_rts":"[4342,407,265,406,249]","trial_type":"fractal-mutation","trial_index":87,"time_elapsed":2585399,"internal_node_id":"0.0-5.0-33.0"},{"group":"hexagon_tri","fractal_assignment":["../images/org_blu.png","../images/blu_wht.png","../images/pnk_blu.png","../images/cyn_red.png","../images/gry_blk.png","../images/ylw_slt.png"],"mutagen_generator_assignment":[0,1],"goal":2,"start":1,"action_noise":0.15,"location_history":"[1,5,0,1,5,0,5,4,0,5,4,2]","action_history":"[1,1,1,1,1,0,0,0,0,1,1]","mutagen_history":"[1,1,1,1,1,0,0,0,0,1,1]","location_rts":"[490,126,10,540,392,155,46,9,252,265,24]","trial_type":"fractal-mutation","trial_index":88,"time_elapsed":2603059,"internal_node_id":"0.0-5.0-34.0"},{"group":"hexagon_tri","fractal_assignment":["../images/org_blu.png","../images/blu_wht.png","../images/pnk_blu.png","../images/cyn_red.png","../images/gry_blk.png","../images/ylw_slt.png"],"mutagen_generator_assignment":[0,1],"goal":0,"start":2,"action_noise":0.15,"location_history":"[2,1,3,4,0]","action_history":"[0,0,1,0]","mutagen_history":"[0,0,1,0]","location_rts":"[417,339,474,454]","trial_type":"fractal-mutation","trial_index":89,"time_elapsed":2612563,"internal_node_id":"0.0-5.0-35.0"},{"group":"hexagon_tri","fractal_assignment":["../images/org_blu.png","../images/blu_wht.png","../images/pnk_blu.png","../images/cyn_red.png","../images/gry_blk.png","../images/ylw_slt.png"],"mutagen_generator_assignment":[0,1],"goal":5,"start":0,"action_noise":0.15,"location_history":"[0,1,5]","action_history":"[1,1]","mutagen_history":"[1,1]","location_rts":"[585,114]","trial_type":"fractal-mutation","trial_index":90,"time_elapsed":2618930,"internal_node_id":"0.0-5.0-36.0"},{"group":"hexagon_tri","fractal_assignment":["../images/org_blu.png","../images/blu_wht.png","../images/pnk_blu.png","../images/cyn_red.png","../images/gry_blk.png","../images/ylw_slt.png"],"mutagen_generator_assignment":[0,1],"goal":2,"start":5,"action_noise":0.15,"location_history":"[5,0,1,3,4,2]","action_history":"[1,1,1,1,1]","mutagen_history":"[1,1,1,1,1]","location_rts":"[607,272,283,112,771]","trial_type":"fractal-mutation","trial_index":91,"time_elapsed":2630019,"internal_node_id":"0.0-5.0-37.0"},{"group":"hexagon_tri","fractal_assignment":["../images/org_blu.png","../images/blu_wht.png","../images/pnk_blu.png","../images/cyn_red.png","../images/gry_blk.png","../images/ylw_slt.png"],"mutagen_generator_assignment":[0,1],"goal":1,"start":2,"action_noise":0.15,"location_history":"[2,3,2,1]","action_history":"[1,0,0]","mutagen_history":"[1,0,0]","location_rts":"[3303,202,189]","trial_type":"fractal-mutation","trial_index":92,"time_elapsed":2640435,"internal_node_id":"0.0-5.0-38.0"},{"group":"hexagon_tri","fractal_assignment":["../images/org_blu.png","../images/blu_wht.png","../images/pnk_blu.png","../images/cyn_red.png","../images/gry_blk.png","../images/ylw_slt.png"],"mutagen_generator_assignment":[0,1],"goal":4,"start":1,"action_noise":0.15,"location_history":"[1,5,0,1,5,0,1,5,0,1,5,4]","action_history":"[1,1,1,1,1,1,1,0,1,1,1]","mutagen_history":"[1,1,1,1,1,1,1,0,1,1,1]","location_rts":"[541,54,273,286,141,122,259,85,212,645,19]","trial_type":"fractal-mutation","trial_index":93,"time_elapsed":2658408,"internal_node_id":"0.0-5.0-39.0"},{"group":"hexagon_tri","fractal_assignment":["../images/org_blu.png","../images/blu_wht.png","../images/pnk_blu.png","../images/cyn_red.png","../images/gry_blk.png","../images/ylw_slt.png"],"mutagen_generator_assignment":[0,1],"goal":3,"start":4,"action_noise":0.15,"location_history":"[4,2,3]","action_history":"[1,1]","mutagen_history":"[1,1]","location_rts":"[382,347]","trial_type":"fractal-mutation","trial_index":94,"time_elapsed":2664803,"internal_node_id":"0.0-5.0-40.0"},{"group":"hexagon_tri","fractal_assignment":["../images/org_blu.png","../images/blu_wht.png","../images/pnk_blu.png","../images/cyn_red.png","../images/gry_blk.png","../images/ylw_slt.png"],"mutagen_generator_assignment":[0,1],"goal":5,"start":3,"action_noise":0.15,"location_history":"[3,2,1,5]","action_history":"[0,0,1]","mutagen_history":"[0,0,1]","location_rts":"[496,254,118]","trial_type":"fractal-mutation","trial_index":95,"time_elapsed":2672394,"internal_node_id":"0.0-5.0-41.0"},{"group":"hexagon_tri","fractal_assignment":["../images/org_blu.png","../images/blu_wht.png","../images/pnk_blu.png","../images/cyn_red.png","../images/gry_blk.png","../images/ylw_slt.png"],"mutagen_generator_assignment":[0,1],"goal":3,"start":5,"action_noise":0.15,"location_history":"[5,0,1,5,4,0,1,3]","action_history":"[1,1,1,0,1,1,0]","mutagen_history":"[1,1,1,0,1,1,0]","location_rts":"[380,248,161,245,522,357,386]","trial_type":"fractal-mutation","trial_index":96,"time_elapsed":2685720,"internal_node_id":"0.0-5.0-42.0"},{"group":"hexagon_tri","fractal_assignment":["../images/org_blu.png","../images/blu_wht.png","../images/pnk_blu.png","../images/cyn_red.png","../images/gry_blk.png","../images/ylw_slt.png"],"mutagen_generator_assignment":[0,1],"goal":0,"start":3,"action_noise":0.15,"location_history":"[3,4,2,3,2,3,4,0]","action_history":"[1,1,1,0,1,1,0]","mutagen_history":"[1,1,1,0,1,1,0]","location_rts":"[705,160,517,198,25,61,466]","trial_type":"fractal-mutation","trial_index":97,"time_elapsed":2698888,"internal_node_id":"0.0-5.0-43.0"},{"group":"hexagon_tri","fractal_assignment":["../images/org_blu.png","../images/blu_wht.png","../images/pnk_blu.png","../images/cyn_red.png","../images/gry_blk.png","../images/ylw_slt.png"],"mutagen_generator_assignment":[0,1],"goal":2,"start":0,"action_noise":0.15,"location_history":"[0,1,5,4,0,1,5,0,1,5,0,5,4,2]","action_history":"[1,1,0,0,1,1,1,1,1,1,0,0,1]","mutagen_history":"[1,1,0,0,1,1,1,1,1,1,0,0,1]","location_rts":"[249,233,158,84,208,246,382,160,163,12,202,320,363]","trial_type":"fractal-mutation","trial_index":98,"time_elapsed":2719159,"internal_node_id":"0.0-5.0-44.0"},{"group":"hexagon_tri","fractal_assignment":["../images/org_blu.png","../images/blu_wht.png","../images/pnk_blu.png","../images/cyn_red.png","../images/gry_blk.png","../images/ylw_slt.png"],"mutagen_generator_assignment":[0,1],"goal":4,"start":2,"action_noise":0.15,"location_history":"[2,3,4]","action_history":"[1,1]","mutagen_history":"[1,1]","location_rts":"[293,319]","trial_type":"fractal-mutation","trial_index":99,"time_elapsed":2725446,"internal_node_id":"0.0-5.0-45.0"},{"group":"hexagon_tri","fractal_assignment":["../images/org_blu.png","../images/blu_wht.png","../images/pnk_blu.png","../images/cyn_red.png","../images/gry_blk.png","../images/ylw_slt.png"],"mutagen_generator_assignment":[0,1],"goal":1,"start":4,"action_noise":0.15,"location_history":"[4,2,3,4,2,1]","action_history":"[1,1,1,1,0]","mutagen_history":"[1,1,1,1,0]","location_rts":"[467,101,832,443,308]","trial_type":"fractal-mutation","trial_index":100,"time_elapsed":2736496,"internal_node_id":"0.0-5.0-46.0"},{"group":"hexagon_tri","fractal_assignment":["../images/org_blu.png","../images/blu_wht.png","../images/pnk_blu.png","../images/cyn_red.png","../images/gry_blk.png","../images/ylw_slt.png"],"mutagen_generator_assignment":[0,1],"goal":4,"start":1,"action_noise":0.15,"location_history":"[1,3,4]","action_history":"[0,1]","mutagen_history":"[0,1]","location_rts":"[343,294]","trial_type":"fractal-mutation","trial_index":101,"time_elapsed":2742787,"internal_node_id":"0.0-5.0-47.0"},{"group":"hexagon_tri","fractal_assignment":["../images/org_blu.png","../images/blu_wht.png","../images/pnk_blu.png","../images/cyn_red.png","../images/gry_blk.png","../images/ylw_slt.png"],"mutagen_generator_assignment":[0,1],"goal":3,"start":4,"action_noise":0.15,"location_history":"[4,0,1,5,0,1,5,0,1,5,0,1,3]","action_history":"[1,1,1,1,1,1,1,1,1,1,1,0]","mutagen_history":"[1,1,1,1,1,1,1,1,1,1,1,0]","location_rts":"[574,338,92,390,44,117,42,618,156,156,628,326]","trial_type":"fractal-mutation","trial_index":102,"time_elapsed":2762689,"internal_node_id":"0.0-5.0-48.0"},{"group":"hexagon_tri","fractal_assignment":["../images/org_blu.png","../images/blu_wht.png","../images/pnk_blu.png","../images/cyn_red.png","../images/gry_blk.png","../images/ylw_slt.png"],"mutagen_generator_assignment":[0,1],"goal":5,"start":3,"action_noise":0.15,"location_history":"[3,4,2,3,4,2,3,2,1,3,2,1,5]","action_history":"[1,1,1,1,1,1,0,0,0,0,0,1]","mutagen_history":"[1,1,1,1,1,1,0,0,0,0,0,1]","location_rts":"[349,397,293,300,55,97,101,210,16,176,32,20]","trial_type":"fractal-mutation","trial_index":103,"time_elapsed":2781065,"internal_node_id":"0.0-5.0-49.0"},{"view_history":"[{\"page_index\":0,\"viewing_time\":8444}]","rt":8444,"trial_type":"instructions","trial_index":104,"time_elapsed":2790511,"internal_node_id":"0.0-6.0"},{"rt":1428,"responses":"{\"Q0\":\"\"}","trial_type":"survey-text","trial_index":105,"time_elapsed":2792943,"internal_node_id":"0.0-7.0"}]