[{"view_history":"[{\"page_index\":0,\"viewing_time\":4799},{\"page_index\":1,\"viewing_time\":5647},{\"page_index\":2,\"viewing_time\":22880},{\"page_index\":3,\"viewing_time\":9069}]","rt":42396,"trial_type":"instructions","trial_index":0,"time_elapsed":42397,"internal_node_id":"0.0-0.0"},{"view_history":"[{\"page_index\":0,\"viewing_time\":2157},{\"page_index\":1,\"viewing_time\":23265}]","rt":25423,"trial_type":"instructions","trial_index":1,"time_elapsed":68822,"internal_node_id":"0.0-1.0"},{"group":"hexagon_bi","room_assignment":["blue","grey","purple","yellow","red","green"],"door_color_assignment":["white","black"],"door_generator_assignment":[0,1],"goal":4,"start":0,"action_noise":0.15,"location_history":"[0,1,2,1,0,1,0,5,0,5,4]","action_history":"[0,0,1,1,1,0,0,0,0,1]","door_history":"[0,0,1,1,1,0,0,0,0,1]","location_rts":"[2923,1337,1368,1074,1001,1087,713,830,1274,834]","trial_type":"two-door-navigation","trial_index":2,"time_elapsed":95084,"internal_node_id":"0.0-2.0-0.0"},{"group":"hexagon_bi","room_assignment":["blue","grey","purple","yellow","red","green"],"door_color_assignment":["white","black"],"door_generator_assignment":[0,1],"goal":3,"start":4,"action_noise":0.15,"location_history":"[4,3]","action_history":"[0]","door_history":"[0]","location_rts":"[1475]","trial_type":"two-door-navigation","trial_index":3,"time_elapsed":101099,"internal_node_id":"0.0-2.0-1.0"},{"group":"hexagon_bi","room_assignment":["blue","grey","purple","yellow","red","green"],"door_color_assignment":["white","black"],"door_generator_assignment":[0,1],"goal":5,"start":3,"action_noise":0.15,"location_history":"[3,2,1,2,1,0,1,0,1,2,3,2,3,2,1,2,3,4,5]","action_history":"[1,0,0,0,1,1,1,1,0,1,0,1,1,0,0,1,0,1]","door_history":"[1,0,0,0,1,1,1,1,0,1,0,1,1,0,0,1,0,1]","location_rts":"[1161,818,1509,913,1426,618,544,716,1276,1052,902,1121,1038,1448,1044,799,660,2456]","trial_type":"two-door-navigation","trial_index":4,"time_elapsed":142624,"internal_node_id":"0.0-2.0-2.0"},{"group":"hexagon_bi","room_assignment":["blue","grey","purple","yellow","red","green"],"door_color_assignment":["white","black"],"door_generator_assignment":[0,1],"goal":2,"start":5,"action_noise":0.15,"location_history":"[5,0,5,0,1,2]","action_history":"[0,1,1,0,0]","door_history":"[0,1,1,0,0]","location_rts":"[1255,1531,1502,963,559]","trial_type":"two-door-navigation","trial_index":5,"time_elapsed":157075,"internal_node_id":"0.0-2.0-3.0"},{"group":"hexagon_bi","room_assignment":["blue","grey","purple","yellow","red","green"],"door_color_assignment":["white","black"],"door_generator_assignment":[0,1],"goal":1,"start":2,"action_noise":0.15,"location_history":"[2,1]","action_history":"[0]","door_history":"[0]","location_rts":"[903]","trial_type":"two-door-navigation","trial_index":6,"time_elapsed":162513,"internal_node_id":"0.0-2.0-4.0"},{"group":"hexagon_bi","room_assignment":["blue","grey","purple","yellow","red","green"],"door_color_assignment":["white","black"],"door_generator_assignment":[0,1],"goal":4,"start":1,"action_noise":0.15,"location_history":"[1,0,1,2,1,0,1,0,5,0,5,0,5,0,5,0,5,4]","action_history":"[1,0,0,0,1,1,1,0,1,0,0,0,0,1,0,0,1]","door_history":"[1,0,0,0,1,1,1,0,1,0,0,0,0,1,0,0,1]","location_rts":"[837,950,624,609,855,506,506,844,824,821,478,613,1112,370,1447,577,395]","trial_type":"two-door-navigation","trial_index":7,"time_elapsed":195865,"internal_node_id":"0.0-2.0-5.0"},{"group":"hexagon_bi","room_assignment":["blue","grey","purple","yellow","red","green"],"door_color_assignment":["white","black"],"door_generator_assignment":[0,1],"goal":1,"start":4,"action_noise":0.15,"location_history":"[4,5,4,3,2,1]","action_history":"[1,1,0,1,0]","door_history":"[1,1,0,1,0]","location_rts":"[1222,739,811,1063,833]","trial_type":"two-door-navigation","trial_index":8,"time_elapsed":209187,"internal_node_id":"0.0-2.0-6.0"},{"group":"hexagon_bi","room_assignment":["blue","grey","purple","yellow","red","green"],"door_color_assignment":["white","black"],"door_generator_assignment":[0,1],"goal":5,"start":1,"action_noise":0.15,"location_history":"[1,2,1,0,5]","action_history":"[0,0,1,1]","door_history":"[0,0,1,1]","location_rts":"[945,571,1027,548]","trial_type":"two-door-navigation","trial_index":9,"time_elapsed":219898,"internal_node_id":"0.0-2.0-7.0"},{"group":"hexagon_bi","room_assignment":["blue","grey","purple","yellow","red","green"],"door_color_assignment":["white","black"],"door_generator_assignment":[0,1],"goal":0,"start":5,"action_noise":0.15,"location_history":"[5,4,3,4,3,4,3,4,3,2,1,2,1,2,3,2,1,0]","action_history":"[1,0,0,0,1,1,0,0,1,0,0,1,0,1,1,0,1]","door_history":"[1,0,0,0,1,1,0,0,1,0,0,1,0,1,1,0,1]","location_rts":"[1152,467,646,853,1195,607,993,552,727,405,587,502,651,583,851,437,791]","trial_type":"two-door-navigation","trial_index":10,"time_elapsed":252859,"internal_node_id":"0.0-2.0-8.0"},{"group":"hexagon_bi","room_assignment":["blue","grey","purple","yellow","red","green"],"door_color_assignment":["white","black"],"door_generator_assignment":[0,1],"goal":2,"start":0,"action_noise":0.15,"location_history":"[0,5,4,3,2]","action_history":"[0,1,0,1]","door_history":"[0,1,0,1]","location_rts":"[887,841,934,939]","trial_type":"two-door-navigation","trial_index":11,"time_elapsed":264076,"internal_node_id":"0.0-2.0-9.0"},{"group":"hexagon_bi","room_assignment":["blue","grey","purple","yellow","red","green"],"door_color_assignment":["white","black"],"door_generator_assignment":[0,1],"goal":3,"start":2,"action_noise":0.15,"location_history":"[2,1,0,1,0,1,2,1,0,5,4,3]","action_history":"[0,1,1,0,1,0,0,1,0,1,0]","door_history":"[0,1,1,0,1,0,0,1,0,1,0]","location_rts":"[1046,1030,754,1146,764,618,521,455,837,1227,797]","trial_type":"two-door-navigation","trial_index":12,"time_elapsed":288076,"internal_node_id":"0.0-2.0-10.0"},{"group":"hexagon_bi","room_assignment":["blue","grey","purple","yellow","red","green"],"door_color_assignment":["white","black"],"door_generator_assignment":[0,1],"goal":0,"start":3,"action_noise":0.15,"location_history":"[3,4,5,0]","action_history":"[0,1,0]","door_history":"[0,1,0]","location_rts":"[1222,752,726]","trial_type":"two-door-navigation","trial_index":13,"time_elapsed":297362,"internal_node_id":"0.0-2.0-11.0"},{"group":"hexagon_bi","room_assignment":["blue","grey","purple","yellow","red","green"],"door_color_assignment":["white","black"],"door_generator_assignment":[0,1],"goal":2,"start":0,"action_noise":0.15,"location_history":"[0,1,2]","action_history":"[1,0]","door_history":"[1,0]","location_rts":"[1232,490]","trial_type":"two-door-navigation","trial_index":14,"time_elapsed":304652,"internal_node_id":"0.0-2.0-12.0"},{"group":"hexagon_bi","room_assignment":["blue","grey","purple","yellow","red","green"],"door_color_assignment":["white","black"],"door_generator_assignment":[0,1],"goal":5,"start":2,"action_noise":0.15,"location_history":"[2,1,0,5]","action_history":"[0,1,0]","door_history":"[0,1,0]","location_rts":"[441,692,751]","trial_type":"two-door-navigation","trial_index":15,"time_elapsed":313129,"internal_node_id":"0.0-2.0-13.0"},{"group":"hexagon_bi","room_assignment":["blue","grey","purple","yellow","red","green"],"door_color_assignment":["white","black"],"door_generator_assignment":[0,1],"goal":4,"start":5,"action_noise":0.15,"location_history":"[5,4]","action_history":"[1]","door_history":"[1]","location_rts":"[919]","trial_type":"two-door-navigation","trial_index":16,"time_elapsed":318579,"internal_node_id":"0.0-2.0-14.0"},{"group":"hexagon_bi","room_assignment":["blue","grey","purple","yellow","red","green"],"door_color_assignment":["white","black"],"door_generator_assignment":[0,1],"goal":3,"start":4,"action_noise":0.15,"location_history":"[4,3]","action_history":"[0]","door_history":"[0]","location_rts":"[1069]","trial_type":"two-door-navigation","trial_index":17,"time_elapsed":324186,"internal_node_id":"0.0-2.0-15.0"},{"group":"hexagon_bi","room_assignment":["blue","grey","purple","yellow","red","green"],"door_color_assignment":["white","black"],"door_generator_assignment":[0,1],"goal":1,"start":3,"action_noise":0.15,"location_history":"[3,2,1]","action_history":"[1,0]","door_history":"[1,0]","location_rts":"[1081,711]","trial_type":"two-door-navigation","trial_index":18,"time_elapsed":331534,"internal_node_id":"0.0-2.0-16.0"},{"group":"hexagon_bi","room_assignment":["blue","grey","purple","yellow","red","green"],"door_color_assignment":["white","black"],"door_generator_assignment":[0,1],"goal":5,"start":1,"action_noise":0.15,"location_history":"[1,0,1,0,5]","action_history":"[1,0,1,0]","door_history":"[1,0,1,0]","location_rts":"[785,715,865,818]","trial_type":"two-door-navigation","trial_index":19,"time_elapsed":342336,"internal_node_id":"0.0-2.0-17.0"},{"group":"hexagon_bi","room_assignment":["blue","grey","purple","yellow","red","green"],"door_color_assignment":["white","black"],"door_generator_assignment":[0,1],"goal":4,"start":5,"action_noise":0.15,"location_history":"[5,4]","action_history":"[1]","door_history":"[1]","location_rts":"[1095]","trial_type":"two-door-navigation","trial_index":20,"time_elapsed":347965,"internal_node_id":"0.0-2.0-18.0"},{"group":"hexagon_bi","room_assignment":["blue","grey","purple","yellow","red","green"],"door_color_assignment":["white","black"],"door_generator_assignment":[0,1],"goal":0,"start":4,"action_noise":0.15,"location_history":"[4,5,4,3,2,1,0]","action_history":"[0,1,0,1,0,1]","door_history":"[0,1,0,1,0,1]","location_rts":"[439,1548,748,808,824,847]","trial_type":"two-door-navigation","trial_index":21,"time_elapsed":362854,"internal_node_id":"0.0-2.0-19.0"},{"group":"hexagon_bi","room_assignment":["blue","grey","purple","yellow","red","green"],"door_color_assignment":["white","black"],"door_generator_assignment":[0,1],"goal":1,"start":0,"action_noise":0.15,"location_history":"[0,5,4,5,4,3,2,1]","action_history":"[0,1,0,1,0,1,0]","door_history":"[0,1,0,1,0,1,0]","location_rts":"[1140,834,650,1469,970,928,833]","trial_type":"two-door-navigation","trial_index":22,"time_elapsed":380370,"internal_node_id":"0.0-2.0-20.0"},{"group":"hexagon_bi","room_assignment":["blue","grey","purple","yellow","red","green"],"door_color_assignment":["white","black"],"door_generator_assignment":[0,1],"goal":3,"start":1,"action_noise":0.15,"location_history":"[1,0,5,4,3]","action_history":"[1,0,1,0]","door_history":"[1,0,1,0]","location_rts":"[893,711,749,783]","trial_type":"two-door-navigation","trial_index":23,"time_elapsed":391130,"internal_node_id":"0.0-2.0-21.0"},{"group":"hexagon_bi","room_assignment":["blue","grey","purple","yellow","red","green"],"door_color_assignment":["white","black"],"door_generator_assignment":[0,1],"goal":2,"start":3,"action_noise":0.15,"location_history":"[3,2]","action_history":"[1]","door_history":"[1]","location_rts":"[972]","trial_type":"two-door-navigation","trial_index":24,"time_elapsed":396634,"internal_node_id":"0.0-2.0-22.0"},{"group":"hexagon_bi","room_assignment":["blue","grey","purple","yellow","red","green"],"door_color_assignment":["white","black"],"door_generator_assignment":[0,1],"goal":0,"start":2,"action_noise":0.15,"location_history":"[2,1,0]","action_history":"[0,1]","door_history":"[0,1]","location_rts":"[464,764]","trial_type":"two-door-navigation","trial_index":25,"time_elapsed":403426,"internal_node_id":"0.0-2.0-23.0"},{"group":"hexagon_bi","room_assignment":["blue","grey","purple","yellow","red","green"],"door_color_assignment":["white","black"],"door_generator_assignment":[0,1],"goal":3,"start":0,"action_noise":0.15,"location_history":"[0,5,4,5,4,3]","action_history":"[0,1,0,1,0]","door_history":"[0,1,0,1,0]","location_rts":"[822,824,764,894,870]","trial_type":"two-door-navigation","trial_index":26,"time_elapsed":416246,"internal_node_id":"0.0-2.0-24.0"},{"group":"hexagon_bi","room_assignment":["blue","grey","purple","yellow","red","green"],"door_color_assignment":["white","black"],"door_generator_assignment":[0,1],"goal":1,"start":3,"action_noise":0.15,"location_history":"[3,2,1]","action_history":"[1,0]","door_history":"[1,0]","location_rts":"[1097,930]","trial_type":"two-door-navigation","trial_index":27,"time_elapsed":423830,"internal_node_id":"0.0-2.0-25.0"},{"group":"hexagon_bi","room_assignment":["blue","grey","purple","yellow","red","green"],"door_color_assignment":["white","black"],"door_generator_assignment":[0,1],"goal":2,"start":1,"action_noise":0.15,"location_history":"[1,0,5,0,5,4,3,2]","action_history":"[1,0,1,0,1,0,1]","door_history":"[1,0,1,0,1,0,1]","location_rts":"[1048,960,737,841,697,940,784]","trial_type":"two-door-navigation","trial_index":28,"time_elapsed":440528,"internal_node_id":"0.0-2.0-26.0"},{"group":"hexagon_bi","room_assignment":["blue","grey","purple","yellow","red","green"],"door_color_assignment":["white","black"],"door_generator_assignment":[0,1],"goal":5,"start":2,"action_noise":0.15,"location_history":"[2,1,0,5]","action_history":"[0,1,0]","door_history":"[0,1,0]","location_rts":"[943,1147,690]","trial_type":"two-door-navigation","trial_index":29,"time_elapsed":449899,"internal_node_id":"0.0-2.0-27.0"},{"group":"hexagon_bi","room_assignment":["blue","grey","purple","yellow","red","green"],"door_color_assignment":["white","black"],"door_generator_assignment":[0,1],"goal":4,"start":5,"action_noise":0.15,"location_history":"[5,4]","action_history":"[1]","door_history":"[1]","location_rts":"[609]","trial_type":"two-door-navigation","trial_index":30,"time_elapsed":455038,"internal_node_id":"0.0-2.0-28.0"},{"group":"hexagon_bi","room_assignment":["blue","grey","purple","yellow","red","green"],"door_color_assignment":["white","black"],"door_generator_assignment":[0,1],"goal":5,"start":4,"action_noise":0.15,"location_history":"[4,3,4,3,2,1,0,5]","action_history":"[0,1,0,1,0,1,0]","door_history":"[0,1,0,1,0,1,0]","location_rts":"[859,860,656,830,1047,849,828]","trial_type":"two-door-navigation","trial_index":31,"time_elapsed":471667,"internal_node_id":"0.0-2.0-29.0"},{"group":"hexagon_bi","room_assignment":["blue","grey","purple","yellow","red","green"],"door_color_assignment":["white","black"],"door_generator_assignment":[0,1],"goal":3,"start":5,"action_noise":0.15,"location_history":"[5,4,3]","action_history":"[1,0]","door_history":"[1,0]","location_rts":"[567,584]","trial_type":"two-door-navigation","trial_index":32,"time_elapsed":478379,"internal_node_id":"0.0-2.0-30.0"},{"group":"hexagon_bi","room_assignment":["blue","grey","purple","yellow","red","green"],"door_color_assignment":["white","black"],"door_generator_assignment":[0,1],"goal":0,"start":3,"action_noise":0.15,"location_history":"[3,2,1,0]","action_history":"[1,0,1]","door_history":"[1,0,1]","location_rts":"[403,667,718]","trial_type":"two-door-navigation","trial_index":33,"time_elapsed":486756,"internal_node_id":"0.0-2.0-31.0"},{"group":"hexagon_bi","room_assignment":["blue","grey","purple","yellow","red","green"],"door_color_assignment":["white","black"],"door_generator_assignment":[0,1],"goal":4,"start":0,"action_noise":0.15,"location_history":"[0,1,0,5,0,1,0,5,4]","action_history":"[0,1,0,1,0,1,0,1]","door_history":"[0,1,0,1,0,1,0,1]","location_rts":"[519,685,647,793,617,722,902,796]","trial_type":"two-door-navigation","trial_index":34,"time_elapsed":504159,"internal_node_id":"0.0-2.0-32.0"},{"group":"hexagon_bi","room_assignment":["blue","grey","purple","yellow","red","green"],"door_color_assignment":["white","black"],"door_generator_assignment":[0,1],"goal":1,"start":4,"action_noise":0.15,"location_history":"[4,3,2,1]","action_history":"[0,1,0]","door_history":"[0,1,0]","location_rts":"[387,692,1478]","trial_type":"two-door-navigation","trial_index":35,"time_elapsed":513303,"internal_node_id":"0.0-2.0-33.0"},{"group":"hexagon_bi","room_assignment":["blue","grey","purple","yellow","red","green"],"door_color_assignment":["white","black"],"door_generator_assignment":[0,1],"goal":2,"start":1,"action_noise":0.15,"location_history":"[1,0,5,4,3,2]","action_history":"[1,0,1,0,1]","door_history":"[1,0,1,0,1]","location_rts":"[915,563,1768,668,764]","trial_type":"two-door-navigation","trial_index":36,"time_elapsed":526628,"internal_node_id":"0.0-2.0-34.0"},{"group":"hexagon_bi","room_assignment":["blue","grey","purple","yellow","red","green"],"door_color_assignment":["white","black"],"door_generator_assignment":[0,1],"goal":0,"start":2,"action_noise":0.15,"location_history":"[2,1,0]","action_history":"[0,1]","door_history":"[0,1]","location_rts":"[423,1207]","trial_type":"two-door-navigation","trial_index":37,"time_elapsed":533816,"internal_node_id":"0.0-2.0-35.0"},{"group":"hexagon_bi","room_assignment":["blue","grey","purple","yellow","red","green"],"door_color_assignment":["white","black"],"door_generator_assignment":[0,1],"goal":5,"start":0,"action_noise":0.15,"location_history":"[0,5]","action_history":"[0]","door_history":"[0]","location_rts":"[422]","trial_type":"two-door-navigation","trial_index":38,"time_elapsed":538771,"internal_node_id":"0.0-2.0-36.0"},{"group":"hexagon_bi","room_assignment":["blue","grey","purple","yellow","red","green"],"door_color_assignment":["white","black"],"door_generator_assignment":[0,1],"goal":2,"start":5,"action_noise":0.15,"location_history":"[5,0,5,4,3,2]","action_history":"[1,0,1,0,1]","door_history":"[1,0,1,0,1]","location_rts":"[1060,1118,986,602,925]","trial_type":"two-door-navigation","trial_index":39,"time_elapsed":552114,"internal_node_id":"0.0-2.0-37.0"},{"group":"hexagon_bi","room_assignment":["blue","grey","purple","yellow","red","green"],"door_color_assignment":["white","black"],"door_generator_assignment":[0,1],"goal":1,"start":2,"action_noise":0.15,"location_history":"[2,1]","action_history":"[0]","door_history":"[0]","location_rts":"[632]","trial_type":"two-door-navigation","trial_index":40,"time_elapsed":557273,"internal_node_id":"0.0-2.0-38.0"},{"group":"hexagon_bi","room_assignment":["blue","grey","purple","yellow","red","green"],"door_color_assignment":["white","black"],"door_generator_assignment":[0,1],"goal":4,"start":1,"action_noise":0.15,"location_history":"[1,2,1,0,5,0,5,4]","action_history":"[1,0,1,0,1,0,1]","door_history":"[1,0,1,0,1,0,1]","location_rts":"[935,895,588,799,944,993,1111]","trial_type":"two-door-navigation","trial_index":41,"time_elapsed":574233,"internal_node_id":"0.0-2.0-39.0"},{"group":"hexagon_bi","room_assignment":["blue","grey","purple","yellow","red","green"],"door_color_assignment":["white","black"],"door_generator_assignment":[0,1],"goal":3,"start":4,"action_noise":0.15,"location_history":"[4,3]","action_history":"[0]","door_history":"[0]","location_rts":"[794]","trial_type":"two-door-navigation","trial_index":42,"time_elapsed":579562,"internal_node_id":"0.0-2.0-40.0"},{"group":"hexagon_bi","room_assignment":["blue","grey","purple","yellow","red","green"],"door_color_assignment":["white","black"],"door_generator_assignment":[0,1],"goal":5,"start":3,"action_noise":0.15,"location_history":"[3,2,1,0,5]","action_history":"[1,0,1,0]","door_history":"[1,0,1,0]","location_rts":"[393,428,541,613]","trial_type":"two-door-navigation","trial_index":43,"time_elapsed":589140,"internal_node_id":"0.0-2.0-41.0"},{"group":"hexagon_bi","room_assignment":["blue","grey","purple","yellow","red","green"],"door_color_assignment":["white","black"],"door_generator_assignment":[0,1],"goal":3,"start":5,"action_noise":0.15,"location_history":"[5,4,3]","action_history":"[1,0]","door_history":"[1,0]","location_rts":"[350,402]","trial_type":"two-door-navigation","trial_index":44,"time_elapsed":595459,"internal_node_id":"0.0-2.0-42.0"},{"group":"hexagon_bi","room_assignment":["blue","grey","purple","yellow","red","green"],"door_color_assignment":["white","black"],"door_generator_assignment":[0,1],"goal":0,"start":3,"action_noise":0.15,"location_history":"[3,2,1,0]","action_history":"[1,0,1]","door_history":"[1,0,1]","location_rts":"[759,459,493]","trial_type":"two-door-navigation","trial_index":45,"time_elapsed":603763,"internal_node_id":"0.0-2.0-43.0"},{"group":"hexagon_bi","room_assignment":["blue","grey","purple","yellow","red","green"],"door_color_assignment":["white","black"],"door_generator_assignment":[0,1],"goal":2,"start":0,"action_noise":0.15,"location_history":"[0,5,0,5,4,3,2]","action_history":"[0,1,0,1,0,1]","door_history":"[0,1,0,1,0,1]","location_rts":"[358,680,446,463,449,504]","trial_type":"two-door-navigation","trial_index":46,"time_elapsed":616336,"internal_node_id":"0.0-2.0-44.0"},{"group":"hexagon_bi","room_assignment":["blue","grey","purple","yellow","red","green"],"door_color_assignment":["white","black"],"door_generator_assignment":[0,1],"goal":4,"start":2,"action_noise":0.15,"location_history":"[2,1,0,5,4]","action_history":"[0,1,0,1]","door_history":"[0,1,0,1]","location_rts":"[386,363,434,489]","trial_type":"two-door-navigation","trial_index":47,"time_elapsed":625624,"internal_node_id":"0.0-2.0-45.0"},{"group":"hexagon_bi","room_assignment":["blue","grey","purple","yellow","red","green"],"door_color_assignment":["white","black"],"door_generator_assignment":[0,1],"goal":1,"start":4,"action_noise":0.15,"location_history":"[4,3,2,1]","action_history":"[0,1,0]","door_history":"[0,1,0]","location_rts":"[578,679,525]","trial_type":"two-door-navigation","trial_index":48,"time_elapsed":633992,"internal_node_id":"0.0-2.0-46.0"},{"group":"hexagon_bi","room_assignment":["blue","grey","purple","yellow","red","green"],"door_color_assignment":["white","black"],"door_generator_assignment":[0,1],"goal":4,"start":1,"action_noise":0.15,"location_history":"[1,0,5,0,5,4]","action_history":"[1,0,1,0,1]","door_history":"[1,0,1,0,1]","location_rts":"[456,652,443,403,628]","trial_type":"two-door-navigation","trial_index":49,"time_elapsed":645217,"internal_node_id":"0.0-2.0-47.0"},{"group":"hexagon_bi","room_assignment":["blue","grey","purple","yellow","red","green"],"door_color_assignment":["white","black"],"door_generator_assignment":[0,1],"goal":3,"start":4,"action_noise":0.15,"location_history":"[4,3]","action_history":"[0]","door_history":"[0]","location_rts":"[372]","trial_type":"two-door-navigation","trial_index":50,"time_elapsed":650123,"internal_node_id":"0.0-2.0-48.0"},{"group":"hexagon_bi","room_assignment":["blue","grey","purple","yellow","red","green"],"door_color_assignment":["white","black"],"door_generator_assignment":[0,1],"goal":5,"start":3,"action_noise":0.15,"location_history":"[3,4,3,2,1,0,5]","action_history":"[1,0,1,0,1,0]","door_history":"[1,0,1,0,1,0]","location_rts":"[458,390,453,682,795,518]","trial_type":"two-door-navigation","trial_index":51,"time_elapsed":663102,"internal_node_id":"0.0-2.0-49.0"},{"view_history":"[{\"page_index\":0,\"viewing_time\":2112}]","rt":2114,"trial_type":"instructions","trial_index":52,"time_elapsed":666217,"internal_node_id":"0.0-3.0"},{"view_history":"[{\"page_index\":0,\"viewing_time\":1410},{\"page_index\":1,\"viewing_time\":15045}]","rt":16455,"trial_type":"instructions","trial_index":53,"time_elapsed":683673,"internal_node_id":"0.0-4.0"},{"group":"hexagon_bi","fractal_assignment":["../images/cyn_red.png","../images/ylw_slt.png","../images/gry_blk.png","../images/pnk_blu.png","../images/org_blu.png","../images/blu_wht.png"],"mutagen_generator_assignment":[1,0],"goal":4,"start":0,"action_noise":0.15,"location_history":"[0,1,2,1,2,3,4]","action_history":"[1,0,0,0,1,0]","mutagen_history":"[0,1,1,1,0,1]","location_rts":"[1917,1021,946,1038,1814,1476]","trial_type":"fractal-mutation","trial_index":54,"time_elapsed":702532,"internal_node_id":"0.0-5.0-0.0"},{"group":"hexagon_bi","fractal_assignment":["../images/cyn_red.png","../images/ylw_slt.png","../images/gry_blk.png","../images/pnk_blu.png","../images/org_blu.png","../images/blu_wht.png"],"mutagen_generator_assignment":[1,0],"goal":3,"start":4,"action_noise":0.15,"location_history":"[4,5,4,3]","action_history":"[0,1,0]","mutagen_history":"[1,0,1]","location_rts":"[403,456,505]","trial_type":"fractal-mutation","trial_index":55,"time_elapsed":710918,"internal_node_id":"0.0-5.0-1.0"},{"group":"hexagon_bi","fractal_assignment":["../images/cyn_red.png","../images/ylw_slt.png","../images/gry_blk.png","../images/pnk_blu.png","../images/org_blu.png","../images/blu_wht.png"],"mutagen_generator_assignment":[1,0],"goal":5,"start":3,"action_noise":0.15,"location_history":"[3,2,1,0,5]","action_history":"[1,0,1,0]","mutagen_history":"[0,1,0,1]","location_rts":"[330,331,439,761]","trial_type":"fractal-mutation","trial_index":56,"time_elapsed":720938,"internal_node_id":"0.0-5.0-2.0"},{"group":"hexagon_bi","fractal_assignment":["../images/cyn_red.png","../images/ylw_slt.png","../images/gry_blk.png","../images/pnk_blu.png","../images/org_blu.png","../images/blu_wht.png"],"mutagen_generator_assignment":[1,0],"goal":2,"start":5,"action_noise":0.15,"location_history":"[5,0,1,2]","action_history":"[0,1,0]","mutagen_history":"[1,0,1]","location_rts":"[336,497,772]","trial_type":"fractal-mutation","trial_index":57,"time_elapsed":729512,"internal_node_id":"0.0-5.0-3.0"},{"group":"hexagon_bi","fractal_assignment":["../images/cyn_red.png","../images/ylw_slt.png","../images/gry_blk.png","../images/pnk_blu.png","../images/org_blu.png","../images/blu_wht.png"],"mutagen_generator_assignment":[1,0],"goal":1,"start":2,"action_noise":0.15,"location_history":"[2,3,2,1]","action_history":"[1,0,1]","mutagen_history":"[0,1,0]","location_rts":"[338,558,469]","trial_type":"fractal-mutation","trial_index":58,"time_elapsed":737793,"internal_node_id":"0.0-5.0-4.0"},{"group":"hexagon_bi","fractal_assignment":["../images/cyn_red.png","../images/ylw_slt.png","../images/gry_blk.png","../images/pnk_blu.png","../images/org_blu.png","../images/blu_wht.png"],"mutagen_generator_assignment":[1,0],"goal":4,"start":1,"action_noise":0.15,"location_history":"[1,2,3,4]","action_history":"[0,1,0]","mutagen_history":"[1,0,1]","location_rts":"[376,438,477]","trial_type":"fractal-mutation","trial_index":59,"time_elapsed":746138,"internal_node_id":"0.0-5.0-5.0"},{"group":"hexagon_bi","fractal_assignment":["../images/cyn_red.png","../images/ylw_slt.png","../images/gry_blk.png","../images/pnk_blu.png","../images/org_blu.png","../images/blu_wht.png"],"mutagen_generator_assignment":[1,0],"goal":1,"start":4,"action_noise":0.15,"location_history":"[4,5,0,1]","action_history":"[1,0,1]","mutagen_history":"[0,1,0]","location_rts":"[342,1011,453]","trial_type":"fractal-mutation","trial_index":60,"time_elapsed":754930,"internal_node_id":"0.0-5.0-6.0"},{"group":"hexagon_bi","fractal_assignment":["../images/cyn_red.png","../images/ylw_slt.png","../images/gry_blk.png","../images/pnk_blu.png","../images/org_blu.png","../images/blu_wht.png"],"mutagen_generator_assignment":[1,0],"goal":5,"start":1,"action_noise":0.15,"location_history":"[1,0,1,0,1,0,1,2,3,4,5]","action_history":"[0,1,0,1,0,1,0,1,0,1]","mutagen_history":"[1,0,1,0,1,0,1,0,1,0]","location_rts":"[495,712,573,750,685,395,482,422,663,518]","trial_type":"fractal-mutation","trial_index":61,"time_elapsed":775720,"internal_node_id":"0.0-5.0-7.0"},{"group":"hexagon_bi","fractal_assignment":["../images/cyn_red.png","../images/ylw_slt.png","../images/gry_blk.png","../images/pnk_blu.png","../images/org_blu.png","../images/blu_wht.png"],"mutagen_generator_assignment":[1,0],"goal":0,"start":5,"action_noise":0.15,"location_history":"[5,0]","action_history":"[0]","mutagen_history":"[1]","location_rts":"[378]","trial_type":"fractal-mutation","trial_index":62,"time_elapsed":780847,"internal_node_id":"0.0-5.0-8.0"},{"group":"hexagon_bi","fractal_assignment":["../images/cyn_red.png","../images/ylw_slt.png","../images/gry_blk.png","../images/pnk_blu.png","../images/org_blu.png","../images/blu_wht.png"],"mutagen_generator_assignment":[1,0],"goal":2,"start":0,"action_noise":0.15,"location_history":"[0,1,2]","action_history":"[1,0]","mutagen_history":"[0,1]","location_rts":"[885,496]","trial_type":"fractal-mutation","trial_index":63,"time_elapsed":788040,"internal_node_id":"0.0-5.0-9.0"},{"group":"hexagon_bi","fractal_assignment":["../images/cyn_red.png","../images/ylw_slt.png","../images/gry_blk.png","../images/pnk_blu.png","../images/org_blu.png","../images/blu_wht.png"],"mutagen_generator_assignment":[1,0],"goal":3,"start":2,"action_noise":0.15,"location_history":"[2,1,0,5,4,3]","action_history":"[0,1,0,1,0]","mutagen_history":"[1,0,1,0,1]","location_rts":"[399,382,456,749,820]","trial_type":"fractal-mutation","trial_index":64,"time_elapsed":800161,"internal_node_id":"0.0-5.0-10.0"},{"group":"hexagon_bi","fractal_assignment":["../images/cyn_red.png","../images/ylw_slt.png","../images/gry_blk.png","../images/pnk_blu.png","../images/org_blu.png","../images/blu_wht.png"],"mutagen_generator_assignment":[1,0],"goal":0,"start":3,"action_noise":0.15,"location_history":"[3,2,1,0]","action_history":"[1,0,1]","mutagen_history":"[0,1,0]","location_rts":"[330,422,393]","trial_type":"fractal-mutation","trial_index":65,"time_elapsed":808216,"internal_node_id":"0.0-5.0-11.0"},{"group":"hexagon_bi","fractal_assignment":["../images/cyn_red.png","../images/ylw_slt.png","../images/gry_blk.png","../images/pnk_blu.png","../images/org_blu.png","../images/blu_wht.png"],"mutagen_generator_assignment":[1,0],"goal":2,"start":0,"action_noise":0.15,"location_history":"[0,5,4,3,2]","action_history":"[0,1,0,1]","mutagen_history":"[1,0,1,0]","location_rts":"[534,415,408,357]","trial_type":"fractal-mutation","trial_index":66,"time_elapsed":818067,"internal_node_id":"0.0-5.0-12.0"},{"group":"hexagon_bi","fractal_assignment":["../images/cyn_red.png","../images/ylw_slt.png","../images/gry_blk.png","../images/pnk_blu.png","../images/org_blu.png","../images/blu_wht.png"],"mutagen_generator_assignment":[1,0],"goal":5,"start":2,"action_noise":0.15,"location_history":"[2,1,0,5]","action_history":"[0,1,0]","mutagen_history":"[1,0,1]","location_rts":"[659,509,354]","trial_type":"fractal-mutation","trial_index":67,"time_elapsed":826584,"internal_node_id":"0.0-5.0-13.0"},{"group":"hexagon_bi","fractal_assignment":["../images/cyn_red.png","../images/ylw_slt.png","../images/gry_blk.png","../images/pnk_blu.png","../images/org_blu.png","../images/blu_wht.png"],"mutagen_generator_assignment":[1,0],"goal":4,"start":5,"action_noise":0.15,"location_history":"[5,0,5,4]","action_history":"[1,0,1]","mutagen_history":"[0,1,0]","location_rts":"[383,375,389]","trial_type":"fractal-mutation","trial_index":68,"time_elapsed":834695,"internal_node_id":"0.0-5.0-14.0"},{"group":"hexagon_bi","fractal_assignment":["../images/cyn_red.png","../images/ylw_slt.png","../images/gry_blk.png","../images/pnk_blu.png","../images/org_blu.png","../images/blu_wht.png"],"mutagen_generator_assignment":[1,0],"goal":3,"start":4,"action_noise":0.15,"location_history":"[4,5,0,1,2,3]","action_history":"[1,0,1,0,1]","mutagen_history":"[0,1,0,1,0]","location_rts":"[305,528,813,564,756]","trial_type":"fractal-mutation","trial_index":69,"time_elapsed":846850,"internal_node_id":"0.0-5.0-15.0"},{"group":"hexagon_bi","fractal_assignment":["../images/cyn_red.png","../images/ylw_slt.png","../images/gry_blk.png","../images/pnk_blu.png","../images/org_blu.png","../images/blu_wht.png"],"mutagen_generator_assignment":[1,0],"goal":1,"start":3,"action_noise":0.15,"location_history":"[3,2,1]","action_history":"[1,0]","mutagen_history":"[0,1]","location_rts":"[428,336]","trial_type":"fractal-mutation","trial_index":70,"time_elapsed":853447,"internal_node_id":"0.0-5.0-16.0"},{"group":"hexagon_bi","fractal_assignment":["../images/cyn_red.png","../images/ylw_slt.png","../images/gry_blk.png","../images/pnk_blu.png","../images/org_blu.png","../images/blu_wht.png"],"mutagen_generator_assignment":[1,0],"goal":5,"start":1,"action_noise":0.15,"location_history":"[1,0,5]","action_history":"[1,0]","mutagen_history":"[0,1]","location_rts":"[313,436]","trial_type":"fractal-mutation","trial_index":71,"time_elapsed":859998,"internal_node_id":"0.0-5.0-17.0"},{"group":"hexagon_bi","fractal_assignment":["../images/cyn_red.png","../images/ylw_slt.png","../images/gry_blk.png","../images/pnk_blu.png","../images/org_blu.png","../images/blu_wht.png"],"mutagen_generator_assignment":[1,0],"goal":4,"start":5,"action_noise":0.15,"location_history":"[5,4]","action_history":"[1]","mutagen_history":"[0]","location_rts":"[362]","trial_type":"fractal-mutation","trial_index":72,"time_elapsed":864966,"internal_node_id":"0.0-5.0-18.0"},{"group":"hexagon_bi","fractal_assignment":["../images/cyn_red.png","../images/ylw_slt.png","../images/gry_blk.png","../images/pnk_blu.png","../images/org_blu.png","../images/blu_wht.png"],"mutagen_generator_assignment":[1,0],"goal":0,"start":4,"action_noise":0.15,"location_history":"[4,5,0]","action_history":"[1,0]","mutagen_history":"[0,1]","location_rts":"[314,395]","trial_type":"fractal-mutation","trial_index":73,"time_elapsed":871500,"internal_node_id":"0.0-5.0-19.0"},{"group":"hexagon_bi","fractal_assignment":["../images/cyn_red.png","../images/ylw_slt.png","../images/gry_blk.png","../images/pnk_blu.png","../images/org_blu.png","../images/blu_wht.png"],"mutagen_generator_assignment":[1,0],"goal":1,"start":0,"action_noise":0.15,"location_history":"[0,1]","action_history":"[1]","mutagen_history":"[0]","location_rts":"[408]","trial_type":"fractal-mutation","trial_index":74,"time_elapsed":876578,"internal_node_id":"0.0-5.0-20.0"},{"group":"hexagon_bi","fractal_assignment":["../images/cyn_red.png","../images/ylw_slt.png","../images/gry_blk.png","../images/pnk_blu.png","../images/org_blu.png","../images/blu_wht.png"],"mutagen_generator_assignment":[1,0],"goal":3,"start":1,"action_noise":0.15,"location_history":"[1,0,5,4,3]","action_history":"[1,0,1,0]","mutagen_history":"[0,1,0,1]","location_rts":"[448,580,453,1052]","trial_type":"fractal-mutation","trial_index":75,"time_elapsed":887252,"internal_node_id":"0.0-5.0-21.0"},{"group":"hexagon_bi","fractal_assignment":["../images/cyn_red.png","../images/ylw_slt.png","../images/gry_blk.png","../images/pnk_blu.png","../images/org_blu.png","../images/blu_wht.png"],"mutagen_generator_assignment":[1,0],"goal":2,"start":3,"action_noise":0.15,"location_history":"[3,4,3,2]","action_history":"[1,0,1]","mutagen_history":"[0,1,0]","location_rts":"[963,315,362]","trial_type":"fractal-mutation","trial_index":76,"time_elapsed":895842,"internal_node_id":"0.0-5.0-22.0"},{"group":"hexagon_bi","fractal_assignment":["../images/cyn_red.png","../images/ylw_slt.png","../images/gry_blk.png","../images/pnk_blu.png","../images/org_blu.png","../images/blu_wht.png"],"mutagen_generator_assignment":[1,0],"goal":0,"start":2,"action_noise":0.15,"location_history":"[2,3,2,3,4,5,4,5,4,5,0]","action_history":"[1,0,1,0,1,0,1,0,1,0]","mutagen_history":"[0,1,0,1,0,1,0,1,0,1]","location_rts":"[818,382,347,721,876,829,986,805,1196,1148]","trial_type":"fractal-mutation","trial_index":77,"time_elapsed":918985,"internal_node_id":"0.0-5.0-23.0"},{"group":"hexagon_bi","fractal_assignment":["../images/cyn_red.png","../images/ylw_slt.png","../images/gry_blk.png","../images/pnk_blu.png","../images/org_blu.png","../images/blu_wht.png"],"mutagen_generator_assignment":[1,0],"goal":3,"start":0,"action_noise":0.15,"location_history":"[0,1,2,3]","action_history":"[1,0,1]","mutagen_history":"[0,1,0]","location_rts":"[905,586,427]","trial_type":"fractal-mutation","trial_index":78,"time_elapsed":927834,"internal_node_id":"0.0-5.0-24.0"},{"group":"hexagon_bi","fractal_assignment":["../images/cyn_red.png","../images/ylw_slt.png","../images/gry_blk.png","../images/pnk_blu.png","../images/org_blu.png","../images/blu_wht.png"],"mutagen_generator_assignment":[1,0],"goal":1,"start":3,"action_noise":0.15,"location_history":"[3,2,1]","action_history":"[1,0]","mutagen_history":"[0,1]","location_rts":"[930,381]","trial_type":"fractal-mutation","trial_index":79,"time_elapsed":934967,"internal_node_id":"0.0-5.0-25.0"},{"group":"hexagon_bi","fractal_assignment":["../images/cyn_red.png","../images/ylw_slt.png","../images/gry_blk.png","../images/pnk_blu.png","../images/org_blu.png","../images/blu_wht.png"],"mutagen_generator_assignment":[1,0],"goal":2,"start":1,"action_noise":0.15,"location_history":"[1,0,1,0,1,0,1,0,5,4,3,2]","action_history":"[1,0,1,0,1,0,1,0,1,0,1]","mutagen_history":"[0,1,0,1,0,1,0,1,0,1,0]","location_rts":"[975,298,385,373,471,909,1116,1130,1081,881,888]","trial_type":"fractal-mutation","trial_index":80,"time_elapsed":959691,"internal_node_id":"0.0-5.0-26.0"},{"group":"hexagon_bi","fractal_assignment":["../images/cyn_red.png","../images/ylw_slt.png","../images/gry_blk.png","../images/pnk_blu.png","../images/org_blu.png","../images/blu_wht.png"],"mutagen_generator_assignment":[1,0],"goal":5,"start":2,"action_noise":0.15,"location_history":"[2,3,4,3,4,5]","action_history":"[1,0,1,0,1]","mutagen_history":"[0,1,0,1,0]","location_rts":"[944,925,927,825,842]","trial_type":"fractal-mutation","trial_index":81,"time_elapsed":973361,"internal_node_id":"0.0-5.0-27.0"},{"group":"hexagon_bi","fractal_assignment":["../images/cyn_red.png","../images/ylw_slt.png","../images/gry_blk.png","../images/pnk_blu.png","../images/org_blu.png","../images/blu_wht.png"],"mutagen_generator_assignment":[1,0],"goal":4,"start":5,"action_noise":0.15,"location_history":"[5,4]","action_history":"[1]","mutagen_history":"[0]","location_rts":"[375]","trial_type":"fractal-mutation","trial_index":82,"time_elapsed":978367,"internal_node_id":"0.0-5.0-28.0"},{"group":"hexagon_bi","fractal_assignment":["../images/cyn_red.png","../images/ylw_slt.png","../images/gry_blk.png","../images/pnk_blu.png","../images/org_blu.png","../images/blu_wht.png"],"mutagen_generator_assignment":[1,0],"goal":5,"start":4,"action_noise":0.15,"location_history":"[4,5]","action_history":"[1]","mutagen_history":"[0]","location_rts":"[950]","trial_type":"fractal-mutation","trial_index":83,"time_elapsed":983938,"internal_node_id":"0.0-5.0-29.0"},{"group":"hexagon_bi","fractal_assignment":["../images/cyn_red.png","../images/ylw_slt.png","../images/gry_blk.png","../images/pnk_blu.png","../images/org_blu.png","../images/blu_wht.png"],"mutagen_generator_assignment":[1,0],"goal":3,"start":5,"action_noise":0.15,"location_history":"[5,4,3]","action_history":"[1,0]","mutagen_history":"[0,1]","location_rts":"[840,506]","trial_type":"fractal-mutation","trial_index":84,"time_elapsed":991120,"internal_node_id":"0.0-5.0-30.0"},{"group":"hexagon_bi","fractal_assignment":["../images/cyn_red.png","../images/ylw_slt.png","../images/gry_blk.png","../images/pnk_blu.png","../images/org_blu.png","../images/blu_wht.png"],"mutagen_generator_assignment":[1,0],"goal":0,"start":3,"action_noise":0.15,"location_history":"[3,2,1,0]","action_history":"[1,0,1]","mutagen_history":"[0,1,0]","location_rts":"[920,330,446]","trial_type":"fractal-mutation","trial_index":85,"time_elapsed":999751,"internal_node_id":"0.0-5.0-31.0"},{"group":"hexagon_bi","fractal_assignment":["../images/cyn_red.png","../images/ylw_slt.png","../images/gry_blk.png","../images/pnk_blu.png","../images/org_blu.png","../images/blu_wht.png"],"mutagen_generator_assignment":[1,0],"goal":4,"start":0,"action_noise":0.15,"location_history":"[0,1,0,1,2,3,4]","action_history":"[1,0,1,0,1,0]","mutagen_history":"[0,1,0,1,0,1]","location_rts":"[961,342,585,459,371,346]","trial_type":"fractal-mutation","trial_index":86,"time_elapsed":1013288,"internal_node_id":"0.0-5.0-32.0"},{"group":"hexagon_bi","fractal_assignment":["../images/cyn_red.png","../images/ylw_slt.png","../images/gry_blk.png","../images/pnk_blu.png","../images/org_blu.png","../images/blu_wht.png"],"mutagen_generator_assignment":[1,0],"goal":1,"start":4,"action_noise":0.15,"location_history":"[4,5,0,1]","action_history":"[1,0,1]","mutagen_history":"[0,1,0]","location_rts":"[845,620,726]","trial_type":"fractal-mutation","trial_index":87,"time_elapsed":1022421,"internal_node_id":"0.0-5.0-33.0"},{"group":"hexagon_bi","fractal_assignment":["../images/cyn_red.png","../images/ylw_slt.png","../images/gry_blk.png","../images/pnk_blu.png","../images/org_blu.png","../images/blu_wht.png"],"mutagen_generator_assignment":[1,0],"goal":2,"start":1,"action_noise":0.15,"location_history":"[1,0,5,4,3,2]","action_history":"[1,0,1,0,1]","mutagen_history":"[0,1,0,1,0]","location_rts":"[886,269,441,418,347]","trial_type":"fractal-mutation","trial_index":88,"time_elapsed":1034026,"internal_node_id":"0.0-5.0-34.0"},{"group":"hexagon_bi","fractal_assignment":["../images/cyn_red.png","../images/ylw_slt.png","../images/gry_blk.png","../images/pnk_blu.png","../images/org_blu.png","../images/blu_wht.png"],"mutagen_generator_assignment":[1,0],"goal":0,"start":2,"action_noise":0.15,"location_history":"[2,1,2,3,4,5,4,5,0]","action_history":"[1,0,1,0,1,0,1,0]","mutagen_history":"[0,1,0,1,0,1,0,1]","location_rts":"[1059,401,346,350,697,393,494,409]","trial_type":"fractal-mutation","trial_index":89,"time_elapsed":1050947,"internal_node_id":"0.0-5.0-35.0"},{"group":"hexagon_bi","fractal_assignment":["../images/cyn_red.png","../images/ylw_slt.png","../images/gry_blk.png","../images/pnk_blu.png","../images/org_blu.png","../images/blu_wht.png"],"mutagen_generator_assignment":[1,0],"goal":5,"start":0,"action_noise":0.15,"location_history":"[0,5]","action_history":"[1]","mutagen_history":"[0]","location_rts":"[1390]","trial_type":"fractal-mutation","trial_index":90,"time_elapsed":1056958,"internal_node_id":"0.0-5.0-36.0"},{"group":"hexagon_bi","fractal_assignment":["../images/cyn_red.png","../images/ylw_slt.png","../images/gry_blk.png","../images/pnk_blu.png","../images/org_blu.png","../images/blu_wht.png"],"mutagen_generator_assignment":[1,0],"goal":2,"start":5,"action_noise":0.15,"location_history":"[5,4,3,2]","action_history":"[1,0,1]","mutagen_history":"[0,1,0]","location_rts":"[961,455,455]","trial_type":"fractal-mutation","trial_index":91,"time_elapsed":1065803,"internal_node_id":"0.0-5.0-37.0"},{"group":"hexagon_bi","fractal_assignment":["../images/cyn_red.png","../images/ylw_slt.png","../images/gry_blk.png","../images/pnk_blu.png","../images/org_blu.png","../images/blu_wht.png"],"mutagen_generator_assignment":[1,0],"goal":1,"start":2,"action_noise":0.15,"location_history":"[2,3,2,3,4,3,4,5,0,1]","action_history":"[1,0,1,0,1,0,1,0,1]","mutagen_history":"[0,1,0,1,0,1,0,1,0]","location_rts":"[399,463,352,519,431,477,367,639,457]","trial_type":"fractal-mutation","trial_index":92,"time_elapsed":1083841,"internal_node_id":"0.0-5.0-38.0"},{"group":"hexagon_bi","fractal_assignment":["../images/cyn_red.png","../images/ylw_slt.png","../images/gry_blk.png","../images/pnk_blu.png","../images/org_blu.png","../images/blu_wht.png"],"mutagen_generator_assignment":[1,0],"goal":4,"start":1,"action_noise":0.15,"location_history":"[1,0,5,4]","action_history":"[1,0,1]","mutagen_history":"[0,1,0]","location_rts":"[1154,316,353]","trial_type":"fractal-mutation","trial_index":93,"time_elapsed":1092630,"internal_node_id":"0.0-5.0-39.0"},{"group":"hexagon_bi","fractal_assignment":["../images/cyn_red.png","../images/ylw_slt.png","../images/gry_blk.png","../images/pnk_blu.png","../images/org_blu.png","../images/blu_wht.png"],"mutagen_generator_assignment":[1,0],"goal":3,"start":4,"action_noise":0.15,"location_history":"[4,5,0,5,0,1,0,5,0,1,2,3]","action_history":"[1,0,1,0,1,0,1,0,1,0,1]","mutagen_history":"[0,1,0,1,0,1,0,1,0,1,0]","location_rts":"[874,336,293,392,310,425,322,427,397,366,362]","trial_type":"fractal-mutation","trial_index":94,"time_elapsed":1113349,"internal_node_id":"0.0-5.0-40.0"},{"group":"hexagon_bi","fractal_assignment":["../images/cyn_red.png","../images/ylw_slt.png","../images/gry_blk.png","../images/pnk_blu.png","../images/org_blu.png","../images/blu_wht.png"],"mutagen_generator_assignment":[1,0],"goal":5,"start":3,"action_noise":0.15,"location_history":"[3,2,1,0,5]","action_history":"[1,0,1,0]","mutagen_history":"[0,1,0,1]","location_rts":"[330,355,312,349]","trial_type":"fractal-mutation","trial_index":95,"time_elapsed":1122798,"internal_node_id":"0.0-5.0-41.0"},{"group":"hexagon_bi","fractal_assignment":["../images/cyn_red.png","../images/ylw_slt.png","../images/gry_blk.png","../images/pnk_blu.png","../images/org_blu.png","../images/blu_wht.png"],"mutagen_generator_assignment":[1,0],"goal":3,"start":5,"action_noise":0.15,"location_history":"[5,0,5,4,3]","action_history":"[1,0,1,0]","mutagen_history":"[0,1,0,1]","location_rts":"[948,502,320,349]","trial_type":"fractal-mutation","trial_index":96,"time_elapsed":1133083,"internal_node_id":"0.0-5.0-42.0"},{"group":"hexagon_bi","fractal_assignment":["../images/cyn_red.png","../images/ylw_slt.png","../images/gry_blk.png","../images/pnk_blu.png","../images/org_blu.png","../images/blu_wht.png"],"mutagen_generator_assignment":[1,0],"goal":0,"start":3,"action_noise":0.15,"location_history":"[3,2,3,2,1,0]","action_history":"[1,0,1,0,1]","mutagen_history":"[0,1,0,1,0]","location_rts":"[1137,291,313,360,305]","trial_type":"fractal-mutation","trial_index":97,"time_elapsed":1144748,"internal_node_id":"0.0-5.0-43.0"},{"group":"hexagon_bi","fractal_assignment":["../images/cyn_red.png","../images/ylw_slt.png","../images/gry_blk.png","../images/pnk_blu.png","../images/org_blu.png","../images/blu_wht.png"],"mutagen_generator_assignment":[1,0],"goal":2,"start":0,"action_noise":0.15,"location_history":"[0,5,0,1,2]","action_history":"[1,0,1,0]","mutagen_history":"[0,1,0,1]","location_rts":"[1197,441,472,294]","trial_type":"fractal-mutation","trial_index":98,"time_elapsed":1155268,"internal_node_id":"0.0-5.0-44.0"},{"group":"hexagon_bi","fractal_assignment":["../images/cyn_red.png","../images/ylw_slt.png","../images/gry_blk.png","../images/pnk_blu.png","../images/org_blu.png","../images/blu_wht.png"],"mutagen_generator_assignment":[1,0],"goal":4,"start":2,"action_noise":0.15,"location_history":"[2,3,4]","action_history":"[1,0]","mutagen_history":"[0,1]","location_rts":"[957,290]","trial_type":"fractal-mutation","trial_index":99,"time_elapsed":1162299,"internal_node_id":"0.0-5.0-45.0"},{"group":"hexagon_bi","fractal_assignment":["../images/cyn_red.png","../images/ylw_slt.png","../images/gry_blk.png","../images/pnk_blu.png","../images/org_blu.png","../images/blu_wht.png"],"mutagen_generator_assignment":[1,0],"goal":1,"start":4,"action_noise":0.15,"location_history":"[4,3,2,1]","action_history":"[1,0,1]","mutagen_history":"[0,1,0]","location_rts":"[540,313,324]","trial_type":"fractal-mutation","trial_index":100,"time_elapsed":1170428,"internal_node_id":"0.0-5.0-46.0"},{"group":"hexagon_bi","fractal_assignment":["../images/cyn_red.png","../images/ylw_slt.png","../images/gry_blk.png","../images/pnk_blu.png","../images/org_blu.png","../images/blu_wht.png"],"mutagen_generator_assignment":[1,0],"goal":4,"start":1,"action_noise":0.15,"location_history":"[1,0,5,0,1,0,5,4]","action_history":"[1,0,1,0,1,0,1]","mutagen_history":"[0,1,0,1,0,1,0]","location_rts":"[391,436,774,355,820,338,330]","trial_type":"fractal-mutation","trial_index":101,"time_elapsed":1185459,"internal_node_id":"0.0-5.0-47.0"},{"group":"hexagon_bi","fractal_assignment":["../images/cyn_red.png","../images/ylw_slt.png","../images/gry_blk.png","../images/pnk_blu.png","../images/org_blu.png","../images/blu_wht.png"],"mutagen_generator_assignment":[1,0],"goal":3,"start":4,"action_noise":0.15,"location_history":"[4,5,0,1,2,3]","action_history":"[1,0,1,0,1]","mutagen_history":"[0,1,0,1,0]","location_rts":"[1122,431,375,316,376]","trial_type":"fractal-mutation","trial_index":102,"time_elapsed":1197338,"internal_node_id":"0.0-5.0-48.0"},{"group":"hexagon_bi","fractal_assignment":["../images/cyn_red.png","../images/ylw_slt.png","../images/gry_blk.png","../images/pnk_blu.png","../images/org_blu.png","../images/blu_wht.png"],"mutagen_generator_assignment":[1,0],"goal":5,"start":3,"action_noise":0.15,"location_history":"[3,2,1,0,1,0,5]","action_history":"[1,0,1,0,1,0]","mutagen_history":"[0,1,0,1,0,1]","location_rts":"[554,403,412,288,340,276]","trial_type":"fractal-mutation","trial_index":103,"time_elapsed":1210011,"internal_node_id":"0.0-5.0-49.0"},{"view_history":"[{\"page_index\":0,\"viewing_time\":19374}]","rt":19374,"trial_type":"instructions","trial_index":104,"time_elapsed":1230386,"internal_node_id":"0.0-6.0"},{"rt":1870,"responses":"{\"Q0\":\"\"}","trial_type":"survey-text","trial_index":105,"time_elapsed":1233269,"internal_node_id":"0.0-7.0"}]