[{"view_history":"[{\"page_index\":0,\"viewing_time\":70728},{\"page_index\":1,\"viewing_time\":5709},{\"page_index\":2,\"viewing_time\":10213},{\"page_index\":3,\"viewing_time\":1471}]","rt":88123,"trial_type":"instructions","trial_index":0,"time_elapsed":88124,"internal_node_id":"0.0-0.0"},{"view_history":"[{\"page_index\":0,\"viewing_time\":1111},{\"page_index\":1,\"viewing_time\":5856}]","rt":6968,"trial_type":"instructions","trial_index":1,"time_elapsed":96094,"internal_node_id":"0.0-1.0"},{"group":"hexagon_bi","room_assignment":["purple","red","grey","green","yellow","blue"],"door_color_assignment":["white","black"],"door_generator_assignment":[1,0],"goal":4,"start":0,"action_noise":0.15,"location_history":"[0,1,2,1,0,5,0,5,0,5,0,5,4]","action_history":"[1,0,0,1,1,0,1,0,0,0,1,1]","door_history":"[0,1,1,0,0,1,0,1,1,1,0,0]","location_rts":"[4045,1598,557,542,331,307,386,485,86,201,706,364]","trial_type":"two-door-navigation","trial_index":2,"time_elapsed":121594,"internal_node_id":"0.0-2.0-0.0"},{"group":"hexagon_bi","room_assignment":["purple","red","grey","green","yellow","blue"],"door_color_assignment":["white","black"],"door_generator_assignment":[1,0],"goal":3,"start":4,"action_noise":0.15,"location_history":"[4,5,0,5,4,3]","action_history":"[1,0,0,0,0]","door_history":"[0,1,1,1,1]","location_rts":"[802,413,167,85,112]","trial_type":"two-door-navigation","trial_index":3,"time_elapsed":131806,"internal_node_id":"0.0-2.0-1.0"},{"group":"hexagon_bi","room_assignment":["purple","red","grey","green","yellow","blue"],"door_color_assignment":["white","black"],"door_generator_assignment":[1,0],"goal":5,"start":3,"action_noise":0.15,"location_history":"[3,4,3,4,3,2,1,2,1,2,1,2,3,2,3,4,3,4,3,4,5]","action_history":"[0,0,0,0,0,0,0,0,0,0,0,1,1,1,1,1,0,0,0,1]","door_history":"[1,1,1,1,1,1,1,1,1,1,1,0,0,0,0,0,1,1,1,0]","location_rts":"[448,56,170,182,92,306,35,169,107,198,210,727,86,158,109,141,527,174,102,636]","trial_type":"two-door-navigation","trial_index":4,"time_elapsed":160585,"internal_node_id":"0.0-2.0-2.0"},{"group":"hexagon_bi","room_assignment":["purple","red","grey","green","yellow","blue"],"door_color_assignment":["white","black"],"door_generator_assignment":[1,0],"goal":2,"start":5,"action_noise":0.15,"location_history":"[5,4,3,4,3,2]","action_history":"[1,1,0,0,0]","door_history":"[0,0,1,1,1]","location_rts":"[313,293,9,373,61]","trial_type":"two-door-navigation","trial_index":5,"time_elapsed":170760,"internal_node_id":"0.0-2.0-3.0"},{"group":"hexagon_bi","room_assignment":["purple","red","grey","green","yellow","blue"],"door_color_assignment":["white","black"],"door_generator_assignment":[1,0],"goal":1,"start":2,"action_noise":0.15,"location_history":"[2,3,4,3,4,3,4,3,4,5,4,5,0,1]","action_history":"[1,0,0,0,0,0,0,0,1,1,1,1,1]","door_history":"[0,1,1,1,1,1,1,1,0,0,0,0,0]","location_rts":"[1023,65,52,4252,387,49,14,51,86,44,99,99,6]","trial_type":"two-door-navigation","trial_index":6,"time_elapsed":195620,"internal_node_id":"0.0-2.0-4.0"},{"group":"hexagon_bi","room_assignment":["purple","red","grey","green","yellow","blue"],"door_color_assignment":["white","black"],"door_generator_assignment":[1,0],"goal":4,"start":1,"action_noise":0.15,"location_history":"[1,2,1,2,1,0,1,0,1,2,3,4]","action_history":"[0,0,0,0,1,1,1,0,0,1,1]","door_history":"[1,1,1,1,0,0,0,1,1,0,0]","location_rts":"[251,376,64,4,340,160,639,368,294,85,197]","trial_type":"two-door-navigation","trial_index":7,"time_elapsed":213205,"internal_node_id":"0.0-2.0-5.0"},{"group":"hexagon_bi","room_assignment":["purple","red","grey","green","yellow","blue"],"door_color_assignment":["white","black"],"door_generator_assignment":[1,0],"goal":1,"start":4,"action_noise":0.15,"location_history":"[4,3,2,1]","action_history":"[0,1,0]","door_history":"[1,0,1]","location_rts":"[265,562,820]","trial_type":"two-door-navigation","trial_index":8,"time_elapsed":221487,"internal_node_id":"0.0-2.0-6.0"},{"group":"hexagon_bi","room_assignment":["purple","red","grey","green","yellow","blue"],"door_color_assignment":["white","black"],"door_generator_assignment":[1,0],"goal":5,"start":1,"action_noise":0.15,"location_history":"[1,0,5]","action_history":"[1,0]","door_history":"[0,1]","location_rts":"[263,208]","trial_type":"two-door-navigation","trial_index":9,"time_elapsed":227527,"internal_node_id":"0.0-2.0-7.0"},{"group":"hexagon_bi","room_assignment":["purple","red","grey","green","yellow","blue"],"door_color_assignment":["white","black"],"door_generator_assignment":[1,0],"goal":0,"start":5,"action_noise":0.15,"location_history":"[5,4,3,2,1,2,1,0]","action_history":"[1,0,1,0,1,0,1]","door_history":"[0,1,0,1,0,1,0]","location_rts":"[233,184,1124,136,263,119,247]","trial_type":"two-door-navigation","trial_index":10,"time_elapsed":240511,"internal_node_id":"0.0-2.0-8.0"},{"group":"hexagon_bi","room_assignment":["purple","red","grey","green","yellow","blue"],"door_color_assignment":["white","black"],"door_generator_assignment":[1,0],"goal":2,"start":0,"action_noise":0.15,"location_history":"[0,1,2]","action_history":"[1,0]","door_history":"[0,1]","location_rts":"[299,43]","trial_type":"two-door-navigation","trial_index":11,"time_elapsed":246405,"internal_node_id":"0.0-2.0-9.0"},{"group":"hexagon_bi","room_assignment":["purple","red","grey","green","yellow","blue"],"door_color_assignment":["white","black"],"door_generator_assignment":[1,0],"goal":3,"start":2,"action_noise":0.15,"location_history":"[2,3]","action_history":"[1]","door_history":"[0]","location_rts":"[251]","trial_type":"two-door-navigation","trial_index":12,"time_elapsed":251181,"internal_node_id":"0.0-2.0-10.0"},{"group":"hexagon_bi","room_assignment":["purple","red","grey","green","yellow","blue"],"door_color_assignment":["white","black"],"door_generator_assignment":[1,0],"goal":0,"start":3,"action_noise":0.15,"location_history":"[3,2,1,0]","action_history":"[1,0,1]","door_history":"[0,1,0]","location_rts":"[537,130,635]","trial_type":"two-door-navigation","trial_index":13,"time_elapsed":259061,"internal_node_id":"0.0-2.0-11.0"},{"group":"hexagon_bi","room_assignment":["purple","red","grey","green","yellow","blue"],"door_color_assignment":["white","black"],"door_generator_assignment":[1,0],"goal":2,"start":0,"action_noise":0.15,"location_history":"[0,5,4,3,2]","action_history":"[0,1,0,1]","door_history":"[1,0,1,0]","location_rts":"[129,340,204,185]","trial_type":"two-door-navigation","trial_index":14,"time_elapsed":267571,"internal_node_id":"0.0-2.0-12.0"},{"group":"hexagon_bi","room_assignment":["purple","red","grey","green","yellow","blue"],"door_color_assignment":["white","black"],"door_generator_assignment":[1,0],"goal":5,"start":2,"action_noise":0.15,"location_history":"[2,1,0,5]","action_history":"[0,1,0]","door_history":"[1,0,1]","location_rts":"[49,39,76]","trial_type":"two-door-navigation","trial_index":15,"time_elapsed":274311,"internal_node_id":"0.0-2.0-13.0"},{"group":"hexagon_bi","room_assignment":["purple","red","grey","green","yellow","blue"],"door_color_assignment":["white","black"],"door_generator_assignment":[1,0],"goal":4,"start":5,"action_noise":0.15,"location_history":"[5,0,1,2,3,4]","action_history":"[0,1,0,1,0]","door_history":"[1,0,1,0,1]","location_rts":"[217,150,339,62,73]","trial_type":"two-door-navigation","trial_index":16,"time_elapsed":283800,"internal_node_id":"0.0-2.0-14.0"},{"group":"hexagon_bi","room_assignment":["purple","red","grey","green","yellow","blue"],"door_color_assignment":["white","black"],"door_generator_assignment":[1,0],"goal":3,"start":4,"action_noise":0.15,"location_history":"[4,3]","action_history":"[1]","door_history":"[0]","location_rts":"[88]","trial_type":"two-door-navigation","trial_index":17,"time_elapsed":288417,"internal_node_id":"0.0-2.0-15.0"},{"group":"hexagon_bi","room_assignment":["purple","red","grey","green","yellow","blue"],"door_color_assignment":["white","black"],"door_generator_assignment":[1,0],"goal":1,"start":3,"action_noise":0.15,"location_history":"[3,4,3,4,5,0,1]","action_history":"[0,1,0,1,0,1]","door_history":"[1,0,1,0,1,0]","location_rts":"[545,173,344,291,409,244]","trial_type":"two-door-navigation","trial_index":18,"time_elapsed":300085,"internal_node_id":"0.0-2.0-16.0"},{"group":"hexagon_bi","room_assignment":["purple","red","grey","green","yellow","blue"],"door_color_assignment":["white","black"],"door_generator_assignment":[1,0],"goal":5,"start":1,"action_noise":0.15,"location_history":"[1,2,3,4,5]","action_history":"[0,1,0,1]","door_history":"[1,0,1,0]","location_rts":"[248,27,85,356]","trial_type":"two-door-navigation","trial_index":19,"time_elapsed":308419,"internal_node_id":"0.0-2.0-17.0"},{"group":"hexagon_bi","room_assignment":["purple","red","grey","green","yellow","blue"],"door_color_assignment":["white","black"],"door_generator_assignment":[1,0],"goal":4,"start":5,"action_noise":0.15,"location_history":"[5,0,1,2,3,4]","action_history":"[0,1,0,1,0]","door_history":"[1,0,1,0,1]","location_rts":"[10446,283,84,269,32]","trial_type":"two-door-navigation","trial_index":20,"time_elapsed":328204,"internal_node_id":"0.0-2.0-18.0"},{"group":"hexagon_bi","room_assignment":["purple","red","grey","green","yellow","blue"],"door_color_assignment":["white","black"],"door_generator_assignment":[1,0],"goal":0,"start":4,"action_noise":0.15,"location_history":"[4,5,4,3,2,1,0]","action_history":"[0,1,0,1,0,1]","door_history":"[1,0,1,0,1,0]","location_rts":"[235,368,464,77,209,156]","trial_type":"two-door-navigation","trial_index":21,"time_elapsed":339413,"internal_node_id":"0.0-2.0-19.0"},{"group":"hexagon_bi","room_assignment":["purple","red","grey","green","yellow","blue"],"door_color_assignment":["white","black"],"door_generator_assignment":[1,0],"goal":1,"start":0,"action_noise":0.15,"location_history":"[0,5,4,3,4,3,2,1]","action_history":"[0,1,0,1,0,1,0]","door_history":"[1,0,1,0,1,0,1]","location_rts":"[73,0,146,110,518,188,270]","trial_type":"two-door-navigation","trial_index":22,"time_elapsed":351427,"internal_node_id":"0.0-2.0-20.0"},{"group":"hexagon_bi","room_assignment":["purple","red","grey","green","yellow","blue"],"door_color_assignment":["white","black"],"door_generator_assignment":[1,0],"goal":3,"start":1,"action_noise":0.15,"location_history":"[1,0,1,2,3]","action_history":"[0,1,0,1]","door_history":"[1,0,1,0]","location_rts":"[1109,246,366,72]","trial_type":"two-door-navigation","trial_index":23,"time_elapsed":360835,"internal_node_id":"0.0-2.0-21.0"},{"group":"hexagon_bi","room_assignment":["purple","red","grey","green","yellow","blue"],"door_color_assignment":["white","black"],"door_generator_assignment":[1,0],"goal":2,"start":3,"action_noise":0.15,"location_history":"[3,4,5,0,1,0,1,2]","action_history":"[0,1,0,1,0,1,0]","door_history":"[1,0,1,0,1,0,1]","location_rts":"[585,1546,498,192,317,352,39]","trial_type":"two-door-navigation","trial_index":24,"time_elapsed":375084,"internal_node_id":"0.0-2.0-22.0"},{"group":"hexagon_bi","room_assignment":["purple","red","grey","green","yellow","blue"],"door_color_assignment":["white","black"],"door_generator_assignment":[1,0],"goal":0,"start":2,"action_noise":0.15,"location_history":"[2,1,0]","action_history":"[0,1]","door_history":"[1,0]","location_rts":"[362,319]","trial_type":"two-door-navigation","trial_index":25,"time_elapsed":381317,"internal_node_id":"0.0-2.0-23.0"},{"group":"hexagon_bi","room_assignment":["purple","red","grey","green","yellow","blue"],"door_color_assignment":["white","black"],"door_generator_assignment":[1,0],"goal":3,"start":0,"action_noise":0.15,"location_history":"[0,5,4,3]","action_history":"[0,1,0]","door_history":"[1,0,1]","location_rts":"[428,149,394]","trial_type":"two-door-navigation","trial_index":26,"time_elapsed":388872,"internal_node_id":"0.0-2.0-24.0"},{"group":"hexagon_bi","room_assignment":["purple","red","grey","green","yellow","blue"],"door_color_assignment":["white","black"],"door_generator_assignment":[1,0],"goal":1,"start":3,"action_noise":0.15,"location_history":"[3,2,3,4,5,0,1]","action_history":"[0,1,0,1,0,1]","door_history":"[1,0,1,0,1,0]","location_rts":"[35,173,101,119,94,295]","trial_type":"two-door-navigation","trial_index":27,"time_elapsed":399373,"internal_node_id":"0.0-2.0-25.0"},{"group":"hexagon_bi","room_assignment":["purple","red","grey","green","yellow","blue"],"door_color_assignment":["white","black"],"door_generator_assignment":[1,0],"goal":2,"start":1,"action_noise":0.15,"location_history":"[1,2]","action_history":"[0]","door_history":"[1]","location_rts":"[132]","trial_type":"two-door-navigation","trial_index":28,"time_elapsed":404045,"internal_node_id":"0.0-2.0-26.0"},{"group":"hexagon_bi","room_assignment":["purple","red","grey","green","yellow","blue"],"door_color_assignment":["white","black"],"door_generator_assignment":[1,0],"goal":5,"start":2,"action_noise":0.15,"location_history":"[2,1,0,5]","action_history":"[0,1,0]","door_history":"[1,0,1]","location_rts":"[345,44,219]","trial_type":"two-door-navigation","trial_index":29,"time_elapsed":411254,"internal_node_id":"0.0-2.0-27.0"},{"group":"hexagon_bi","room_assignment":["purple","red","grey","green","yellow","blue"],"door_color_assignment":["white","black"],"door_generator_assignment":[1,0],"goal":4,"start":5,"action_noise":0.15,"location_history":"[5,4]","action_history":"[0]","door_history":"[1]","location_rts":"[208]","trial_type":"two-door-navigation","trial_index":30,"time_elapsed":415997,"internal_node_id":"0.0-2.0-28.0"},{"group":"hexagon_bi","room_assignment":["purple","red","grey","green","yellow","blue"],"door_color_assignment":["white","black"],"door_generator_assignment":[1,0],"goal":5,"start":4,"action_noise":0.15,"location_history":"[4,3,2,1,0,5]","action_history":"[0,1,0,1,0]","door_history":"[1,0,1,0,1]","location_rts":"[420,48,232,395,236]","trial_type":"two-door-navigation","trial_index":31,"time_elapsed":425976,"internal_node_id":"0.0-2.0-29.0"},{"group":"hexagon_bi","room_assignment":["purple","red","grey","green","yellow","blue"],"door_color_assignment":["white","black"],"door_generator_assignment":[1,0],"goal":3,"start":5,"action_noise":0.15,"location_history":"[5,0,1,0,1,2,3]","action_history":"[0,1,0,1,0,1]","door_history":"[1,0,1,0,1,0]","location_rts":"[156,155,710,99,318,344]","trial_type":"two-door-navigation","trial_index":32,"time_elapsed":437450,"internal_node_id":"0.0-2.0-30.0"},{"group":"hexagon_bi","room_assignment":["purple","red","grey","green","yellow","blue"],"door_color_assignment":["white","black"],"door_generator_assignment":[1,0],"goal":0,"start":3,"action_noise":0.15,"location_history":"[3,2,1,2,1,0]","action_history":"[1,0,1,0,1]","door_history":"[0,1,0,1,0]","location_rts":"[249,328,189,322,478]","trial_type":"two-door-navigation","trial_index":33,"time_elapsed":447656,"internal_node_id":"0.0-2.0-31.0"},{"group":"hexagon_bi","room_assignment":["purple","red","grey","green","yellow","blue"],"door_color_assignment":["white","black"],"door_generator_assignment":[1,0],"goal":4,"start":0,"action_noise":0.15,"location_history":"[0,1,0,5,4]","action_history":"[0,1,0,1]","door_history":"[1,0,1,0]","location_rts":"[405,216,172,710]","trial_type":"two-door-navigation","trial_index":34,"time_elapsed":456765,"internal_node_id":"0.0-2.0-32.0"},{"group":"hexagon_bi","room_assignment":["purple","red","grey","green","yellow","blue"],"door_color_assignment":["white","black"],"door_generator_assignment":[1,0],"goal":1,"start":4,"action_noise":0.15,"location_history":"[4,3,2,1]","action_history":"[0,1,0]","door_history":"[1,0,1]","location_rts":"[212,246,98]","trial_type":"two-door-navigation","trial_index":35,"time_elapsed":463905,"internal_node_id":"0.0-2.0-33.0"},{"group":"hexagon_bi","room_assignment":["purple","red","grey","green","yellow","blue"],"door_color_assignment":["white","black"],"door_generator_assignment":[1,0],"goal":2,"start":1,"action_noise":0.15,"location_history":"[1,0,5,0,1,2]","action_history":"[0,1,0,1,0]","door_history":"[1,0,1,0,1]","location_rts":"[215,247,220,295,139]","trial_type":"two-door-navigation","trial_index":36,"time_elapsed":473652,"internal_node_id":"0.0-2.0-34.0"},{"group":"hexagon_bi","room_assignment":["purple","red","grey","green","yellow","blue"],"door_color_assignment":["white","black"],"door_generator_assignment":[1,0],"goal":0,"start":2,"action_noise":0.15,"location_history":"[2,1,0]","action_history":"[0,1]","door_history":"[1,0]","location_rts":"[207,217]","trial_type":"two-door-navigation","trial_index":37,"time_elapsed":479632,"internal_node_id":"0.0-2.0-35.0"},{"group":"hexagon_bi","room_assignment":["purple","red","grey","green","yellow","blue"],"door_color_assignment":["white","black"],"door_generator_assignment":[1,0],"goal":5,"start":0,"action_noise":0.15,"location_history":"[0,5]","action_history":"[0]","door_history":"[1]","location_rts":"[267]","trial_type":"two-door-navigation","trial_index":38,"time_elapsed":484430,"internal_node_id":"0.0-2.0-36.0"},{"group":"hexagon_bi","room_assignment":["purple","red","grey","green","yellow","blue"],"door_color_assignment":["white","black"],"door_generator_assignment":[1,0],"goal":2,"start":5,"action_noise":0.15,"location_history":"[5,0,5,0,5,0,1,0,1,2]","action_history":"[0,1,1,0,0,1,0,1,0]","door_history":"[1,0,0,1,1,0,1,0,1]","location_rts":"[595,431,554,408,1567,327,1350,138,365]","trial_type":"two-door-navigation","trial_index":39,"time_elapsed":502911,"internal_node_id":"0.0-2.0-37.0"},{"group":"hexagon_bi","room_assignment":["purple","red","grey","green","yellow","blue"],"door_color_assignment":["white","black"],"door_generator_assignment":[1,0],"goal":1,"start":2,"action_noise":0.15,"location_history":"[2,3,2,1]","action_history":"[0,1,1]","door_history":"[1,0,0]","location_rts":"[266,112,82]","trial_type":"two-door-navigation","trial_index":40,"time_elapsed":509963,"internal_node_id":"0.0-2.0-38.0"},{"group":"hexagon_bi","room_assignment":["purple","red","grey","green","yellow","blue"],"door_color_assignment":["white","black"],"door_generator_assignment":[1,0],"goal":4,"start":1,"action_noise":0.15,"location_history":"[1,0,5,4]","action_history":"[1,0,1]","door_history":"[0,1,0]","location_rts":"[320,24,213]","trial_type":"two-door-navigation","trial_index":41,"time_elapsed":517099,"internal_node_id":"0.0-2.0-39.0"},{"group":"hexagon_bi","room_assignment":["purple","red","grey","green","yellow","blue"],"door_color_assignment":["white","black"],"door_generator_assignment":[1,0],"goal":3,"start":4,"action_noise":0.15,"location_history":"[4,5,0,5,4,3]","action_history":"[1,0,1,0,1]","door_history":"[0,1,0,1,0]","location_rts":"[252,327,207,124,551]","trial_type":"two-door-navigation","trial_index":42,"time_elapsed":527198,"internal_node_id":"0.0-2.0-40.0"},{"group":"hexagon_bi","room_assignment":["purple","red","grey","green","yellow","blue"],"door_color_assignment":["white","black"],"door_generator_assignment":[1,0],"goal":5,"start":3,"action_noise":0.15,"location_history":"[3,2,1,0,5]","action_history":"[0,0,1,0]","door_history":"[1,1,0,1]","location_rts":"[184,83,63,12]","trial_type":"two-door-navigation","trial_index":43,"time_elapsed":535150,"internal_node_id":"0.0-2.0-41.0"},{"group":"hexagon_bi","room_assignment":["purple","red","grey","green","yellow","blue"],"door_color_assignment":["white","black"],"door_generator_assignment":[1,0],"goal":3,"start":5,"action_noise":0.15,"location_history":"[5,0,5,0,1,2,1,0,1,0,5,4,3]","action_history":"[0,1,0,1,0,0,1,0,1,0,1,0]","door_history":"[1,0,1,0,1,1,0,1,0,1,0,1]","location_rts":"[142,93,44,465,184,382,101,835,60,330,13,172]","trial_type":"two-door-navigation","trial_index":44,"time_elapsed":553810,"internal_node_id":"0.0-2.0-42.0"},{"group":"hexagon_bi","room_assignment":["purple","red","grey","green","yellow","blue"],"door_color_assignment":["white","black"],"door_generator_assignment":[1,0],"goal":0,"start":3,"action_noise":0.15,"location_history":"[3,4,3,2,3,4,5,0]","action_history":"[0,1,0,1,0,1,0]","door_history":"[1,0,1,0,1,0,1]","location_rts":"[123,369,382,104,357,223,300]","trial_type":"two-door-navigation","trial_index":45,"time_elapsed":566359,"internal_node_id":"0.0-2.0-43.0"},{"group":"hexagon_bi","room_assignment":["purple","red","grey","green","yellow","blue"],"door_color_assignment":["white","black"],"door_generator_assignment":[1,0],"goal":2,"start":0,"action_noise":0.15,"location_history":"[0,5,4,3,2]","action_history":"[0,1,0,1]","door_history":"[1,0,1,0]","location_rts":"[100,171,228,49]","trial_type":"two-door-navigation","trial_index":46,"time_elapsed":574525,"internal_node_id":"0.0-2.0-44.0"},{"group":"hexagon_bi","room_assignment":["purple","red","grey","green","yellow","blue"],"door_color_assignment":["white","black"],"door_generator_assignment":[1,0],"goal":4,"start":2,"action_noise":0.15,"location_history":"[2,1,0,5,4]","action_history":"[0,1,0,1]","door_history":"[1,0,1,0]","location_rts":"[264,124,113,350]","trial_type":"two-door-navigation","trial_index":47,"time_elapsed":583006,"internal_node_id":"0.0-2.0-45.0"},{"group":"hexagon_bi","room_assignment":["purple","red","grey","green","yellow","blue"],"door_color_assignment":["white","black"],"door_generator_assignment":[1,0],"goal":1,"start":4,"action_noise":0.15,"location_history":"[4,3,4,5,0,5,0,5,4,5,0,1]","action_history":"[0,1,1,0,0,0,0,0,1,0,1]","door_history":"[1,0,0,1,1,1,1,1,0,1,0]","location_rts":"[549,152,527,136,177,430,562,481,234,343,197]","trial_type":"two-door-navigation","trial_index":48,"time_elapsed":601606,"internal_node_id":"0.0-2.0-46.0"},{"group":"hexagon_bi","room_assignment":["purple","red","grey","green","yellow","blue"],"door_color_assignment":["white","black"],"door_generator_assignment":[1,0],"goal":4,"start":1,"action_noise":0.15,"location_history":"[1,2,3,4]","action_history":"[0,1,0]","door_history":"[1,0,1]","location_rts":"[20,61,247]","trial_type":"two-door-navigation","trial_index":49,"time_elapsed":608514,"internal_node_id":"0.0-2.0-47.0"},{"group":"hexagon_bi","room_assignment":["purple","red","grey","green","yellow","blue"],"door_color_assignment":["white","black"],"door_generator_assignment":[1,0],"goal":3,"start":4,"action_noise":0.15,"location_history":"[4,5,0,1,0,1,0,1,0,5,0,5,4,3]","action_history":"[1,0,1,1,1,1,1,1,0,0,0,1,0]","door_history":"[0,1,0,0,0,0,0,0,1,1,1,0,1]","location_rts":"[20,436,318,7990,1481,24051,342,8041,725,321,131,100,161]","trial_type":"two-door-navigation","trial_index":50,"time_elapsed":669487,"internal_node_id":"0.0-2.0-48.0"},{"group":"hexagon_bi","room_assignment":["purple","red","grey","green","yellow","blue"],"door_color_assignment":["white","black"],"door_generator_assignment":[1,0],"goal":5,"start":3,"action_noise":0.15,"location_history":"[3,2,3,4,3,4,3,2,1,2,1,0,1,2,1,2,3,4,5]","action_history":"[1,1,0,0,0,0,1,0,0,0,0,1,0,1,0,1,0,1]","door_history":"[0,0,1,1,1,1,0,1,1,1,1,0,1,0,1,0,1,0]","location_rts":"[1173,9383,265,438,7305,1410,726,633,1800,526,305,377,842,736,708,358,567,380]","trial_type":"two-door-navigation","trial_index":51,"time_elapsed":719432,"internal_node_id":"0.0-2.0-49.0"},{"view_history":"[{\"page_index\":0,\"viewing_time\":9339}]","rt":9340,"trial_type":"instructions","trial_index":52,"time_elapsed":729773,"internal_node_id":"0.0-3.0"},{"view_history":"[{\"page_index\":0,\"viewing_time\":1639},{\"page_index\":1,\"viewing_time\":13359}]","rt":14998,"trial_type":"instructions","trial_index":53,"time_elapsed":745773,"internal_node_id":"0.0-4.0"},{"group":"hexagon_bi","fractal_assignment":["../images/blu_wht.png","../images/ylw_slt.png","../images/gry_blk.png","../images/pnk_blu.png","../images/org_blu.png","../images/cyn_red.png"],"mutagen_generator_assignment":[0,1],"goal":4,"start":0,"action_noise":0.15,"location_history":"[0,1,0,1,2,3,4]","action_history":"[0,1,1,1,1,0]","mutagen_history":"[0,1,1,1,1,0]","location_rts":"[4523,966,522,204,320,285]","trial_type":"fractal-mutation","trial_index":54,"time_elapsed":762429,"internal_node_id":"0.0-5.0-0.0"},{"group":"hexagon_bi","fractal_assignment":["../images/blu_wht.png","../images/ylw_slt.png","../images/gry_blk.png","../images/pnk_blu.png","../images/org_blu.png","../images/cyn_red.png"],"mutagen_generator_assignment":[0,1],"goal":3,"start":4,"action_noise":0.15,"location_history":"[4,5,0,1,2,3]","action_history":"[1,0,1,0,1]","mutagen_history":"[1,0,1,0,1]","location_rts":"[472,234,140,89,124]","trial_type":"fractal-mutation","trial_index":55,"time_elapsed":772252,"internal_node_id":"0.0-5.0-1.0"},{"group":"hexagon_bi","fractal_assignment":["../images/blu_wht.png","../images/ylw_slt.png","../images/gry_blk.png","../images/pnk_blu.png","../images/org_blu.png","../images/cyn_red.png"],"mutagen_generator_assignment":[0,1],"goal":5,"start":3,"action_noise":0.15,"location_history":"[3,4,3,2,1,0,5]","action_history":"[1,0,1,0,1,1]","mutagen_history":"[1,0,1,0,1,1]","location_rts":"[341,408,445,135,206,279]","trial_type":"fractal-mutation","trial_index":56,"time_elapsed":783876,"internal_node_id":"0.0-5.0-2.0"},{"group":"hexagon_bi","fractal_assignment":["../images/blu_wht.png","../images/ylw_slt.png","../images/gry_blk.png","../images/pnk_blu.png","../images/org_blu.png","../images/cyn_red.png"],"mutagen_generator_assignment":[0,1],"goal":2,"start":5,"action_noise":0.15,"location_history":"[5,0,1,0,5,4,3,2]","action_history":"[0,1,1,0,1,0,1]","mutagen_history":"[0,1,1,0,1,0,1]","location_rts":"[334,251,509,380,182,280,202]","trial_type":"fractal-mutation","trial_index":57,"time_elapsed":796864,"internal_node_id":"0.0-5.0-3.0"},{"group":"hexagon_bi","fractal_assignment":["../images/blu_wht.png","../images/ylw_slt.png","../images/gry_blk.png","../images/pnk_blu.png","../images/org_blu.png","../images/cyn_red.png"],"mutagen_generator_assignment":[0,1],"goal":1,"start":2,"action_noise":0.15,"location_history":"[2,3,4,5,0,1]","action_history":"[1,0,1,0,1]","mutagen_history":"[1,0,1,0,1]","location_rts":"[313,130,188,265,306]","trial_type":"fractal-mutation","trial_index":58,"time_elapsed":806807,"internal_node_id":"0.0-5.0-4.0"},{"group":"hexagon_bi","fractal_assignment":["../images/blu_wht.png","../images/ylw_slt.png","../images/gry_blk.png","../images/pnk_blu.png","../images/org_blu.png","../images/cyn_red.png"],"mutagen_generator_assignment":[0,1],"goal":4,"start":1,"action_noise":0.15,"location_history":"[1,0,5,4]","action_history":"[1,0,1]","mutagen_history":"[1,0,1]","location_rts":"[345,97,85]","trial_type":"fractal-mutation","trial_index":59,"time_elapsed":813977,"internal_node_id":"0.0-5.0-5.0"},{"group":"hexagon_bi","fractal_assignment":["../images/blu_wht.png","../images/ylw_slt.png","../images/gry_blk.png","../images/pnk_blu.png","../images/org_blu.png","../images/cyn_red.png"],"mutagen_generator_assignment":[0,1],"goal":1,"start":4,"action_noise":0.15,"location_history":"[4,3,2,3,4,5,0,1]","action_history":"[1,0,1,0,1,0,1]","mutagen_history":"[1,0,1,0,1,0,1]","location_rts":"[240,79,248,156,370,463,456]","trial_type":"fractal-mutation","trial_index":60,"time_elapsed":826797,"internal_node_id":"0.0-5.0-6.0"},{"group":"hexagon_bi","fractal_assignment":["../images/blu_wht.png","../images/ylw_slt.png","../images/gry_blk.png","../images/pnk_blu.png","../images/org_blu.png","../images/cyn_red.png"],"mutagen_generator_assignment":[0,1],"goal":5,"start":1,"action_noise":0.15,"location_history":"[1,0,5]","action_history":"[1,1]","mutagen_history":"[1,1]","location_rts":"[281,1925]","trial_type":"fractal-mutation","trial_index":61,"time_elapsed":834614,"internal_node_id":"0.0-5.0-7.0"},{"group":"hexagon_bi","fractal_assignment":["../images/blu_wht.png","../images/ylw_slt.png","../images/gry_blk.png","../images/pnk_blu.png","../images/org_blu.png","../images/cyn_red.png"],"mutagen_generator_assignment":[0,1],"goal":0,"start":5,"action_noise":0.15,"location_history":"[5,4,3,4,5,4,3,2,1,2,1,0]","action_history":"[1,0,0,1,1,0,1,0,1,0,1]","mutagen_history":"[1,0,0,1,1,0,1,0,1,0,1]","location_rts":"[2873,252,311,183,292,218,189,229,227,73,123]","trial_type":"fractal-mutation","trial_index":62,"time_elapsed":854586,"internal_node_id":"0.0-5.0-8.0"},{"group":"hexagon_bi","fractal_assignment":["../images/blu_wht.png","../images/ylw_slt.png","../images/gry_blk.png","../images/pnk_blu.png","../images/org_blu.png","../images/cyn_red.png"],"mutagen_generator_assignment":[0,1],"goal":2,"start":0,"action_noise":0.15,"location_history":"[0,5,4,5,4,3,2]","action_history":"[0,1,0,1,0,1]","mutagen_history":"[0,1,0,1,0,1]","location_rts":"[599,71,527,843,239,128]","trial_type":"fractal-mutation","trial_index":63,"time_elapsed":866753,"internal_node_id":"0.0-5.0-9.0"},{"group":"hexagon_bi","fractal_assignment":["../images/blu_wht.png","../images/ylw_slt.png","../images/gry_blk.png","../images/pnk_blu.png","../images/org_blu.png","../images/cyn_red.png"],"mutagen_generator_assignment":[0,1],"goal":3,"start":2,"action_noise":0.15,"location_history":"[2,1,0,5,4,3]","action_history":"[0,1,0,1,0]","mutagen_history":"[0,1,0,1,0]","location_rts":"[429,1049,392,855,147]","trial_type":"fractal-mutation","trial_index":64,"time_elapsed":878339,"internal_node_id":"0.0-5.0-10.0"},{"group":"hexagon_bi","fractal_assignment":["../images/blu_wht.png","../images/ylw_slt.png","../images/gry_blk.png","../images/pnk_blu.png","../images/org_blu.png","../images/cyn_red.png"],"mutagen_generator_assignment":[0,1],"goal":0,"start":3,"action_noise":0.15,"location_history":"[3,2,1,0]","action_history":"[1,0,1]","mutagen_history":"[1,0,1]","location_rts":"[557,560,122]","trial_type":"fractal-mutation","trial_index":65,"time_elapsed":886241,"internal_node_id":"0.0-5.0-11.0"},{"group":"hexagon_bi","fractal_assignment":["../images/blu_wht.png","../images/ylw_slt.png","../images/gry_blk.png","../images/pnk_blu.png","../images/org_blu.png","../images/cyn_red.png"],"mutagen_generator_assignment":[0,1],"goal":2,"start":0,"action_noise":0.15,"location_history":"[0,1,0,1,2]","action_history":"[1,0,1,0]","mutagen_history":"[1,0,1,0]","location_rts":"[793,236,177,137]","trial_type":"fractal-mutation","trial_index":66,"time_elapsed":895272,"internal_node_id":"0.0-5.0-12.0"},{"group":"hexagon_bi","fractal_assignment":["../images/blu_wht.png","../images/ylw_slt.png","../images/gry_blk.png","../images/pnk_blu.png","../images/org_blu.png","../images/cyn_red.png"],"mutagen_generator_assignment":[0,1],"goal":5,"start":2,"action_noise":0.15,"location_history":"[2,1,0,5]","action_history":"[0,1,1]","mutagen_history":"[0,1,1]","location_rts":"[501,302,455]","trial_type":"fractal-mutation","trial_index":67,"time_elapsed":903164,"internal_node_id":"0.0-5.0-13.0"},{"group":"hexagon_bi","fractal_assignment":["../images/blu_wht.png","../images/ylw_slt.png","../images/gry_blk.png","../images/pnk_blu.png","../images/org_blu.png","../images/cyn_red.png"],"mutagen_generator_assignment":[0,1],"goal":4,"start":5,"action_noise":0.15,"location_history":"[5,4]","action_history":"[1]","mutagen_history":"[1]","location_rts":"[140]","trial_type":"fractal-mutation","trial_index":68,"time_elapsed":907881,"internal_node_id":"0.0-5.0-14.0"},{"group":"hexagon_bi","fractal_assignment":["../images/blu_wht.png","../images/ylw_slt.png","../images/gry_blk.png","../images/pnk_blu.png","../images/org_blu.png","../images/cyn_red.png"],"mutagen_generator_assignment":[0,1],"goal":3,"start":4,"action_noise":0.15,"location_history":"[4,5,4,5,4,5,0,1,2,3]","action_history":"[1,0,1,0,1,0,1,0,1]","mutagen_history":"[1,0,1,0,1,0,1,0,1]","location_rts":"[301,228,235,120,624,159,276,532,397]","trial_type":"fractal-mutation","trial_index":69,"time_elapsed":923655,"internal_node_id":"0.0-5.0-15.0"},{"group":"hexagon_bi","fractal_assignment":["../images/blu_wht.png","../images/ylw_slt.png","../images/gry_blk.png","../images/pnk_blu.png","../images/org_blu.png","../images/cyn_red.png"],"mutagen_generator_assignment":[0,1],"goal":1,"start":3,"action_noise":0.15,"location_history":"[3,2,3,4,5,0,1]","action_history":"[0,1,0,1,0,1]","mutagen_history":"[0,1,0,1,0,1]","location_rts":"[489,617,414,574,706,718]","trial_type":"fractal-mutation","trial_index":70,"time_elapsed":936954,"internal_node_id":"0.0-5.0-16.0"},{"group":"hexagon_bi","fractal_assignment":["../images/blu_wht.png","../images/ylw_slt.png","../images/gry_blk.png","../images/pnk_blu.png","../images/org_blu.png","../images/cyn_red.png"],"mutagen_generator_assignment":[0,1],"goal":5,"start":1,"action_noise":0.15,"location_history":"[1,0,5]","action_history":"[1,0]","mutagen_history":"[1,0]","location_rts":"[233,99]","trial_type":"fractal-mutation","trial_index":71,"time_elapsed":942879,"internal_node_id":"0.0-5.0-17.0"},{"group":"hexagon_bi","fractal_assignment":["../images/blu_wht.png","../images/ylw_slt.png","../images/gry_blk.png","../images/pnk_blu.png","../images/org_blu.png","../images/cyn_red.png"],"mutagen_generator_assignment":[0,1],"goal":4,"start":5,"action_noise":0.15,"location_history":"[5,4]","action_history":"[1]","mutagen_history":"[1]","location_rts":"[489]","trial_type":"fractal-mutation","trial_index":72,"time_elapsed":947941,"internal_node_id":"0.0-5.0-18.0"},{"group":"hexagon_bi","fractal_assignment":["../images/blu_wht.png","../images/ylw_slt.png","../images/gry_blk.png","../images/pnk_blu.png","../images/org_blu.png","../images/cyn_red.png"],"mutagen_generator_assignment":[0,1],"goal":0,"start":4,"action_noise":0.15,"location_history":"[4,5,0]","action_history":"[1,0]","mutagen_history":"[1,0]","location_rts":"[20,262]","trial_type":"fractal-mutation","trial_index":73,"time_elapsed":953841,"internal_node_id":"0.0-5.0-19.0"},{"group":"hexagon_bi","fractal_assignment":["../images/blu_wht.png","../images/ylw_slt.png","../images/gry_blk.png","../images/pnk_blu.png","../images/org_blu.png","../images/cyn_red.png"],"mutagen_generator_assignment":[0,1],"goal":1,"start":0,"action_noise":0.15,"location_history":"[0,5,4,5,4,3,2,1]","action_history":"[1,0,1,1,0,1,0]","mutagen_history":"[1,0,1,1,0,1,0]","location_rts":"[189,81,173,470,157,813,219]","trial_type":"fractal-mutation","trial_index":74,"time_elapsed":966783,"internal_node_id":"0.0-5.0-20.0"},{"group":"hexagon_bi","fractal_assignment":["../images/blu_wht.png","../images/ylw_slt.png","../images/gry_blk.png","../images/pnk_blu.png","../images/org_blu.png","../images/cyn_red.png"],"mutagen_generator_assignment":[0,1],"goal":3,"start":1,"action_noise":0.15,"location_history":"[1,0,5,4,3]","action_history":"[1,0,1,0]","mutagen_history":"[1,0,1,0]","location_rts":"[290,198,126,458]","trial_type":"fractal-mutation","trial_index":75,"time_elapsed":975525,"internal_node_id":"0.0-5.0-21.0"},{"group":"hexagon_bi","fractal_assignment":["../images/blu_wht.png","../images/ylw_slt.png","../images/gry_blk.png","../images/pnk_blu.png","../images/org_blu.png","../images/cyn_red.png"],"mutagen_generator_assignment":[0,1],"goal":2,"start":3,"action_noise":0.15,"location_history":"[3,2]","action_history":"[1]","mutagen_history":"[1]","location_rts":"[273]","trial_type":"fractal-mutation","trial_index":76,"time_elapsed":980352,"internal_node_id":"0.0-5.0-22.0"},{"group":"hexagon_bi","fractal_assignment":["../images/blu_wht.png","../images/ylw_slt.png","../images/gry_blk.png","../images/pnk_blu.png","../images/org_blu.png","../images/cyn_red.png"],"mutagen_generator_assignment":[0,1],"goal":0,"start":2,"action_noise":0.15,"location_history":"[2,1,2,3,2,1,2,1,0]","action_history":"[1,0,0,1,1,0,0,1]","mutagen_history":"[1,0,0,1,1,0,0,1]","location_rts":"[393,121,154,202,186,195,249,189]","trial_type":"fractal-mutation","trial_index":77,"time_elapsed":993879,"internal_node_id":"0.0-5.0-23.0"},{"group":"hexagon_bi","fractal_assignment":["../images/blu_wht.png","../images/ylw_slt.png","../images/gry_blk.png","../images/pnk_blu.png","../images/org_blu.png","../images/cyn_red.png"],"mutagen_generator_assignment":[0,1],"goal":3,"start":0,"action_noise":0.15,"location_history":"[0,1,2,1,2,1,2,3]","action_history":"[1,0,0,1,1,0,1]","mutagen_history":"[1,0,0,1,1,0,1]","location_rts":"[696,1314,142,214,153,324,182]","trial_type":"fractal-mutation","trial_index":78,"time_elapsed":1007693,"internal_node_id":"0.0-5.0-24.0"},{"group":"hexagon_bi","fractal_assignment":["../images/blu_wht.png","../images/ylw_slt.png","../images/gry_blk.png","../images/pnk_blu.png","../images/org_blu.png","../images/cyn_red.png"],"mutagen_generator_assignment":[0,1],"goal":1,"start":3,"action_noise":0.15,"location_history":"[3,4,3,2,1]","action_history":"[1,0,1,0]","mutagen_history":"[1,0,1,0]","location_rts":"[348,169,630,361]","trial_type":"fractal-mutation","trial_index":79,"time_elapsed":1016871,"internal_node_id":"0.0-5.0-25.0"},{"group":"hexagon_bi","fractal_assignment":["../images/blu_wht.png","../images/ylw_slt.png","../images/gry_blk.png","../images/pnk_blu.png","../images/org_blu.png","../images/cyn_red.png"],"mutagen_generator_assignment":[0,1],"goal":2,"start":1,"action_noise":0.15,"location_history":"[1,0,5,4,3,4,3,2]","action_history":"[1,0,1,0,1,0,1]","mutagen_history":"[1,0,1,0,1,0,1]","location_rts":"[7,492,337,194,892,389,621]","trial_type":"fractal-mutation","trial_index":80,"time_elapsed":1030632,"internal_node_id":"0.0-5.0-26.0"},{"group":"hexagon_bi","fractal_assignment":["../images/blu_wht.png","../images/ylw_slt.png","../images/gry_blk.png","../images/pnk_blu.png","../images/org_blu.png","../images/cyn_red.png"],"mutagen_generator_assignment":[0,1],"goal":5,"start":2,"action_noise":0.15,"location_history":"[2,3,4,3,4,3,2,1,0,1,2,3,2,1,0,5]","action_history":"[1,0,1,0,0,1,0,1,1,0,1,1,0,1,0]","mutagen_history":"[1,0,1,0,0,1,0,1,1,0,1,1,0,1,0]","location_rts":"[519,392,2934,315,1384,162,249,347,1570,336,73,27,296,373,68]","trial_type":"fractal-mutation","trial_index":81,"time_elapsed":1058815,"internal_node_id":"0.0-5.0-27.0"},{"group":"hexagon_bi","fractal_assignment":["../images/blu_wht.png","../images/ylw_slt.png","../images/gry_blk.png","../images/pnk_blu.png","../images/org_blu.png","../images/cyn_red.png"],"mutagen_generator_assignment":[0,1],"goal":4,"start":5,"action_noise":0.15,"location_history":"[5,4]","action_history":"[1]","mutagen_history":"[1]","location_rts":"[248]","trial_type":"fractal-mutation","trial_index":82,"time_elapsed":1063611,"internal_node_id":"0.0-5.0-28.0"},{"group":"hexagon_bi","fractal_assignment":["../images/blu_wht.png","../images/ylw_slt.png","../images/gry_blk.png","../images/pnk_blu.png","../images/org_blu.png","../images/cyn_red.png"],"mutagen_generator_assignment":[0,1],"goal":5,"start":4,"action_noise":0.15,"location_history":"[4,5]","action_history":"[1]","mutagen_history":"[1]","location_rts":"[428]","trial_type":"fractal-mutation","trial_index":83,"time_elapsed":1068590,"internal_node_id":"0.0-5.0-29.0"},{"group":"hexagon_bi","fractal_assignment":["../images/blu_wht.png","../images/ylw_slt.png","../images/gry_blk.png","../images/pnk_blu.png","../images/org_blu.png","../images/cyn_red.png"],"mutagen_generator_assignment":[0,1],"goal":3,"start":5,"action_noise":0.15,"location_history":"[5,4,3]","action_history":"[1,0]","mutagen_history":"[1,0]","location_rts":"[290,142]","trial_type":"fractal-mutation","trial_index":84,"time_elapsed":1074606,"internal_node_id":"0.0-5.0-30.0"},{"group":"hexagon_bi","fractal_assignment":["../images/blu_wht.png","../images/ylw_slt.png","../images/gry_blk.png","../images/pnk_blu.png","../images/org_blu.png","../images/cyn_red.png"],"mutagen_generator_assignment":[0,1],"goal":0,"start":3,"action_noise":0.15,"location_history":"[3,2,3,2,3,2,3,2,1,2,3,2,3,4,3,2,1,0]","action_history":"[1,1,1,1,1,1,1,0,0,1,1,1,0,0,1,0,1]","mutagen_history":"[1,1,1,1,1,1,1,0,0,1,1,1,0,0,1,0,1]","location_rts":"[535,77,2672,1970,665,164,971,649,879,222,1613,332,127,258,287,195,230]","trial_type":"fractal-mutation","trial_index":85,"time_elapsed":1107712,"internal_node_id":"0.0-5.0-31.0"},{"group":"hexagon_bi","fractal_assignment":["../images/blu_wht.png","../images/ylw_slt.png","../images/gry_blk.png","../images/pnk_blu.png","../images/org_blu.png","../images/cyn_red.png"],"mutagen_generator_assignment":[0,1],"goal":4,"start":0,"action_noise":0.15,"location_history":"[0,1,0,1,2,1,2,3,2,3,2,1,2,3,4]","action_history":"[1,0,1,0,1,0,1,1,0,1,0,0,1,0]","mutagen_history":"[1,0,1,0,1,0,1,1,0,1,0,0,1,0]","location_rts":"[296,231,119,168,259,101,166,334,191,297,261,270,274,524]","trial_type":"fractal-mutation","trial_index":86,"time_elapsed":1129305,"internal_node_id":"0.0-5.0-32.0"},{"group":"hexagon_bi","fractal_assignment":["../images/blu_wht.png","../images/ylw_slt.png","../images/gry_blk.png","../images/pnk_blu.png","../images/org_blu.png","../images/cyn_red.png"],"mutagen_generator_assignment":[0,1],"goal":1,"start":4,"action_noise":0.15,"location_history":"[4,5,0,1]","action_history":"[1,0,1]","mutagen_history":"[1,0,1]","location_rts":"[232,467,396]","trial_type":"fractal-mutation","trial_index":87,"time_elapsed":1137040,"internal_node_id":"0.0-5.0-33.0"},{"group":"hexagon_bi","fractal_assignment":["../images/blu_wht.png","../images/ylw_slt.png","../images/gry_blk.png","../images/pnk_blu.png","../images/org_blu.png","../images/cyn_red.png"],"mutagen_generator_assignment":[0,1],"goal":2,"start":1,"action_noise":0.15,"location_history":"[1,0,5,0,1,0,1,0,1,2]","action_history":"[1,0,1,1,0,1,0,1,0]","mutagen_history":"[1,0,1,1,0,1,0,1,0]","location_rts":"[1111,560,521,1006,328,966,244,323,242]","trial_type":"fractal-mutation","trial_index":88,"time_elapsed":1155260,"internal_node_id":"0.0-5.0-34.0"},{"group":"hexagon_bi","fractal_assignment":["../images/blu_wht.png","../images/ylw_slt.png","../images/gry_blk.png","../images/pnk_blu.png","../images/org_blu.png","../images/cyn_red.png"],"mutagen_generator_assignment":[0,1],"goal":0,"start":2,"action_noise":0.15,"location_history":"[2,3,2,1,0]","action_history":"[0,1,0,1]","mutagen_history":"[0,1,0,1]","location_rts":"[391,231,173,213]","trial_type":"fractal-mutation","trial_index":89,"time_elapsed":1163964,"internal_node_id":"0.0-5.0-35.0"},{"group":"hexagon_bi","fractal_assignment":["../images/blu_wht.png","../images/ylw_slt.png","../images/gry_blk.png","../images/pnk_blu.png","../images/org_blu.png","../images/cyn_red.png"],"mutagen_generator_assignment":[0,1],"goal":5,"start":0,"action_noise":0.15,"location_history":"[0,5]","action_history":"[0]","mutagen_history":"[0]","location_rts":"[317]","trial_type":"fractal-mutation","trial_index":90,"time_elapsed":1168857,"internal_node_id":"0.0-5.0-36.0"},{"group":"hexagon_bi","fractal_assignment":["../images/blu_wht.png","../images/ylw_slt.png","../images/gry_blk.png","../images/pnk_blu.png","../images/org_blu.png","../images/cyn_red.png"],"mutagen_generator_assignment":[0,1],"goal":2,"start":5,"action_noise":0.15,"location_history":"[5,4,5,0,5,4,5,0,1,2]","action_history":"[1,0,1,0,1,1,0,1,0]","mutagen_history":"[1,0,1,0,1,1,0,1,0]","location_rts":"[492,88,219,240,178,254,196,207,213]","trial_type":"fractal-mutation","trial_index":91,"time_elapsed":1183832,"internal_node_id":"0.0-5.0-37.0"},{"group":"hexagon_bi","fractal_assignment":["../images/blu_wht.png","../images/ylw_slt.png","../images/gry_blk.png","../images/pnk_blu.png","../images/org_blu.png","../images/cyn_red.png"],"mutagen_generator_assignment":[0,1],"goal":1,"start":2,"action_noise":0.15,"location_history":"[2,3,4,5,4,5,0,5,4,3,2,1]","action_history":"[1,0,1,1,1,0,0,1,0,1,0]","mutagen_history":"[1,0,1,1,1,0,0,1,0,1,0]","location_rts":"[229,275,252,228,290,318,328,246,278,198,305]","trial_type":"fractal-mutation","trial_index":92,"time_elapsed":1201726,"internal_node_id":"0.0-5.0-38.0"},{"group":"hexagon_bi","fractal_assignment":["../images/blu_wht.png","../images/ylw_slt.png","../images/gry_blk.png","../images/pnk_blu.png","../images/org_blu.png","../images/cyn_red.png"],"mutagen_generator_assignment":[0,1],"goal":4,"start":1,"action_noise":0.15,"location_history":"[1,2,1,0,5,4]","action_history":"[1,0,1,0,1]","mutagen_history":"[1,0,1,0,1]","location_rts":"[740,301,311,1205,494]","trial_type":"fractal-mutation","trial_index":93,"time_elapsed":1213475,"internal_node_id":"0.0-5.0-39.0"},{"group":"hexagon_bi","fractal_assignment":["../images/blu_wht.png","../images/ylw_slt.png","../images/gry_blk.png","../images/pnk_blu.png","../images/org_blu.png","../images/cyn_red.png"],"mutagen_generator_assignment":[0,1],"goal":3,"start":4,"action_noise":0.15,"location_history":"[4,3]","action_history":"[1]","mutagen_history":"[1]","location_rts":"[125]","trial_type":"fractal-mutation","trial_index":94,"time_elapsed":1218164,"internal_node_id":"0.0-5.0-40.0"},{"group":"hexagon_bi","fractal_assignment":["../images/blu_wht.png","../images/ylw_slt.png","../images/gry_blk.png","../images/pnk_blu.png","../images/org_blu.png","../images/cyn_red.png"],"mutagen_generator_assignment":[0,1],"goal":5,"start":3,"action_noise":0.15,"location_history":"[3,4,3,2,1,2,3,2,3,4,3,2,1,0,5]","action_history":"[1,0,1,0,0,1,1,1,0,0,1,0,1,0]","mutagen_history":"[1,0,1,0,0,1,1,1,0,0,1,0,1,0]","location_rts":"[265,234,425,216,522,327,393,384,219,309,186,279,79,348]","trial_type":"fractal-mutation","trial_index":95,"time_elapsed":1240389,"internal_node_id":"0.0-5.0-41.0"},{"group":"hexagon_bi","fractal_assignment":["../images/blu_wht.png","../images/ylw_slt.png","../images/gry_blk.png","../images/pnk_blu.png","../images/org_blu.png","../images/cyn_red.png"],"mutagen_generator_assignment":[0,1],"goal":3,"start":5,"action_noise":0.15,"location_history":"[5,4,3]","action_history":"[1,0]","mutagen_history":"[1,0]","location_rts":"[190,336]","trial_type":"fractal-mutation","trial_index":96,"time_elapsed":1246508,"internal_node_id":"0.0-5.0-42.0"},{"group":"hexagon_bi","fractal_assignment":["../images/blu_wht.png","../images/ylw_slt.png","../images/gry_blk.png","../images/pnk_blu.png","../images/org_blu.png","../images/cyn_red.png"],"mutagen_generator_assignment":[0,1],"goal":0,"start":3,"action_noise":0.15,"location_history":"[3,2,3,4,5,4,3,2,3,2,1,0]","action_history":"[1,0,1,0,1,0,1,0,1,0,1]","mutagen_history":"[1,0,1,0,1,0,1,0,1,0,1]","location_rts":"[730,165,121,225,229,306,331,212,282,271,343]","trial_type":"fractal-mutation","trial_index":97,"time_elapsed":1264713,"internal_node_id":"0.0-5.0-43.0"},{"group":"hexagon_bi","fractal_assignment":["../images/blu_wht.png","../images/ylw_slt.png","../images/gry_blk.png","../images/pnk_blu.png","../images/org_blu.png","../images/cyn_red.png"],"mutagen_generator_assignment":[0,1],"goal":2,"start":0,"action_noise":0.15,"location_history":"[0,1,0,1,2]","action_history":"[1,0,1,0]","mutagen_history":"[1,0,1,0]","location_rts":"[511,218,824,28]","trial_type":"fractal-mutation","trial_index":98,"time_elapsed":1273981,"internal_node_id":"0.0-5.0-44.0"},{"group":"hexagon_bi","fractal_assignment":["../images/blu_wht.png","../images/ylw_slt.png","../images/gry_blk.png","../images/pnk_blu.png","../images/org_blu.png","../images/cyn_red.png"],"mutagen_generator_assignment":[0,1],"goal":4,"start":2,"action_noise":0.15,"location_history":"[2,3,4]","action_history":"[1,0]","mutagen_history":"[1,0]","location_rts":"[681,286]","trial_type":"fractal-mutation","trial_index":99,"time_elapsed":1280534,"internal_node_id":"0.0-5.0-45.0"},{"group":"hexagon_bi","fractal_assignment":["../images/blu_wht.png","../images/ylw_slt.png","../images/gry_blk.png","../images/pnk_blu.png","../images/org_blu.png","../images/cyn_red.png"],"mutagen_generator_assignment":[0,1],"goal":1,"start":4,"action_noise":0.15,"location_history":"[4,5,0,1]","action_history":"[1,0,1]","mutagen_history":"[1,0,1]","location_rts":"[419,534,591]","trial_type":"fractal-mutation","trial_index":100,"time_elapsed":1288721,"internal_node_id":"0.0-5.0-46.0"},{"group":"hexagon_bi","fractal_assignment":["../images/blu_wht.png","../images/ylw_slt.png","../images/gry_blk.png","../images/pnk_blu.png","../images/org_blu.png","../images/cyn_red.png"],"mutagen_generator_assignment":[0,1],"goal":4,"start":1,"action_noise":0.15,"location_history":"[1,2,3,4]","action_history":"[0,1,0]","mutagen_history":"[0,1,0]","location_rts":"[456,196,114]","trial_type":"fractal-mutation","trial_index":101,"time_elapsed":1296106,"internal_node_id":"0.0-5.0-47.0"},{"group":"hexagon_bi","fractal_assignment":["../images/blu_wht.png","../images/ylw_slt.png","../images/gry_blk.png","../images/pnk_blu.png","../images/org_blu.png","../images/cyn_red.png"],"mutagen_generator_assignment":[0,1],"goal":3,"start":4,"action_noise":0.15,"location_history":"[4,5,0,1,2,3]","action_history":"[1,0,1,0,1]","mutagen_history":"[1,0,1,0,1]","location_rts":"[362,108,156,205,175]","trial_type":"fractal-mutation","trial_index":102,"time_elapsed":1305858,"internal_node_id":"0.0-5.0-48.0"},{"group":"hexagon_bi","fractal_assignment":["../images/blu_wht.png","../images/ylw_slt.png","../images/gry_blk.png","../images/pnk_blu.png","../images/org_blu.png","../images/cyn_red.png"],"mutagen_generator_assignment":[0,1],"goal":5,"start":3,"action_noise":0.15,"location_history":"[3,4,5]","action_history":"[0,1]","mutagen_history":"[0,1]","location_rts":"[250,164]","trial_type":"fractal-mutation","trial_index":103,"time_elapsed":1311862,"internal_node_id":"0.0-5.0-49.0"},{"view_history":"[{\"page_index\":0,\"viewing_time\":16142}]","rt":16144,"trial_type":"instructions","trial_index":104,"time_elapsed":1329013,"internal_node_id":"0.0-6.0"},{"rt":3748,"responses":"{\"Q0\":\"none\"}","trial_type":"survey-text","trial_index":105,"time_elapsed":1333771,"internal_node_id":"0.0-7.0"}]