[{"view_history":"[{\"page_index\":0,\"viewing_time\":37044},{\"page_index\":1,\"viewing_time\":9446},{\"page_index\":2,\"viewing_time\":17034},{\"page_index\":3,\"viewing_time\":6547}]","rt":70073,"trial_type":"instructions","trial_index":0,"time_elapsed":70074,"internal_node_id":"0.0-0.0"},{"view_history":"[{\"page_index\":0,\"viewing_time\":3311},{\"page_index\":1,\"viewing_time\":36457}]","rt":39769,"trial_type":"instructions","trial_index":1,"time_elapsed":110846,"internal_node_id":"0.0-1.0"},{"group":"hexagon_tri","room_assignment":["purple","blue","red","grey","green","yellow"],"door_color_assignment":["white","black"],"door_generator_assignment":[0,1],"goal":4,"start":0,"action_noise":0.15,"location_history":"[0,1,5,0,5,0,1,3,4]","action_history":"[1,0,1,0,0,1,1,1]","door_history":"[1,0,1,0,0,1,1,1]","location_rts":"[3942,7355,4707,4863,2680,2887,2364,5536]","trial_type":"two-door-navigation","trial_index":2,"time_elapsed":156821,"internal_node_id":"0.0-2.0-0.0"},{"group":"hexagon_tri","room_assignment":["purple","blue","red","grey","green","yellow"],"door_color_assignment":["white","black"],"door_generator_assignment":[0,1],"goal":3,"start":4,"action_noise":0.15,"location_history":"[4,0,1,3]","action_history":"[0,1,0]","door_history":"[0,1,0]","location_rts":"[3873,5257,2769]","trial_type":"two-door-navigation","trial_index":3,"time_elapsed":175264,"internal_node_id":"0.0-2.0-1.0"},{"group":"hexagon_tri","room_assignment":["purple","blue","red","grey","green","yellow"],"door_color_assignment":["white","black"],"door_generator_assignment":[0,1],"goal":5,"start":3,"action_noise":0.15,"location_history":"[3,2,3,2,1,3,4,2,1,3,2,1,3,4,2,3,4,2,3,2,3,2,1,3,2,1,3,2,1,5]","action_history":"[1,1,0,0,0,0,1,0,0,0,0,0,1,1,1,1,1,1,1,0,0,0,0,0,0,0,0,0,0]","door_history":"[1,1,0,0,0,0,1,0,0,0,0,0,1,1,1,1,1,1,1,0,0,0,0,0,0,0,0,0,0]","location_rts":"[3715,2369,3729,2823,3002,2211,2259,2395,1798,2182,2620,2340,1837,1839,2150,1477,2036,1764,2052,1356,1370,1473,1278,1418,1214,1460,1546,1370,1376]","trial_type":"two-door-navigation","trial_index":4,"time_elapsed":266606,"internal_node_id":"0.0-2.0-2.0"},{"group":"hexagon_tri","room_assignment":["purple","blue","red","grey","green","yellow"],"door_color_assignment":["white","black"],"door_generator_assignment":[0,1],"goal":2,"start":5,"action_noise":0.15,"location_history":"[5,4,2]","action_history":"[1,1]","door_history":"[1,1]","location_rts":"[2182,1390]","trial_type":"two-door-navigation","trial_index":5,"time_elapsed":275708,"internal_node_id":"0.0-2.0-3.0"},{"group":"hexagon_tri","room_assignment":["purple","blue","red","grey","green","yellow"],"door_color_assignment":["white","black"],"door_generator_assignment":[0,1],"goal":1,"start":2,"action_noise":0.15,"location_history":"[2,3,2,1]","action_history":"[1,0,0]","door_history":"[1,0,0]","location_rts":"[1113,1840,983]","trial_type":"two-door-navigation","trial_index":6,"time_elapsed":286195,"internal_node_id":"0.0-2.0-4.0"},{"group":"hexagon_tri","room_assignment":["purple","blue","red","grey","green","yellow"],"door_color_assignment":["white","black"],"door_generator_assignment":[0,1],"goal":4,"start":1,"action_noise":0.15,"location_history":"[1,5,0,1,5,0,5,0,5,4]","action_history":"[1,1,1,1,1,0,0,0,0]","door_history":"[1,1,1,1,1,0,0,0,0]","location_rts":"[1365,1157,1377,1333,1716,1901,1015,969,1217]","trial_type":"two-door-navigation","trial_index":7,"time_elapsed":310919,"internal_node_id":"0.0-2.0-5.0"},{"group":"hexagon_tri","room_assignment":["purple","blue","red","grey","green","yellow"],"door_color_assignment":["white","black"],"door_generator_assignment":[0,1],"goal":1,"start":4,"action_noise":0.15,"location_history":"[4,0,1]","action_history":"[0,0]","door_history":"[0,0]","location_rts":"[2441,1223]","trial_type":"two-door-navigation","trial_index":8,"time_elapsed":320100,"internal_node_id":"0.0-2.0-6.0"},{"group":"hexagon_tri","room_assignment":["purple","blue","red","grey","green","yellow"],"door_color_assignment":["white","black"],"door_generator_assignment":[0,1],"goal":5,"start":1,"action_noise":0.15,"location_history":"[1,5]","action_history":"[1]","door_history":"[1]","location_rts":"[1807]","trial_type":"two-door-navigation","trial_index":9,"time_elapsed":326422,"internal_node_id":"0.0-2.0-7.0"},{"group":"hexagon_tri","room_assignment":["purple","blue","red","grey","green","yellow"],"door_color_assignment":["white","black"],"door_generator_assignment":[0,1],"goal":0,"start":5,"action_noise":0.15,"location_history":"[5,0]","action_history":"[0]","door_history":"[0]","location_rts":"[1716]","trial_type":"two-door-navigation","trial_index":10,"time_elapsed":332650,"internal_node_id":"0.0-2.0-8.0"},{"group":"hexagon_tri","room_assignment":["purple","blue","red","grey","green","yellow"],"door_color_assignment":["white","black"],"door_generator_assignment":[0,1],"goal":2,"start":0,"action_noise":0.15,"location_history":"[0,5,0,1,5,0,5,4,0,5,4,0,1,5,0,1,5,4,0,5,4,0,5,0,1,5,0,5,0,1,3,4,0,1,5,4,0,1,5,4,2]","action_history":"[0,0,1,1,0,0,0,0,0,0,1,1,1,1,1,1,0,0,0,0,0,0,1,1,1,1,1,1,1,1,1,1,1,1,0,0,0,0,0,0]","door_history":"[0,0,1,1,0,0,0,0,0,0,1,1,1,1,1,1,0,0,0,0,0,0,1,1,1,1,1,1,1,1,1,1,1,1,0,0,0,0,0,0]","location_rts":"[1141,954,1327,709,1520,745,892,1293,1124,1192,1525,756,1066,1279,1196,1202,1401,1072,1194,1103,988,985,1268,1038,930,1125,1521,892,1023,1059,836,996,1040,1161,1107,925,975,877,1001,1135]","trial_type":"two-door-navigation","trial_index":11,"time_elapsed":420268,"internal_node_id":"0.0-2.0-9.0"},{"group":"hexagon_tri","room_assignment":["purple","blue","red","grey","green","yellow"],"door_color_assignment":["white","black"],"door_generator_assignment":[0,1],"goal":3,"start":2,"action_noise":0.15,"location_history":"[2,3]","action_history":"[1]","door_history":"[1]","location_rts":"[1608]","trial_type":"two-door-navigation","trial_index":12,"time_elapsed":426389,"internal_node_id":"0.0-2.0-10.0"},{"group":"hexagon_tri","room_assignment":["purple","blue","red","grey","green","yellow"],"door_color_assignment":["white","black"],"door_generator_assignment":[0,1],"goal":0,"start":3,"action_noise":0.15,"location_history":"[3,4,2,3,2,3,4,2,3,4,2,3,4,2,3,4,2,1,3,4,0]","action_history":"[1,1,1,1,1,1,1,1,1,1,1,1,1,1,1,1,0,0,0,0]","door_history":"[1,1,1,1,1,1,1,1,1,1,1,1,1,1,1,1,0,0,0,0]","location_rts":"[1151,910,1243,949,23687,1074,1044,999,1236,907,15231,763,1468,753,635,843,1433,978,658,662]","trial_type":"two-door-navigation","trial_index":13,"time_elapsed":506863,"internal_node_id":"0.0-2.0-11.0"},{"group":"hexagon_tri","room_assignment":["purple","blue","red","grey","green","yellow"],"door_color_assignment":["white","black"],"door_generator_assignment":[0,1],"goal":2,"start":0,"action_noise":0.15,"location_history":"[0,5,0,5,4,2]","action_history":"[1,1,1,1,1]","door_history":"[1,1,1,1,1]","location_rts":"[3522,680,742,793,430]","trial_type":"two-door-navigation","trial_index":14,"time_elapsed":521623,"internal_node_id":"0.0-2.0-12.0"},{"group":"hexagon_tri","room_assignment":["purple","blue","red","grey","green","yellow"],"door_color_assignment":["white","black"],"door_generator_assignment":[0,1],"goal":5,"start":2,"action_noise":0.15,"location_history":"[2,3,4,2,3,4,0,1,5]","action_history":"[1,1,1,1,1,1,1,1]","door_history":"[1,1,1,1,1,1,1,1]","location_rts":"[1555,705,886,910,1637,735,927,741]","trial_type":"two-door-navigation","trial_index":15,"time_elapsed":541339,"internal_node_id":"0.0-2.0-13.0"},{"group":"hexagon_tri","room_assignment":["purple","blue","red","grey","green","yellow"],"door_color_assignment":["white","black"],"door_generator_assignment":[0,1],"goal":4,"start":5,"action_noise":0.15,"location_history":"[5,0,5,0,1,5,4]","action_history":"[1,1,1,1,1,1]","door_history":"[1,1,1,1,1,1]","location_rts":"[1833,874,1187,444,612,562]","trial_type":"two-door-navigation","trial_index":16,"time_elapsed":556482,"internal_node_id":"0.0-2.0-14.0"},{"group":"hexagon_tri","room_assignment":["purple","blue","red","grey","green","yellow"],"door_color_assignment":["white","black"],"door_generator_assignment":[0,1],"goal":3,"start":4,"action_noise":0.15,"location_history":"[4,2,3]","action_history":"[1,1]","door_history":"[1,1]","location_rts":"[862,731]","trial_type":"two-door-navigation","trial_index":17,"time_elapsed":563600,"internal_node_id":"0.0-2.0-15.0"},{"group":"hexagon_tri","room_assignment":["purple","blue","red","grey","green","yellow"],"door_color_assignment":["white","black"],"door_generator_assignment":[0,1],"goal":1,"start":3,"action_noise":0.15,"location_history":"[3,4,2,1]","action_history":"[1,1,1]","door_history":"[1,1,1]","location_rts":"[398,534,664]","trial_type":"two-door-navigation","trial_index":18,"time_elapsed":571800,"internal_node_id":"0.0-2.0-16.0"},{"group":"hexagon_tri","room_assignment":["purple","blue","red","grey","green","yellow"],"door_color_assignment":["white","black"],"door_generator_assignment":[0,1],"goal":5,"start":1,"action_noise":0.15,"location_history":"[1,3,4,2,3,4,0,5]","action_history":"[1,1,1,1,1,0,0]","door_history":"[1,1,1,1,1,0,0]","location_rts":"[1203,945,657,520,974,1001,643]","trial_type":"two-door-navigation","trial_index":19,"time_elapsed":588356,"internal_node_id":"0.0-2.0-17.0"},{"group":"hexagon_tri","room_assignment":["purple","blue","red","grey","green","yellow"],"door_color_assignment":["white","black"],"door_generator_assignment":[0,1],"goal":4,"start":5,"action_noise":0.15,"location_history":"[5,0,1,5,0,1,5,0,1,5,0,1,5,4]","action_history":"[1,1,1,1,1,1,1,1,1,1,1,1,1]","door_history":"[1,1,1,1,1,1,1,1,1,1,1,1,1]","location_rts":"[2985,1993,4004,725,899,649,844,2174,1330,589,486,601,994]","trial_type":"two-door-navigation","trial_index":20,"time_elapsed":623374,"internal_node_id":"0.0-2.0-18.0"},{"group":"hexagon_tri","room_assignment":["purple","blue","red","grey","green","yellow"],"door_color_assignment":["white","black"],"door_generator_assignment":[0,1],"goal":0,"start":4,"action_noise":0.15,"location_history":"[4,0]","action_history":"[1]","door_history":"[1]","location_rts":"[1200]","trial_type":"two-door-navigation","trial_index":21,"time_elapsed":629095,"internal_node_id":"0.0-2.0-19.0"},{"group":"hexagon_tri","room_assignment":["purple","blue","red","grey","green","yellow"],"door_color_assignment":["white","black"],"door_generator_assignment":[0,1],"goal":1,"start":0,"action_noise":0.15,"location_history":"[0,1]","action_history":"[1]","door_history":"[1]","location_rts":"[2096]","trial_type":"two-door-navigation","trial_index":22,"time_elapsed":635725,"internal_node_id":"0.0-2.0-20.0"},{"group":"hexagon_tri","room_assignment":["purple","blue","red","grey","green","yellow"],"door_color_assignment":["white","black"],"door_generator_assignment":[0,1],"goal":3,"start":1,"action_noise":0.15,"location_history":"[1,5,0,1,5,0,5,0,1,5,0,1,3]","action_history":"[1,1,1,1,1,1,1,1,1,1,1,0]","door_history":"[1,1,1,1,1,1,1,1,1,1,1,0]","location_rts":"[12524,887,912,748,671,566,619,640,620,807,754,1085]","trial_type":"two-door-navigation","trial_index":23,"time_elapsed":672366,"internal_node_id":"0.0-2.0-21.0"},{"group":"hexagon_tri","room_assignment":["purple","blue","red","grey","green","yellow"],"door_color_assignment":["white","black"],"door_generator_assignment":[0,1],"goal":2,"start":3,"action_noise":0.15,"location_history":"[3,4,2]","action_history":"[1,1]","door_history":"[1,1]","location_rts":"[1310,1124]","trial_type":"two-door-navigation","trial_index":24,"time_elapsed":680342,"internal_node_id":"0.0-2.0-22.0"},{"group":"hexagon_tri","room_assignment":["purple","blue","red","grey","green","yellow"],"door_color_assignment":["white","black"],"door_generator_assignment":[0,1],"goal":0,"start":2,"action_noise":0.15,"location_history":"[2,1,3,2,3,2,1,5,4,0]","action_history":"[0,0,0,0,0,0,0,0,0]","door_history":"[0,0,0,0,0,0,0,0,0]","location_rts":"[1396,791,905,453,1568,739,916,610,934]","trial_type":"two-door-navigation","trial_index":25,"time_elapsed":701349,"internal_node_id":"0.0-2.0-23.0"},{"group":"hexagon_tri","room_assignment":["purple","blue","red","grey","green","yellow"],"door_color_assignment":["white","black"],"door_generator_assignment":[0,1],"goal":3,"start":0,"action_noise":0.15,"location_history":"[0,1,5,4,2,1,3]","action_history":"[1,1,1,1,0,0]","door_history":"[1,1,1,1,0,0]","location_rts":"[1330,1009,641,1342,1517,742]","trial_type":"two-door-navigation","trial_index":26,"time_elapsed":717576,"internal_node_id":"0.0-2.0-24.0"},{"group":"hexagon_tri","room_assignment":["purple","blue","red","grey","green","yellow"],"door_color_assignment":["white","black"],"door_generator_assignment":[0,1],"goal":1,"start":3,"action_noise":0.15,"location_history":"[3,4,2,1]","action_history":"[1,0,0]","door_history":"[1,0,0]","location_rts":"[1121,1667,563]","trial_type":"two-door-navigation","trial_index":27,"time_elapsed":727493,"internal_node_id":"0.0-2.0-25.0"},{"group":"hexagon_tri","room_assignment":["purple","blue","red","grey","green","yellow"],"door_color_assignment":["white","black"],"door_generator_assignment":[0,1],"goal":2,"start":1,"action_noise":0.15,"location_history":"[1,5,0,1,3,2]","action_history":"[1,1,1,0,0]","door_history":"[1,1,1,0,0]","location_rts":"[1499,876,606,903,610]","trial_type":"two-door-navigation","trial_index":28,"time_elapsed":740599,"internal_node_id":"0.0-2.0-26.0"},{"group":"hexagon_tri","room_assignment":["purple","blue","red","grey","green","yellow"],"door_color_assignment":["white","black"],"door_generator_assignment":[0,1],"goal":5,"start":2,"action_noise":0.15,"location_history":"[2,3,2,3,4,0,5]","action_history":"[0,0,1,1,0,0]","door_history":"[0,0,1,1,0,0]","location_rts":"[2392,782,944,827,1245,770]","trial_type":"two-door-navigation","trial_index":29,"time_elapsed":757153,"internal_node_id":"0.0-2.0-27.0"},{"group":"hexagon_tri","room_assignment":["purple","blue","red","grey","green","yellow"],"door_color_assignment":["white","black"],"door_generator_assignment":[0,1],"goal":4,"start":5,"action_noise":0.15,"location_history":"[5,4]","action_history":"[0]","door_history":"[0]","location_rts":"[1583]","trial_type":"two-door-navigation","trial_index":30,"time_elapsed":763258,"internal_node_id":"0.0-2.0-28.0"},{"group":"hexagon_tri","room_assignment":["purple","blue","red","grey","green","yellow"],"door_color_assignment":["white","black"],"door_generator_assignment":[0,1],"goal":5,"start":4,"action_noise":0.15,"location_history":"[4,2,3,4,2,3,4,0,1,3,2,1,3,2,3,2,3,4,2,3,4,0,5]","action_history":"[0,0,1,1,1,1,0,0,0,0,0,0,0,0,0,1,1,1,1,0,0,0]","door_history":"[0,0,1,1,1,1,0,0,0,0,0,0,0,0,0,1,1,1,1,0,0,0]","location_rts":"[1105,608,1391,2638,723,620,928,357,576,872,656,692,1059,571,775,917,658,1007,980,569,478,539]","trial_type":"two-door-navigation","trial_index":31,"time_elapsed":807935,"internal_node_id":"0.0-2.0-29.0"},{"group":"hexagon_tri","room_assignment":["purple","blue","red","grey","green","yellow"],"door_color_assignment":["white","black"],"door_generator_assignment":[0,1],"goal":3,"start":5,"action_noise":0.15,"location_history":"[5,0,1,3]","action_history":"[1,1,0]","door_history":"[1,1,0]","location_rts":"[1154,1507,1536]","trial_type":"two-door-navigation","trial_index":32,"time_elapsed":818687,"internal_node_id":"0.0-2.0-30.0"},{"group":"hexagon_tri","room_assignment":["purple","blue","red","grey","green","yellow"],"door_color_assignment":["white","black"],"door_generator_assignment":[0,1],"goal":0,"start":3,"action_noise":0.15,"location_history":"[3,4,2,3,2,1,5,4,0]","action_history":"[1,1,1,0,0,0,0,0]","door_history":"[1,1,1,0,0,0,0,0]","location_rts":"[1191,842,666,577,504,621,1161,708]","trial_type":"two-door-navigation","trial_index":33,"time_elapsed":836647,"internal_node_id":"0.0-2.0-31.0"},{"group":"hexagon_tri","room_assignment":["purple","blue","red","grey","green","yellow"],"door_color_assignment":["white","black"],"door_generator_assignment":[0,1],"goal":4,"start":0,"action_noise":0.15,"location_history":"[0,1,5,4]","action_history":"[1,1,0]","door_history":"[1,1,0]","location_rts":"[1504,643,1238]","trial_type":"two-door-navigation","trial_index":34,"time_elapsed":846614,"internal_node_id":"0.0-2.0-32.0"},{"group":"hexagon_tri","room_assignment":["purple","blue","red","grey","green","yellow"],"door_color_assignment":["white","black"],"door_generator_assignment":[0,1],"goal":1,"start":4,"action_noise":0.15,"location_history":"[4,0,5,4,2,3,2,1]","action_history":"[0,0,0,1,1,1,0]","door_history":"[0,0,0,1,1,1,0]","location_rts":"[1381,821,701,914,613,590,983]","trial_type":"two-door-navigation","trial_index":35,"time_elapsed":863224,"internal_node_id":"0.0-2.0-33.0"},{"group":"hexagon_tri","room_assignment":["purple","blue","red","grey","green","yellow"],"door_color_assignment":["white","black"],"door_generator_assignment":[0,1],"goal":2,"start":1,"action_noise":0.15,"location_history":"[1,3,2]","action_history":"[1,0]","door_history":"[1,0]","location_rts":"[1387,906]","trial_type":"two-door-navigation","trial_index":36,"time_elapsed":871061,"internal_node_id":"0.0-2.0-34.0"},{"group":"hexagon_tri","room_assignment":["purple","blue","red","grey","green","yellow"],"door_color_assignment":["white","black"],"door_generator_assignment":[0,1],"goal":0,"start":2,"action_noise":0.15,"location_history":"[2,1,3,2,3,2,1,5,0]","action_history":"[1,0,0,1,0,0,1,1]","door_history":"[1,0,0,1,0,0,1,1]","location_rts":"[1512,1167,824,1828,1442,956,1725,588]","trial_type":"two-door-navigation","trial_index":37,"time_elapsed":892752,"internal_node_id":"0.0-2.0-35.0"},{"group":"hexagon_tri","room_assignment":["purple","blue","red","grey","green","yellow"],"door_color_assignment":["white","black"],"door_generator_assignment":[0,1],"goal":5,"start":0,"action_noise":0.15,"location_history":"[0,1,5]","action_history":"[1,1]","door_history":"[1,1]","location_rts":"[1110,498]","trial_type":"two-door-navigation","trial_index":38,"time_elapsed":899921,"internal_node_id":"0.0-2.0-36.0"},{"group":"hexagon_tri","room_assignment":["purple","blue","red","grey","green","yellow"],"door_color_assignment":["white","black"],"door_generator_assignment":[0,1],"goal":2,"start":5,"action_noise":0.15,"location_history":"[5,4,2]","action_history":"[0,1]","door_history":"[0,1]","location_rts":"[1628,3694]","trial_type":"two-door-navigation","trial_index":39,"time_elapsed":910794,"internal_node_id":"0.0-2.0-37.0"},{"group":"hexagon_tri","room_assignment":["purple","blue","red","grey","green","yellow"],"door_color_assignment":["white","black"],"door_generator_assignment":[0,1],"goal":1,"start":2,"action_noise":0.15,"location_history":"[2,3,4,0,5,4,0,1]","action_history":"[1,1,0,0,0,0,1]","door_history":"[1,1,0,0,0,0,1]","location_rts":"[751,1148,1363,2013,1117,844,1308]","trial_type":"two-door-navigation","trial_index":40,"time_elapsed":929949,"internal_node_id":"0.0-2.0-38.0"},{"group":"hexagon_tri","room_assignment":["purple","blue","red","grey","green","yellow"],"door_color_assignment":["white","black"],"door_generator_assignment":[0,1],"goal":4,"start":1,"action_noise":0.15,"location_history":"[1,3,2,3,4]","action_history":"[0,0,0,1]","door_history":"[0,0,0,1]","location_rts":"[1533,1322,605,1073]","trial_type":"two-door-navigation","trial_index":41,"time_elapsed":942045,"internal_node_id":"0.0-2.0-39.0"},{"group":"hexagon_tri","room_assignment":["purple","blue","red","grey","green","yellow"],"door_color_assignment":["white","black"],"door_generator_assignment":[0,1],"goal":3,"start":4,"action_noise":0.15,"location_history":"[4,0,5,0,5,0,1,5,4,0,1,3]","action_history":"[1,0,0,0,1,1,1,0,0,0,0]","door_history":"[1,0,0,0,1,1,1,0,0,0,0]","location_rts":"[1180,1421,723,1651,1484,923,743,1360,929,942,707]","trial_type":"two-door-navigation","trial_index":42,"time_elapsed":968901,"internal_node_id":"0.0-2.0-40.0"},{"group":"hexagon_tri","room_assignment":["purple","blue","red","grey","green","yellow"],"door_color_assignment":["white","black"],"door_generator_assignment":[0,1],"goal":5,"start":3,"action_noise":0.15,"location_history":"[3,4,2,3,4,0,5]","action_history":"[1,1,1,1,0,0]","door_history":"[1,1,1,1,0,0]","location_rts":"[1499,567,643,570,1119,581]","trial_type":"two-door-navigation","trial_index":43,"time_elapsed":983478,"internal_node_id":"0.0-2.0-41.0"},{"group":"hexagon_tri","room_assignment":["purple","blue","red","grey","green","yellow"],"door_color_assignment":["white","black"],"door_generator_assignment":[0,1],"goal":3,"start":5,"action_noise":0.15,"location_history":"[5,4,0,1,3]","action_history":"[0,0,0,0]","door_history":"[0,0,0,0]","location_rts":"[2198,1241,717,537]","trial_type":"two-door-navigation","trial_index":44,"time_elapsed":995749,"internal_node_id":"0.0-2.0-42.0"},{"group":"hexagon_tri","room_assignment":["purple","blue","red","grey","green","yellow"],"door_color_assignment":["white","black"],"door_generator_assignment":[0,1],"goal":0,"start":3,"action_noise":0.15,"location_history":"[3,2,1,5,0]","action_history":"[1,1,1,1]","door_history":"[1,1,1,1]","location_rts":"[1705,513,474,567]","trial_type":"two-door-navigation","trial_index":45,"time_elapsed":1006566,"internal_node_id":"0.0-2.0-43.0"},{"group":"hexagon_tri","room_assignment":["purple","blue","red","grey","green","yellow"],"door_color_assignment":["white","black"],"door_generator_assignment":[0,1],"goal":2,"start":0,"action_noise":0.15,"location_history":"[0,1,5,4,2]","action_history":"[1,1,0,1]","door_history":"[1,1,0,1]","location_rts":"[1335,713,1258,1210]","trial_type":"two-door-navigation","trial_index":46,"time_elapsed":1018660,"internal_node_id":"0.0-2.0-44.0"},{"group":"hexagon_tri","room_assignment":["purple","blue","red","grey","green","yellow"],"door_color_assignment":["white","black"],"door_generator_assignment":[0,1],"goal":4,"start":2,"action_noise":0.15,"location_history":"[2,3,4]","action_history":"[1,1]","door_history":"[1,1]","location_rts":"[1039,1451]","trial_type":"two-door-navigation","trial_index":47,"time_elapsed":1026681,"internal_node_id":"0.0-2.0-45.0"},{"group":"hexagon_tri","room_assignment":["purple","blue","red","grey","green","yellow"],"door_color_assignment":["white","black"],"door_generator_assignment":[0,1],"goal":1,"start":4,"action_noise":0.15,"location_history":"[4,2,3,4,2,3,4,2,1]","action_history":"[1,1,1,1,1,1,1,0]","door_history":"[1,1,1,1,1,1,1,0]","location_rts":"[909,1440,532,889,634,966,2056,1076]","trial_type":"two-door-navigation","trial_index":48,"time_elapsed":1046811,"internal_node_id":"0.0-2.0-46.0"},{"group":"hexagon_tri","room_assignment":["purple","blue","red","grey","green","yellow"],"door_color_assignment":["white","black"],"door_generator_assignment":[0,1],"goal":4,"start":1,"action_noise":0.15,"location_history":"[1,5,0,5,0,1,3,2,1,3,2,3,4]","action_history":"[1,1,1,1,1,0,0,0,0,1,1,1]","door_history":"[1,1,1,1,1,0,0,0,0,1,1,1]","location_rts":"[1198,631,806,866,680,1255,889,447,540,1388,453,639]","trial_type":"two-door-navigation","trial_index":49,"time_elapsed":1072305,"internal_node_id":"0.0-2.0-47.0"},{"group":"hexagon_tri","room_assignment":["purple","blue","red","grey","green","yellow"],"door_color_assignment":["white","black"],"door_generator_assignment":[0,1],"goal":3,"start":4,"action_noise":0.15,"location_history":"[4,0,5,4,0,5,0,5,0,1,3]","action_history":"[0,0,0,0,0,0,0,1,1,1]","door_history":"[0,0,0,0,0,0,0,1,1,1]","location_rts":"[2237,563,514,556,481,474,428,1306,334,432]","trial_type":"two-door-navigation","trial_index":50,"time_elapsed":1094005,"internal_node_id":"0.0-2.0-48.0"},{"group":"hexagon_tri","room_assignment":["purple","blue","red","grey","green","yellow"],"door_color_assignment":["white","black"],"door_generator_assignment":[0,1],"goal":5,"start":3,"action_noise":0.15,"location_history":"[3,4,2,3,2,1,3,2,1,3,2,1,3,4,2,3,4,2,3,2,1,3,2,1,5]","action_history":"[1,1,0,0,0,0,0,0,0,0,0,0,0,1,1,1,1,1,0,0,0,0,0,0]","door_history":"[1,1,0,0,0,0,0,0,0,0,0,0,0,1,1,1,1,1,0,0,0,0,0,0]","location_rts":"[3681,858,733,356,385,556,440,496,655,1000,508,551,631,1413,438,390,424,596,1073,453,518,730,482,537]","trial_type":"two-door-navigation","trial_index":51,"time_elapsed":1140828,"internal_node_id":"0.0-2.0-49.0"},{"view_history":"[{\"page_index\":0,\"viewing_time\":3291}]","rt":3291,"trial_type":"instructions","trial_index":52,"time_elapsed":1145119,"internal_node_id":"0.0-3.0"},{"view_history":"[{\"page_index\":0,\"viewing_time\":2806},{\"page_index\":1,\"viewing_time\":19378}]","rt":22185,"trial_type":"instructions","trial_index":53,"time_elapsed":1168304,"internal_node_id":"0.0-4.0"},{"group":"hexagon_bi","fractal_assignment":["../images/ylw_slt.png","../images/blu_wht.png","../images/pnk_blu.png","../images/cyn_red.png","../images/org_blu.png","../images/gry_blk.png"],"mutagen_generator_assignment":[0,1],"goal":4,"start":0,"action_noise":0.15,"location_history":"[0,5,4]","action_history":"[0,1]","mutagen_history":"[0,1]","location_rts":"[6880,4600]","trial_type":"fractal-mutation","trial_index":54,"time_elapsed":1185420,"internal_node_id":"0.0-5.0-0.0"},{"group":"hexagon_bi","fractal_assignment":["../images/ylw_slt.png","../images/blu_wht.png","../images/pnk_blu.png","../images/cyn_red.png","../images/org_blu.png","../images/gry_blk.png"],"mutagen_generator_assignment":[0,1],"goal":3,"start":4,"action_noise":0.15,"location_history":"[4,3]","action_history":"[0]","mutagen_history":"[0]","location_rts":"[2305]","trial_type":"fractal-mutation","trial_index":55,"time_elapsed":1192273,"internal_node_id":"0.0-5.0-1.0"},{"group":"hexagon_bi","fractal_assignment":["../images/ylw_slt.png","../images/blu_wht.png","../images/pnk_blu.png","../images/cyn_red.png","../images/org_blu.png","../images/gry_blk.png"],"mutagen_generator_assignment":[0,1],"goal":5,"start":3,"action_noise":0.15,"location_history":"[3,4,5]","action_history":"[0,1]","mutagen_history":"[0,1]","location_rts":"[3204,224]","trial_type":"fractal-mutation","trial_index":56,"time_elapsed":1201303,"internal_node_id":"0.0-5.0-2.0"},{"group":"hexagon_bi","fractal_assignment":["../images/ylw_slt.png","../images/blu_wht.png","../images/pnk_blu.png","../images/cyn_red.png","../images/org_blu.png","../images/gry_blk.png"],"mutagen_generator_assignment":[0,1],"goal":2,"start":5,"action_noise":0.15,"location_history":"[5,0,5,0,1,0,5,4,3,4,5,4,3,2]","action_history":"[0,0,0,1,1,0,1,0,0,1,1,0,1]","mutagen_history":"[0,0,0,1,1,0,1,0,0,1,1,0,1]","location_rts":"[1608,3605,4295,2912,3299,3674,410,3610,6009,522,5105,1919,125]","trial_type":"fractal-mutation","trial_index":57,"time_elapsed":1255831,"internal_node_id":"0.0-5.0-3.0"},{"group":"hexagon_bi","fractal_assignment":["../images/ylw_slt.png","../images/blu_wht.png","../images/pnk_blu.png","../images/cyn_red.png","../images/org_blu.png","../images/gry_blk.png"],"mutagen_generator_assignment":[0,1],"goal":1,"start":2,"action_noise":0.15,"location_history":"[2,1]","action_history":"[0]","mutagen_history":"[0]","location_rts":"[2735]","trial_type":"fractal-mutation","trial_index":58,"time_elapsed":1263131,"internal_node_id":"0.0-5.0-4.0"},{"group":"hexagon_bi","fractal_assignment":["../images/ylw_slt.png","../images/blu_wht.png","../images/pnk_blu.png","../images/cyn_red.png","../images/org_blu.png","../images/gry_blk.png"],"mutagen_generator_assignment":[0,1],"goal":4,"start":1,"action_noise":0.15,"location_history":"[1,2,1,2,1,2,1,0,5,4]","action_history":"[0,0,0,0,0,0,1,0,1]","mutagen_history":"[0,0,0,0,0,0,1,0,1]","location_rts":"[740,1811,2296,3823,1800,2353,280,1939,1530]","trial_type":"fractal-mutation","trial_index":59,"time_elapsed":1292657,"internal_node_id":"0.0-5.0-5.0"},{"group":"hexagon_bi","fractal_assignment":["../images/ylw_slt.png","../images/blu_wht.png","../images/pnk_blu.png","../images/cyn_red.png","../images/org_blu.png","../images/gry_blk.png"],"mutagen_generator_assignment":[0,1],"goal":1,"start":4,"action_noise":0.15,"location_history":"[4,3,2,1]","action_history":"[0,1,0]","mutagen_history":"[0,1,0]","location_rts":"[1597,170,2031]","trial_type":"fractal-mutation","trial_index":60,"time_elapsed":1303207,"internal_node_id":"0.0-5.0-6.0"},{"group":"hexagon_bi","fractal_assignment":["../images/ylw_slt.png","../images/blu_wht.png","../images/pnk_blu.png","../images/cyn_red.png","../images/org_blu.png","../images/gry_blk.png"],"mutagen_generator_assignment":[0,1],"goal":5,"start":1,"action_noise":0.15,"location_history":"[1,2,3,4,5]","action_history":"[0,1,1,1]","mutagen_history":"[0,1,1,1]","location_rts":"[1048,63,482,1117]","trial_type":"fractal-mutation","trial_index":61,"time_elapsed":1313635,"internal_node_id":"0.0-5.0-7.0"},{"group":"hexagon_bi","fractal_assignment":["../images/ylw_slt.png","../images/blu_wht.png","../images/pnk_blu.png","../images/cyn_red.png","../images/org_blu.png","../images/gry_blk.png"],"mutagen_generator_assignment":[0,1],"goal":0,"start":5,"action_noise":0.15,"location_history":"[5,0]","action_history":"[0]","mutagen_history":"[0]","location_rts":"[1033]","trial_type":"fractal-mutation","trial_index":62,"time_elapsed":1319207,"internal_node_id":"0.0-5.0-8.0"},{"group":"hexagon_bi","fractal_assignment":["../images/ylw_slt.png","../images/blu_wht.png","../images/pnk_blu.png","../images/cyn_red.png","../images/org_blu.png","../images/gry_blk.png"],"mutagen_generator_assignment":[0,1],"goal":2,"start":0,"action_noise":0.15,"location_history":"[0,1,2]","action_history":"[0,1]","mutagen_history":"[0,1]","location_rts":"[423,1033]","trial_type":"fractal-mutation","trial_index":63,"time_elapsed":1326261,"internal_node_id":"0.0-5.0-9.0"},{"group":"hexagon_bi","fractal_assignment":["../images/ylw_slt.png","../images/blu_wht.png","../images/pnk_blu.png","../images/cyn_red.png","../images/org_blu.png","../images/gry_blk.png"],"mutagen_generator_assignment":[0,1],"goal":3,"start":2,"action_noise":0.15,"location_history":"[2,1,0,5,4,5,4,3]","action_history":"[0,1,1,1,1,1,1]","mutagen_history":"[0,1,1,1,1,1,1]","location_rts":"[442,263,878,1001,1257,723,907]","trial_type":"fractal-mutation","trial_index":64,"time_elapsed":1342570,"internal_node_id":"0.0-5.0-10.0"},{"group":"hexagon_bi","fractal_assignment":["../images/ylw_slt.png","../images/blu_wht.png","../images/pnk_blu.png","../images/cyn_red.png","../images/org_blu.png","../images/gry_blk.png"],"mutagen_generator_assignment":[0,1],"goal":0,"start":3,"action_noise":0.15,"location_history":"[3,4,5,4,5,4,3,2,3,2,3,2,3,4,3,2,3,2,3,2,1,0]","action_history":"[0,1,1,1,1,1,1,1,1,1,1,1,1,0,1,1,1,1,1,1,1]","mutagen_history":"[0,1,1,1,1,1,1,1,1,1,1,1,1,0,1,1,1,1,1,1,1]","location_rts":"[1174,565,984,577,706,514,737,642,718,663,680,846,578,846,192,86,1036,917,1306,753,874]","trial_type":"fractal-mutation","trial_index":65,"time_elapsed":1383968,"internal_node_id":"0.0-5.0-11.0"},{"group":"hexagon_bi","fractal_assignment":["../images/ylw_slt.png","../images/blu_wht.png","../images/pnk_blu.png","../images/cyn_red.png","../images/org_blu.png","../images/gry_blk.png"],"mutagen_generator_assignment":[0,1],"goal":2,"start":0,"action_noise":0.15,"location_history":"[0,5,4,5,4,5,4,5,4,5,0,1,0,1,0,1,0,1,2]","action_history":"[0,1,1,1,1,1,1,1,1,0,1,1,1,1,1,1,1,0]","mutagen_history":"[0,1,1,1,1,1,1,1,1,0,1,1,1,1,1,1,1,0]","location_rts":"[1526,710,1205,2869,886,973,838,1324,743,473,170,1149,779,637,875,961,1012,591]","trial_type":"fractal-mutation","trial_index":66,"time_elapsed":1424350,"internal_node_id":"0.0-5.0-12.0"},{"group":"hexagon_bi","fractal_assignment":["../images/ylw_slt.png","../images/blu_wht.png","../images/pnk_blu.png","../images/cyn_red.png","../images/org_blu.png","../images/gry_blk.png"],"mutagen_generator_assignment":[0,1],"goal":5,"start":2,"action_noise":0.15,"location_history":"[2,1,2,3,2,3,2,3,2,1,0,1,0,1,0,5]","action_history":"[0,1,0,1,1,1,1,1,0,1,1,1,1,1,0]","mutagen_history":"[0,1,0,1,1,1,1,1,0,1,1,1,1,1,0]","location_rts":"[1465,1561,1400,194,965,838,614,673,897,77,899,831,565,902,1069]","trial_type":"fractal-mutation","trial_index":67,"time_elapsed":1456696,"internal_node_id":"0.0-5.0-13.0"},{"group":"hexagon_bi","fractal_assignment":["../images/ylw_slt.png","../images/blu_wht.png","../images/pnk_blu.png","../images/cyn_red.png","../images/org_blu.png","../images/gry_blk.png"],"mutagen_generator_assignment":[0,1],"goal":4,"start":5,"action_noise":0.15,"location_history":"[5,4]","action_history":"[0]","mutagen_history":"[0]","location_rts":"[1122]","trial_type":"fractal-mutation","trial_index":68,"time_elapsed":1462377,"internal_node_id":"0.0-5.0-14.0"},{"group":"hexagon_bi","fractal_assignment":["../images/ylw_slt.png","../images/blu_wht.png","../images/pnk_blu.png","../images/cyn_red.png","../images/org_blu.png","../images/gry_blk.png"],"mutagen_generator_assignment":[0,1],"goal":3,"start":4,"action_noise":0.15,"location_history":"[4,5,0,1,0,5,4,5,0,1,0,1,2,1,0,1,2,3]","action_history":"[0,1,1,1,1,1,1,0,1,1,1,0,0,1,1,0,1]","mutagen_history":"[0,1,1,1,1,1,1,0,1,1,1,0,0,1,1,0,1]","location_rts":"[1135,1226,876,804,1076,1028,532,539,64,1301,447,823,782,618,514,1727,71]","trial_type":"fractal-mutation","trial_index":69,"time_elapsed":1497805,"internal_node_id":"0.0-5.0-15.0"},{"group":"hexagon_bi","fractal_assignment":["../images/ylw_slt.png","../images/blu_wht.png","../images/pnk_blu.png","../images/cyn_red.png","../images/org_blu.png","../images/gry_blk.png"],"mutagen_generator_assignment":[0,1],"goal":1,"start":3,"action_noise":0.15,"location_history":"[3,4,5,4,3,4,5,0,1]","action_history":"[0,1,1,1,0,1,1,1]","mutagen_history":"[0,1,1,1,0,1,1,1]","location_rts":"[849,561,1331,933,880,1538,1128,747]","trial_type":"fractal-mutation","trial_index":70,"time_elapsed":1517858,"internal_node_id":"0.0-5.0-16.0"},{"group":"hexagon_bi","fractal_assignment":["../images/ylw_slt.png","../images/blu_wht.png","../images/pnk_blu.png","../images/cyn_red.png","../images/org_blu.png","../images/gry_blk.png"],"mutagen_generator_assignment":[0,1],"goal":5,"start":1,"action_noise":0.15,"location_history":"[1,0,1,2,3,4,3,2,1,0,1,0,5]","action_history":"[0,1,1,1,1,0,1,1,0,1,1,0]","mutagen_history":"[0,1,1,1,1,0,1,1,0,1,1,0]","location_rts":"[1418,158,1138,867,874,950,1121,495,839,551,655,443]","trial_type":"fractal-mutation","trial_index":71,"time_elapsed":1543689,"internal_node_id":"0.0-5.0-17.0"},{"group":"hexagon_bi","fractal_assignment":["../images/ylw_slt.png","../images/blu_wht.png","../images/pnk_blu.png","../images/cyn_red.png","../images/org_blu.png","../images/gry_blk.png"],"mutagen_generator_assignment":[0,1],"goal":4,"start":5,"action_noise":0.15,"location_history":"[5,0,1,2,3,4]","action_history":"[0,1,0,1,0]","mutagen_history":"[0,1,0,1,0]","location_rts":"[954,550,871,210,1200]","trial_type":"fractal-mutation","trial_index":72,"time_elapsed":1556350,"internal_node_id":"0.0-5.0-18.0"},{"group":"hexagon_bi","fractal_assignment":["../images/ylw_slt.png","../images/blu_wht.png","../images/pnk_blu.png","../images/cyn_red.png","../images/org_blu.png","../images/gry_blk.png"],"mutagen_generator_assignment":[0,1],"goal":0,"start":4,"action_noise":0.15,"location_history":"[4,3,2,3,2,3,2,1,0]","action_history":"[0,1,1,1,1,1,0,1]","mutagen_history":"[0,1,1,1,1,1,0,1]","location_rts":"[630,268,568,490,997,210,463,667]","trial_type":"fractal-mutation","trial_index":73,"time_elapsed":1572844,"internal_node_id":"0.0-5.0-19.0"},{"group":"hexagon_bi","fractal_assignment":["../images/ylw_slt.png","../images/blu_wht.png","../images/pnk_blu.png","../images/cyn_red.png","../images/org_blu.png","../images/gry_blk.png"],"mutagen_generator_assignment":[0,1],"goal":1,"start":0,"action_noise":0.15,"location_history":"[0,5,0,5,4,5,4,3,2,3,2,3,4,5,4,5,4,3,2,1]","action_history":"[0,1,0,1,1,1,0,1,1,1,0,0,1,1,1,1,0,1,1]","mutagen_history":"[0,1,0,1,1,1,0,1,1,1,0,0,1,1,1,1,0,1,1]","location_rts":"[1202,34,1201,586,1332,830,394,222,509,863,291,1145,993,537,424,866,763,724,596]","trial_type":"fractal-mutation","trial_index":74,"time_elapsed":1610027,"internal_node_id":"0.0-5.0-20.0"},{"group":"hexagon_bi","fractal_assignment":["../images/ylw_slt.png","../images/blu_wht.png","../images/pnk_blu.png","../images/cyn_red.png","../images/org_blu.png","../images/gry_blk.png"],"mutagen_generator_assignment":[0,1],"goal":3,"start":1,"action_noise":0.15,"location_history":"[1,2,3]","action_history":"[0,1]","mutagen_history":"[0,1]","location_rts":"[1281,644]","trial_type":"fractal-mutation","trial_index":75,"time_elapsed":1617573,"internal_node_id":"0.0-5.0-21.0"},{"group":"hexagon_bi","fractal_assignment":["../images/ylw_slt.png","../images/blu_wht.png","../images/pnk_blu.png","../images/cyn_red.png","../images/org_blu.png","../images/gry_blk.png"],"mutagen_generator_assignment":[0,1],"goal":2,"start":3,"action_noise":0.15,"location_history":"[3,4,5,4,3,2]","action_history":"[0,1,1,0,1]","mutagen_history":"[0,1,1,0,1]","location_rts":"[672,224,491,501,693]","trial_type":"fractal-mutation","trial_index":76,"time_elapsed":1629015,"internal_node_id":"0.0-5.0-22.0"},{"group":"hexagon_bi","fractal_assignment":["../images/ylw_slt.png","../images/blu_wht.png","../images/pnk_blu.png","../images/cyn_red.png","../images/org_blu.png","../images/gry_blk.png"],"mutagen_generator_assignment":[0,1],"goal":0,"start":2,"action_noise":0.15,"location_history":"[2,3,2,1,0]","action_history":"[0,1,1,1]","mutagen_history":"[0,1,1,1]","location_rts":"[1130,618,1096,1074]","trial_type":"fractal-mutation","trial_index":77,"time_elapsed":1640750,"internal_node_id":"0.0-5.0-23.0"},{"group":"hexagon_bi","fractal_assignment":["../images/ylw_slt.png","../images/blu_wht.png","../images/pnk_blu.png","../images/cyn_red.png","../images/org_blu.png","../images/gry_blk.png"],"mutagen_generator_assignment":[0,1],"goal":3,"start":0,"action_noise":0.15,"location_history":"[0,5,4,3]","action_history":"[0,1,1]","mutagen_history":"[0,1,1]","location_rts":"[783,710,608]","trial_type":"fractal-mutation","trial_index":78,"time_elapsed":1649653,"internal_node_id":"0.0-5.0-24.0"},{"group":"hexagon_bi","fractal_assignment":["../images/ylw_slt.png","../images/blu_wht.png","../images/pnk_blu.png","../images/cyn_red.png","../images/org_blu.png","../images/gry_blk.png"],"mutagen_generator_assignment":[0,1],"goal":1,"start":3,"action_noise":0.15,"location_history":"[3,4,5,4,5,4,3,2,1]","action_history":"[0,1,1,1,1,0,0,0]","mutagen_history":"[0,1,1,1,1,0,0,0]","location_rts":"[674,255,1093,668,891,594,782,718]","trial_type":"fractal-mutation","trial_index":79,"time_elapsed":1667304,"internal_node_id":"0.0-5.0-25.0"},{"group":"hexagon_bi","fractal_assignment":["../images/ylw_slt.png","../images/blu_wht.png","../images/pnk_blu.png","../images/cyn_red.png","../images/org_blu.png","../images/gry_blk.png"],"mutagen_generator_assignment":[0,1],"goal":2,"start":1,"action_noise":0.15,"location_history":"[1,2]","action_history":"[0]","mutagen_history":"[0]","location_rts":"[750]","trial_type":"fractal-mutation","trial_index":80,"time_elapsed":1672624,"internal_node_id":"0.0-5.0-26.0"},{"group":"hexagon_bi","fractal_assignment":["../images/ylw_slt.png","../images/blu_wht.png","../images/pnk_blu.png","../images/cyn_red.png","../images/org_blu.png","../images/gry_blk.png"],"mutagen_generator_assignment":[0,1],"goal":5,"start":2,"action_noise":0.15,"location_history":"[2,3,4,3,4,3,4,5]","action_history":"[0,0,0,0,0,0,1]","mutagen_history":"[0,0,0,0,0,0,1]","location_rts":"[899,809,573,762,538,574,1000]","trial_type":"fractal-mutation","trial_index":81,"time_elapsed":1688647,"internal_node_id":"0.0-5.0-27.0"},{"group":"hexagon_bi","fractal_assignment":["../images/ylw_slt.png","../images/blu_wht.png","../images/pnk_blu.png","../images/cyn_red.png","../images/org_blu.png","../images/gry_blk.png"],"mutagen_generator_assignment":[0,1],"goal":4,"start":5,"action_noise":0.15,"location_history":"[5,4]","action_history":"[0]","mutagen_history":"[0]","location_rts":"[596]","trial_type":"fractal-mutation","trial_index":82,"time_elapsed":1693787,"internal_node_id":"0.0-5.0-28.0"},{"group":"hexagon_bi","fractal_assignment":["../images/ylw_slt.png","../images/blu_wht.png","../images/pnk_blu.png","../images/cyn_red.png","../images/org_blu.png","../images/gry_blk.png"],"mutagen_generator_assignment":[0,1],"goal":5,"start":4,"action_noise":0.15,"location_history":"[4,3,4,5]","action_history":"[0,0,0]","mutagen_history":"[0,0,0]","location_rts":"[1350,536,520]","trial_type":"fractal-mutation","trial_index":83,"time_elapsed":1702876,"internal_node_id":"0.0-5.0-29.0"},{"group":"hexagon_bi","fractal_assignment":["../images/ylw_slt.png","../images/blu_wht.png","../images/pnk_blu.png","../images/cyn_red.png","../images/org_blu.png","../images/gry_blk.png"],"mutagen_generator_assignment":[0,1],"goal":3,"start":5,"action_noise":0.15,"location_history":"[5,4,5,4,3]","action_history":"[0,0,0,0]","mutagen_history":"[0,0,0,0]","location_rts":"[476,741,778,484]","trial_type":"fractal-mutation","trial_index":84,"time_elapsed":1713036,"internal_node_id":"0.0-5.0-30.0"},{"group":"hexagon_bi","fractal_assignment":["../images/ylw_slt.png","../images/blu_wht.png","../images/pnk_blu.png","../images/cyn_red.png","../images/org_blu.png","../images/gry_blk.png"],"mutagen_generator_assignment":[0,1],"goal":0,"start":3,"action_noise":0.15,"location_history":"[3,2,3,2,1,2,1,0]","action_history":"[0,1,1,1,0,1,1]","mutagen_history":"[0,1,1,1,0,1,1]","location_rts":"[1069,751,496,667,284,454,539]","trial_type":"fractal-mutation","trial_index":85,"time_elapsed":1728227,"internal_node_id":"0.0-5.0-31.0"},{"group":"hexagon_bi","fractal_assignment":["../images/ylw_slt.png","../images/blu_wht.png","../images/pnk_blu.png","../images/cyn_red.png","../images/org_blu.png","../images/gry_blk.png"],"mutagen_generator_assignment":[0,1],"goal":4,"start":0,"action_noise":0.15,"location_history":"[0,5,0,1,0,5,0,5,4]","action_history":"[0,0,1,1,0,0,0,0]","mutagen_history":"[0,0,1,1,0,0,0,0]","location_rts":"[2933,831,711,553,2455,627,359,483]","trial_type":"fractal-mutation","trial_index":86,"time_elapsed":1749130,"internal_node_id":"0.0-5.0-32.0"},{"group":"hexagon_bi","fractal_assignment":["../images/ylw_slt.png","../images/blu_wht.png","../images/pnk_blu.png","../images/cyn_red.png","../images/org_blu.png","../images/gry_blk.png"],"mutagen_generator_assignment":[0,1],"goal":1,"start":4,"action_noise":0.15,"location_history":"[4,5,4,3,4,3,4,5,4,3,4,5,4,5,4,5,4,5,0,5,0,5,0,1]","action_history":"[0,1,0,0,0,0,1,1,1,0,1,1,1,1,1,1,1,0,0,0,0,0,1]","mutagen_history":"[0,1,0,0,0,0,1,1,1,0,1,1,1,1,1,1,1,0,0,0,0,0,1]","location_rts":"[533,157,508,324,396,438,726,874,1135,168,550,169,702,750,594,838,451,711,509,782,720,632,563]","trial_type":"fractal-mutation","trial_index":87,"time_elapsed":1790153,"internal_node_id":"0.0-5.0-33.0"},{"group":"hexagon_bi","fractal_assignment":["../images/ylw_slt.png","../images/blu_wht.png","../images/pnk_blu.png","../images/cyn_red.png","../images/org_blu.png","../images/gry_blk.png"],"mutagen_generator_assignment":[0,1],"goal":2,"start":1,"action_noise":0.15,"location_history":"[1,2]","action_history":"[0]","mutagen_history":"[0]","location_rts":"[660]","trial_type":"fractal-mutation","trial_index":88,"time_elapsed":1795355,"internal_node_id":"0.0-5.0-34.0"},{"group":"hexagon_bi","fractal_assignment":["../images/ylw_slt.png","../images/blu_wht.png","../images/pnk_blu.png","../images/cyn_red.png","../images/org_blu.png","../images/gry_blk.png"],"mutagen_generator_assignment":[0,1],"goal":0,"start":2,"action_noise":0.15,"location_history":"[2,1,0]","action_history":"[0,1]","mutagen_history":"[0,1]","location_rts":"[819,87]","trial_type":"fractal-mutation","trial_index":89,"time_elapsed":1801915,"internal_node_id":"0.0-5.0-35.0"},{"group":"hexagon_bi","fractal_assignment":["../images/ylw_slt.png","../images/blu_wht.png","../images/pnk_blu.png","../images/cyn_red.png","../images/org_blu.png","../images/gry_blk.png"],"mutagen_generator_assignment":[0,1],"goal":5,"start":0,"action_noise":0.15,"location_history":"[0,1,2,1,0,1,0,1,0,5]","action_history":"[1,0,1,1,1,0,1,1,0]","mutagen_history":"[1,0,1,1,1,0,1,1,0]","location_rts":"[704,381,432,532,670,350,882,576,379]","trial_type":"fractal-mutation","trial_index":90,"time_elapsed":1819766,"internal_node_id":"0.0-5.0-36.0"},{"group":"hexagon_bi","fractal_assignment":["../images/ylw_slt.png","../images/blu_wht.png","../images/pnk_blu.png","../images/cyn_red.png","../images/org_blu.png","../images/gry_blk.png"],"mutagen_generator_assignment":[0,1],"goal":2,"start":5,"action_noise":0.15,"location_history":"[5,4,3,2]","action_history":"[0,1,1]","mutagen_history":"[0,1,1]","location_rts":"[686,383,746]","trial_type":"fractal-mutation","trial_index":91,"time_elapsed":1828235,"internal_node_id":"0.0-5.0-37.0"},{"group":"hexagon_bi","fractal_assignment":["../images/ylw_slt.png","../images/blu_wht.png","../images/pnk_blu.png","../images/cyn_red.png","../images/org_blu.png","../images/gry_blk.png"],"mutagen_generator_assignment":[0,1],"goal":1,"start":2,"action_noise":0.15,"location_history":"[2,3,2,3,4,5,4,3,2,1]","action_history":"[0,1,1,0,1,1,0,0,0]","mutagen_history":"[0,1,1,0,1,1,0,0,0]","location_rts":"[443,772,595,665,498,908,473,1124,613]","trial_type":"fractal-mutation","trial_index":92,"time_elapsed":1847179,"internal_node_id":"0.0-5.0-38.0"},{"group":"hexagon_bi","fractal_assignment":["../images/ylw_slt.png","../images/blu_wht.png","../images/pnk_blu.png","../images/cyn_red.png","../images/org_blu.png","../images/gry_blk.png"],"mutagen_generator_assignment":[0,1],"goal":4,"start":1,"action_noise":0.15,"location_history":"[1,0,1,0,1,2,1,2,3,4]","action_history":"[1,1,1,1,0,0,0,1,0]","mutagen_history":"[1,1,1,1,0,0,0,1,0]","location_rts":"[946,645,1027,581,784,559,346,433,435]","trial_type":"fractal-mutation","trial_index":93,"time_elapsed":1865900,"internal_node_id":"0.0-5.0-39.0"},{"group":"hexagon_bi","fractal_assignment":["../images/ylw_slt.png","../images/blu_wht.png","../images/pnk_blu.png","../images/cyn_red.png","../images/org_blu.png","../images/gry_blk.png"],"mutagen_generator_assignment":[0,1],"goal":3,"start":4,"action_noise":0.15,"location_history":"[4,5,0,5,4,3]","action_history":"[1,0,0,0,0]","mutagen_history":"[1,0,0,0,0]","location_rts":"[1181,394,314,622,424]","trial_type":"fractal-mutation","trial_index":94,"time_elapsed":1877517,"internal_node_id":"0.0-5.0-40.0"},{"group":"hexagon_bi","fractal_assignment":["../images/ylw_slt.png","../images/blu_wht.png","../images/pnk_blu.png","../images/cyn_red.png","../images/org_blu.png","../images/gry_blk.png"],"mutagen_generator_assignment":[0,1],"goal":5,"start":3,"action_noise":0.15,"location_history":"[3,2,1,2,3,2,1,2,1,0,1,0,5]","action_history":"[1,1,1,1,1,0,0,0,1,1,1,0]","mutagen_history":"[1,1,1,1,1,0,0,0,1,1,1,0]","location_rts":"[1402,445,623,449,469,319,823,544,519,883,428,473]","trial_type":"fractal-mutation","trial_index":95,"time_elapsed":1901030,"internal_node_id":"0.0-5.0-41.0"},{"group":"hexagon_bi","fractal_assignment":["../images/ylw_slt.png","../images/blu_wht.png","../images/pnk_blu.png","../images/cyn_red.png","../images/org_blu.png","../images/gry_blk.png"],"mutagen_generator_assignment":[0,1],"goal":3,"start":5,"action_noise":0.15,"location_history":"[5,0,1,2,3]","action_history":"[1,1,0,0]","mutagen_history":"[1,1,0,0]","location_rts":"[863,1265,874,435]","trial_type":"fractal-mutation","trial_index":96,"time_elapsed":1912135,"internal_node_id":"0.0-5.0-42.0"},{"group":"hexagon_bi","fractal_assignment":["../images/ylw_slt.png","../images/blu_wht.png","../images/pnk_blu.png","../images/cyn_red.png","../images/org_blu.png","../images/gry_blk.png"],"mutagen_generator_assignment":[0,1],"goal":0,"start":3,"action_noise":0.15,"location_history":"[3,4,3,4,3,4,3,2,3,2,3,4,5,4,5,0]","action_history":"[1,0,0,0,1,1,1,1,1,1,0,0,1,1,0]","mutagen_history":"[1,0,0,0,1,1,1,1,1,1,0,0,1,1,0]","location_rts":"[656,432,965,479,1405,445,450,563,477,535,341,481,809,459,339]","trial_type":"fractal-mutation","trial_index":97,"time_elapsed":1940417,"internal_node_id":"0.0-5.0-43.0"},{"group":"hexagon_bi","fractal_assignment":["../images/ylw_slt.png","../images/blu_wht.png","../images/pnk_blu.png","../images/cyn_red.png","../images/org_blu.png","../images/gry_blk.png"],"mutagen_generator_assignment":[0,1],"goal":2,"start":0,"action_noise":0.15,"location_history":"[0,1,0,1,0,1,2]","action_history":"[1,1,1,0,1,0]","mutagen_history":"[1,1,1,0,1,0]","location_rts":"[694,460,704,351,508,402]","trial_type":"fractal-mutation","trial_index":98,"time_elapsed":1953377,"internal_node_id":"0.0-5.0-44.0"},{"group":"hexagon_bi","fractal_assignment":["../images/ylw_slt.png","../images/blu_wht.png","../images/pnk_blu.png","../images/cyn_red.png","../images/org_blu.png","../images/gry_blk.png"],"mutagen_generator_assignment":[0,1],"goal":4,"start":2,"action_noise":0.15,"location_history":"[2,3,2,3,4]","action_history":"[1,1,1,0]","mutagen_history":"[1,1,1,0]","location_rts":"[593,543,862,692]","trial_type":"fractal-mutation","trial_index":99,"time_elapsed":1963829,"internal_node_id":"0.0-5.0-45.0"},{"group":"hexagon_bi","fractal_assignment":["../images/ylw_slt.png","../images/blu_wht.png","../images/pnk_blu.png","../images/cyn_red.png","../images/org_blu.png","../images/gry_blk.png"],"mutagen_generator_assignment":[0,1],"goal":1,"start":4,"action_noise":0.15,"location_history":"[4,5,0,1]","action_history":"[1,1,1]","mutagen_history":"[1,1,1]","location_rts":"[1106,757,538]","trial_type":"fractal-mutation","trial_index":100,"time_elapsed":1972904,"internal_node_id":"0.0-5.0-46.0"},{"group":"hexagon_bi","fractal_assignment":["../images/ylw_slt.png","../images/blu_wht.png","../images/pnk_blu.png","../images/cyn_red.png","../images/org_blu.png","../images/gry_blk.png"],"mutagen_generator_assignment":[0,1],"goal":4,"start":1,"action_noise":0.15,"location_history":"[1,0,5,0,5,4]","action_history":"[1,0,0,0,1]","mutagen_history":"[1,0,0,0,1]","location_rts":"[679,146,450,401,489]","trial_type":"fractal-mutation","trial_index":101,"time_elapsed":1983846,"internal_node_id":"0.0-5.0-47.0"},{"group":"hexagon_bi","fractal_assignment":["../images/ylw_slt.png","../images/blu_wht.png","../images/pnk_blu.png","../images/cyn_red.png","../images/org_blu.png","../images/gry_blk.png"],"mutagen_generator_assignment":[0,1],"goal":3,"start":4,"action_noise":0.15,"location_history":"[4,5,4,3]","action_history":"[1,1,0]","mutagen_history":"[1,1,0]","location_rts":"[706,1248,2218]","trial_type":"fractal-mutation","trial_index":102,"time_elapsed":1994729,"internal_node_id":"0.0-5.0-48.0"},{"group":"hexagon_bi","fractal_assignment":["../images/ylw_slt.png","../images/blu_wht.png","../images/pnk_blu.png","../images/cyn_red.png","../images/org_blu.png","../images/gry_blk.png"],"mutagen_generator_assignment":[0,1],"goal":5,"start":3,"action_noise":0.15,"location_history":"[3,4,3,2,3,2,3,2,1,2,3,2,1,2,3,2,1,0,5]","action_history":"[0,1,1,1,1,1,1,0,1,1,1,0,0,0,1,0,1,0]","mutagen_history":"[0,1,1,1,1,1,1,0,1,1,1,0,0,0,1,0,1,0]","location_rts":"[507,1571,714,923,862,645,936,763,1099,440,840,541,747,432,479,536,941,421]","trial_type":"fractal-mutation","trial_index":103,"time_elapsed":2031186,"internal_node_id":"0.0-5.0-49.0"},{"view_history":"[{\"page_index\":0,\"viewing_time\":34934}]","rt":34934,"trial_type":"instructions","trial_index":104,"time_elapsed":2067119,"internal_node_id":"0.0-6.0"},{"rt":4542,"responses":"{\"Q0\":\"no\"}","trial_type":"survey-text","trial_index":105,"time_elapsed":2072673,"internal_node_id":"0.0-7.0"}]