[{"view_history":"[{\"page_index\":0,\"viewing_time\":11242},{\"page_index\":1,\"viewing_time\":8815},{\"page_index\":2,\"viewing_time\":12131},{\"page_index\":3,\"viewing_time\":5467}]","rt":37656,"trial_type":"instructions","trial_index":0,"time_elapsed":37658,"internal_node_id":"0.0-0.0"},{"view_history":"[{\"page_index\":0,\"viewing_time\":1697},{\"page_index\":1,\"viewing_time\":17828}]","rt":19525,"trial_type":"instructions","trial_index":1,"time_elapsed":58185,"internal_node_id":"0.0-1.0"},{"group":"hexagon_tri","room_assignment":["green","red","blue","yellow","purple","grey"],"door_color_assignment":["white","black"],"door_generator_assignment":[1,0],"goal":4,"start":0,"action_noise":0.15,"location_history":"[0,1,3,2,1,5,0,5,0,1,5,4]","action_history":"[0,0,0,0,1,1,1,1,1,1,0]","door_history":"[1,1,1,1,0,0,0,0,0,0,1]","location_rts":"[2356,1386,1060,775,1734,718,669,1109,599,1104,846]","trial_type":"two-door-navigation","trial_index":2,"time_elapsed":85651,"internal_node_id":"0.0-2.0-0.0"},{"group":"hexagon_tri","room_assignment":["green","red","blue","yellow","purple","grey"],"door_color_assignment":["white","black"],"door_generator_assignment":[1,0],"goal":3,"start":4,"action_noise":0.15,"location_history":"[4,2,1,5,4,0,5,0,1,3]","action_history":"[0,0,0,0,0,1,1,1,0]","door_history":"[1,1,1,1,1,0,0,0,1]","location_rts":"[2347,537,1694,506,1491,576,411,602,1619]","trial_type":"two-door-navigation","trial_index":3,"time_elapsed":108475,"internal_node_id":"0.0-2.0-1.0"},{"group":"hexagon_tri","room_assignment":["green","red","blue","yellow","purple","grey"],"door_color_assignment":["white","black"],"door_generator_assignment":[1,0],"goal":5,"start":3,"action_noise":0.15,"location_history":"[3,2,1,3,4,2,3,2,1,3,2,1,3,2,3,4,2,1,5]","action_history":"[0,1,1,1,1,1,0,0,0,0,0,0,0,1,1,1,1,1]","door_history":"[1,0,0,0,0,0,1,1,1,1,1,1,1,0,0,0,0,0]","location_rts":"[3560,760,459,497,646,568,906,653,447,407,483,1004,661,703,461,523,522,707]","trial_type":"two-door-navigation","trial_index":4,"time_elapsed":144921,"internal_node_id":"0.0-2.0-2.0"},{"group":"hexagon_tri","room_assignment":["green","red","blue","yellow","purple","grey"],"door_color_assignment":["white","black"],"door_generator_assignment":[1,0],"goal":2,"start":5,"action_noise":0.15,"location_history":"[5,0,5,0,1,5,4,2]","action_history":"[1,1,1,1,1,0,0]","door_history":"[0,0,0,0,0,1,1]","location_rts":"[2714,738,778,426,489,954,426]","trial_type":"two-door-navigation","trial_index":5,"time_elapsed":162371,"internal_node_id":"0.0-2.0-3.0"},{"group":"hexagon_tri","room_assignment":["green","red","blue","yellow","purple","grey"],"door_color_assignment":["white","black"],"door_generator_assignment":[1,0],"goal":1,"start":2,"action_noise":0.15,"location_history":"[2,1]","action_history":"[0]","door_history":"[1]","location_rts":"[2366]","trial_type":"two-door-navigation","trial_index":6,"time_elapsed":169284,"internal_node_id":"0.0-2.0-4.0"},{"group":"hexagon_tri","room_assignment":["green","red","blue","yellow","purple","grey"],"door_color_assignment":["white","black"],"door_generator_assignment":[1,0],"goal":4,"start":1,"action_noise":0.15,"location_history":"[1,3,4]","action_history":"[1,1]","door_history":"[0,0]","location_rts":"[2965,935]","trial_type":"two-door-navigation","trial_index":7,"time_elapsed":178820,"internal_node_id":"0.0-2.0-5.0"},{"group":"hexagon_tri","room_assignment":["green","red","blue","yellow","purple","grey"],"door_color_assignment":["white","black"],"door_generator_assignment":[1,0],"goal":1,"start":4,"action_noise":0.15,"location_history":"[4,2,3,2,1]","action_history":"[1,1,0,0]","door_history":"[0,0,1,1]","location_rts":"[3401,991,823,467]","trial_type":"two-door-navigation","trial_index":8,"time_elapsed":192207,"internal_node_id":"0.0-2.0-6.0"},{"group":"hexagon_tri","room_assignment":["green","red","blue","yellow","purple","grey"],"door_color_assignment":["white","black"],"door_generator_assignment":[1,0],"goal":5,"start":1,"action_noise":0.15,"location_history":"[1,5]","action_history":"[1]","door_history":"[0]","location_rts":"[3536]","trial_type":"two-door-navigation","trial_index":9,"time_elapsed":200296,"internal_node_id":"0.0-2.0-7.0"},{"group":"hexagon_tri","room_assignment":["green","red","blue","yellow","purple","grey"],"door_color_assignment":["white","black"],"door_generator_assignment":[1,0],"goal":0,"start":5,"action_noise":0.15,"location_history":"[5,4,0]","action_history":"[0,0]","door_history":"[1,1]","location_rts":"[1516,601]","trial_type":"two-door-navigation","trial_index":10,"time_elapsed":208060,"internal_node_id":"0.0-2.0-8.0"},{"group":"hexagon_tri","room_assignment":["green","red","blue","yellow","purple","grey"],"door_color_assignment":["white","black"],"door_generator_assignment":[1,0],"goal":2,"start":0,"action_noise":0.15,"location_history":"[0,1,3,2]","action_history":"[0,0,0]","door_history":"[1,1,1]","location_rts":"[2534,629,598]","trial_type":"two-door-navigation","trial_index":11,"time_elapsed":218481,"internal_node_id":"0.0-2.0-9.0"},{"group":"hexagon_tri","room_assignment":["green","red","blue","yellow","purple","grey"],"door_color_assignment":["white","black"],"door_generator_assignment":[1,0],"goal":3,"start":2,"action_noise":0.15,"location_history":"[2,3]","action_history":"[1]","door_history":"[0]","location_rts":"[2419]","trial_type":"two-door-navigation","trial_index":12,"time_elapsed":225449,"internal_node_id":"0.0-2.0-10.0"},{"group":"hexagon_tri","room_assignment":["green","red","blue","yellow","purple","grey"],"door_color_assignment":["white","black"],"door_generator_assignment":[1,0],"goal":0,"start":3,"action_noise":0.15,"location_history":"[3,4,2,3,4,0]","action_history":"[1,1,1,1,0]","door_history":"[0,0,0,0,1]","location_rts":"[4115,588,952,591,562]","trial_type":"two-door-navigation","trial_index":13,"time_elapsed":241023,"internal_node_id":"0.0-2.0-11.0"},{"group":"hexagon_tri","room_assignment":["green","red","blue","yellow","purple","grey"],"door_color_assignment":["white","black"],"door_generator_assignment":[1,0],"goal":2,"start":0,"action_noise":0.15,"location_history":"[0,1,5,0,5,4,0,1,5,0,1,5,4,0,5,0,1,5,4,0,1,5,4,0,1,3,4,2]","action_history":"[1,1,1,0,0,0,0,0,1,1,1,0,0,0,1,1,1,1,1,1,1,0,0,1,0,0,1]","door_history":"[0,0,0,1,1,1,1,1,0,0,0,1,1,1,0,0,0,0,0,0,0,1,1,0,1,1,0]","location_rts":"[2694,890,1071,578,436,437,443,504,1241,929,643,920,483,458,810,387,587,1002,725,562,608,1595,530,1646,1058,718,1851]","trial_type":"two-door-navigation","trial_index":14,"time_elapsed":296851,"internal_node_id":"0.0-2.0-12.0"},{"group":"hexagon_tri","room_assignment":["green","red","blue","yellow","purple","grey"],"door_color_assignment":["white","black"],"door_generator_assignment":[1,0],"goal":5,"start":2,"action_noise":0.15,"location_history":"[2,3,2,1,5]","action_history":"[1,1,1,1]","door_history":"[0,0,0,0]","location_rts":"[2119,1042,514,549]","trial_type":"two-door-navigation","trial_index":15,"time_elapsed":308805,"internal_node_id":"0.0-2.0-13.0"},{"group":"hexagon_tri","room_assignment":["green","red","blue","yellow","purple","grey"],"door_color_assignment":["white","black"],"door_generator_assignment":[1,0],"goal":4,"start":5,"action_noise":0.15,"location_history":"[5,0,1,5,0,5,4]","action_history":"[1,1,1,1,0,0]","door_history":"[0,0,0,0,1,1]","location_rts":"[3555,795,665,723,1032,569]","trial_type":"two-door-navigation","trial_index":16,"time_elapsed":325963,"internal_node_id":"0.0-2.0-14.0"},{"group":"hexagon_tri","room_assignment":["green","red","blue","yellow","purple","grey"],"door_color_assignment":["white","black"],"door_generator_assignment":[1,0],"goal":3,"start":4,"action_noise":0.15,"location_history":"[4,2,3]","action_history":"[1,1]","door_history":"[0,0]","location_rts":"[1886,726]","trial_type":"two-door-navigation","trial_index":17,"time_elapsed":334182,"internal_node_id":"0.0-2.0-15.0"},{"group":"hexagon_tri","room_assignment":["green","red","blue","yellow","purple","grey"],"door_color_assignment":["white","black"],"door_generator_assignment":[1,0],"goal":1,"start":3,"action_noise":0.15,"location_history":"[3,2,1]","action_history":"[0,0]","door_history":"[1,1]","location_rts":"[2146,559]","trial_type":"two-door-navigation","trial_index":18,"time_elapsed":342485,"internal_node_id":"0.0-2.0-16.0"},{"group":"hexagon_tri","room_assignment":["green","red","blue","yellow","purple","grey"],"door_color_assignment":["white","black"],"door_generator_assignment":[1,0],"goal":5,"start":1,"action_noise":0.15,"location_history":"[1,5]","action_history":"[1]","door_history":"[0]","location_rts":"[2023]","trial_type":"two-door-navigation","trial_index":19,"time_elapsed":349099,"internal_node_id":"0.0-2.0-17.0"},{"group":"hexagon_tri","room_assignment":["green","red","blue","yellow","purple","grey"],"door_color_assignment":["white","black"],"door_generator_assignment":[1,0],"goal":4,"start":5,"action_noise":0.15,"location_history":"[5,0,1,5,4]","action_history":"[1,1,1,0]","door_history":"[0,0,0,1]","location_rts":"[2569,546,434,1141]","trial_type":"two-door-navigation","trial_index":20,"time_elapsed":361480,"internal_node_id":"0.0-2.0-18.0"},{"group":"hexagon_tri","room_assignment":["green","red","blue","yellow","purple","grey"],"door_color_assignment":["white","black"],"door_generator_assignment":[1,0],"goal":0,"start":4,"action_noise":0.15,"location_history":"[4,0]","action_history":"[0]","door_history":"[1]","location_rts":"[2176]","trial_type":"two-door-navigation","trial_index":21,"time_elapsed":368217,"internal_node_id":"0.0-2.0-19.0"},{"group":"hexagon_tri","room_assignment":["green","red","blue","yellow","purple","grey"],"door_color_assignment":["white","black"],"door_generator_assignment":[1,0],"goal":1,"start":0,"action_noise":0.15,"location_history":"[0,1]","action_history":"[1]","door_history":"[0]","location_rts":"[2183]","trial_type":"two-door-navigation","trial_index":22,"time_elapsed":374987,"internal_node_id":"0.0-2.0-20.0"},{"group":"hexagon_tri","room_assignment":["green","red","blue","yellow","purple","grey"],"door_color_assignment":["white","black"],"door_generator_assignment":[1,0],"goal":3,"start":1,"action_noise":0.15,"location_history":"[1,3]","action_history":"[1]","door_history":"[0]","location_rts":"[1926]","trial_type":"two-door-navigation","trial_index":23,"time_elapsed":381510,"internal_node_id":"0.0-2.0-21.0"},{"group":"hexagon_tri","room_assignment":["green","red","blue","yellow","purple","grey"],"door_color_assignment":["white","black"],"door_generator_assignment":[1,0],"goal":2,"start":3,"action_noise":0.15,"location_history":"[3,2]","action_history":"[0]","door_history":"[1]","location_rts":"[1943]","trial_type":"two-door-navigation","trial_index":24,"time_elapsed":388039,"internal_node_id":"0.0-2.0-22.0"},{"group":"hexagon_tri","room_assignment":["green","red","blue","yellow","purple","grey"],"door_color_assignment":["white","black"],"door_generator_assignment":[1,0],"goal":0,"start":2,"action_noise":0.15,"location_history":"[2,1,5,0]","action_history":"[1,1,1]","door_history":"[0,0,0]","location_rts":"[1909,1277,427]","trial_type":"two-door-navigation","trial_index":25,"time_elapsed":398321,"internal_node_id":"0.0-2.0-23.0"},{"group":"hexagon_tri","room_assignment":["green","red","blue","yellow","purple","grey"],"door_color_assignment":["white","black"],"door_generator_assignment":[1,0],"goal":3,"start":0,"action_noise":0.15,"location_history":"[0,5,4,2,1,5,0,1,5,0,5,4,0,5,0,5,4,0,5,4,0,5,0,1,5,0,5,0,5,0,5,4,0,5,4,2,3]","action_history":"[0,0,0,0,1,1,1,1,1,1,0,0,0,1,1,0,0,0,0,0,0,1,1,1,1,1,1,0,1,0,0,0,0,0,1,1]","door_history":"[1,1,1,1,0,0,0,0,0,0,1,1,1,0,0,1,1,1,1,1,1,0,0,0,0,0,0,1,0,1,1,1,1,1,0,0]","location_rts":"[2937,537,425,362,845,634,744,538,465,519,451,358,542,840,533,327,1104,613,832,683,528,1354,875,1007,1272,668,654,675,1820,1005,679,575,584,613,371,1372]","trial_type":"two-door-navigation","trial_index":26,"time_elapsed":468191,"internal_node_id":"0.0-2.0-24.0"},{"group":"hexagon_tri","room_assignment":["green","red","blue","yellow","purple","grey"],"door_color_assignment":["white","black"],"door_generator_assignment":[1,0],"goal":1,"start":3,"action_noise":0.15,"location_history":"[3,2,1]","action_history":"[1,0]","door_history":"[0,1]","location_rts":"[2112,1204]","trial_type":"two-door-navigation","trial_index":27,"time_elapsed":477124,"internal_node_id":"0.0-2.0-25.0"},{"group":"hexagon_tri","room_assignment":["green","red","blue","yellow","purple","grey"],"door_color_assignment":["white","black"],"door_generator_assignment":[1,0],"goal":2,"start":1,"action_noise":0.15,"location_history":"[1,5,4,0,5,0,1,5,4,2]","action_history":"[1,0,0,0,1,1,1,0,1]","door_history":"[0,1,1,1,0,0,0,1,0]","location_rts":"[2094,1366,471,717,851,464,746,491,862]","trial_type":"two-door-navigation","trial_index":28,"time_elapsed":498291,"internal_node_id":"0.0-2.0-26.0"},{"group":"hexagon_tri","room_assignment":["green","red","blue","yellow","purple","grey"],"door_color_assignment":["white","black"],"door_generator_assignment":[1,0],"goal":5,"start":2,"action_noise":0.15,"location_history":"[2,3,2,1,5]","action_history":"[1,0,0,1]","door_history":"[0,1,1,0]","location_rts":"[2014,1070,462,1310]","trial_type":"two-door-navigation","trial_index":29,"time_elapsed":510911,"internal_node_id":"0.0-2.0-27.0"},{"group":"hexagon_tri","room_assignment":["green","red","blue","yellow","purple","grey"],"door_color_assignment":["white","black"],"door_generator_assignment":[1,0],"goal":4,"start":5,"action_noise":0.15,"location_history":"[5,0,1,5,4]","action_history":"[1,1,1,0]","door_history":"[0,0,0,1]","location_rts":"[2251,890,615,370]","trial_type":"two-door-navigation","trial_index":30,"time_elapsed":522756,"internal_node_id":"0.0-2.0-28.0"},{"group":"hexagon_tri","room_assignment":["green","red","blue","yellow","purple","grey"],"door_color_assignment":["white","black"],"door_generator_assignment":[1,0],"goal":5,"start":4,"action_noise":0.15,"location_history":"[4,2,3,4,2,1,5]","action_history":"[1,1,1,0,0,1]","door_history":"[0,0,0,1,1,0]","location_rts":"[3089,687,1208,1574,733,370]","trial_type":"two-door-navigation","trial_index":31,"time_elapsed":540241,"internal_node_id":"0.0-2.0-29.0"},{"group":"hexagon_tri","room_assignment":["green","red","blue","yellow","purple","grey"],"door_color_assignment":["white","black"],"door_generator_assignment":[1,0],"goal":3,"start":5,"action_noise":0.15,"location_history":"[5,4,0,5,0,1,5,0,1,3]","action_history":"[0,0,0,1,1,1,1,1,0]","door_history":"[1,1,1,0,0,0,0,0,1]","location_rts":"[822,488,568,711,510,666,692,609,250]","trial_type":"two-door-navigation","trial_index":32,"time_elapsed":558582,"internal_node_id":"0.0-2.0-30.0"},{"group":"hexagon_tri","room_assignment":["green","red","blue","yellow","purple","grey"],"door_color_assignment":["white","black"],"door_generator_assignment":[1,0],"goal":0,"start":3,"action_noise":0.15,"location_history":"[3,4,0]","action_history":"[1,0]","door_history":"[0,1]","location_rts":"[2172,567]","trial_type":"two-door-navigation","trial_index":33,"time_elapsed":566926,"internal_node_id":"0.0-2.0-31.0"},{"group":"hexagon_tri","room_assignment":["green","red","blue","yellow","purple","grey"],"door_color_assignment":["white","black"],"door_generator_assignment":[1,0],"goal":4,"start":0,"action_noise":0.15,"location_history":"[0,1,3,4]","action_history":"[1,0,0]","door_history":"[0,1,1]","location_rts":"[1285,710,419]","trial_type":"two-door-navigation","trial_index":34,"time_elapsed":575984,"internal_node_id":"0.0-2.0-32.0"},{"group":"hexagon_tri","room_assignment":["green","red","blue","yellow","purple","grey"],"door_color_assignment":["white","black"],"door_generator_assignment":[1,0],"goal":1,"start":4,"action_noise":0.15,"location_history":"[4,2,3,2,1]","action_history":"[1,1,0,0]","door_history":"[0,0,1,1]","location_rts":"[1459,715,762,392]","trial_type":"two-door-navigation","trial_index":35,"time_elapsed":587070,"internal_node_id":"0.0-2.0-33.0"},{"group":"hexagon_tri","room_assignment":["green","red","blue","yellow","purple","grey"],"door_color_assignment":["white","black"],"door_generator_assignment":[1,0],"goal":2,"start":1,"action_noise":0.15,"location_history":"[1,3,2]","action_history":"[0,0]","door_history":"[1,1]","location_rts":"[1010,514]","trial_type":"two-door-navigation","trial_index":36,"time_elapsed":594202,"internal_node_id":"0.0-2.0-34.0"},{"group":"hexagon_tri","room_assignment":["green","red","blue","yellow","purple","grey"],"door_color_assignment":["white","black"],"door_generator_assignment":[1,0],"goal":0,"start":2,"action_noise":0.15,"location_history":"[2,1,5,4,2,1,3,2,3,4,2,3,2,1,5,0]","action_history":"[1,1,0,0,1,0,1,1,1,1,1,0,0,0,1]","door_history":"[0,0,1,1,0,1,0,0,0,0,0,1,1,1,0]","location_rts":"[2297,705,443,1128,532,431,459,443,333,478,581,666,1097,610,1121]","trial_type":"two-door-navigation","trial_index":37,"time_elapsed":624915,"internal_node_id":"0.0-2.0-35.0"},{"group":"hexagon_tri","room_assignment":["green","red","blue","yellow","purple","grey"],"door_color_assignment":["white","black"],"door_generator_assignment":[1,0],"goal":5,"start":0,"action_noise":0.15,"location_history":"[0,1,5]","action_history":"[1,0]","door_history":"[0,1]","location_rts":"[1626,934]","trial_type":"two-door-navigation","trial_index":38,"time_elapsed":633112,"internal_node_id":"0.0-2.0-36.0"},{"group":"hexagon_tri","room_assignment":["green","red","blue","yellow","purple","grey"],"door_color_assignment":["white","black"],"door_generator_assignment":[1,0],"goal":2,"start":5,"action_noise":0.15,"location_history":"[5,4,0,1,5,0,1,3,4,0,1,3,2]","action_history":"[0,0,0,1,1,1,1,1,1,0,0,0]","door_history":"[1,1,1,0,0,0,0,0,0,1,1,1]","location_rts":"[1130,611,498,837,716,445,420,641,753,1569,457,481]","trial_type":"two-door-navigation","trial_index":39,"time_elapsed":657831,"internal_node_id":"0.0-2.0-37.0"},{"group":"hexagon_tri","room_assignment":["green","red","blue","yellow","purple","grey"],"door_color_assignment":["white","black"],"door_generator_assignment":[1,0],"goal":1,"start":2,"action_noise":0.15,"location_history":"[2,1]","action_history":"[0]","door_history":"[1]","location_rts":"[3260]","trial_type":"two-door-navigation","trial_index":40,"time_elapsed":665644,"internal_node_id":"0.0-2.0-38.0"},{"group":"hexagon_tri","room_assignment":["green","red","blue","yellow","purple","grey"],"door_color_assignment":["white","black"],"door_generator_assignment":[1,0],"goal":4,"start":1,"action_noise":0.15,"location_history":"[1,5,0,5,4]","action_history":"[0,0,0,0]","door_history":"[1,1,1,1]","location_rts":"[782,422,452,501]","trial_type":"two-door-navigation","trial_index":41,"time_elapsed":675527,"internal_node_id":"0.0-2.0-39.0"},{"group":"hexagon_tri","room_assignment":["green","red","blue","yellow","purple","grey"],"door_color_assignment":["white","black"],"door_generator_assignment":[1,0],"goal":3,"start":4,"action_noise":0.15,"location_history":"[4,2,3]","action_history":"[1,1]","door_history":"[0,0]","location_rts":"[1037,527]","trial_type":"two-door-navigation","trial_index":42,"time_elapsed":682701,"internal_node_id":"0.0-2.0-40.0"},{"group":"hexagon_tri","room_assignment":["green","red","blue","yellow","purple","grey"],"door_color_assignment":["white","black"],"door_generator_assignment":[1,0],"goal":5,"start":3,"action_noise":0.15,"location_history":"[3,2,3,4,0,1,3,2,1,3,2,3,4,2,1,5]","action_history":"[1,1,1,0,1,0,0,0,0,0,1,1,1,0,0]","door_history":"[0,0,0,1,0,1,1,1,1,1,0,0,0,1,1]","location_rts":"[760,683,315,413,999,759,350,380,480,646,1304,1387,714,530,2082]","trial_type":"two-door-navigation","trial_index":43,"time_elapsed":713901,"internal_node_id":"0.0-2.0-41.0"},{"group":"hexagon_tri","room_assignment":["green","red","blue","yellow","purple","grey"],"door_color_assignment":["white","black"],"door_generator_assignment":[1,0],"goal":3,"start":5,"action_noise":0.15,"location_history":"[5,0,5,0,1,3]","action_history":"[1,1,1,0,0]","door_history":"[0,0,0,1,1]","location_rts":"[3308,635,883,897,435]","trial_type":"two-door-navigation","trial_index":44,"time_elapsed":728964,"internal_node_id":"0.0-2.0-42.0"},{"group":"hexagon_tri","room_assignment":["green","red","blue","yellow","purple","grey"],"door_color_assignment":["white","black"],"door_generator_assignment":[1,0],"goal":0,"start":3,"action_noise":0.15,"location_history":"[3,2,1,5,0]","action_history":"[0,0,1,1]","door_history":"[1,1,0,0]","location_rts":"[858,679,831,1482]","trial_type":"two-door-navigation","trial_index":45,"time_elapsed":740539,"internal_node_id":"0.0-2.0-43.0"},{"group":"hexagon_tri","room_assignment":["green","red","blue","yellow","purple","grey"],"door_color_assignment":["white","black"],"door_generator_assignment":[1,0],"goal":2,"start":0,"action_noise":0.15,"location_history":"[0,1,3,4,2]","action_history":"[0,0,1,1]","door_history":"[1,1,0,0]","location_rts":"[1505,794,2106,695]","trial_type":"two-door-navigation","trial_index":46,"time_elapsed":753340,"internal_node_id":"0.0-2.0-44.0"},{"group":"hexagon_tri","room_assignment":["green","red","blue","yellow","purple","grey"],"door_color_assignment":["white","black"],"door_generator_assignment":[1,0],"goal":4,"start":2,"action_noise":0.15,"location_history":"[2,1,5,4]","action_history":"[1,1,1]","door_history":"[0,0,0]","location_rts":"[408,420,790]","trial_type":"two-door-navigation","trial_index":47,"time_elapsed":761651,"internal_node_id":"0.0-2.0-45.0"},{"group":"hexagon_tri","room_assignment":["green","red","blue","yellow","purple","grey"],"door_color_assignment":["white","black"],"door_generator_assignment":[1,0],"goal":1,"start":4,"action_noise":0.15,"location_history":"[4,0,5,4,0,5,4,0,1]","action_history":"[0,0,0,0,0,1,1,1]","door_history":"[1,1,1,1,1,0,0,0]","location_rts":"[2438,619,519,485,412,346,453,656]","trial_type":"two-door-navigation","trial_index":48,"time_elapsed":779535,"internal_node_id":"0.0-2.0-46.0"},{"group":"hexagon_tri","room_assignment":["green","red","blue","yellow","purple","grey"],"door_color_assignment":["white","black"],"door_generator_assignment":[1,0],"goal":4,"start":1,"action_noise":0.15,"location_history":"[1,3,2,1,5,0,1,5,4]","action_history":"[0,0,0,1,1,1,0,0]","door_history":"[1,1,1,0,0,0,1,1]","location_rts":"[1710,673,496,875,638,531,1384,680]","trial_type":"two-door-navigation","trial_index":49,"time_elapsed":798469,"internal_node_id":"0.0-2.0-47.0"},{"group":"hexagon_tri","room_assignment":["green","red","blue","yellow","purple","grey"],"door_color_assignment":["white","black"],"door_generator_assignment":[1,0],"goal":3,"start":4,"action_noise":0.15,"location_history":"[4,2,3]","action_history":"[1,1]","door_history":"[0,0]","location_rts":"[4625,966]","trial_type":"two-door-navigation","trial_index":50,"time_elapsed":809720,"internal_node_id":"0.0-2.0-48.0"},{"group":"hexagon_tri","room_assignment":["green","red","blue","yellow","purple","grey"],"door_color_assignment":["white","black"],"door_generator_assignment":[1,0],"goal":5,"start":3,"action_noise":0.15,"location_history":"[3,4,2,3,4,2,1,5]","action_history":"[1,1,1,1,1,0,0]","door_history":"[0,0,0,0,0,1,1]","location_rts":"[11067,4334,1066,680,1719,3761,1226]","trial_type":"two-door-navigation","trial_index":51,"time_elapsed":844501,"internal_node_id":"0.0-2.0-49.0"},{"view_history":"[{\"page_index\":0,\"viewing_time\":12007}]","rt":12009,"trial_type":"instructions","trial_index":52,"time_elapsed":857513,"internal_node_id":"0.0-3.0"},{"view_history":"[{\"page_index\":0,\"viewing_time\":3852},{\"page_index\":1,\"viewing_time\":24929}]","rt":28781,"trial_type":"instructions","trial_index":53,"time_elapsed":887297,"internal_node_id":"0.0-4.0"},{"group":"hexagon_tri","fractal_assignment":["../images/ylw_slt.png","../images/blu_wht.png","../images/gry_blk.png","../images/pnk_blu.png","../images/cyn_red.png","../images/org_blu.png"],"mutagen_generator_assignment":[0,1],"goal":4,"start":0,"action_noise":0.15,"location_history":"[0,5,0,5,0,5,0,1,3,2,1,5,4]","action_history":"[0,1,0,0,0,1,1,0,0,0,0,0]","mutagen_history":"[0,1,0,0,0,1,1,0,0,0,0,0]","location_rts":"[8196,1237,7748,1196,1215,682,546,6060,958,552,1896,740]","trial_type":"fractal-mutation","trial_index":54,"time_elapsed":934735,"internal_node_id":"0.0-5.0-0.0"},{"group":"hexagon_tri","fractal_assignment":["../images/ylw_slt.png","../images/blu_wht.png","../images/gry_blk.png","../images/pnk_blu.png","../images/cyn_red.png","../images/org_blu.png"],"mutagen_generator_assignment":[0,1],"goal":3,"start":4,"action_noise":0.15,"location_history":"[4,2,1,5,0,5,4,2,3]","action_history":"[1,1,1,1,0,0,1,1]","mutagen_history":"[1,1,1,1,0,0,1,1]","location_rts":"[3119,501,629,545,308,716,1834,609]","trial_type":"fractal-mutation","trial_index":55,"time_elapsed":955158,"internal_node_id":"0.0-5.0-1.0"},{"group":"hexagon_tri","fractal_assignment":["../images/ylw_slt.png","../images/blu_wht.png","../images/gry_blk.png","../images/pnk_blu.png","../images/cyn_red.png","../images/org_blu.png"],"mutagen_generator_assignment":[0,1],"goal":5,"start":3,"action_noise":0.15,"location_history":"[3,4,0,5]","action_history":"[0,0,0]","mutagen_history":"[0,0,0]","location_rts":"[2142,733,562]","trial_type":"fractal-mutation","trial_index":56,"time_elapsed":965311,"internal_node_id":"0.0-5.0-2.0"},{"group":"hexagon_tri","fractal_assignment":["../images/ylw_slt.png","../images/blu_wht.png","../images/gry_blk.png","../images/pnk_blu.png","../images/cyn_red.png","../images/org_blu.png"],"mutagen_generator_assignment":[0,1],"goal":2,"start":5,"action_noise":0.15,"location_history":"[5,4,0,1,3,2]","action_history":"[0,0,0,0,0]","mutagen_history":"[0,0,0,0,0]","location_rts":"[1747,400,533,727,759]","trial_type":"fractal-mutation","trial_index":57,"time_elapsed":978374,"internal_node_id":"0.0-5.0-3.0"},{"group":"hexagon_tri","fractal_assignment":["../images/ylw_slt.png","../images/blu_wht.png","../images/gry_blk.png","../images/pnk_blu.png","../images/cyn_red.png","../images/org_blu.png"],"mutagen_generator_assignment":[0,1],"goal":1,"start":2,"action_noise":0.15,"location_history":"[2,3,4,2,3,2,1]","action_history":"[1,1,1,1,0,0]","mutagen_history":"[1,1,1,1,0,0]","location_rts":"[1593,621,818,646,604,511]","trial_type":"fractal-mutation","trial_index":58,"time_elapsed":993185,"internal_node_id":"0.0-5.0-4.0"},{"group":"hexagon_tri","fractal_assignment":["../images/ylw_slt.png","../images/blu_wht.png","../images/gry_blk.png","../images/pnk_blu.png","../images/cyn_red.png","../images/org_blu.png"],"mutagen_generator_assignment":[0,1],"goal":4,"start":1,"action_noise":0.15,"location_history":"[1,3,2,1,3,2,3,2,1,5,4]","action_history":"[0,0,0,0,0,1,0,1,1,0]","mutagen_history":"[0,0,0,0,0,1,0,1,1,0]","location_rts":"[1594,721,476,616,945,668,1028,772,843,691]","trial_type":"fractal-mutation","trial_index":59,"time_elapsed":1015814,"internal_node_id":"0.0-5.0-5.0"},{"group":"hexagon_tri","fractal_assignment":["../images/ylw_slt.png","../images/blu_wht.png","../images/gry_blk.png","../images/pnk_blu.png","../images/cyn_red.png","../images/org_blu.png"],"mutagen_generator_assignment":[0,1],"goal":1,"start":4,"action_noise":0.15,"location_history":"[4,0,5,4,0,1]","action_history":"[0,0,0,1,1]","mutagen_history":"[0,0,0,1,1]","location_rts":"[1883,619,3094,642,723]","trial_type":"fractal-mutation","trial_index":60,"time_elapsed":1031671,"internal_node_id":"0.0-5.0-6.0"},{"group":"hexagon_tri","fractal_assignment":["../images/ylw_slt.png","../images/blu_wht.png","../images/gry_blk.png","../images/pnk_blu.png","../images/cyn_red.png","../images/org_blu.png"],"mutagen_generator_assignment":[0,1],"goal":5,"start":1,"action_noise":0.15,"location_history":"[1,3,2,1,3,2,1,5]","action_history":"[0,0,0,0,0,1,1]","mutagen_history":"[0,0,0,0,0,1,1]","location_rts":"[663,520,477,884,602,547,557]","trial_type":"fractal-mutation","trial_index":61,"time_elapsed":1046965,"internal_node_id":"0.0-5.0-7.0"},{"group":"hexagon_tri","fractal_assignment":["../images/ylw_slt.png","../images/blu_wht.png","../images/gry_blk.png","../images/pnk_blu.png","../images/cyn_red.png","../images/org_blu.png"],"mutagen_generator_assignment":[0,1],"goal":0,"start":5,"action_noise":0.15,"location_history":"[5,0]","action_history":"[1]","mutagen_history":"[1]","location_rts":"[2219]","trial_type":"fractal-mutation","trial_index":62,"time_elapsed":1053760,"internal_node_id":"0.0-5.0-8.0"},{"group":"hexagon_tri","fractal_assignment":["../images/ylw_slt.png","../images/blu_wht.png","../images/gry_blk.png","../images/pnk_blu.png","../images/cyn_red.png","../images/org_blu.png"],"mutagen_generator_assignment":[0,1],"goal":2,"start":0,"action_noise":0.15,"location_history":"[0,5,4,0,5,4,0,5,0,5,4,2]","action_history":"[0,0,0,0,0,1,1,1,1,0,1]","mutagen_history":"[0,0,0,0,0,1,1,1,1,0,1]","location_rts":"[1231,603,761,975,1118,393,433,591,570,541,299]","trial_type":"fractal-mutation","trial_index":63,"time_elapsed":1076611,"internal_node_id":"0.0-5.0-9.0"},{"group":"hexagon_tri","fractal_assignment":["../images/ylw_slt.png","../images/blu_wht.png","../images/gry_blk.png","../images/pnk_blu.png","../images/cyn_red.png","../images/org_blu.png"],"mutagen_generator_assignment":[0,1],"goal":3,"start":2,"action_noise":0.15,"location_history":"[2,1,3]","action_history":"[0,0]","mutagen_history":"[0,0]","location_rts":"[1174,614]","trial_type":"fractal-mutation","trial_index":64,"time_elapsed":1084040,"internal_node_id":"0.0-5.0-10.0"},{"group":"hexagon_tri","fractal_assignment":["../images/ylw_slt.png","../images/blu_wht.png","../images/gry_blk.png","../images/pnk_blu.png","../images/cyn_red.png","../images/org_blu.png"],"mutagen_generator_assignment":[0,1],"goal":0,"start":3,"action_noise":0.15,"location_history":"[3,2,3,2,3,4,2,3,4,2,3,4,0]","action_history":"[0,0,1,1,1,1,1,1,1,1,1,0]","mutagen_history":"[0,0,1,1,1,1,1,1,1,1,1,0]","location_rts":"[866,1177,1095,2764,500,706,518,578,1126,530,866,742]","trial_type":"fractal-mutation","trial_index":65,"time_elapsed":1111945,"internal_node_id":"0.0-5.0-11.0"},{"group":"hexagon_tri","fractal_assignment":["../images/ylw_slt.png","../images/blu_wht.png","../images/gry_blk.png","../images/pnk_blu.png","../images/cyn_red.png","../images/org_blu.png"],"mutagen_generator_assignment":[0,1],"goal":2,"start":0,"action_noise":0.15,"location_history":"[0,1,5,4,2]","action_history":"[1,1,1,1]","mutagen_history":"[1,1,1,1]","location_rts":"[2357,693,521,611]","trial_type":"fractal-mutation","trial_index":66,"time_elapsed":1123976,"internal_node_id":"0.0-5.0-12.0"},{"group":"hexagon_tri","fractal_assignment":["../images/ylw_slt.png","../images/blu_wht.png","../images/gry_blk.png","../images/pnk_blu.png","../images/cyn_red.png","../images/org_blu.png"],"mutagen_generator_assignment":[0,1],"goal":5,"start":2,"action_noise":0.15,"location_history":"[2,3,4,0,1,5]","action_history":"[0,0,0,0,0]","mutagen_history":"[0,0,0,0,0]","location_rts":"[590,347,368,378,332]","trial_type":"fractal-mutation","trial_index":67,"time_elapsed":1134882,"internal_node_id":"0.0-5.0-13.0"},{"group":"hexagon_tri","fractal_assignment":["../images/ylw_slt.png","../images/blu_wht.png","../images/gry_blk.png","../images/pnk_blu.png","../images/cyn_red.png","../images/org_blu.png"],"mutagen_generator_assignment":[0,1],"goal":4,"start":5,"action_noise":0.15,"location_history":"[5,0,5,0,1,3,2,1,3,2,1,3,2,3,2,1,3,4]","action_history":"[1,1,1,1,0,0,0,0,0,0,0,0,0,0,0,0,1]","mutagen_history":"[1,1,1,1,0,0,0,0,0,0,0,0,0,0,0,0,1]","location_rts":"[416,938,929,534,1441,799,1569,423,369,389,362,364,420,471,443,461,372]","trial_type":"fractal-mutation","trial_index":68,"time_elapsed":1167293,"internal_node_id":"0.0-5.0-14.0"},{"group":"hexagon_tri","fractal_assignment":["../images/ylw_slt.png","../images/blu_wht.png","../images/gry_blk.png","../images/pnk_blu.png","../images/cyn_red.png","../images/org_blu.png"],"mutagen_generator_assignment":[0,1],"goal":3,"start":4,"action_noise":0.15,"location_history":"[4,2,3]","action_history":"[1,0]","mutagen_history":"[1,0]","location_rts":"[801,1006]","trial_type":"fractal-mutation","trial_index":69,"time_elapsed":1174754,"internal_node_id":"0.0-5.0-15.0"},{"group":"hexagon_tri","fractal_assignment":["../images/ylw_slt.png","../images/blu_wht.png","../images/gry_blk.png","../images/pnk_blu.png","../images/cyn_red.png","../images/org_blu.png"],"mutagen_generator_assignment":[0,1],"goal":1,"start":3,"action_noise":0.15,"location_history":"[3,2,3,2,3,2,3,4,2,3,4,0,1]","action_history":"[0,1,1,1,0,1,1,1,1,1,1,1]","mutagen_history":"[0,1,1,1,0,1,1,1,1,1,1,1]","location_rts":"[1531,385,397,377,1127,293,362,421,357,377,702,1109]","trial_type":"fractal-mutation","trial_index":70,"time_elapsed":1198615,"internal_node_id":"0.0-5.0-16.0"},{"group":"hexagon_tri","fractal_assignment":["../images/ylw_slt.png","../images/blu_wht.png","../images/gry_blk.png","../images/pnk_blu.png","../images/cyn_red.png","../images/org_blu.png"],"mutagen_generator_assignment":[0,1],"goal":5,"start":1,"action_noise":0.15,"location_history":"[1,5]","action_history":"[1]","mutagen_history":"[1]","location_rts":"[590]","trial_type":"fractal-mutation","trial_index":71,"time_elapsed":1203785,"internal_node_id":"0.0-5.0-17.0"},{"group":"hexagon_tri","fractal_assignment":["../images/ylw_slt.png","../images/blu_wht.png","../images/gry_blk.png","../images/pnk_blu.png","../images/cyn_red.png","../images/org_blu.png"],"mutagen_generator_assignment":[0,1],"goal":4,"start":5,"action_noise":0.15,"location_history":"[5,0,5,4]","action_history":"[1,0,0]","mutagen_history":"[1,0,0]","location_rts":"[367,634,403]","trial_type":"fractal-mutation","trial_index":72,"time_elapsed":1211923,"internal_node_id":"0.0-5.0-18.0"},{"group":"hexagon_tri","fractal_assignment":["../images/ylw_slt.png","../images/blu_wht.png","../images/gry_blk.png","../images/pnk_blu.png","../images/cyn_red.png","../images/org_blu.png"],"mutagen_generator_assignment":[0,1],"goal":0,"start":4,"action_noise":0.15,"location_history":"[4,2,1,3,2,1,5,0]","action_history":"[0,0,0,0,0,1,1]","mutagen_history":"[0,0,0,0,0,1,1]","location_rts":"[905,641,613,614,431,452,438]","trial_type":"fractal-mutation","trial_index":73,"time_elapsed":1227050,"internal_node_id":"0.0-5.0-19.0"},{"group":"hexagon_tri","fractal_assignment":["../images/ylw_slt.png","../images/blu_wht.png","../images/gry_blk.png","../images/pnk_blu.png","../images/cyn_red.png","../images/org_blu.png"],"mutagen_generator_assignment":[0,1],"goal":1,"start":0,"action_noise":0.15,"location_history":"[0,5,0,5,4,0,1]","action_history":"[0,1,1,0,0,0]","mutagen_history":"[0,1,1,0,0,0]","location_rts":"[561,447,449,437,371,415]","trial_type":"fractal-mutation","trial_index":74,"time_elapsed":1239696,"internal_node_id":"0.0-5.0-20.0"},{"group":"hexagon_tri","fractal_assignment":["../images/ylw_slt.png","../images/blu_wht.png","../images/gry_blk.png","../images/pnk_blu.png","../images/cyn_red.png","../images/org_blu.png"],"mutagen_generator_assignment":[0,1],"goal":3,"start":1,"action_noise":0.15,"location_history":"[1,5,4,0,1,5,4,2,1,3]","action_history":"[1,0,1,1,1,1,1,0,0]","mutagen_history":"[1,0,1,1,1,1,1,0,0]","location_rts":"[522,357,486,446,410,485,639,523,431]","trial_type":"fractal-mutation","trial_index":75,"time_elapsed":1257115,"internal_node_id":"0.0-5.0-21.0"},{"group":"hexagon_tri","fractal_assignment":["../images/ylw_slt.png","../images/blu_wht.png","../images/gry_blk.png","../images/pnk_blu.png","../images/cyn_red.png","../images/org_blu.png"],"mutagen_generator_assignment":[0,1],"goal":2,"start":3,"action_noise":0.15,"location_history":"[3,4,2]","action_history":"[1,1]","mutagen_history":"[1,1]","location_rts":"[407,454]","trial_type":"fractal-mutation","trial_index":76,"time_elapsed":1263650,"internal_node_id":"0.0-5.0-22.0"},{"group":"hexagon_tri","fractal_assignment":["../images/ylw_slt.png","../images/blu_wht.png","../images/gry_blk.png","../images/pnk_blu.png","../images/cyn_red.png","../images/org_blu.png"],"mutagen_generator_assignment":[0,1],"goal":0,"start":2,"action_noise":0.15,"location_history":"[2,3,4,0]","action_history":"[1,1,1]","mutagen_history":"[1,1,1]","location_rts":"[427,365,445]","trial_type":"fractal-mutation","trial_index":77,"time_elapsed":1271627,"internal_node_id":"0.0-5.0-23.0"},{"group":"hexagon_tri","fractal_assignment":["../images/ylw_slt.png","../images/blu_wht.png","../images/gry_blk.png","../images/pnk_blu.png","../images/cyn_red.png","../images/org_blu.png"],"mutagen_generator_assignment":[0,1],"goal":3,"start":0,"action_noise":0.15,"location_history":"[0,1,5,0,1,5,0,1,5,4,0,5,4,0,5,4,2,3]","action_history":"[1,1,1,1,1,1,1,1,0,0,0,0,0,0,0,1,1]","mutagen_history":"[1,1,1,1,1,1,1,1,0,0,0,0,0,0,0,1,1]","location_rts":"[1231,393,352,345,467,377,497,566,402,489,447,492,640,654,541,487,696]","trial_type":"fractal-mutation","trial_index":78,"time_elapsed":1302551,"internal_node_id":"0.0-5.0-24.0"},{"group":"hexagon_tri","fractal_assignment":["../images/ylw_slt.png","../images/blu_wht.png","../images/gry_blk.png","../images/pnk_blu.png","../images/cyn_red.png","../images/org_blu.png"],"mutagen_generator_assignment":[0,1],"goal":1,"start":3,"action_noise":0.15,"location_history":"[3,2,3,2,3,4,2,3,4,0,5,4,0,5,0,1]","action_history":"[0,1,0,1,1,1,1,1,0,0,0,0,0,1,1]","mutagen_history":"[0,1,0,1,1,1,1,1,0,0,0,0,0,1,1]","location_rts":"[1051,542,477,430,1410,410,340,154,410,334,406,517,434,547,428]","trial_type":"fractal-mutation","trial_index":79,"time_elapsed":1330128,"internal_node_id":"0.0-5.0-25.0"},{"group":"hexagon_tri","fractal_assignment":["../images/ylw_slt.png","../images/blu_wht.png","../images/gry_blk.png","../images/pnk_blu.png","../images/cyn_red.png","../images/org_blu.png"],"mutagen_generator_assignment":[0,1],"goal":2,"start":1,"action_noise":0.15,"location_history":"[1,3,2]","action_history":"[0,0]","mutagen_history":"[0,0]","location_rts":"[602,304]","trial_type":"fractal-mutation","trial_index":80,"time_elapsed":1336670,"internal_node_id":"0.0-5.0-26.0"},{"group":"hexagon_tri","fractal_assignment":["../images/ylw_slt.png","../images/blu_wht.png","../images/gry_blk.png","../images/pnk_blu.png","../images/cyn_red.png","../images/org_blu.png"],"mutagen_generator_assignment":[0,1],"goal":5,"start":2,"action_noise":0.15,"location_history":"[2,1,3,2,3,4,2,3,4,0,5]","action_history":"[0,0,0,0,1,1,1,1,0,0]","mutagen_history":"[0,0,0,0,1,1,1,1,0,0]","location_rts":"[607,670,266,344,99,335,471,444,476,397]","trial_type":"fractal-mutation","trial_index":81,"time_elapsed":1355065,"internal_node_id":"0.0-5.0-27.0"},{"group":"hexagon_tri","fractal_assignment":["../images/ylw_slt.png","../images/blu_wht.png","../images/gry_blk.png","../images/pnk_blu.png","../images/cyn_red.png","../images/org_blu.png"],"mutagen_generator_assignment":[0,1],"goal":4,"start":5,"action_noise":0.15,"location_history":"[5,0,1,3,2,3,2,1,3,2,1,5,0,1,5,4]","action_history":"[1,1,1,1,1,0,0,0,0,0,1,1,1,1,0]","mutagen_history":"[1,1,1,1,1,0,0,0,0,0,1,1,1,1,0]","location_rts":"[586,394,411,512,369,357,327,334,362,49,351,555,388,401,687]","trial_type":"fractal-mutation","trial_index":82,"time_elapsed":1380806,"internal_node_id":"0.0-5.0-28.0"},{"group":"hexagon_tri","fractal_assignment":["../images/ylw_slt.png","../images/blu_wht.png","../images/gry_blk.png","../images/pnk_blu.png","../images/cyn_red.png","../images/org_blu.png"],"mutagen_generator_assignment":[0,1],"goal":5,"start":4,"action_noise":0.15,"location_history":"[4,2,1,5]","action_history":"[1,1,1]","mutagen_history":"[1,1,1]","location_rts":"[565,332,205]","trial_type":"fractal-mutation","trial_index":83,"time_elapsed":1388659,"internal_node_id":"0.0-5.0-29.0"},{"group":"hexagon_tri","fractal_assignment":["../images/ylw_slt.png","../images/blu_wht.png","../images/gry_blk.png","../images/pnk_blu.png","../images/cyn_red.png","../images/org_blu.png"],"mutagen_generator_assignment":[0,1],"goal":3,"start":5,"action_noise":0.15,"location_history":"[5,0,1,3]","action_history":"[1,0,0]","mutagen_history":"[1,0,0]","location_rts":"[390,617,250]","trial_type":"fractal-mutation","trial_index":84,"time_elapsed":1396644,"internal_node_id":"0.0-5.0-30.0"},{"group":"hexagon_tri","fractal_assignment":["../images/ylw_slt.png","../images/blu_wht.png","../images/gry_blk.png","../images/pnk_blu.png","../images/cyn_red.png","../images/org_blu.png"],"mutagen_generator_assignment":[0,1],"goal":0,"start":3,"action_noise":0.15,"location_history":"[3,2,1,3,2,3,4,2,3,4,0]","action_history":"[0,0,0,0,0,1,1,1,1,0]","mutagen_history":"[0,0,0,0,0,1,1,1,1,0]","location_rts":"[968,357,437,393,442,323,340,377,442,583]","trial_type":"fractal-mutation","trial_index":85,"time_elapsed":1415583,"internal_node_id":"0.0-5.0-31.0"},{"group":"hexagon_tri","fractal_assignment":["../images/ylw_slt.png","../images/blu_wht.png","../images/gry_blk.png","../images/pnk_blu.png","../images/cyn_red.png","../images/org_blu.png"],"mutagen_generator_assignment":[0,1],"goal":4,"start":0,"action_noise":0.15,"location_history":"[0,5,0,5,4]","action_history":"[1,1,0,0]","mutagen_history":"[1,1,0,0]","location_rts":"[902,402,387,534]","trial_type":"fractal-mutation","trial_index":86,"time_elapsed":1425588,"internal_node_id":"0.0-5.0-32.0"},{"group":"hexagon_tri","fractal_assignment":["../images/ylw_slt.png","../images/blu_wht.png","../images/gry_blk.png","../images/pnk_blu.png","../images/cyn_red.png","../images/org_blu.png"],"mutagen_generator_assignment":[0,1],"goal":1,"start":4,"action_noise":0.15,"location_history":"[4,2,1]","action_history":"[1,1]","mutagen_history":"[1,1]","location_rts":"[996,576]","trial_type":"fractal-mutation","trial_index":87,"time_elapsed":1432815,"internal_node_id":"0.0-5.0-33.0"},{"group":"hexagon_tri","fractal_assignment":["../images/ylw_slt.png","../images/blu_wht.png","../images/gry_blk.png","../images/pnk_blu.png","../images/cyn_red.png","../images/org_blu.png"],"mutagen_generator_assignment":[0,1],"goal":2,"start":1,"action_noise":0.15,"location_history":"[1,5,4,0,5,4,2]","action_history":"[1,0,0,0,0,0]","mutagen_history":"[1,0,0,0,0,0]","location_rts":"[481,234,224,327,390,441]","trial_type":"fractal-mutation","trial_index":88,"time_elapsed":1444903,"internal_node_id":"0.0-5.0-34.0"},{"group":"hexagon_tri","fractal_assignment":["../images/ylw_slt.png","../images/blu_wht.png","../images/gry_blk.png","../images/pnk_blu.png","../images/cyn_red.png","../images/org_blu.png"],"mutagen_generator_assignment":[0,1],"goal":0,"start":2,"action_noise":0.15,"location_history":"[2,1,5,0]","action_history":"[1,1,1]","mutagen_history":"[1,1,1]","location_rts":"[508,876,56]","trial_type":"fractal-mutation","trial_index":89,"time_elapsed":1453087,"internal_node_id":"0.0-5.0-35.0"},{"group":"hexagon_tri","fractal_assignment":["../images/ylw_slt.png","../images/blu_wht.png","../images/gry_blk.png","../images/pnk_blu.png","../images/cyn_red.png","../images/org_blu.png"],"mutagen_generator_assignment":[0,1],"goal":5,"start":0,"action_noise":0.15,"location_history":"[0,1,3,2,1,3,2,3,4,0,1,3,2,1,5]","action_history":"[1,0,0,0,0,0,1,1,0,0,0,0,0,0]","mutagen_history":"[1,0,0,0,0,0,1,1,0,0,0,0,0,0]","location_rts":"[675,1094,313,489,570,475,254,301,1045,427,349,365,395,361]","trial_type":"fractal-mutation","trial_index":90,"time_elapsed":1478885,"internal_node_id":"0.0-5.0-36.0"},{"group":"hexagon_tri","fractal_assignment":["../images/ylw_slt.png","../images/blu_wht.png","../images/gry_blk.png","../images/pnk_blu.png","../images/cyn_red.png","../images/org_blu.png"],"mutagen_generator_assignment":[0,1],"goal":2,"start":5,"action_noise":0.15,"location_history":"[5,4,0,5,4,0,5,4,0,1,3,2]","action_history":"[0,0,0,0,0,0,0,0,1,0,1]","mutagen_history":"[0,0,0,0,0,0,0,0,1,0,1]","location_rts":"[573,446,185,368,318,481,497,346,740,326,847]","trial_type":"fractal-mutation","trial_index":91,"time_elapsed":1499281,"internal_node_id":"0.0-5.0-37.0"},{"group":"hexagon_tri","fractal_assignment":["../images/ylw_slt.png","../images/blu_wht.png","../images/gry_blk.png","../images/pnk_blu.png","../images/cyn_red.png","../images/org_blu.png"],"mutagen_generator_assignment":[0,1],"goal":1,"start":2,"action_noise":0.15,"location_history":"[2,3,4,2,3,4,2,1]","action_history":"[1,1,1,1,1,1,0]","mutagen_history":"[1,1,1,1,1,1,0]","location_rts":"[445,708,326,391,364,386,938]","trial_type":"fractal-mutation","trial_index":92,"time_elapsed":1513918,"internal_node_id":"0.0-5.0-38.0"},{"group":"hexagon_tri","fractal_assignment":["../images/ylw_slt.png","../images/blu_wht.png","../images/gry_blk.png","../images/pnk_blu.png","../images/cyn_red.png","../images/org_blu.png"],"mutagen_generator_assignment":[0,1],"goal":4,"start":1,"action_noise":0.15,"location_history":"[1,5,0,5,4]","action_history":"[0,1,0,1]","mutagen_history":"[0,1,0,1]","location_rts":"[588,912,382,361]","trial_type":"fractal-mutation","trial_index":93,"time_elapsed":1524006,"internal_node_id":"0.0-5.0-39.0"},{"group":"hexagon_tri","fractal_assignment":["../images/ylw_slt.png","../images/blu_wht.png","../images/gry_blk.png","../images/pnk_blu.png","../images/cyn_red.png","../images/org_blu.png"],"mutagen_generator_assignment":[0,1],"goal":3,"start":4,"action_noise":0.15,"location_history":"[4,2,1,5,4,2,1,5,4,0,1,3]","action_history":"[1,0,1,0,1,0,1,1,1,1,0]","mutagen_history":"[1,0,1,0,1,0,1,1,1,1,0]","location_rts":"[477,285,319,368,303,304,168,87,368,85,286]","trial_type":"fractal-mutation","trial_index":94,"time_elapsed":1542421,"internal_node_id":"0.0-5.0-40.0"},{"group":"hexagon_tri","fractal_assignment":["../images/ylw_slt.png","../images/blu_wht.png","../images/gry_blk.png","../images/pnk_blu.png","../images/cyn_red.png","../images/org_blu.png"],"mutagen_generator_assignment":[0,1],"goal":5,"start":3,"action_noise":0.15,"location_history":"[3,2,1,5]","action_history":"[0,0,1]","mutagen_history":"[0,0,1]","location_rts":"[4812,1873,1650]","trial_type":"fractal-mutation","trial_index":95,"time_elapsed":1557482,"internal_node_id":"0.0-5.0-41.0"},{"group":"hexagon_tri","fractal_assignment":["../images/ylw_slt.png","../images/blu_wht.png","../images/gry_blk.png","../images/pnk_blu.png","../images/cyn_red.png","../images/org_blu.png"],"mutagen_generator_assignment":[0,1],"goal":3,"start":5,"action_noise":0.15,"location_history":"[5,0,1,3]","action_history":"[1,1,0]","mutagen_history":"[1,1,0]","location_rts":"[651,413,368]","trial_type":"fractal-mutation","trial_index":96,"time_elapsed":1565667,"internal_node_id":"0.0-5.0-42.0"},{"group":"hexagon_tri","fractal_assignment":["../images/ylw_slt.png","../images/blu_wht.png","../images/gry_blk.png","../images/pnk_blu.png","../images/cyn_red.png","../images/org_blu.png"],"mutagen_generator_assignment":[0,1],"goal":0,"start":3,"action_noise":0.15,"location_history":"[3,4,0]","action_history":"[1,1]","mutagen_history":"[1,1]","location_rts":"[437,518]","trial_type":"fractal-mutation","trial_index":97,"time_elapsed":1572289,"internal_node_id":"0.0-5.0-43.0"},{"group":"hexagon_tri","fractal_assignment":["../images/ylw_slt.png","../images/blu_wht.png","../images/gry_blk.png","../images/pnk_blu.png","../images/cyn_red.png","../images/org_blu.png"],"mutagen_generator_assignment":[0,1],"goal":2,"start":0,"action_noise":0.15,"location_history":"[0,1,5,0,1,5,0,1,5,4,2]","action_history":"[1,1,1,1,1,1,1,1,0,0]","mutagen_history":"[1,1,1,1,1,1,1,1,0,0]","location_rts":"[626,325,326,665,357,444,426,437,439,556]","trial_type":"fractal-mutation","trial_index":98,"time_elapsed":1591211,"internal_node_id":"0.0-5.0-44.0"},{"group":"hexagon_tri","fractal_assignment":["../images/ylw_slt.png","../images/blu_wht.png","../images/gry_blk.png","../images/pnk_blu.png","../images/cyn_red.png","../images/org_blu.png"],"mutagen_generator_assignment":[0,1],"goal":4,"start":2,"action_noise":0.15,"location_history":"[2,1,3,2,1,3,2,1,5,4]","action_history":"[0,0,0,0,0,0,0,1,0]","mutagen_history":"[0,0,0,0,0,0,0,1,0]","location_rts":"[864,323,577,395,415,570,719,552,601]","trial_type":"fractal-mutation","trial_index":99,"time_elapsed":1609476,"internal_node_id":"0.0-5.0-45.0"},{"group":"hexagon_tri","fractal_assignment":["../images/ylw_slt.png","../images/blu_wht.png","../images/gry_blk.png","../images/pnk_blu.png","../images/cyn_red.png","../images/org_blu.png"],"mutagen_generator_assignment":[0,1],"goal":1,"start":4,"action_noise":0.15,"location_history":"[4,0,1]","action_history":"[0,1]","mutagen_history":"[0,1]","location_rts":"[715,300]","trial_type":"fractal-mutation","trial_index":100,"time_elapsed":1616155,"internal_node_id":"0.0-5.0-46.0"},{"group":"hexagon_tri","fractal_assignment":["../images/ylw_slt.png","../images/blu_wht.png","../images/gry_blk.png","../images/pnk_blu.png","../images/cyn_red.png","../images/org_blu.png"],"mutagen_generator_assignment":[0,1],"goal":4,"start":1,"action_noise":0.15,"location_history":"[1,5,0,5,4]","action_history":"[1,0,0,0]","mutagen_history":"[1,0,0,0]","location_rts":"[494,658,633,642]","trial_type":"fractal-mutation","trial_index":101,"time_elapsed":1626410,"internal_node_id":"0.0-5.0-47.0"},{"group":"hexagon_tri","fractal_assignment":["../images/ylw_slt.png","../images/blu_wht.png","../images/gry_blk.png","../images/pnk_blu.png","../images/cyn_red.png","../images/org_blu.png"],"mutagen_generator_assignment":[0,1],"goal":3,"start":4,"action_noise":0.15,"location_history":"[4,0,5,0,1,5,4,2,1,3]","action_history":"[1,0,1,1,1,0,0,0,0]","mutagen_history":"[1,0,1,1,1,0,0,0,0]","location_rts":"[863,397,445,348,346,139,125,390,259]","trial_type":"fractal-mutation","trial_index":102,"time_elapsed":1642889,"internal_node_id":"0.0-5.0-48.0"},{"group":"hexagon_tri","fractal_assignment":["../images/ylw_slt.png","../images/blu_wht.png","../images/gry_blk.png","../images/pnk_blu.png","../images/cyn_red.png","../images/org_blu.png"],"mutagen_generator_assignment":[0,1],"goal":5,"start":3,"action_noise":0.15,"location_history":"[3,4,2,1,3,2,3,2,1,5]","action_history":"[0,0,0,0,1,1,0,0,0]","mutagen_history":"[0,0,0,0,1,1,0,0,0]","location_rts":"[615,1233,481,462,341,694,637,528,439]","trial_type":"fractal-mutation","trial_index":103,"time_elapsed":1661520,"internal_node_id":"0.0-5.0-49.0"},{"view_history":"[{\"page_index\":0,\"viewing_time\":8427}]","rt":8427,"trial_type":"instructions","trial_index":104,"time_elapsed":1670948,"internal_node_id":"0.0-6.0"},{"rt":4132,"responses":"{\"Q0\":\"fun!\"}","trial_type":"survey-text","trial_index":105,"time_elapsed":1676089,"internal_node_id":"0.0-7.0"}]