[{"view_history":"[{\"page_index\":0,\"viewing_time\":6210},{\"page_index\":1,\"viewing_time\":17735},{\"page_index\":2,\"viewing_time\":24656},{\"page_index\":3,\"viewing_time\":7914}]","rt":56515,"trial_type":"instructions","trial_index":0,"time_elapsed":56517,"internal_node_id":"0.0-0.0"},{"view_history":"[{\"page_index\":0,\"viewing_time\":1867},{\"page_index\":1,\"viewing_time\":32507}]","rt":34375,"trial_type":"instructions","trial_index":1,"time_elapsed":91894,"internal_node_id":"0.0-1.0"},{"group":"hexagon_bi","room_assignment":["blue","purple","green","grey","red","yellow"],"door_color_assignment":["white","black"],"door_generator_assignment":[0,1],"goal":4,"start":0,"action_noise":0.15,"location_history":"[0,5,0,1,0,1,0,5,0,1,2,1,2,1,2,1,0,5,0,5,4]","action_history":"[0,0,1,1,1,1,0,0,1,0,1,0,0,0,0,1,1,0,0,1]","door_history":"[0,0,1,1,1,1,0,0,1,0,1,0,0,0,0,1,1,0,0,1]","location_rts":"[4506,2247,928,1373,1105,915,852,525,1116,863,1255,809,865,688,532,400,5465,972,1522,293]","trial_type":"two-door-navigation","trial_index":2,"time_elapsed":143138,"internal_node_id":"0.0-2.0-0.0"},{"group":"hexagon_bi","room_assignment":["blue","purple","green","grey","red","yellow"],"door_color_assignment":["white","black"],"door_generator_assignment":[0,1],"goal":3,"start":4,"action_noise":0.15,"location_history":"[4,3]","action_history":"[0]","door_history":"[0]","location_rts":"[2178]","trial_type":"two-door-navigation","trial_index":3,"time_elapsed":149846,"internal_node_id":"0.0-2.0-1.0"},{"group":"hexagon_bi","room_assignment":["blue","purple","green","grey","red","yellow"],"door_color_assignment":["white","black"],"door_generator_assignment":[0,1],"goal":5,"start":3,"action_noise":0.15,"location_history":"[3,4,5]","action_history":"[0,1]","door_history":"[0,1]","location_rts":"[2467,894]","trial_type":"two-door-navigation","trial_index":4,"time_elapsed":158753,"internal_node_id":"0.0-2.0-2.0"},{"group":"hexagon_bi","room_assignment":["blue","purple","green","grey","red","yellow"],"door_color_assignment":["white","black"],"door_generator_assignment":[0,1],"goal":2,"start":5,"action_noise":0.15,"location_history":"[5,4,3,2]","action_history":"[1,0,1]","door_history":"[1,0,1]","location_rts":"[1414,1361,1328]","trial_type":"two-door-navigation","trial_index":5,"time_elapsed":169433,"internal_node_id":"0.0-2.0-3.0"},{"group":"hexagon_bi","room_assignment":["blue","purple","green","grey","red","yellow"],"door_color_assignment":["white","black"],"door_generator_assignment":[0,1],"goal":1,"start":2,"action_noise":0.15,"location_history":"[2,1]","action_history":"[0]","door_history":"[0]","location_rts":"[1616]","trial_type":"two-door-navigation","trial_index":6,"time_elapsed":175573,"internal_node_id":"0.0-2.0-4.0"},{"group":"hexagon_bi","room_assignment":["blue","purple","green","grey","red","yellow"],"door_color_assignment":["white","black"],"door_generator_assignment":[0,1],"goal":4,"start":1,"action_noise":0.15,"location_history":"[1,0,1,0,5,0,5,4]","action_history":"[1,1,1,0,0,0,1]","door_history":"[1,1,1,0,0,0,1]","location_rts":"[1166,827,543,272,881,1093,627]","trial_type":"two-door-navigation","trial_index":7,"time_elapsed":191666,"internal_node_id":"0.0-2.0-5.0"},{"group":"hexagon_bi","room_assignment":["blue","purple","green","grey","red","yellow"],"door_color_assignment":["white","black"],"door_generator_assignment":[0,1],"goal":1,"start":4,"action_noise":0.15,"location_history":"[4,5,0,5,4,3,4,5,4,3,4,3,2,1]","action_history":"[1,0,0,1,0,0,0,1,0,0,0,1,0]","door_history":"[1,0,0,1,0,0,0,1,0,0,0,1,0]","location_rts":"[2202,372,510,614,372,813,883,281,469,371,372,541,366]","trial_type":"two-door-navigation","trial_index":8,"time_elapsed":216586,"internal_node_id":"0.0-2.0-6.0"},{"group":"hexagon_bi","room_assignment":["blue","purple","green","grey","red","yellow"],"door_color_assignment":["white","black"],"door_generator_assignment":[0,1],"goal":5,"start":1,"action_noise":0.15,"location_history":"[1,2,1,0,1,2,1,0,5]","action_history":"[0,0,1,0,0,0,1,0]","door_history":"[0,0,1,0,0,0,1,0]","location_rts":"[2565,417,502,421,2498,674,346,454]","trial_type":"two-door-navigation","trial_index":9,"time_elapsed":236165,"internal_node_id":"0.0-2.0-7.0"},{"group":"hexagon_bi","room_assignment":["blue","purple","green","grey","red","yellow"],"door_color_assignment":["white","black"],"door_generator_assignment":[0,1],"goal":0,"start":5,"action_noise":0.15,"location_history":"[5,0]","action_history":"[0]","door_history":"[0]","location_rts":"[1658]","trial_type":"two-door-navigation","trial_index":10,"time_elapsed":242351,"internal_node_id":"0.0-2.0-8.0"},{"group":"hexagon_bi","room_assignment":["blue","purple","green","grey","red","yellow"],"door_color_assignment":["white","black"],"door_generator_assignment":[0,1],"goal":2,"start":0,"action_noise":0.15,"location_history":"[0,5,0,5,0,5,4,3,2]","action_history":"[0,0,0,1,0,0,0,1]","door_history":"[0,0,0,1,0,0,0,1]","location_rts":"[644,1374,1364,1055,1767,2638,406,673]","trial_type":"two-door-navigation","trial_index":11,"time_elapsed":263954,"internal_node_id":"0.0-2.0-9.0"},{"group":"hexagon_bi","room_assignment":["blue","purple","green","grey","red","yellow"],"door_color_assignment":["white","black"],"door_generator_assignment":[0,1],"goal":3,"start":2,"action_noise":0.15,"location_history":"[2,1,0,5,4,5,0,5,4,5,0,1,0,1,2,3]","action_history":"[0,1,0,0,1,0,1,1,1,0,0,1,0,0,1]","door_history":"[0,1,0,0,1,0,1,1,1,0,0,1,0,0,1]","location_rts":"[2152,483,430,711,288,411,444,336,453,284,381,353,364,324,242]","trial_type":"two-door-navigation","trial_index":12,"time_elapsed":290458,"internal_node_id":"0.0-2.0-10.0"},{"group":"hexagon_bi","room_assignment":["blue","purple","green","grey","red","yellow"],"door_color_assignment":["white","black"],"door_generator_assignment":[0,1],"goal":0,"start":3,"action_noise":0.15,"location_history":"[3,4,3,2,3,4,5,0]","action_history":"[0,0,1,1,0,0,0]","door_history":"[0,0,1,1,0,0,0]","location_rts":"[728,1286,310,741,1693,251,3457]","trial_type":"two-door-navigation","trial_index":13,"time_elapsed":309597,"internal_node_id":"0.0-2.0-11.0"},{"group":"hexagon_bi","room_assignment":["blue","purple","green","grey","red","yellow"],"door_color_assignment":["white","black"],"door_generator_assignment":[0,1],"goal":2,"start":0,"action_noise":0.15,"location_history":"[0,5,4,3,2]","action_history":"[0,1,0,1]","door_history":"[0,1,0,1]","location_rts":"[1785,658,1719,1283]","trial_type":"two-door-navigation","trial_index":14,"time_elapsed":322643,"internal_node_id":"0.0-2.0-12.0"},{"group":"hexagon_bi","room_assignment":["blue","purple","green","grey","red","yellow"],"door_color_assignment":["white","black"],"door_generator_assignment":[0,1],"goal":5,"start":2,"action_noise":0.15,"location_history":"[2,1,0,5]","action_history":"[0,1,0]","door_history":"[0,1,0]","location_rts":"[676,996,574]","trial_type":"two-door-navigation","trial_index":15,"time_elapsed":331456,"internal_node_id":"0.0-2.0-13.0"},{"group":"hexagon_bi","room_assignment":["blue","purple","green","grey","red","yellow"],"door_color_assignment":["white","black"],"door_generator_assignment":[0,1],"goal":4,"start":5,"action_noise":0.15,"location_history":"[5,0,1,0,1,0,1,2,3,4]","action_history":"[0,1,0,1,0,1,0,1,0]","door_history":"[0,1,0,1,0,1,0,1,0]","location_rts":"[981,464,466,376,428,565,415,559,368]","trial_type":"two-door-navigation","trial_index":16,"time_elapsed":348773,"internal_node_id":"0.0-2.0-14.0"},{"group":"hexagon_bi","room_assignment":["blue","purple","green","grey","red","yellow"],"door_color_assignment":["white","black"],"door_generator_assignment":[0,1],"goal":3,"start":4,"action_noise":0.15,"location_history":"[4,3]","action_history":"[0]","door_history":"[0]","location_rts":"[866]","trial_type":"two-door-navigation","trial_index":17,"time_elapsed":354163,"internal_node_id":"0.0-2.0-15.0"},{"group":"hexagon_bi","room_assignment":["blue","purple","green","grey","red","yellow"],"door_color_assignment":["white","black"],"door_generator_assignment":[0,1],"goal":1,"start":3,"action_noise":0.15,"location_history":"[3,4,5,0,1]","action_history":"[0,1,0,1]","door_history":"[0,1,0,1]","location_rts":"[885,694,417,558]","trial_type":"two-door-navigation","trial_index":18,"time_elapsed":364323,"internal_node_id":"0.0-2.0-16.0"},{"group":"hexagon_bi","room_assignment":["blue","purple","green","grey","red","yellow"],"door_color_assignment":["white","black"],"door_generator_assignment":[0,1],"goal":5,"start":1,"action_noise":0.15,"location_history":"[1,2,3,4,5]","action_history":"[0,1,0,1]","door_history":"[0,1,0,1]","location_rts":"[1094,512,461,463]","trial_type":"two-door-navigation","trial_index":19,"time_elapsed":374424,"internal_node_id":"0.0-2.0-17.0"},{"group":"hexagon_bi","room_assignment":["blue","purple","green","grey","red","yellow"],"door_color_assignment":["white","black"],"door_generator_assignment":[0,1],"goal":4,"start":5,"action_noise":0.15,"location_history":"[5,0,1,2,3,4]","action_history":"[0,1,0,1,0]","door_history":"[0,1,0,1,0]","location_rts":"[1596,355,553,392,372]","trial_type":"two-door-navigation","trial_index":20,"time_elapsed":386303,"internal_node_id":"0.0-2.0-18.0"},{"group":"hexagon_bi","room_assignment":["blue","purple","green","grey","red","yellow"],"door_color_assignment":["white","black"],"door_generator_assignment":[0,1],"goal":0,"start":4,"action_noise":0.15,"location_history":"[4,3,4,3,2,1,0]","action_history":"[0,1,0,1,0,1]","door_history":"[0,1,0,1,0,1]","location_rts":"[855,298,498,383,504,334]","trial_type":"two-door-navigation","trial_index":21,"time_elapsed":398817,"internal_node_id":"0.0-2.0-19.0"},{"group":"hexagon_bi","room_assignment":["blue","purple","green","grey","red","yellow"],"door_color_assignment":["white","black"],"door_generator_assignment":[0,1],"goal":1,"start":0,"action_noise":0.15,"location_history":"[0,5,4,3,2,3,2,1]","action_history":"[0,1,0,1,0,1,0]","door_history":"[0,1,0,1,0,1,0]","location_rts":"[539,237,250,261,286,227,371]","trial_type":"two-door-navigation","trial_index":22,"time_elapsed":411662,"internal_node_id":"0.0-2.0-20.0"},{"group":"hexagon_bi","room_assignment":["blue","purple","green","grey","red","yellow"],"door_color_assignment":["white","black"],"door_generator_assignment":[0,1],"goal":3,"start":1,"action_noise":0.15,"location_history":"[1,2,3]","action_history":"[0,1]","door_history":"[0,1]","location_rts":"[615,290]","trial_type":"two-door-navigation","trial_index":23,"time_elapsed":418122,"internal_node_id":"0.0-2.0-21.0"},{"group":"hexagon_bi","room_assignment":["blue","purple","green","grey","red","yellow"],"door_color_assignment":["white","black"],"door_generator_assignment":[0,1],"goal":2,"start":3,"action_noise":0.15,"location_history":"[3,4,5,0,1,2]","action_history":"[0,1,0,1,0]","door_history":"[0,1,0,1,0]","location_rts":"[515,470,418,474,343]","trial_type":"two-door-navigation","trial_index":24,"time_elapsed":428946,"internal_node_id":"0.0-2.0-22.0"},{"group":"hexagon_bi","room_assignment":["blue","purple","green","grey","red","yellow"],"door_color_assignment":["white","black"],"door_generator_assignment":[0,1],"goal":0,"start":2,"action_noise":0.15,"location_history":"[2,1,0]","action_history":"[0,1]","door_history":"[0,1]","location_rts":"[803,443]","trial_type":"two-door-navigation","trial_index":25,"time_elapsed":435730,"internal_node_id":"0.0-2.0-23.0"},{"group":"hexagon_bi","room_assignment":["blue","purple","green","grey","red","yellow"],"door_color_assignment":["white","black"],"door_generator_assignment":[0,1],"goal":3,"start":0,"action_noise":0.15,"location_history":"[0,1,2,1,0,1,0,5,0,5,4,5,4,5,4,5,0,1,2,3]","action_history":"[0,1,0,1,0,1,0,1,0,1,0,1,0,1,1,0,1,0,1]","door_history":"[0,1,0,1,0,1,0,1,0,1,0,1,0,1,1,0,1,0,1]","location_rts":"[518,275,386,373,2120,829,382,326,377,364,471,418,479,334,825,383,441,329,317]","trial_type":"two-door-navigation","trial_index":26,"time_elapsed":468613,"internal_node_id":"0.0-2.0-24.0"},{"group":"hexagon_bi","room_assignment":["blue","purple","green","grey","red","yellow"],"door_color_assignment":["white","black"],"door_generator_assignment":[0,1],"goal":1,"start":3,"action_noise":0.15,"location_history":"[3,4,3,2,3,4,5,0,1]","action_history":"[0,1,0,1,0,1,0,1]","door_history":"[0,1,0,1,0,1,0,1]","location_rts":"[1859,370,803,377,379,480,367,443]","trial_type":"two-door-navigation","trial_index":27,"time_elapsed":485360,"internal_node_id":"0.0-2.0-25.0"},{"group":"hexagon_bi","room_assignment":["blue","purple","green","grey","red","yellow"],"door_color_assignment":["white","black"],"door_generator_assignment":[0,1],"goal":2,"start":1,"action_noise":0.15,"location_history":"[1,2]","action_history":"[0]","door_history":"[0]","location_rts":"[427]","trial_type":"two-door-navigation","trial_index":28,"time_elapsed":490333,"internal_node_id":"0.0-2.0-26.0"},{"group":"hexagon_bi","room_assignment":["blue","purple","green","grey","red","yellow"],"door_color_assignment":["white","black"],"door_generator_assignment":[0,1],"goal":5,"start":2,"action_noise":0.15,"location_history":"[2,1,0,5]","action_history":"[0,1,0]","door_history":"[0,1,0]","location_rts":"[542,446,439]","trial_type":"two-door-navigation","trial_index":29,"time_elapsed":498392,"internal_node_id":"0.0-2.0-27.0"},{"group":"hexagon_bi","room_assignment":["blue","purple","green","grey","red","yellow"],"door_color_assignment":["white","black"],"door_generator_assignment":[0,1],"goal":4,"start":5,"action_noise":0.15,"location_history":"[5,0,1,2,3,4]","action_history":"[0,1,0,1,0]","door_history":"[0,1,0,1,0]","location_rts":"[1429,262,293,328,420]","trial_type":"two-door-navigation","trial_index":30,"time_elapsed":509742,"internal_node_id":"0.0-2.0-28.0"},{"group":"hexagon_bi","room_assignment":["blue","purple","green","grey","red","yellow"],"door_color_assignment":["white","black"],"door_generator_assignment":[0,1],"goal":5,"start":4,"action_noise":0.15,"location_history":"[4,5]","action_history":"[1]","door_history":"[1]","location_rts":"[753]","trial_type":"two-door-navigation","trial_index":31,"time_elapsed":515021,"internal_node_id":"0.0-2.0-29.0"},{"group":"hexagon_bi","room_assignment":["blue","purple","green","grey","red","yellow"],"door_color_assignment":["white","black"],"door_generator_assignment":[0,1],"goal":3,"start":5,"action_noise":0.15,"location_history":"[5,0,1,2,3]","action_history":"[0,1,0,1]","door_history":"[0,1,0,1]","location_rts":"[569,322,332,198]","trial_type":"two-door-navigation","trial_index":32,"time_elapsed":524015,"internal_node_id":"0.0-2.0-30.0"},{"group":"hexagon_bi","room_assignment":["blue","purple","green","grey","red","yellow"],"door_color_assignment":["white","black"],"door_generator_assignment":[0,1],"goal":0,"start":3,"action_noise":0.15,"location_history":"[3,4,5,0]","action_history":"[0,1,0]","door_history":"[0,1,0]","location_rts":"[650,397,612]","trial_type":"two-door-navigation","trial_index":33,"time_elapsed":532250,"internal_node_id":"0.0-2.0-31.0"},{"group":"hexagon_bi","room_assignment":["blue","purple","green","grey","red","yellow"],"door_color_assignment":["white","black"],"door_generator_assignment":[0,1],"goal":4,"start":0,"action_noise":0.15,"location_history":"[0,1,2,3,4]","action_history":"[1,0,1,0]","door_history":"[1,0,1,0]","location_rts":"[17360,500,477,928]","trial_type":"two-door-navigation","trial_index":34,"time_elapsed":559101,"internal_node_id":"0.0-2.0-32.0"},{"group":"hexagon_bi","room_assignment":["blue","purple","green","grey","red","yellow"],"door_color_assignment":["white","black"],"door_generator_assignment":[0,1],"goal":1,"start":4,"action_noise":0.15,"location_history":"[4,5,4,3,4,3,4,3,2,3,4,5,4,5,4,3,2,3,2,1]","action_history":"[0,1,0,1,0,1,0,1,1,0,1,0,1,1,0,1,0,1,0]","door_history":"[0,1,0,1,0,1,0,1,1,0,1,0,1,1,0,1,0,1,0]","location_rts":"[840,1052,325,366,366,487,455,409,1014,233,299,894,374,3528,263,282,334,336,262]","trial_type":"two-door-navigation","trial_index":35,"time_elapsed":597023,"internal_node_id":"0.0-2.0-33.0"},{"group":"hexagon_bi","room_assignment":["blue","purple","green","grey","red","yellow"],"door_color_assignment":["white","black"],"door_generator_assignment":[0,1],"goal":2,"start":1,"action_noise":0.15,"location_history":"[1,0,5,4,5,4,3,2]","action_history":"[1,0,1,0,1,0,1]","door_history":"[1,0,1,0,1,0,1]","location_rts":"[485,350,248,263,169,196,168]","trial_type":"two-door-navigation","trial_index":36,"time_elapsed":609608,"internal_node_id":"0.0-2.0-34.0"},{"group":"hexagon_bi","room_assignment":["blue","purple","green","grey","red","yellow"],"door_color_assignment":["white","black"],"door_generator_assignment":[0,1],"goal":0,"start":2,"action_noise":0.15,"location_history":"[2,3,4,5,0]","action_history":"[1,0,1,0]","door_history":"[1,0,1,0]","location_rts":"[476,136,119,100]","trial_type":"two-door-navigation","trial_index":37,"time_elapsed":618040,"internal_node_id":"0.0-2.0-35.0"},{"group":"hexagon_bi","room_assignment":["blue","purple","green","grey","red","yellow"],"door_color_assignment":["white","black"],"door_generator_assignment":[0,1],"goal":5,"start":0,"action_noise":0.15,"location_history":"[0,5]","action_history":"[0]","door_history":"[0]","location_rts":"[517]","trial_type":"two-door-navigation","trial_index":38,"time_elapsed":623087,"internal_node_id":"0.0-2.0-36.0"},{"group":"hexagon_bi","room_assignment":["blue","purple","green","grey","red","yellow"],"door_color_assignment":["white","black"],"door_generator_assignment":[0,1],"goal":2,"start":5,"action_noise":0.15,"location_history":"[5,0,5,4,3,4,5,4,3,4,5,0,1,2]","action_history":"[0,1,0,1,0,1,0,1,0,1,0,1,0]","door_history":"[0,1,0,1,0,1,0,1,0,1,0,1,0]","location_rts":"[617,267,322,23,324,343,270,282,141,390,268,436,288]","trial_type":"two-door-navigation","trial_index":39,"time_elapsed":643952,"internal_node_id":"0.0-2.0-37.0"},{"group":"hexagon_bi","room_assignment":["blue","purple","green","grey","red","yellow"],"door_color_assignment":["white","black"],"door_generator_assignment":[0,1],"goal":1,"start":2,"action_noise":0.15,"location_history":"[2,1]","action_history":"[0]","door_history":"[0]","location_rts":"[423]","trial_type":"two-door-navigation","trial_index":40,"time_elapsed":648917,"internal_node_id":"0.0-2.0-38.0"},{"group":"hexagon_bi","room_assignment":["blue","purple","green","grey","red","yellow"],"door_color_assignment":["white","black"],"door_generator_assignment":[0,1],"goal":4,"start":1,"action_noise":0.15,"location_history":"[1,2,3,2,3,4]","action_history":"[0,1,0,1,0]","door_history":"[0,1,0,1,0]","location_rts":"[402,235,103,161,191]","trial_type":"two-door-navigation","trial_index":41,"time_elapsed":658626,"internal_node_id":"0.0-2.0-39.0"},{"group":"hexagon_bi","room_assignment":["blue","purple","green","grey","red","yellow"],"door_color_assignment":["white","black"],"door_generator_assignment":[0,1],"goal":3,"start":4,"action_noise":0.15,"location_history":"[4,3]","action_history":"[0]","door_history":"[0]","location_rts":"[2341]","trial_type":"two-door-navigation","trial_index":42,"time_elapsed":665498,"internal_node_id":"0.0-2.0-40.0"},{"group":"hexagon_bi","room_assignment":["blue","purple","green","grey","red","yellow"],"door_color_assignment":["white","black"],"door_generator_assignment":[0,1],"goal":5,"start":3,"action_noise":0.15,"location_history":"[3,4,5]","action_history":"[0,1]","door_history":"[0,1]","location_rts":"[1128,240]","trial_type":"two-door-navigation","trial_index":43,"time_elapsed":672426,"internal_node_id":"0.0-2.0-41.0"},{"group":"hexagon_bi","room_assignment":["blue","purple","green","grey","red","yellow"],"door_color_assignment":["white","black"],"door_generator_assignment":[0,1],"goal":3,"start":5,"action_noise":0.15,"location_history":"[5,0,1,2,3]","action_history":"[0,1,0,1]","door_history":"[0,1,0,1]","location_rts":"[350,71,327,29]","trial_type":"two-door-navigation","trial_index":44,"time_elapsed":680791,"internal_node_id":"0.0-2.0-42.0"},{"group":"hexagon_bi","room_assignment":["blue","purple","green","grey","red","yellow"],"door_color_assignment":["white","black"],"door_generator_assignment":[0,1],"goal":0,"start":3,"action_noise":0.15,"location_history":"[3,4,5,4,5,4,3,2,1,0]","action_history":"[0,1,0,1,1,0,1,0,1]","door_history":"[0,1,0,1,1,0,1,0,1]","location_rts":"[3650,296,438,350,1263,478,531,2209,323]","trial_type":"two-door-navigation","trial_index":45,"time_elapsed":703037,"internal_node_id":"0.0-2.0-43.0"},{"group":"hexagon_bi","room_assignment":["blue","purple","green","grey","red","yellow"],"door_color_assignment":["white","black"],"door_generator_assignment":[0,1],"goal":2,"start":0,"action_noise":0.15,"location_history":"[0,1,0,5,4,3,2]","action_history":"[0,1,0,1,0,1]","door_history":"[0,1,0,1,0,1]","location_rts":"[839,648,882,619,391,435]","trial_type":"two-door-navigation","trial_index":46,"time_elapsed":716511,"internal_node_id":"0.0-2.0-44.0"},{"group":"hexagon_bi","room_assignment":["blue","purple","green","grey","red","yellow"],"door_color_assignment":["white","black"],"door_generator_assignment":[0,1],"goal":4,"start":2,"action_noise":0.15,"location_history":"[2,1,0,5,4]","action_history":"[0,1,0,1]","door_history":"[0,1,0,1]","location_rts":"[776,198,226,237]","trial_type":"two-door-navigation","trial_index":47,"time_elapsed":725540,"internal_node_id":"0.0-2.0-45.0"},{"group":"hexagon_bi","room_assignment":["blue","purple","green","grey","red","yellow"],"door_color_assignment":["white","black"],"door_generator_assignment":[0,1],"goal":1,"start":4,"action_noise":0.15,"location_history":"[4,3,2,1]","action_history":"[0,1,0]","door_history":"[0,1,0]","location_rts":"[355,299,259]","trial_type":"two-door-navigation","trial_index":48,"time_elapsed":733014,"internal_node_id":"0.0-2.0-46.0"},{"group":"hexagon_bi","room_assignment":["blue","purple","green","grey","red","yellow"],"door_color_assignment":["white","black"],"door_generator_assignment":[0,1],"goal":4,"start":1,"action_noise":0.15,"location_history":"[1,2,3,2,3,2,1,2,1,2,3,2,3,2,1,0,5,4]","action_history":"[0,1,0,1,0,1,0,1,0,1,0,1,1,0,1,0,1]","door_history":"[0,1,0,1,0,1,0,1,0,1,0,1,1,0,1,0,1]","location_rts":"[578,288,257,374,554,385,104,398,1032,406,886,608,976,867,375,774,488]","trial_type":"two-door-navigation","trial_index":49,"time_elapsed":763184,"internal_node_id":"0.0-2.0-47.0"},{"group":"hexagon_bi","room_assignment":["blue","purple","green","grey","red","yellow"],"door_color_assignment":["white","black"],"door_generator_assignment":[0,1],"goal":3,"start":4,"action_noise":0.15,"location_history":"[4,3]","action_history":"[0]","door_history":"[0]","location_rts":"[897]","trial_type":"two-door-navigation","trial_index":50,"time_elapsed":768606,"internal_node_id":"0.0-2.0-48.0"},{"group":"hexagon_bi","room_assignment":["blue","purple","green","grey","red","yellow"],"door_color_assignment":["white","black"],"door_generator_assignment":[0,1],"goal":5,"start":3,"action_noise":0.15,"location_history":"[3,4,5]","action_history":"[0,1]","door_history":"[0,1]","location_rts":"[1773,338]","trial_type":"two-door-navigation","trial_index":51,"time_elapsed":776253,"internal_node_id":"0.0-2.0-49.0"},{"view_history":"[{\"page_index\":0,\"viewing_time\":3480}]","rt":3481,"trial_type":"instructions","trial_index":52,"time_elapsed":780735,"internal_node_id":"0.0-3.0"},{"view_history":"[{\"page_index\":0,\"viewing_time\":2117},{\"page_index\":1,\"viewing_time\":35464}]","rt":37582,"trial_type":"instructions","trial_index":53,"time_elapsed":819319,"internal_node_id":"0.0-4.0"},{"group":"hexagon_bi","fractal_assignment":["../images/ylw_slt.png","../images/pnk_blu.png","../images/cyn_red.png","../images/org_blu.png","../images/blu_wht.png","../images/gry_blk.png"],"mutagen_generator_assignment":[0,1],"goal":4,"start":0,"action_noise":0.15,"location_history":"[0,1,2,3,4]","action_history":"[0,0,1,0]","mutagen_history":"[0,0,1,0]","location_rts":"[14610,4404,2723,3515]","trial_type":"fractal-mutation","trial_index":54,"time_elapsed":853374,"internal_node_id":"0.0-5.0-0.0"},{"group":"hexagon_bi","fractal_assignment":["../images/ylw_slt.png","../images/pnk_blu.png","../images/cyn_red.png","../images/org_blu.png","../images/blu_wht.png","../images/gry_blk.png"],"mutagen_generator_assignment":[0,1],"goal":3,"start":4,"action_noise":0.15,"location_history":"[4,3]","action_history":"[0]","mutagen_history":"[0]","location_rts":"[2126]","trial_type":"fractal-mutation","trial_index":55,"time_elapsed":860253,"internal_node_id":"0.0-5.0-1.0"},{"group":"hexagon_bi","fractal_assignment":["../images/ylw_slt.png","../images/pnk_blu.png","../images/cyn_red.png","../images/org_blu.png","../images/blu_wht.png","../images/gry_blk.png"],"mutagen_generator_assignment":[0,1],"goal":5,"start":3,"action_noise":0.15,"location_history":"[3,4,3,2,3,4,5]","action_history":"[0,0,1,1,0,1]","mutagen_history":"[0,0,1,1,0,1]","location_rts":"[2040,804,440,2416,203,490]","trial_type":"fractal-mutation","trial_index":56,"time_elapsed":878475,"internal_node_id":"0.0-5.0-2.0"},{"group":"hexagon_bi","fractal_assignment":["../images/ylw_slt.png","../images/pnk_blu.png","../images/cyn_red.png","../images/org_blu.png","../images/blu_wht.png","../images/gry_blk.png"],"mutagen_generator_assignment":[0,1],"goal":2,"start":5,"action_noise":0.15,"location_history":"[5,4,5,0,1,0,5,4,3,2]","action_history":"[1,1,0,0,0,0,1,0,1]","mutagen_history":"[1,1,0,0,0,0,1,0,1]","location_rts":"[1987,876,493,1130,740,649,674,593,285]","trial_type":"fractal-mutation","trial_index":57,"time_elapsed":901793,"internal_node_id":"0.0-5.0-3.0"},{"group":"hexagon_bi","fractal_assignment":["../images/ylw_slt.png","../images/pnk_blu.png","../images/cyn_red.png","../images/org_blu.png","../images/blu_wht.png","../images/gry_blk.png"],"mutagen_generator_assignment":[0,1],"goal":1,"start":2,"action_noise":0.15,"location_history":"[2,3,4,3,4,3,2,1]","action_history":"[0,0,0,0,0,1,0]","mutagen_history":"[0,0,0,0,0,1,0]","location_rts":"[6777,598,413,479,444,292,325]","trial_type":"fractal-mutation","trial_index":58,"time_elapsed":923568,"internal_node_id":"0.0-5.0-4.0"},{"group":"hexagon_bi","fractal_assignment":["../images/ylw_slt.png","../images/pnk_blu.png","../images/cyn_red.png","../images/org_blu.png","../images/blu_wht.png","../images/gry_blk.png"],"mutagen_generator_assignment":[0,1],"goal":4,"start":1,"action_noise":0.15,"location_history":"[1,2,1,2,1,0,5,0,5,4]","action_history":"[0,0,0,0,1,0,0,0,1]","mutagen_history":"[0,0,0,0,1,0,0,0,1]","location_rts":"[1594,357,458,764,294,288,433,431,257]","trial_type":"fractal-mutation","trial_index":59,"time_elapsed":943738,"internal_node_id":"0.0-5.0-5.0"},{"group":"hexagon_bi","fractal_assignment":["../images/ylw_slt.png","../images/pnk_blu.png","../images/cyn_red.png","../images/org_blu.png","../images/blu_wht.png","../images/gry_blk.png"],"mutagen_generator_assignment":[0,1],"goal":1,"start":4,"action_noise":0.15,"location_history":"[4,3,2,1]","action_history":"[0,1,0]","mutagen_history":"[0,1,0]","location_rts":"[387,125,542]","trial_type":"fractal-mutation","trial_index":60,"time_elapsed":952232,"internal_node_id":"0.0-5.0-6.0"},{"group":"hexagon_bi","fractal_assignment":["../images/ylw_slt.png","../images/pnk_blu.png","../images/cyn_red.png","../images/org_blu.png","../images/blu_wht.png","../images/gry_blk.png"],"mutagen_generator_assignment":[0,1],"goal":5,"start":1,"action_noise":0.15,"location_history":"[1,2,3,4,5]","action_history":"[0,1,0,1]","mutagen_history":"[0,1,0,1]","location_rts":"[772,428,389,444]","trial_type":"fractal-mutation","trial_index":61,"time_elapsed":963053,"internal_node_id":"0.0-5.0-7.0"},{"group":"hexagon_bi","fractal_assignment":["../images/ylw_slt.png","../images/pnk_blu.png","../images/cyn_red.png","../images/org_blu.png","../images/blu_wht.png","../images/gry_blk.png"],"mutagen_generator_assignment":[0,1],"goal":0,"start":5,"action_noise":0.15,"location_history":"[5,4,3,2,1,0]","action_history":"[0,0,1,0,1]","mutagen_history":"[0,0,1,0,1]","location_rts":"[631,499,531,454,394]","trial_type":"fractal-mutation","trial_index":62,"time_elapsed":975766,"internal_node_id":"0.0-5.0-8.0"},{"group":"hexagon_bi","fractal_assignment":["../images/ylw_slt.png","../images/pnk_blu.png","../images/cyn_red.png","../images/org_blu.png","../images/blu_wht.png","../images/gry_blk.png"],"mutagen_generator_assignment":[0,1],"goal":2,"start":0,"action_noise":0.15,"location_history":"[0,5,0,5,4,5,0,1,0,1,2]","action_history":"[0,0,0,0,1,0,1,0,1,1]","mutagen_history":"[0,0,0,0,1,0,1,0,1,1]","location_rts":"[814,465,1507,544,312,466,422,715,748,490]","trial_type":"fractal-mutation","trial_index":63,"time_elapsed":998878,"internal_node_id":"0.0-5.0-9.0"},{"group":"hexagon_bi","fractal_assignment":["../images/ylw_slt.png","../images/pnk_blu.png","../images/cyn_red.png","../images/org_blu.png","../images/blu_wht.png","../images/gry_blk.png"],"mutagen_generator_assignment":[0,1],"goal":3,"start":2,"action_noise":0.15,"location_history":"[2,3]","action_history":"[1]","mutagen_history":"[1]","location_rts":"[2753]","trial_type":"fractal-mutation","trial_index":64,"time_elapsed":1006534,"internal_node_id":"0.0-5.0-10.0"},{"group":"hexagon_bi","fractal_assignment":["../images/ylw_slt.png","../images/pnk_blu.png","../images/cyn_red.png","../images/org_blu.png","../images/blu_wht.png","../images/gry_blk.png"],"mutagen_generator_assignment":[0,1],"goal":0,"start":3,"action_noise":0.15,"location_history":"[3,4,3,2,3,4,3,4,5,0]","action_history":"[0,0,1,1,0,0,0,1,0]","mutagen_history":"[0,0,1,1,0,0,0,1,0]","location_rts":"[2611,964,642,700,472,726,394,267,1135]","trial_type":"fractal-mutation","trial_index":65,"time_elapsed":1029790,"internal_node_id":"0.0-5.0-11.0"},{"group":"hexagon_bi","fractal_assignment":["../images/ylw_slt.png","../images/pnk_blu.png","../images/cyn_red.png","../images/org_blu.png","../images/blu_wht.png","../images/gry_blk.png"],"mutagen_generator_assignment":[0,1],"goal":2,"start":0,"action_noise":0.15,"location_history":"[0,1,2]","action_history":"[1,0]","mutagen_history":"[1,0]","location_rts":"[1887,624]","trial_type":"fractal-mutation","trial_index":66,"time_elapsed":1038589,"internal_node_id":"0.0-5.0-12.0"},{"group":"hexagon_bi","fractal_assignment":["../images/ylw_slt.png","../images/pnk_blu.png","../images/cyn_red.png","../images/org_blu.png","../images/blu_wht.png","../images/gry_blk.png"],"mutagen_generator_assignment":[0,1],"goal":5,"start":2,"action_noise":0.15,"location_history":"[2,3,4,3,2,1,0,1,2,3,4,3,2,3,4,5]","action_history":"[1,0,1,1,0,1,1,0,1,1,0,1,1,0,0]","mutagen_history":"[1,0,1,1,0,1,1,0,1,1,0,1,1,0,0]","location_rts":"[2147,431,291,432,719,397,359,388,381,519,287,393,501,446,731]","trial_type":"fractal-mutation","trial_index":67,"time_elapsed":1070891,"internal_node_id":"0.0-5.0-13.0"},{"group":"hexagon_bi","fractal_assignment":["../images/ylw_slt.png","../images/pnk_blu.png","../images/cyn_red.png","../images/org_blu.png","../images/blu_wht.png","../images/gry_blk.png"],"mutagen_generator_assignment":[0,1],"goal":4,"start":5,"action_noise":0.15,"location_history":"[5,0,5,4]","action_history":"[0,1,0]","mutagen_history":"[0,1,0]","location_rts":"[1760,557,539]","trial_type":"fractal-mutation","trial_index":68,"time_elapsed":1081136,"internal_node_id":"0.0-5.0-14.0"},{"group":"hexagon_bi","fractal_assignment":["../images/ylw_slt.png","../images/pnk_blu.png","../images/cyn_red.png","../images/org_blu.png","../images/blu_wht.png","../images/gry_blk.png"],"mutagen_generator_assignment":[0,1],"goal":3,"start":4,"action_noise":0.15,"location_history":"[4,3]","action_history":"[0]","mutagen_history":"[0]","location_rts":"[13936]","trial_type":"fractal-mutation","trial_index":69,"time_elapsed":1099818,"internal_node_id":"0.0-5.0-15.0"},{"group":"hexagon_bi","fractal_assignment":["../images/ylw_slt.png","../images/pnk_blu.png","../images/cyn_red.png","../images/org_blu.png","../images/blu_wht.png","../images/gry_blk.png"],"mutagen_generator_assignment":[0,1],"goal":1,"start":3,"action_noise":0.15,"location_history":"[3,4,3,2,3,4,5,0,1]","action_history":"[0,0,1,1,0,1,0,1]","mutagen_history":"[0,0,1,1,0,1,0,1]","location_rts":"[948,690,669,566,364,569,340,690]","trial_type":"fractal-mutation","trial_index":70,"time_elapsed":1118938,"internal_node_id":"0.0-5.0-16.0"},{"group":"hexagon_bi","fractal_assignment":["../images/ylw_slt.png","../images/pnk_blu.png","../images/cyn_red.png","../images/org_blu.png","../images/blu_wht.png","../images/gry_blk.png"],"mutagen_generator_assignment":[0,1],"goal":5,"start":1,"action_noise":0.15,"location_history":"[1,2,3,4,5]","action_history":"[0,1,0,1]","mutagen_history":"[0,1,0,1]","location_rts":"[839,725,194,545]","trial_type":"fractal-mutation","trial_index":71,"time_elapsed":1130221,"internal_node_id":"0.0-5.0-17.0"},{"group":"hexagon_bi","fractal_assignment":["../images/ylw_slt.png","../images/pnk_blu.png","../images/cyn_red.png","../images/org_blu.png","../images/blu_wht.png","../images/gry_blk.png"],"mutagen_generator_assignment":[0,1],"goal":4,"start":5,"action_noise":0.15,"location_history":"[5,0,1,2,3,4]","action_history":"[0,1,0,1,0]","mutagen_history":"[0,1,0,1,0]","location_rts":"[546,883,392,437,337]","trial_type":"fractal-mutation","trial_index":72,"time_elapsed":1142928,"internal_node_id":"0.0-5.0-18.0"},{"group":"hexagon_bi","fractal_assignment":["../images/ylw_slt.png","../images/pnk_blu.png","../images/cyn_red.png","../images/org_blu.png","../images/blu_wht.png","../images/gry_blk.png"],"mutagen_generator_assignment":[0,1],"goal":0,"start":4,"action_noise":0.15,"location_history":"[4,3,2,1,0]","action_history":"[0,1,0,1]","mutagen_history":"[0,1,0,1]","location_rts":"[1609,1262,228,597]","trial_type":"fractal-mutation","trial_index":73,"time_elapsed":1155688,"internal_node_id":"0.0-5.0-19.0"},{"group":"hexagon_bi","fractal_assignment":["../images/ylw_slt.png","../images/pnk_blu.png","../images/cyn_red.png","../images/org_blu.png","../images/blu_wht.png","../images/gry_blk.png"],"mutagen_generator_assignment":[0,1],"goal":1,"start":0,"action_noise":0.15,"location_history":"[0,5,4,3,2,1]","action_history":"[0,1,0,1,0]","mutagen_history":"[0,1,0,1,0]","location_rts":"[449,432,214,845,671]","trial_type":"fractal-mutation","trial_index":74,"time_elapsed":1168408,"internal_node_id":"0.0-5.0-20.0"},{"group":"hexagon_bi","fractal_assignment":["../images/ylw_slt.png","../images/pnk_blu.png","../images/cyn_red.png","../images/org_blu.png","../images/blu_wht.png","../images/gry_blk.png"],"mutagen_generator_assignment":[0,1],"goal":3,"start":1,"action_noise":0.15,"location_history":"[1,2,3]","action_history":"[0,1]","mutagen_history":"[0,1]","location_rts":"[394,509]","trial_type":"fractal-mutation","trial_index":75,"time_elapsed":1175469,"internal_node_id":"0.0-5.0-21.0"},{"group":"hexagon_bi","fractal_assignment":["../images/ylw_slt.png","../images/pnk_blu.png","../images/cyn_red.png","../images/org_blu.png","../images/blu_wht.png","../images/gry_blk.png"],"mutagen_generator_assignment":[0,1],"goal":2,"start":3,"action_noise":0.15,"location_history":"[3,4,5,4,5,0,1,0,1,2]","action_history":"[0,1,0,1,0,1,0,1,0]","mutagen_history":"[0,1,0,1,0,1,0,1,0]","location_rts":"[696,613,193,555,350,638,368,573,621]","trial_type":"fractal-mutation","trial_index":76,"time_elapsed":1195488,"internal_node_id":"0.0-5.0-22.0"},{"group":"hexagon_bi","fractal_assignment":["../images/ylw_slt.png","../images/pnk_blu.png","../images/cyn_red.png","../images/org_blu.png","../images/blu_wht.png","../images/gry_blk.png"],"mutagen_generator_assignment":[0,1],"goal":0,"start":2,"action_noise":0.15,"location_history":"[2,1,0]","action_history":"[0,1]","mutagen_history":"[0,1]","location_rts":"[406,653]","trial_type":"fractal-mutation","trial_index":77,"time_elapsed":1202792,"internal_node_id":"0.0-5.0-23.0"},{"group":"hexagon_bi","fractal_assignment":["../images/ylw_slt.png","../images/pnk_blu.png","../images/cyn_red.png","../images/org_blu.png","../images/blu_wht.png","../images/gry_blk.png"],"mutagen_generator_assignment":[0,1],"goal":3,"start":0,"action_noise":0.15,"location_history":"[0,5,4,5,4,3]","action_history":"[0,1,0,1,0]","mutagen_history":"[0,1,0,1,0]","location_rts":"[349,542,349,262,373]","trial_type":"fractal-mutation","trial_index":78,"time_elapsed":1214738,"internal_node_id":"0.0-5.0-24.0"},{"group":"hexagon_bi","fractal_assignment":["../images/ylw_slt.png","../images/pnk_blu.png","../images/cyn_red.png","../images/org_blu.png","../images/blu_wht.png","../images/gry_blk.png"],"mutagen_generator_assignment":[0,1],"goal":1,"start":3,"action_noise":0.15,"location_history":"[3,4,5,0,1]","action_history":"[0,1,0,1]","mutagen_history":"[0,1,0,1]","location_rts":"[658,385,366,744]","trial_type":"fractal-mutation","trial_index":79,"time_elapsed":1225691,"internal_node_id":"0.0-5.0-25.0"},{"group":"hexagon_bi","fractal_assignment":["../images/ylw_slt.png","../images/pnk_blu.png","../images/cyn_red.png","../images/org_blu.png","../images/blu_wht.png","../images/gry_blk.png"],"mutagen_generator_assignment":[0,1],"goal":2,"start":1,"action_noise":0.15,"location_history":"[1,2]","action_history":"[0]","mutagen_history":"[0]","location_rts":"[886]","trial_type":"fractal-mutation","trial_index":80,"time_elapsed":1231321,"internal_node_id":"0.0-5.0-26.0"},{"group":"hexagon_bi","fractal_assignment":["../images/ylw_slt.png","../images/pnk_blu.png","../images/cyn_red.png","../images/org_blu.png","../images/blu_wht.png","../images/gry_blk.png"],"mutagen_generator_assignment":[0,1],"goal":5,"start":2,"action_noise":0.15,"location_history":"[2,3,4,5]","action_history":"[1,0,1]","mutagen_history":"[1,0,1]","location_rts":"[689,604,876]","trial_type":"fractal-mutation","trial_index":81,"time_elapsed":1241158,"internal_node_id":"0.0-5.0-27.0"},{"group":"hexagon_bi","fractal_assignment":["../images/ylw_slt.png","../images/pnk_blu.png","../images/cyn_red.png","../images/org_blu.png","../images/blu_wht.png","../images/gry_blk.png"],"mutagen_generator_assignment":[0,1],"goal":4,"start":5,"action_noise":0.15,"location_history":"[5,0,1,0,1,0,1,0,1,2,3,4]","action_history":"[0,1,0,1,0,1,0,1,0,1,0]","mutagen_history":"[0,1,0,1,0,1,0,1,0,1,0]","location_rts":"[537,499,881,674,274,2830,291,1683,892,462,343]","trial_type":"fractal-mutation","trial_index":82,"time_elapsed":1268797,"internal_node_id":"0.0-5.0-28.0"},{"group":"hexagon_bi","fractal_assignment":["../images/ylw_slt.png","../images/pnk_blu.png","../images/cyn_red.png","../images/org_blu.png","../images/blu_wht.png","../images/gry_blk.png"],"mutagen_generator_assignment":[0,1],"goal":5,"start":4,"action_noise":0.15,"location_history":"[4,3,2,1,0,5]","action_history":"[0,1,0,1,0]","mutagen_history":"[0,1,0,1,0]","location_rts":"[1605,1871,302,337,555]","trial_type":"fractal-mutation","trial_index":83,"time_elapsed":1283553,"internal_node_id":"0.0-5.0-29.0"},{"group":"hexagon_bi","fractal_assignment":["../images/ylw_slt.png","../images/pnk_blu.png","../images/cyn_red.png","../images/org_blu.png","../images/blu_wht.png","../images/gry_blk.png"],"mutagen_generator_assignment":[0,1],"goal":3,"start":5,"action_noise":0.15,"location_history":"[5,0,1,2,3]","action_history":"[0,1,0,1]","mutagen_history":"[0,1,0,1]","location_rts":"[481,718,342,494]","trial_type":"fractal-mutation","trial_index":84,"time_elapsed":1294483,"internal_node_id":"0.0-5.0-30.0"},{"group":"hexagon_bi","fractal_assignment":["../images/ylw_slt.png","../images/pnk_blu.png","../images/cyn_red.png","../images/org_blu.png","../images/blu_wht.png","../images/gry_blk.png"],"mutagen_generator_assignment":[0,1],"goal":0,"start":3,"action_noise":0.15,"location_history":"[3,4,5,4,5,0]","action_history":"[0,1,0,1,0]","mutagen_history":"[0,1,0,1,0]","location_rts":"[528,540,316,513,445]","trial_type":"fractal-mutation","trial_index":85,"time_elapsed":1306984,"internal_node_id":"0.0-5.0-31.0"},{"group":"hexagon_bi","fractal_assignment":["../images/ylw_slt.png","../images/pnk_blu.png","../images/cyn_red.png","../images/org_blu.png","../images/blu_wht.png","../images/gry_blk.png"],"mutagen_generator_assignment":[0,1],"goal":4,"start":0,"action_noise":0.15,"location_history":"[0,5,4]","action_history":"[0,1]","mutagen_history":"[0,1]","location_rts":"[484,903]","trial_type":"fractal-mutation","trial_index":86,"time_elapsed":1314643,"internal_node_id":"0.0-5.0-32.0"},{"group":"hexagon_bi","fractal_assignment":["../images/ylw_slt.png","../images/pnk_blu.png","../images/cyn_red.png","../images/org_blu.png","../images/blu_wht.png","../images/gry_blk.png"],"mutagen_generator_assignment":[0,1],"goal":1,"start":4,"action_noise":0.15,"location_history":"[4,5,4,3,2,1]","action_history":"[0,1,0,1,0]","mutagen_history":"[0,1,0,1,0]","location_rts":"[553,461,107,409,271]","trial_type":"fractal-mutation","trial_index":87,"time_elapsed":1326657,"internal_node_id":"0.0-5.0-33.0"},{"group":"hexagon_bi","fractal_assignment":["../images/ylw_slt.png","../images/pnk_blu.png","../images/cyn_red.png","../images/org_blu.png","../images/blu_wht.png","../images/gry_blk.png"],"mutagen_generator_assignment":[0,1],"goal":2,"start":1,"action_noise":0.15,"location_history":"[1,2]","action_history":"[0]","mutagen_history":"[0]","location_rts":"[307]","trial_type":"fractal-mutation","trial_index":88,"time_elapsed":1331724,"internal_node_id":"0.0-5.0-34.0"},{"group":"hexagon_bi","fractal_assignment":["../images/ylw_slt.png","../images/pnk_blu.png","../images/cyn_red.png","../images/org_blu.png","../images/blu_wht.png","../images/gry_blk.png"],"mutagen_generator_assignment":[0,1],"goal":0,"start":2,"action_noise":0.15,"location_history":"[2,1,0]","action_history":"[0,1]","mutagen_history":"[0,1]","location_rts":"[474,745]","trial_type":"fractal-mutation","trial_index":89,"time_elapsed":1339092,"internal_node_id":"0.0-5.0-35.0"},{"group":"hexagon_bi","fractal_assignment":["../images/ylw_slt.png","../images/pnk_blu.png","../images/cyn_red.png","../images/org_blu.png","../images/blu_wht.png","../images/gry_blk.png"],"mutagen_generator_assignment":[0,1],"goal":5,"start":0,"action_noise":0.15,"location_history":"[0,5]","action_history":"[0]","mutagen_history":"[0]","location_rts":"[1876]","trial_type":"fractal-mutation","trial_index":90,"time_elapsed":1345723,"internal_node_id":"0.0-5.0-36.0"},{"group":"hexagon_bi","fractal_assignment":["../images/ylw_slt.png","../images/pnk_blu.png","../images/cyn_red.png","../images/org_blu.png","../images/blu_wht.png","../images/gry_blk.png"],"mutagen_generator_assignment":[0,1],"goal":2,"start":5,"action_noise":0.15,"location_history":"[5,0,1,2]","action_history":"[0,1,0]","mutagen_history":"[0,1,0]","location_rts":"[1235,814,286]","trial_type":"fractal-mutation","trial_index":91,"time_elapsed":1355457,"internal_node_id":"0.0-5.0-37.0"},{"group":"hexagon_bi","fractal_assignment":["../images/ylw_slt.png","../images/pnk_blu.png","../images/cyn_red.png","../images/org_blu.png","../images/blu_wht.png","../images/gry_blk.png"],"mutagen_generator_assignment":[0,1],"goal":1,"start":2,"action_noise":0.15,"location_history":"[2,1]","action_history":"[0]","mutagen_history":"[0]","location_rts":"[1174]","trial_type":"fractal-mutation","trial_index":92,"time_elapsed":1361364,"internal_node_id":"0.0-5.0-38.0"},{"group":"hexagon_bi","fractal_assignment":["../images/ylw_slt.png","../images/pnk_blu.png","../images/cyn_red.png","../images/org_blu.png","../images/blu_wht.png","../images/gry_blk.png"],"mutagen_generator_assignment":[0,1],"goal":4,"start":1,"action_noise":0.15,"location_history":"[1,2,3,4]","action_history":"[0,1,0]","mutagen_history":"[0,1,0]","location_rts":"[683,562,387]","trial_type":"fractal-mutation","trial_index":93,"time_elapsed":1370461,"internal_node_id":"0.0-5.0-39.0"},{"group":"hexagon_bi","fractal_assignment":["../images/ylw_slt.png","../images/pnk_blu.png","../images/cyn_red.png","../images/org_blu.png","../images/blu_wht.png","../images/gry_blk.png"],"mutagen_generator_assignment":[0,1],"goal":3,"start":4,"action_noise":0.15,"location_history":"[4,3]","action_history":"[0]","mutagen_history":"[0]","location_rts":"[635]","trial_type":"fractal-mutation","trial_index":94,"time_elapsed":1375849,"internal_node_id":"0.0-5.0-40.0"},{"group":"hexagon_bi","fractal_assignment":["../images/ylw_slt.png","../images/pnk_blu.png","../images/cyn_red.png","../images/org_blu.png","../images/blu_wht.png","../images/gry_blk.png"],"mutagen_generator_assignment":[0,1],"goal":5,"start":3,"action_noise":0.15,"location_history":"[3,4,5]","action_history":"[0,1]","mutagen_history":"[0,1]","location_rts":"[542,769]","trial_type":"fractal-mutation","trial_index":95,"time_elapsed":1383430,"internal_node_id":"0.0-5.0-41.0"},{"group":"hexagon_bi","fractal_assignment":["../images/ylw_slt.png","../images/pnk_blu.png","../images/cyn_red.png","../images/org_blu.png","../images/blu_wht.png","../images/gry_blk.png"],"mutagen_generator_assignment":[0,1],"goal":3,"start":5,"action_noise":0.15,"location_history":"[5,0,5,4,5,0,1,0,5,4,3]","action_history":"[0,1,0,1,0,1,0,0,1,0]","mutagen_history":"[0,1,0,1,0,1,0,0,1,0]","location_rts":"[74,601,254,431,1546,461,367,617,349,544]","trial_type":"fractal-mutation","trial_index":96,"time_elapsed":1405677,"internal_node_id":"0.0-5.0-42.0"},{"group":"hexagon_bi","fractal_assignment":["../images/ylw_slt.png","../images/pnk_blu.png","../images/cyn_red.png","../images/org_blu.png","../images/blu_wht.png","../images/gry_blk.png"],"mutagen_generator_assignment":[0,1],"goal":0,"start":3,"action_noise":0.15,"location_history":"[3,4,5,0]","action_history":"[0,1,0]","mutagen_history":"[0,1,0]","location_rts":"[141,1016,583]","trial_type":"fractal-mutation","trial_index":97,"time_elapsed":1414961,"internal_node_id":"0.0-5.0-43.0"},{"group":"hexagon_bi","fractal_assignment":["../images/ylw_slt.png","../images/pnk_blu.png","../images/cyn_red.png","../images/org_blu.png","../images/blu_wht.png","../images/gry_blk.png"],"mutagen_generator_assignment":[0,1],"goal":2,"start":0,"action_noise":0.15,"location_history":"[0,5,4,3,2]","action_history":"[0,1,0,1]","mutagen_history":"[0,1,0,1]","location_rts":"[545,277,454,384]","trial_type":"fractal-mutation","trial_index":98,"time_elapsed":1425453,"internal_node_id":"0.0-5.0-44.0"},{"group":"hexagon_bi","fractal_assignment":["../images/ylw_slt.png","../images/pnk_blu.png","../images/cyn_red.png","../images/org_blu.png","../images/blu_wht.png","../images/gry_blk.png"],"mutagen_generator_assignment":[0,1],"goal":4,"start":2,"action_noise":0.15,"location_history":"[2,1,0,5,4]","action_history":"[0,1,0,1]","mutagen_history":"[0,1,0,1]","location_rts":"[367,1116,508,312]","trial_type":"fractal-mutation","trial_index":99,"time_elapsed":1436642,"internal_node_id":"0.0-5.0-45.0"},{"group":"hexagon_bi","fractal_assignment":["../images/ylw_slt.png","../images/pnk_blu.png","../images/cyn_red.png","../images/org_blu.png","../images/blu_wht.png","../images/gry_blk.png"],"mutagen_generator_assignment":[0,1],"goal":1,"start":4,"action_noise":0.15,"location_history":"[4,3,2,1]","action_history":"[0,1,0]","mutagen_history":"[0,1,0]","location_rts":"[378,346,946]","trial_type":"fractal-mutation","trial_index":100,"time_elapsed":1445712,"internal_node_id":"0.0-5.0-46.0"},{"group":"hexagon_bi","fractal_assignment":["../images/ylw_slt.png","../images/pnk_blu.png","../images/cyn_red.png","../images/org_blu.png","../images/blu_wht.png","../images/gry_blk.png"],"mutagen_generator_assignment":[0,1],"goal":4,"start":1,"action_noise":0.15,"location_history":"[1,2,3,2,1,2,3,4]","action_history":"[0,1,0,1,0,1,0]","mutagen_history":"[0,1,0,1,0,1,0]","location_rts":"[732,773,2172,441,576,816,696]","trial_type":"fractal-mutation","trial_index":101,"time_elapsed":1464797,"internal_node_id":"0.0-5.0-47.0"},{"group":"hexagon_bi","fractal_assignment":["../images/ylw_slt.png","../images/pnk_blu.png","../images/cyn_red.png","../images/org_blu.png","../images/blu_wht.png","../images/gry_blk.png"],"mutagen_generator_assignment":[0,1],"goal":3,"start":4,"action_noise":0.15,"location_history":"[4,3]","action_history":"[0]","mutagen_history":"[0]","location_rts":"[752]","trial_type":"fractal-mutation","trial_index":102,"time_elapsed":1470326,"internal_node_id":"0.0-5.0-48.0"},{"group":"hexagon_bi","fractal_assignment":["../images/ylw_slt.png","../images/pnk_blu.png","../images/cyn_red.png","../images/org_blu.png","../images/blu_wht.png","../images/gry_blk.png"],"mutagen_generator_assignment":[0,1],"goal":5,"start":3,"action_noise":0.15,"location_history":"[3,4,3,4,3,4,5]","action_history":"[0,1,0,1,0,1]","mutagen_history":"[0,1,0,1,0,1]","location_rts":"[510,508,41,453,171,365]","trial_type":"fractal-mutation","trial_index":103,"time_elapsed":1484098,"internal_node_id":"0.0-5.0-49.0"},{"view_history":"[{\"page_index\":0,\"viewing_time\":17086}]","rt":17087,"trial_type":"instructions","trial_index":104,"time_elapsed":1502186,"internal_node_id":"0.0-6.0"},{"rt":2154,"responses":"{\"Q0\":\"\"}","trial_type":"survey-text","trial_index":105,"time_elapsed":1505353,"internal_node_id":"0.0-7.0"}]