[{"view_history":"[{\"page_index\":0,\"viewing_time\":5066},{\"page_index\":1,\"viewing_time\":43518},{\"page_index\":2,\"viewing_time\":10494},{\"page_index\":3,\"viewing_time\":5305}]","rt":64384,"trial_type":"instructions","trial_index":0,"time_elapsed":64385,"internal_node_id":"0.0-0.0"},{"view_history":"[{\"page_index\":0,\"viewing_time\":1640},{\"page_index\":1,\"viewing_time\":16381}]","rt":18021,"trial_type":"instructions","trial_index":1,"time_elapsed":83407,"internal_node_id":"0.0-1.0"},{"group":"hexagon_tri","room_assignment":["purple","blue","red","yellow","grey","green"],"door_color_assignment":["black","white"],"door_generator_assignment":[1,0],"goal":4,"start":0,"action_noise":0.15,"location_history":"[0,5,4]","action_history":"[0,0]","door_history":"[1,1]","location_rts":"[2920,1743]","trial_type":"two-door-navigation","trial_index":2,"time_elapsed":93633,"internal_node_id":"0.0-2.0-0.0"},{"group":"hexagon_tri","room_assignment":["purple","blue","red","yellow","grey","green"],"door_color_assignment":["black","white"],"door_generator_assignment":[1,0],"goal":3,"start":4,"action_noise":0.15,"location_history":"[4,0,1,5,0,5,0,5,4,2,3]","action_history":"[0,1,1,1,0,1,0,0,1,1]","door_history":"[1,0,0,0,1,0,1,1,0,0]","location_rts":"[3449,2157,882,1148,1752,686,2317,905,1743,1561]","trial_type":"two-door-navigation","trial_index":3,"time_elapsed":123975,"internal_node_id":"0.0-2.0-1.0"},{"group":"hexagon_tri","room_assignment":["purple","blue","red","yellow","grey","green"],"door_color_assignment":["black","white"],"door_generator_assignment":[1,0],"goal":5,"start":3,"action_noise":0.15,"location_history":"[3,2,1,3,4,0,5]","action_history":"[0,0,0,1,0,0]","door_history":"[1,1,1,0,1,1]","location_rts":"[2893,812,1717,1658,2458,802]","trial_type":"two-door-navigation","trial_index":4,"time_elapsed":143978,"internal_node_id":"0.0-2.0-2.0"},{"group":"hexagon_tri","room_assignment":["purple","blue","red","yellow","grey","green"],"door_color_assignment":["black","white"],"door_generator_assignment":[1,0],"goal":2,"start":5,"action_noise":0.15,"location_history":"[5,0,1,5,4,0,5,4,0,1,3,4,2]","action_history":"[1,1,1,0,0,1,0,0,0,0,1,1]","door_history":"[0,0,0,1,1,0,1,1,1,1,0,0]","location_rts":"[2367,570,608,1467,906,734,989,1375,904,1576,1423,1836]","trial_type":"two-door-navigation","trial_index":5,"time_elapsed":174594,"internal_node_id":"0.0-2.0-3.0"},{"group":"hexagon_tri","room_assignment":["purple","blue","red","yellow","grey","green"],"door_color_assignment":["black","white"],"door_generator_assignment":[1,0],"goal":1,"start":2,"action_noise":0.15,"location_history":"[2,1]","action_history":"[0]","door_history":"[1]","location_rts":"[2298]","trial_type":"two-door-navigation","trial_index":6,"time_elapsed":181424,"internal_node_id":"0.0-2.0-4.0"},{"group":"hexagon_tri","room_assignment":["purple","blue","red","yellow","grey","green"],"door_color_assignment":["black","white"],"door_generator_assignment":[1,0],"goal":4,"start":1,"action_noise":0.15,"location_history":"[1,3,2,1,3,2,1,5,0,5,0,5,0,1,5,0,5,4]","action_history":"[0,0,0,0,0,0,1,0,0,1,0,1,1,1,1,0,0]","door_history":"[1,1,1,1,1,1,0,1,1,0,1,0,0,0,0,1,1]","location_rts":"[2718,412,535,469,525,812,685,2085,1498,1410,918,1100,260,1151,1429,866,1528]","trial_type":"two-door-navigation","trial_index":7,"time_elapsed":220813,"internal_node_id":"0.0-2.0-5.0"},{"group":"hexagon_tri","room_assignment":["purple","blue","red","yellow","grey","green"],"door_color_assignment":["black","white"],"door_generator_assignment":[1,0],"goal":1,"start":4,"action_noise":0.15,"location_history":"[4,2,1]","action_history":"[1,1]","door_history":"[0,0]","location_rts":"[1541,649]","trial_type":"two-door-navigation","trial_index":8,"time_elapsed":228557,"internal_node_id":"0.0-2.0-6.0"},{"group":"hexagon_tri","room_assignment":["purple","blue","red","yellow","grey","green"],"door_color_assignment":["black","white"],"door_generator_assignment":[1,0],"goal":5,"start":1,"action_noise":0.15,"location_history":"[1,5]","action_history":"[1]","door_history":"[0]","location_rts":"[2246]","trial_type":"two-door-navigation","trial_index":9,"time_elapsed":235414,"internal_node_id":"0.0-2.0-7.0"},{"group":"hexagon_tri","room_assignment":["purple","blue","red","yellow","grey","green"],"door_color_assignment":["black","white"],"door_generator_assignment":[1,0],"goal":0,"start":5,"action_noise":0.15,"location_history":"[5,4,0]","action_history":"[0,0]","door_history":"[1,1]","location_rts":"[2660,437]","trial_type":"two-door-navigation","trial_index":10,"time_elapsed":244060,"internal_node_id":"0.0-2.0-8.0"},{"group":"hexagon_tri","room_assignment":["purple","blue","red","yellow","grey","green"],"door_color_assignment":["black","white"],"door_generator_assignment":[1,0],"goal":2,"start":0,"action_noise":0.15,"location_history":"[0,1,5,0,5,0,5,4,2]","action_history":"[1,1,1,0,1,0,0,1]","door_history":"[0,0,0,1,0,1,1,0]","location_rts":"[1863,653,588,2281,453,1327,478,1395]","trial_type":"two-door-navigation","trial_index":11,"time_elapsed":264872,"internal_node_id":"0.0-2.0-9.0"},{"group":"hexagon_tri","room_assignment":["purple","blue","red","yellow","grey","green"],"door_color_assignment":["black","white"],"door_generator_assignment":[1,0],"goal":3,"start":2,"action_noise":0.15,"location_history":"[2,3]","action_history":"[1]","door_history":"[0]","location_rts":"[1481]","trial_type":"two-door-navigation","trial_index":12,"time_elapsed":270881,"internal_node_id":"0.0-2.0-10.0"},{"group":"hexagon_tri","room_assignment":["purple","blue","red","yellow","grey","green"],"door_color_assignment":["black","white"],"door_generator_assignment":[1,0],"goal":0,"start":3,"action_noise":0.15,"location_history":"[3,2,1,5,4,2,3,2,1,3,4,2,3,4,2,3,4,0]","action_history":"[0,0,1,0,0,0,0,0,0,1,1,1,1,0,0,1,0]","door_history":"[1,1,0,1,1,1,1,1,1,0,0,0,0,1,1,0,1]","location_rts":"[2237,490,1613,2252,752,570,630,517,1999,526,757,667,1279,763,1433,1384,1056]","trial_type":"two-door-navigation","trial_index":13,"time_elapsed":310703,"internal_node_id":"0.0-2.0-11.0"},{"group":"hexagon_tri","room_assignment":["purple","blue","red","yellow","grey","green"],"door_color_assignment":["black","white"],"door_generator_assignment":[1,0],"goal":2,"start":0,"action_noise":0.15,"location_history":"[0,1,5,0,5,0,5,4,2]","action_history":"[1,1,1,0,1,0,0,1]","door_history":"[0,0,0,1,0,1,1,0]","location_rts":"[1480,598,1649,675,963,904,603,1528]","trial_type":"two-door-navigation","trial_index":14,"time_elapsed":330818,"internal_node_id":"0.0-2.0-12.0"},{"group":"hexagon_tri","room_assignment":["purple","blue","red","yellow","grey","green"],"door_color_assignment":["black","white"],"door_generator_assignment":[1,0],"goal":5,"start":2,"action_noise":0.15,"location_history":"[2,3,2,1,3,2,3,4,2,1,5]","action_history":"[1,0,0,0,0,1,1,1,0,1]","door_history":"[0,1,1,1,1,0,0,0,1,0]","location_rts":"[1201,1621,730,2369,1203,3649,856,1007,857,1213]","trial_type":"two-door-navigation","trial_index":15,"time_elapsed":359359,"internal_node_id":"0.0-2.0-13.0"},{"group":"hexagon_tri","room_assignment":["purple","blue","red","yellow","grey","green"],"door_color_assignment":["black","white"],"door_generator_assignment":[1,0],"goal":4,"start":5,"action_noise":0.15,"location_history":"[5,0,5,4]","action_history":"[1,0,0]","door_history":"[0,1,1]","location_rts":"[1199,1407,1163]","trial_type":"two-door-navigation","trial_index":16,"time_elapsed":369703,"internal_node_id":"0.0-2.0-14.0"},{"group":"hexagon_tri","room_assignment":["purple","blue","red","yellow","grey","green"],"door_color_assignment":["black","white"],"door_generator_assignment":[1,0],"goal":3,"start":4,"action_noise":0.15,"location_history":"[4,2,3]","action_history":"[1,1]","door_history":"[0,0]","location_rts":"[1340,584]","trial_type":"two-door-navigation","trial_index":17,"time_elapsed":377176,"internal_node_id":"0.0-2.0-15.0"},{"group":"hexagon_tri","room_assignment":["purple","blue","red","yellow","grey","green"],"door_color_assignment":["black","white"],"door_generator_assignment":[1,0],"goal":1,"start":3,"action_noise":0.15,"location_history":"[3,2,1]","action_history":"[0,0]","door_history":"[1,1]","location_rts":"[1531,633]","trial_type":"two-door-navigation","trial_index":18,"time_elapsed":384907,"internal_node_id":"0.0-2.0-16.0"},{"group":"hexagon_tri","room_assignment":["purple","blue","red","yellow","grey","green"],"door_color_assignment":["black","white"],"door_generator_assignment":[1,0],"goal":5,"start":1,"action_noise":0.15,"location_history":"[1,5]","action_history":"[1]","door_history":"[0]","location_rts":"[1146]","trial_type":"two-door-navigation","trial_index":19,"time_elapsed":390580,"internal_node_id":"0.0-2.0-17.0"},{"group":"hexagon_tri","room_assignment":["purple","blue","red","yellow","grey","green"],"door_color_assignment":["black","white"],"door_generator_assignment":[1,0],"goal":4,"start":5,"action_noise":0.15,"location_history":"[5,4]","action_history":"[0]","door_history":"[1]","location_rts":"[1712]","trial_type":"two-door-navigation","trial_index":20,"time_elapsed":396817,"internal_node_id":"0.0-2.0-18.0"},{"group":"hexagon_tri","room_assignment":["purple","blue","red","yellow","grey","green"],"door_color_assignment":["black","white"],"door_generator_assignment":[1,0],"goal":0,"start":4,"action_noise":0.15,"location_history":"[4,2,1,5,0]","action_history":"[1,1,1,1]","door_history":"[0,0,0,0]","location_rts":"[4866,502,630,1006]","trial_type":"two-door-navigation","trial_index":21,"time_elapsed":411473,"internal_node_id":"0.0-2.0-19.0"},{"group":"hexagon_tri","room_assignment":["purple","blue","red","yellow","grey","green"],"door_color_assignment":["black","white"],"door_generator_assignment":[1,0],"goal":1,"start":0,"action_noise":0.15,"location_history":"[0,1]","action_history":"[1]","door_history":"[0]","location_rts":"[1330]","trial_type":"two-door-navigation","trial_index":22,"time_elapsed":417327,"internal_node_id":"0.0-2.0-20.0"},{"group":"hexagon_tri","room_assignment":["purple","blue","red","yellow","grey","green"],"door_color_assignment":["black","white"],"door_generator_assignment":[1,0],"goal":3,"start":1,"action_noise":0.15,"location_history":"[1,5,0,1,5,0,1,3]","action_history":"[1,0,1,1,1,0,1]","door_history":"[0,1,0,0,0,1,0]","location_rts":"[2246,869,994,792,617,1048,1280]","trial_type":"two-door-navigation","trial_index":23,"time_elapsed":435843,"internal_node_id":"0.0-2.0-21.0"},{"group":"hexagon_tri","room_assignment":["purple","blue","red","yellow","grey","green"],"door_color_assignment":["black","white"],"door_generator_assignment":[1,0],"goal":2,"start":3,"action_noise":0.15,"location_history":"[3,4,2]","action_history":"[1,1]","door_history":"[0,0]","location_rts":"[2761,563]","trial_type":"two-door-navigation","trial_index":24,"time_elapsed":444716,"internal_node_id":"0.0-2.0-22.0"},{"group":"hexagon_tri","room_assignment":["purple","blue","red","yellow","grey","green"],"door_color_assignment":["black","white"],"door_generator_assignment":[1,0],"goal":0,"start":2,"action_noise":0.15,"location_history":"[2,3,4,0]","action_history":"[1,1,1]","door_history":"[0,0,0]","location_rts":"[1748,473,595]","trial_type":"two-door-navigation","trial_index":25,"time_elapsed":454107,"internal_node_id":"0.0-2.0-23.0"},{"group":"hexagon_tri","room_assignment":["purple","blue","red","yellow","grey","green"],"door_color_assignment":["black","white"],"door_generator_assignment":[1,0],"goal":3,"start":0,"action_noise":0.15,"location_history":"[0,1,3]","action_history":"[1,0]","door_history":"[0,1]","location_rts":"[2368,813]","trial_type":"two-door-navigation","trial_index":26,"time_elapsed":462888,"internal_node_id":"0.0-2.0-24.0"},{"group":"hexagon_tri","room_assignment":["purple","blue","red","yellow","grey","green"],"door_color_assignment":["black","white"],"door_generator_assignment":[1,0],"goal":1,"start":3,"action_noise":0.15,"location_history":"[3,4,0,5,0,5,4,2,3,4,0,1]","action_history":"[1,1,1,1,0,0,1,1,1,0,0]","door_history":"[0,0,0,0,1,1,0,0,0,1,1]","location_rts":"[1552,1002,1090,1069,991,852,1213,1369,864,1223,845]","trial_type":"two-door-navigation","trial_index":27,"time_elapsed":489813,"internal_node_id":"0.0-2.0-25.0"},{"group":"hexagon_tri","room_assignment":["purple","blue","red","yellow","grey","green"],"door_color_assignment":["black","white"],"door_generator_assignment":[1,0],"goal":2,"start":1,"action_noise":0.15,"location_history":"[1,5,0,1,3,4,0,5,4,2]","action_history":"[1,1,1,1,1,0,0,0,0]","door_history":"[0,0,0,0,0,1,1,1,1]","location_rts":"[3374,578,1378,577,585,590,1038,833,830]","trial_type":"two-door-navigation","trial_index":28,"time_elapsed":512368,"internal_node_id":"0.0-2.0-26.0"},{"group":"hexagon_tri","room_assignment":["purple","blue","red","yellow","grey","green"],"door_color_assignment":["black","white"],"door_generator_assignment":[1,0],"goal":5,"start":2,"action_noise":0.15,"location_history":"[2,3,2,1,3,4,2,3,4,2,3,4,2,3,2,3,4,2,3,2,3,2,3,4,0,5]","action_history":"[0,0,0,0,1,0,1,1,1,1,1,0,0,0,1,1,1,1,0,1,0,0,1,1,0]","door_history":"[1,1,1,1,0,1,0,0,0,0,0,1,1,1,0,0,0,0,1,0,1,1,0,0,1]","location_rts":"[43543,1620,774,564,561,1170,683,655,530,511,782,1425,845,1469,865,971,1068,1897,1653,525,1099,755,1805,1246,2259]","trial_type":"two-door-navigation","trial_index":29,"time_elapsed":610797,"internal_node_id":"0.0-2.0-27.0"},{"group":"hexagon_tri","room_assignment":["purple","blue","red","yellow","grey","green"],"door_color_assignment":["black","white"],"door_generator_assignment":[1,0],"goal":4,"start":5,"action_noise":0.15,"location_history":"[5,4]","action_history":"[0]","door_history":"[1]","location_rts":"[1296]","trial_type":"two-door-navigation","trial_index":30,"time_elapsed":616619,"internal_node_id":"0.0-2.0-28.0"},{"group":"hexagon_tri","room_assignment":["purple","blue","red","yellow","grey","green"],"door_color_assignment":["black","white"],"door_generator_assignment":[1,0],"goal":5,"start":4,"action_noise":0.15,"location_history":"[4,0,1,3,4,2,1,3,4,2,3,4,0,1,5]","action_history":"[0,1,0,1,1,0,0,1,1,1,0,1,1,1]","door_history":"[1,0,1,0,0,1,1,0,0,0,1,0,0,0]","location_rts":"[3737,878,1069,1328,1284,1018,3203,940,868,1651,1158,902,2936,1487]","trial_type":"two-door-navigation","trial_index":31,"time_elapsed":656905,"internal_node_id":"0.0-2.0-29.0"},{"group":"hexagon_tri","room_assignment":["purple","blue","red","yellow","grey","green"],"door_color_assignment":["black","white"],"door_generator_assignment":[1,0],"goal":3,"start":5,"action_noise":0.15,"location_history":"[5,0,1,3]","action_history":"[1,1,0]","door_history":"[0,0,1]","location_rts":"[69424,395,1120]","trial_type":"two-door-navigation","trial_index":32,"time_elapsed":734415,"internal_node_id":"0.0-2.0-30.0"},{"group":"hexagon_tri","room_assignment":["purple","blue","red","yellow","grey","green"],"door_color_assignment":["black","white"],"door_generator_assignment":[1,0],"goal":0,"start":3,"action_noise":0.15,"location_history":"[3,4,2,1,3,2,1,3,4,0]","action_history":"[1,1,0,1,0,0,1,1,1]","door_history":"[0,0,1,0,1,1,0,0,0]","location_rts":"[1108,502,809,419,1171,465,551,1491,514]","trial_type":"two-door-navigation","trial_index":33,"time_elapsed":754322,"internal_node_id":"0.0-2.0-31.0"},{"group":"hexagon_tri","room_assignment":["purple","blue","red","yellow","grey","green"],"door_color_assignment":["black","white"],"door_generator_assignment":[1,0],"goal":4,"start":0,"action_noise":0.15,"location_history":"[0,5,4]","action_history":"[0,0]","door_history":"[1,1]","location_rts":"[3737,501]","trial_type":"two-door-navigation","trial_index":34,"time_elapsed":764108,"internal_node_id":"0.0-2.0-32.0"},{"group":"hexagon_tri","room_assignment":["purple","blue","red","yellow","grey","green"],"door_color_assignment":["black","white"],"door_generator_assignment":[1,0],"goal":1,"start":4,"action_noise":0.15,"location_history":"[4,2,3,4,0,5,0,5,0,1]","action_history":"[1,1,1,1,1,1,0,0,1]","door_history":"[0,0,0,0,0,0,1,1,0]","location_rts":"[1824,4812,540,1783,944,592,1071,1220,933]","trial_type":"two-door-navigation","trial_index":35,"time_elapsed":790537,"internal_node_id":"0.0-2.0-33.0"},{"group":"hexagon_tri","room_assignment":["purple","blue","red","yellow","grey","green"],"door_color_assignment":["black","white"],"door_generator_assignment":[1,0],"goal":2,"start":1,"action_noise":0.15,"location_history":"[1,5,4,2]","action_history":"[1,0,1]","door_history":"[0,1,0]","location_rts":"[937,1087,512]","trial_type":"two-door-navigation","trial_index":36,"time_elapsed":799655,"internal_node_id":"0.0-2.0-34.0"},{"group":"hexagon_tri","room_assignment":["purple","blue","red","yellow","grey","green"],"door_color_assignment":["black","white"],"door_generator_assignment":[1,0],"goal":0,"start":2,"action_noise":0.15,"location_history":"[2,3,4,2,3,2,1,5,0]","action_history":"[1,1,1,1,0,0,1,1]","door_history":"[0,0,0,0,1,1,0,0]","location_rts":"[1976,730,855,543,1286,1129,1113,1754]","trial_type":"two-door-navigation","trial_index":37,"time_elapsed":820725,"internal_node_id":"0.0-2.0-35.0"},{"group":"hexagon_tri","room_assignment":["purple","blue","red","yellow","grey","green"],"door_color_assignment":["black","white"],"door_generator_assignment":[1,0],"goal":5,"start":0,"action_noise":0.15,"location_history":"[0,1,3,4,0,5]","action_history":"[1,1,1,0,1]","door_history":"[0,0,0,1,0]","location_rts":"[732,613,460,1609,939]","trial_type":"two-door-navigation","trial_index":38,"time_elapsed":833698,"internal_node_id":"0.0-2.0-36.0"},{"group":"hexagon_tri","room_assignment":["purple","blue","red","yellow","grey","green"],"door_color_assignment":["black","white"],"door_generator_assignment":[1,0],"goal":2,"start":5,"action_noise":0.15,"location_history":"[5,0,1,5,0,1,3,2]","action_history":"[1,1,1,1,1,0,0]","door_history":"[0,0,0,0,0,1,1]","location_rts":"[25079,372,1437,516,540,639,515]","trial_type":"two-door-navigation","trial_index":39,"time_elapsed":873594,"internal_node_id":"0.0-2.0-37.0"},{"group":"hexagon_tri","room_assignment":["purple","blue","red","yellow","grey","green"],"door_color_assignment":["black","white"],"door_generator_assignment":[1,0],"goal":1,"start":2,"action_noise":0.15,"location_history":"[2,1]","action_history":"[1]","door_history":"[0]","location_rts":"[942]","trial_type":"two-door-navigation","trial_index":40,"time_elapsed":879062,"internal_node_id":"0.0-2.0-38.0"},{"group":"hexagon_tri","room_assignment":["purple","blue","red","yellow","grey","green"],"door_color_assignment":["black","white"],"door_generator_assignment":[1,0],"goal":4,"start":1,"action_noise":0.15,"location_history":"[1,5,4]","action_history":"[1,0]","door_history":"[0,1]","location_rts":"[1050,975]","trial_type":"two-door-navigation","trial_index":41,"time_elapsed":886644,"internal_node_id":"0.0-2.0-39.0"},{"group":"hexagon_tri","room_assignment":["purple","blue","red","yellow","grey","green"],"door_color_assignment":["black","white"],"door_generator_assignment":[1,0],"goal":3,"start":4,"action_noise":0.15,"location_history":"[4,2,3]","action_history":"[1,1]","door_history":"[0,0]","location_rts":"[2119,554]","trial_type":"two-door-navigation","trial_index":42,"time_elapsed":894867,"internal_node_id":"0.0-2.0-40.0"},{"group":"hexagon_tri","room_assignment":["purple","blue","red","yellow","grey","green"],"door_color_assignment":["black","white"],"door_generator_assignment":[1,0],"goal":5,"start":3,"action_noise":0.15,"location_history":"[3,2,3,4,2,3,4,2,1,3,4,2,1,5]","action_history":"[1,1,1,1,1,1,0,0,0,1,1,0,0]","door_history":"[0,0,0,0,0,0,1,1,1,0,0,1,1]","location_rts":"[1148,553,575,923,790,559,1254,632,691,1505,1062,868,567]","trial_type":"two-door-navigation","trial_index":43,"time_elapsed":922862,"internal_node_id":"0.0-2.0-41.0"},{"group":"hexagon_tri","room_assignment":["purple","blue","red","yellow","grey","green"],"door_color_assignment":["black","white"],"door_generator_assignment":[1,0],"goal":3,"start":5,"action_noise":0.15,"location_history":"[5,0,1,5,0,5,4,0,5,4,0,1,5,4,0,5,4,2,3]","action_history":"[1,1,1,1,0,0,0,0,1,0,1,1,0,0,0,0,1,0]","door_history":"[0,0,0,0,1,1,1,1,0,1,0,0,1,1,1,1,0,1]","location_rts":"[1374,529,793,701,972,698,1273,1532,2210,810,921,1877,1092,1002,1319,9902,989,1452]","trial_type":"two-door-navigation","trial_index":44,"time_elapsed":974291,"internal_node_id":"0.0-2.0-42.0"},{"group":"hexagon_tri","room_assignment":["purple","blue","red","yellow","grey","green"],"door_color_assignment":["black","white"],"door_generator_assignment":[1,0],"goal":0,"start":3,"action_noise":0.15,"location_history":"[3,4,0]","action_history":"[1,0]","door_history":"[0,1]","location_rts":"[1354,1181]","trial_type":"two-door-navigation","trial_index":45,"time_elapsed":982377,"internal_node_id":"0.0-2.0-43.0"},{"group":"hexagon_tri","room_assignment":["purple","blue","red","yellow","grey","green"],"door_color_assignment":["black","white"],"door_generator_assignment":[1,0],"goal":2,"start":0,"action_noise":0.15,"location_history":"[0,5,4,2]","action_history":"[0,0,1]","door_history":"[1,1,0]","location_rts":"[2479,508,1008]","trial_type":"two-door-navigation","trial_index":46,"time_elapsed":992947,"internal_node_id":"0.0-2.0-44.0"},{"group":"hexagon_tri","room_assignment":["purple","blue","red","yellow","grey","green"],"door_color_assignment":["black","white"],"door_generator_assignment":[1,0],"goal":4,"start":2,"action_noise":0.15,"location_history":"[2,1,3,4]","action_history":"[1,0,0]","door_history":"[0,1,1]","location_rts":"[452,739,551]","trial_type":"two-door-navigation","trial_index":47,"time_elapsed":1001270,"internal_node_id":"0.0-2.0-45.0"},{"group":"hexagon_tri","room_assignment":["purple","blue","red","yellow","grey","green"],"door_color_assignment":["black","white"],"door_generator_assignment":[1,0],"goal":1,"start":4,"action_noise":0.15,"location_history":"[4,2,3,4,2,1]","action_history":"[1,1,1,1,1]","door_history":"[0,0,0,0,0]","location_rts":"[484,456,736,546,1315]","trial_type":"two-door-navigation","trial_index":48,"time_elapsed":1013430,"internal_node_id":"0.0-2.0-46.0"},{"group":"hexagon_tri","room_assignment":["purple","blue","red","yellow","grey","green"],"door_color_assignment":["black","white"],"door_generator_assignment":[1,0],"goal":4,"start":1,"action_noise":0.15,"location_history":"[1,3,4]","action_history":"[1,1]","door_history":"[0,0]","location_rts":"[1201,383]","trial_type":"two-door-navigation","trial_index":49,"time_elapsed":1020565,"internal_node_id":"0.0-2.0-47.0"},{"group":"hexagon_tri","room_assignment":["purple","blue","red","yellow","grey","green"],"door_color_assignment":["black","white"],"door_generator_assignment":[1,0],"goal":3,"start":4,"action_noise":0.15,"location_history":"[4,2,1,5,0,1,5,4,0,1,5,4,2,3]","action_history":"[1,0,1,1,1,1,1,0,1,1,0,1,1]","door_history":"[0,1,0,0,0,0,0,1,0,0,1,0,0]","location_rts":"[1127,1400,1079,587,469,524,868,1623,1274,991,1775,1049,996]","trial_type":"two-door-navigation","trial_index":50,"time_elapsed":1051102,"internal_node_id":"0.0-2.0-48.0"},{"group":"hexagon_tri","room_assignment":["purple","blue","red","yellow","grey","green"],"door_color_assignment":["black","white"],"door_generator_assignment":[1,0],"goal":5,"start":3,"action_noise":0.15,"location_history":"[3,4,0,1,5]","action_history":"[1,0,1,1]","door_history":"[0,1,0,0]","location_rts":"[13505,868,1186,604]","trial_type":"two-door-navigation","trial_index":51,"time_elapsed":1074857,"internal_node_id":"0.0-2.0-49.0"},{"view_history":"[{\"page_index\":0,\"viewing_time\":1782}]","rt":1782,"trial_type":"instructions","trial_index":52,"time_elapsed":1077639,"internal_node_id":"0.0-3.0"},{"view_history":"[{\"page_index\":0,\"viewing_time\":1652},{\"page_index\":1,\"viewing_time\":60400}]","rt":62053,"trial_type":"instructions","trial_index":53,"time_elapsed":1140693,"internal_node_id":"0.0-4.0"},{"group":"hexagon_bi","fractal_assignment":["../images/org_blu.png","../images/blu_wht.png","../images/ylw_slt.png","../images/pnk_blu.png","../images/cyn_red.png","../images/gry_blk.png"],"mutagen_generator_assignment":[0,1],"goal":4,"start":0,"action_noise":0.15,"location_history":"[0,1,2,3,4]","action_history":"[1,0,1,1]","mutagen_history":"[1,0,1,1]","location_rts":"[10423,3064,1168,1347]","trial_type":"fractal-mutation","trial_index":54,"time_elapsed":1164355,"internal_node_id":"0.0-5.0-0.0"},{"group":"hexagon_bi","fractal_assignment":["../images/org_blu.png","../images/blu_wht.png","../images/ylw_slt.png","../images/pnk_blu.png","../images/cyn_red.png","../images/gry_blk.png"],"mutagen_generator_assignment":[0,1],"goal":3,"start":4,"action_noise":0.15,"location_history":"[4,5,0,1,2,1,2,1,2,1,2,3]","action_history":"[0,0,1,0,0,0,0,0,1,0,0]","mutagen_history":"[0,0,1,0,0,0,0,0,1,0,0]","location_rts":"[1441,532,946,542,451,440,869,621,662,430,534]","trial_type":"fractal-mutation","trial_index":55,"time_elapsed":1186625,"internal_node_id":"0.0-5.0-1.0"},{"group":"hexagon_bi","fractal_assignment":["../images/org_blu.png","../images/blu_wht.png","../images/ylw_slt.png","../images/pnk_blu.png","../images/cyn_red.png","../images/gry_blk.png"],"mutagen_generator_assignment":[0,1],"goal":5,"start":3,"action_noise":0.15,"location_history":"[3,4,3,4,3,4,5]","action_history":"[0,0,0,0,0,1]","mutagen_history":"[0,0,0,0,0,1]","location_rts":"[2310,5351,714,944,634,474]","trial_type":"fractal-mutation","trial_index":56,"time_elapsed":1206752,"internal_node_id":"0.0-5.0-2.0"},{"group":"hexagon_bi","fractal_assignment":["../images/org_blu.png","../images/blu_wht.png","../images/ylw_slt.png","../images/pnk_blu.png","../images/cyn_red.png","../images/gry_blk.png"],"mutagen_generator_assignment":[0,1],"goal":2,"start":5,"action_noise":0.15,"location_history":"[5,0,5,0,5,4,3,2]","action_history":"[0,0,0,0,1,0,1]","mutagen_history":"[0,0,0,0,1,0,1]","location_rts":"[1343,300,356,429,435,355,549]","trial_type":"fractal-mutation","trial_index":57,"time_elapsed":1221243,"internal_node_id":"0.0-5.0-3.0"},{"group":"hexagon_bi","fractal_assignment":["../images/org_blu.png","../images/blu_wht.png","../images/ylw_slt.png","../images/pnk_blu.png","../images/cyn_red.png","../images/gry_blk.png"],"mutagen_generator_assignment":[0,1],"goal":1,"start":2,"action_noise":0.15,"location_history":"[2,3,2,3,2,3,4,5,0,5,4,5,0,1]","action_history":"[1,1,1,1,1,0,1,0,1,1,1,0,1]","mutagen_history":"[1,1,1,1,1,0,1,0,1,1,1,0,1]","location_rts":"[1650,285,317,450,354,208,226,495,273,344,446,423,249]","trial_type":"fractal-mutation","trial_index":58,"time_elapsed":1243863,"internal_node_id":"0.0-5.0-4.0"},{"group":"hexagon_bi","fractal_assignment":["../images/org_blu.png","../images/blu_wht.png","../images/ylw_slt.png","../images/pnk_blu.png","../images/cyn_red.png","../images/gry_blk.png"],"mutagen_generator_assignment":[0,1],"goal":4,"start":1,"action_noise":0.15,"location_history":"[1,2,3,2,3,2,3,2,1,0,1,0,1,2,3,2,3,2,1,2,3,4]","action_history":"[0,1,1,1,1,1,1,0,1,1,1,1,0,1,0,1,1,1,0,1,0]","mutagen_history":"[0,1,1,1,1,1,1,0,1,1,1,1,0,1,0,1,1,1,0,1,0]","location_rts":"[3220,453,283,297,385,258,494,692,224,261,519,448,515,270,365,288,405,851,232,222,296]","trial_type":"fractal-mutation","trial_index":59,"time_elapsed":1279949,"internal_node_id":"0.0-5.0-5.0"},{"group":"hexagon_bi","fractal_assignment":["../images/org_blu.png","../images/blu_wht.png","../images/ylw_slt.png","../images/pnk_blu.png","../images/cyn_red.png","../images/gry_blk.png"],"mutagen_generator_assignment":[0,1],"goal":1,"start":4,"action_noise":0.15,"location_history":"[4,3,4,5,4,5,4,3,2,3,2,3,2,1]","action_history":"[0,1,1,1,1,0,0,1,1,1,1,1,0]","mutagen_history":"[0,1,1,1,1,0,0,1,1,1,1,1,0]","location_rts":"[2017,558,228,438,493,313,678,615,363,326,328,373,383]","trial_type":"fractal-mutation","trial_index":60,"time_elapsed":1303935,"internal_node_id":"0.0-5.0-6.0"},{"group":"hexagon_bi","fractal_assignment":["../images/org_blu.png","../images/blu_wht.png","../images/ylw_slt.png","../images/pnk_blu.png","../images/cyn_red.png","../images/gry_blk.png"],"mutagen_generator_assignment":[0,1],"goal":5,"start":1,"action_noise":0.15,"location_history":"[1,2,1,2,3,4,5]","action_history":"[0,0,0,1,1,1]","mutagen_history":"[0,0,0,1,1,1]","location_rts":"[1045,392,470,369,394,529]","trial_type":"fractal-mutation","trial_index":61,"time_elapsed":1316783,"internal_node_id":"0.0-5.0-7.0"},{"group":"hexagon_bi","fractal_assignment":["../images/org_blu.png","../images/blu_wht.png","../images/ylw_slt.png","../images/pnk_blu.png","../images/cyn_red.png","../images/gry_blk.png"],"mutagen_generator_assignment":[0,1],"goal":0,"start":5,"action_noise":0.15,"location_history":"[5,4,5,4,5,0]","action_history":"[1,1,1,1,0]","mutagen_history":"[1,1,1,1,0]","location_rts":"[1087,332,281,359,664]","trial_type":"fractal-mutation","trial_index":62,"time_elapsed":1328137,"internal_node_id":"0.0-5.0-8.0"},{"group":"hexagon_bi","fractal_assignment":["../images/org_blu.png","../images/blu_wht.png","../images/ylw_slt.png","../images/pnk_blu.png","../images/cyn_red.png","../images/gry_blk.png"],"mutagen_generator_assignment":[0,1],"goal":2,"start":0,"action_noise":0.15,"location_history":"[0,1,0,1,0,1,0,5,4,3,2]","action_history":"[1,1,1,1,1,1,0,1,0,1]","mutagen_history":"[1,1,1,1,1,1,0,1,0,1]","location_rts":"[721,529,295,298,427,324,298,302,360,316]","trial_type":"fractal-mutation","trial_index":63,"time_elapsed":1345796,"internal_node_id":"0.0-5.0-9.0"},{"group":"hexagon_bi","fractal_assignment":["../images/org_blu.png","../images/blu_wht.png","../images/ylw_slt.png","../images/pnk_blu.png","../images/cyn_red.png","../images/gry_blk.png"],"mutagen_generator_assignment":[0,1],"goal":3,"start":2,"action_noise":0.15,"location_history":"[2,3]","action_history":"[1]","mutagen_history":"[1]","location_rts":"[1186]","trial_type":"fractal-mutation","trial_index":64,"time_elapsed":1351514,"internal_node_id":"0.0-5.0-10.0"},{"group":"hexagon_bi","fractal_assignment":["../images/org_blu.png","../images/blu_wht.png","../images/ylw_slt.png","../images/pnk_blu.png","../images/cyn_red.png","../images/gry_blk.png"],"mutagen_generator_assignment":[0,1],"goal":0,"start":3,"action_noise":0.15,"location_history":"[3,2,3,4,3,2,1,0]","action_history":"[0,0,0,0,1,0,1]","mutagen_history":"[0,0,0,0,1,0,1]","location_rts":"[1017,437,310,497,517,417,303]","trial_type":"fractal-mutation","trial_index":65,"time_elapsed":1365710,"internal_node_id":"0.0-5.0-11.0"},{"group":"hexagon_bi","fractal_assignment":["../images/org_blu.png","../images/blu_wht.png","../images/ylw_slt.png","../images/pnk_blu.png","../images/cyn_red.png","../images/gry_blk.png"],"mutagen_generator_assignment":[0,1],"goal":2,"start":0,"action_noise":0.15,"location_history":"[0,5,0,1,0,1,0,5,4,5,4,3,2]","action_history":"[1,0,1,1,1,1,0,1,1,1,0,1]","mutagen_history":"[1,0,1,1,1,1,0,1,1,1,0,1]","location_rts":"[834,270,286,223,294,413,335,385,867,540,259,455]","trial_type":"fractal-mutation","trial_index":66,"time_elapsed":1386812,"internal_node_id":"0.0-5.0-12.0"},{"group":"hexagon_bi","fractal_assignment":["../images/org_blu.png","../images/blu_wht.png","../images/ylw_slt.png","../images/pnk_blu.png","../images/cyn_red.png","../images/gry_blk.png"],"mutagen_generator_assignment":[0,1],"goal":5,"start":2,"action_noise":0.15,"location_history":"[2,3,4,3,4,3,4,3,2,3,2,3,4,3,2,3,2,1,0,5]","action_history":"[1,1,0,1,0,0,0,1,1,1,0,0,0,1,1,1,0,1,0]","mutagen_history":"[1,1,0,1,0,0,0,1,1,1,0,0,0,1,1,1,0,1,0]","location_rts":"[1910,444,312,349,596,371,538,1061,660,793,242,1196,1716,354,603,466,275,773,863]","trial_type":"fractal-mutation","trial_index":67,"time_elapsed":1423351,"internal_node_id":"0.0-5.0-13.0"},{"group":"hexagon_bi","fractal_assignment":["../images/org_blu.png","../images/blu_wht.png","../images/ylw_slt.png","../images/pnk_blu.png","../images/cyn_red.png","../images/gry_blk.png"],"mutagen_generator_assignment":[0,1],"goal":4,"start":5,"action_noise":0.15,"location_history":"[5,4]","action_history":"[1]","mutagen_history":"[1]","location_rts":"[976]","trial_type":"fractal-mutation","trial_index":68,"time_elapsed":1428853,"internal_node_id":"0.0-5.0-14.0"},{"group":"hexagon_bi","fractal_assignment":["../images/org_blu.png","../images/blu_wht.png","../images/ylw_slt.png","../images/pnk_blu.png","../images/cyn_red.png","../images/gry_blk.png"],"mutagen_generator_assignment":[0,1],"goal":3,"start":4,"action_noise":0.15,"location_history":"[4,5,0,1,2,1,2,3]","action_history":"[1,0,1,0,0,0,1]","mutagen_history":"[1,0,1,0,0,0,1]","location_rts":"[1372,514,345,426,515,896,259]","trial_type":"fractal-mutation","trial_index":69,"time_elapsed":1443929,"internal_node_id":"0.0-5.0-15.0"},{"group":"hexagon_bi","fractal_assignment":["../images/org_blu.png","../images/blu_wht.png","../images/ylw_slt.png","../images/pnk_blu.png","../images/cyn_red.png","../images/gry_blk.png"],"mutagen_generator_assignment":[0,1],"goal":1,"start":3,"action_noise":0.15,"location_history":"[3,2,1]","action_history":"[1,0]","mutagen_history":"[1,0]","location_rts":"[1333,508]","trial_type":"fractal-mutation","trial_index":70,"time_elapsed":1451326,"internal_node_id":"0.0-5.0-16.0"},{"group":"hexagon_bi","fractal_assignment":["../images/org_blu.png","../images/blu_wht.png","../images/ylw_slt.png","../images/pnk_blu.png","../images/cyn_red.png","../images/gry_blk.png"],"mutagen_generator_assignment":[0,1],"goal":5,"start":1,"action_noise":0.15,"location_history":"[1,0,1,2,1,0,5]","action_history":"[1,1,0,0,1,0]","mutagen_history":"[1,1,0,0,1,0]","location_rts":"[837,662,305,347,381,212]","trial_type":"fractal-mutation","trial_index":71,"time_elapsed":1463734,"internal_node_id":"0.0-5.0-17.0"},{"group":"hexagon_bi","fractal_assignment":["../images/org_blu.png","../images/blu_wht.png","../images/ylw_slt.png","../images/pnk_blu.png","../images/cyn_red.png","../images/gry_blk.png"],"mutagen_generator_assignment":[0,1],"goal":4,"start":5,"action_noise":0.15,"location_history":"[5,4]","action_history":"[1]","mutagen_history":"[1]","location_rts":"[1344]","trial_type":"fractal-mutation","trial_index":72,"time_elapsed":1469660,"internal_node_id":"0.0-5.0-18.0"},{"group":"hexagon_bi","fractal_assignment":["../images/org_blu.png","../images/blu_wht.png","../images/ylw_slt.png","../images/pnk_blu.png","../images/cyn_red.png","../images/gry_blk.png"],"mutagen_generator_assignment":[0,1],"goal":0,"start":4,"action_noise":0.15,"location_history":"[4,3,2,1,0]","action_history":"[0,0,0,1]","mutagen_history":"[0,0,0,1]","location_rts":"[881,394,420,290]","trial_type":"fractal-mutation","trial_index":73,"time_elapsed":1479246,"internal_node_id":"0.0-5.0-19.0"},{"group":"hexagon_bi","fractal_assignment":["../images/org_blu.png","../images/blu_wht.png","../images/ylw_slt.png","../images/pnk_blu.png","../images/cyn_red.png","../images/gry_blk.png"],"mutagen_generator_assignment":[0,1],"goal":1,"start":0,"action_noise":0.15,"location_history":"[0,5,4,5,0,5,0,1]","action_history":"[0,1,1,0,0,0,1]","mutagen_history":"[0,1,1,0,0,0,1]","location_rts":"[770,574,454,493,552,609,261]","trial_type":"fractal-mutation","trial_index":74,"time_elapsed":1493639,"internal_node_id":"0.0-5.0-20.0"},{"group":"hexagon_bi","fractal_assignment":["../images/org_blu.png","../images/blu_wht.png","../images/ylw_slt.png","../images/pnk_blu.png","../images/cyn_red.png","../images/gry_blk.png"],"mutagen_generator_assignment":[0,1],"goal":3,"start":1,"action_noise":0.15,"location_history":"[1,0,5,4,5,0,1,2,1,0,5,4,5,0,5,4,3]","action_history":"[1,0,1,1,0,1,1,0,1,0,1,1,0,0,1,0]","mutagen_history":"[1,0,1,1,0,1,1,0,1,0,1,1,0,0,1,0]","location_rts":"[1606,471,272,723,332,317,614,429,342,1254,519,405,287,522,842,480]","trial_type":"fractal-mutation","trial_index":75,"time_elapsed":1523137,"internal_node_id":"0.0-5.0-21.0"},{"group":"hexagon_bi","fractal_assignment":["../images/org_blu.png","../images/blu_wht.png","../images/ylw_slt.png","../images/pnk_blu.png","../images/cyn_red.png","../images/gry_blk.png"],"mutagen_generator_assignment":[0,1],"goal":2,"start":3,"action_noise":0.15,"location_history":"[3,2]","action_history":"[1]","mutagen_history":"[1]","location_rts":"[373]","trial_type":"fractal-mutation","trial_index":76,"time_elapsed":1528044,"internal_node_id":"0.0-5.0-22.0"},{"group":"hexagon_bi","fractal_assignment":["../images/org_blu.png","../images/blu_wht.png","../images/ylw_slt.png","../images/pnk_blu.png","../images/cyn_red.png","../images/gry_blk.png"],"mutagen_generator_assignment":[0,1],"goal":0,"start":2,"action_noise":0.15,"location_history":"[2,1,2,1,0]","action_history":"[0,1,0,1]","mutagen_history":"[0,1,0,1]","location_rts":"[816,485,511,513]","trial_type":"fractal-mutation","trial_index":77,"time_elapsed":1537988,"internal_node_id":"0.0-5.0-23.0"},{"group":"hexagon_bi","fractal_assignment":["../images/org_blu.png","../images/blu_wht.png","../images/ylw_slt.png","../images/pnk_blu.png","../images/cyn_red.png","../images/gry_blk.png"],"mutagen_generator_assignment":[0,1],"goal":3,"start":0,"action_noise":0.15,"location_history":"[0,1,0,1,0,1,2,3]","action_history":"[1,1,0,0,1,0,1]","mutagen_history":"[1,1,0,0,1,0,1]","location_rts":"[13581,489,137,464,354,406,566]","trial_type":"fractal-mutation","trial_index":78,"time_elapsed":1564738,"internal_node_id":"0.0-5.0-24.0"},{"group":"hexagon_bi","fractal_assignment":["../images/org_blu.png","../images/blu_wht.png","../images/ylw_slt.png","../images/pnk_blu.png","../images/cyn_red.png","../images/gry_blk.png"],"mutagen_generator_assignment":[0,1],"goal":1,"start":3,"action_noise":0.15,"location_history":"[3,4,3,2,1]","action_history":"[0,0,1,0]","mutagen_history":"[0,0,1,0]","location_rts":"[3026,411,343,324]","trial_type":"fractal-mutation","trial_index":79,"time_elapsed":1576446,"internal_node_id":"0.0-5.0-25.0"},{"group":"hexagon_bi","fractal_assignment":["../images/org_blu.png","../images/blu_wht.png","../images/ylw_slt.png","../images/pnk_blu.png","../images/cyn_red.png","../images/gry_blk.png"],"mutagen_generator_assignment":[0,1],"goal":2,"start":1,"action_noise":0.15,"location_history":"[1,0,1,2]","action_history":"[1,1,0]","mutagen_history":"[1,1,0]","location_rts":"[729,483,212]","trial_type":"fractal-mutation","trial_index":80,"time_elapsed":1584451,"internal_node_id":"0.0-5.0-26.0"},{"group":"hexagon_bi","fractal_assignment":["../images/org_blu.png","../images/blu_wht.png","../images/ylw_slt.png","../images/pnk_blu.png","../images/cyn_red.png","../images/gry_blk.png"],"mutagen_generator_assignment":[0,1],"goal":5,"start":2,"action_noise":0.15,"location_history":"[2,1,0,5]","action_history":"[0,1,0]","mutagen_history":"[0,1,0]","location_rts":"[11399,417,299]","trial_type":"fractal-mutation","trial_index":81,"time_elapsed":1603161,"internal_node_id":"0.0-5.0-27.0"},{"group":"hexagon_bi","fractal_assignment":["../images/org_blu.png","../images/blu_wht.png","../images/ylw_slt.png","../images/pnk_blu.png","../images/cyn_red.png","../images/gry_blk.png"],"mutagen_generator_assignment":[0,1],"goal":4,"start":5,"action_noise":0.15,"location_history":"[5,0,5,4]","action_history":"[1,0,1]","mutagen_history":"[1,0,1]","location_rts":"[1215,325,274]","trial_type":"fractal-mutation","trial_index":82,"time_elapsed":1611555,"internal_node_id":"0.0-5.0-28.0"},{"group":"hexagon_bi","fractal_assignment":["../images/org_blu.png","../images/blu_wht.png","../images/ylw_slt.png","../images/pnk_blu.png","../images/cyn_red.png","../images/gry_blk.png"],"mutagen_generator_assignment":[0,1],"goal":5,"start":4,"action_noise":0.15,"location_history":"[4,3,4,3,2,1,2,3,4,3,4,3,2,1,0,1,0,5]","action_history":"[1,0,0,1,0,0,1,0,0,0,0,1,0,0,1,1,0]","mutagen_history":"[1,0,0,1,0,0,1,0,0,0,0,1,0,0,1,1,0]","location_rts":"[1085,242,393,427,309,1247,284,387,491,528,344,252,509,680,247,905,333]","trial_type":"fractal-mutation","trial_index":83,"time_elapsed":1641234,"internal_node_id":"0.0-5.0-29.0"},{"group":"hexagon_bi","fractal_assignment":["../images/org_blu.png","../images/blu_wht.png","../images/ylw_slt.png","../images/pnk_blu.png","../images/cyn_red.png","../images/gry_blk.png"],"mutagen_generator_assignment":[0,1],"goal":3,"start":5,"action_noise":0.15,"location_history":"[5,4,3]","action_history":"[1,0]","mutagen_history":"[1,0]","location_rts":"[400,230]","trial_type":"fractal-mutation","trial_index":84,"time_elapsed":1647418,"internal_node_id":"0.0-5.0-30.0"},{"group":"hexagon_bi","fractal_assignment":["../images/org_blu.png","../images/blu_wht.png","../images/ylw_slt.png","../images/pnk_blu.png","../images/cyn_red.png","../images/gry_blk.png"],"mutagen_generator_assignment":[0,1],"goal":0,"start":3,"action_noise":0.15,"location_history":"[3,4,3,2,1,2,3,4,3,2,3,2,1,2,1,0]","action_history":"[0,0,1,0,0,1,0,0,1,1,1,0,0,0,1]","mutagen_history":"[0,0,1,0,0,1,0,0,1,1,1,0,0,0,1]","location_rts":"[1374,517,210,507,603,262,411,508,436,431,439,220,498,551,254]","trial_type":"fractal-mutation","trial_index":85,"time_elapsed":1673545,"internal_node_id":"0.0-5.0-31.0"},{"group":"hexagon_bi","fractal_assignment":["../images/org_blu.png","../images/blu_wht.png","../images/ylw_slt.png","../images/pnk_blu.png","../images/cyn_red.png","../images/gry_blk.png"],"mutagen_generator_assignment":[0,1],"goal":4,"start":0,"action_noise":0.15,"location_history":"[0,1,2,3,2,3,2,3,4]","action_history":"[1,0,1,1,1,0,1,0]","mutagen_history":"[1,0,1,1,1,0,1,0]","location_rts":"[1214,410,268,373,457,387,366,356]","trial_type":"fractal-mutation","trial_index":86,"time_elapsed":1689092,"internal_node_id":"0.0-5.0-32.0"},{"group":"hexagon_bi","fractal_assignment":["../images/org_blu.png","../images/blu_wht.png","../images/ylw_slt.png","../images/pnk_blu.png","../images/cyn_red.png","../images/gry_blk.png"],"mutagen_generator_assignment":[0,1],"goal":1,"start":4,"action_noise":0.15,"location_history":"[4,5,0,5,4,3,4,5,4,5,0,5,0,5,0,5,4,5,0,1]","action_history":"[1,0,0,1,0,1,0,1,1,0,0,1,0,0,0,1,1,0,1]","mutagen_history":"[1,0,0,1,0,1,0,1,1,0,0,1,0,0,0,1,1,0,1]","location_rts":"[485,307,347,438,470,266,294,772,714,257,318,778,613,1109,692,689,593,242,672]","trial_type":"fractal-mutation","trial_index":87,"time_elapsed":1722158,"internal_node_id":"0.0-5.0-33.0"},{"group":"hexagon_bi","fractal_assignment":["../images/org_blu.png","../images/blu_wht.png","../images/ylw_slt.png","../images/pnk_blu.png","../images/cyn_red.png","../images/gry_blk.png"],"mutagen_generator_assignment":[0,1],"goal":2,"start":1,"action_noise":0.15,"location_history":"[1,2]","action_history":"[0]","mutagen_history":"[0]","location_rts":"[1442]","trial_type":"fractal-mutation","trial_index":88,"time_elapsed":1728128,"internal_node_id":"0.0-5.0-34.0"},{"group":"hexagon_bi","fractal_assignment":["../images/org_blu.png","../images/blu_wht.png","../images/ylw_slt.png","../images/pnk_blu.png","../images/cyn_red.png","../images/gry_blk.png"],"mutagen_generator_assignment":[0,1],"goal":0,"start":2,"action_noise":0.15,"location_history":"[2,1,2,1,0]","action_history":"[1,0,0,1]","mutagen_history":"[1,0,0,1]","location_rts":"[532,466,396,382]","trial_type":"fractal-mutation","trial_index":89,"time_elapsed":1737512,"internal_node_id":"0.0-5.0-35.0"},{"group":"hexagon_bi","fractal_assignment":["../images/org_blu.png","../images/blu_wht.png","../images/ylw_slt.png","../images/pnk_blu.png","../images/cyn_red.png","../images/gry_blk.png"],"mutagen_generator_assignment":[0,1],"goal":5,"start":0,"action_noise":0.15,"location_history":"[0,1,2,1,0,1,0,1,2,3,4,5]","action_history":"[1,0,0,1,1,1,0,0,1,0,0]","mutagen_history":"[1,0,0,1,1,1,0,0,1,0,0]","location_rts":"[762,427,447,403,652,537,74,381,615,544,2349]","trial_type":"fractal-mutation","trial_index":90,"time_elapsed":1759510,"internal_node_id":"0.0-5.0-36.0"},{"group":"hexagon_bi","fractal_assignment":["../images/org_blu.png","../images/blu_wht.png","../images/ylw_slt.png","../images/pnk_blu.png","../images/cyn_red.png","../images/gry_blk.png"],"mutagen_generator_assignment":[0,1],"goal":2,"start":5,"action_noise":0.15,"location_history":"[5,4,5,0,5,0,1,2]","action_history":"[1,0,0,0,0,1,0]","mutagen_history":"[1,0,0,0,0,1,0]","location_rts":"[430,420,458,468,271,244,435]","trial_type":"fractal-mutation","trial_index":91,"time_elapsed":1772916,"internal_node_id":"0.0-5.0-37.0"},{"group":"hexagon_bi","fractal_assignment":["../images/org_blu.png","../images/blu_wht.png","../images/ylw_slt.png","../images/pnk_blu.png","../images/cyn_red.png","../images/gry_blk.png"],"mutagen_generator_assignment":[0,1],"goal":1,"start":2,"action_noise":0.15,"location_history":"[2,3,4,3,2,1]","action_history":"[1,0,0,1,0]","mutagen_history":"[1,0,0,1,0]","location_rts":"[1056,398,1098,220,484]","trial_type":"fractal-mutation","trial_index":92,"time_elapsed":1784819,"internal_node_id":"0.0-5.0-38.0"},{"group":"hexagon_bi","fractal_assignment":["../images/org_blu.png","../images/blu_wht.png","../images/ylw_slt.png","../images/pnk_blu.png","../images/cyn_red.png","../images/gry_blk.png"],"mutagen_generator_assignment":[0,1],"goal":4,"start":1,"action_noise":0.15,"location_history":"[1,2,3,2,3,2,3,2,1,0,1,2,3,4]","action_history":"[0,1,1,1,0,1,1,0,1,1,0,1,0]","mutagen_history":"[0,1,1,1,0,1,1,0,1,1,0,1,0]","location_rts":"[1575,410,986,862,218,279,635,354,702,900,647,560,244]","trial_type":"fractal-mutation","trial_index":93,"time_elapsed":1810077,"internal_node_id":"0.0-5.0-39.0"},{"group":"hexagon_bi","fractal_assignment":["../images/org_blu.png","../images/blu_wht.png","../images/ylw_slt.png","../images/pnk_blu.png","../images/cyn_red.png","../images/gry_blk.png"],"mutagen_generator_assignment":[0,1],"goal":3,"start":4,"action_noise":0.15,"location_history":"[4,3]","action_history":"[0]","mutagen_history":"[0]","location_rts":"[656]","trial_type":"fractal-mutation","trial_index":94,"time_elapsed":1815263,"internal_node_id":"0.0-5.0-40.0"},{"group":"hexagon_bi","fractal_assignment":["../images/org_blu.png","../images/blu_wht.png","../images/ylw_slt.png","../images/pnk_blu.png","../images/cyn_red.png","../images/gry_blk.png"],"mutagen_generator_assignment":[0,1],"goal":5,"start":3,"action_noise":0.15,"location_history":"[3,2,1,2,3,4,3,2,3,4,5]","action_history":"[1,0,0,1,0,0,1,1,0,0]","mutagen_history":"[1,0,0,1,0,0,1,1,0,0]","location_rts":"[741,644,1116,415,558,790,521,541,287,869]","trial_type":"fractal-mutation","trial_index":95,"time_elapsed":1835500,"internal_node_id":"0.0-5.0-41.0"},{"group":"hexagon_bi","fractal_assignment":["../images/org_blu.png","../images/blu_wht.png","../images/ylw_slt.png","../images/pnk_blu.png","../images/cyn_red.png","../images/gry_blk.png"],"mutagen_generator_assignment":[0,1],"goal":3,"start":5,"action_noise":0.15,"location_history":"[5,4,3]","action_history":"[1,0]","mutagen_history":"[1,0]","location_rts":"[878,322]","trial_type":"fractal-mutation","trial_index":96,"time_elapsed":1842261,"internal_node_id":"0.0-5.0-42.0"},{"group":"hexagon_bi","fractal_assignment":["../images/org_blu.png","../images/blu_wht.png","../images/ylw_slt.png","../images/pnk_blu.png","../images/cyn_red.png","../images/gry_blk.png"],"mutagen_generator_assignment":[0,1],"goal":0,"start":3,"action_noise":0.15,"location_history":"[3,4,3,4,5,0]","action_history":"[1,0,0,1,0]","mutagen_history":"[1,0,0,1,0]","location_rts":"[374,326,551,566,411]","trial_type":"fractal-mutation","trial_index":97,"time_elapsed":1853122,"internal_node_id":"0.0-5.0-43.0"},{"group":"hexagon_bi","fractal_assignment":["../images/org_blu.png","../images/blu_wht.png","../images/ylw_slt.png","../images/pnk_blu.png","../images/cyn_red.png","../images/gry_blk.png"],"mutagen_generator_assignment":[0,1],"goal":2,"start":0,"action_noise":0.15,"location_history":"[0,1,2]","action_history":"[1,0]","mutagen_history":"[1,0]","location_rts":"[799,310]","trial_type":"fractal-mutation","trial_index":98,"time_elapsed":1859793,"internal_node_id":"0.0-5.0-44.0"},{"group":"hexagon_bi","fractal_assignment":["../images/org_blu.png","../images/blu_wht.png","../images/ylw_slt.png","../images/pnk_blu.png","../images/cyn_red.png","../images/gry_blk.png"],"mutagen_generator_assignment":[0,1],"goal":4,"start":2,"action_noise":0.15,"location_history":"[2,3,2,3,4]","action_history":"[1,1,1,0]","mutagen_history":"[1,1,1,0]","location_rts":"[563,420,710,244]","trial_type":"fractal-mutation","trial_index":99,"time_elapsed":1869356,"internal_node_id":"0.0-5.0-45.0"},{"group":"hexagon_bi","fractal_assignment":["../images/org_blu.png","../images/blu_wht.png","../images/ylw_slt.png","../images/pnk_blu.png","../images/cyn_red.png","../images/gry_blk.png"],"mutagen_generator_assignment":[0,1],"goal":1,"start":4,"action_noise":0.15,"location_history":"[4,3,4,5,4,3,2,1]","action_history":"[1,0,1,0,0,1,0]","mutagen_history":"[1,0,1,0,0,1,0]","location_rts":"[1278,740,2093,224,615,492,1550]","trial_type":"fractal-mutation","trial_index":100,"time_elapsed":1887045,"internal_node_id":"0.0-5.0-46.0"},{"group":"hexagon_bi","fractal_assignment":["../images/org_blu.png","../images/blu_wht.png","../images/ylw_slt.png","../images/pnk_blu.png","../images/cyn_red.png","../images/gry_blk.png"],"mutagen_generator_assignment":[0,1],"goal":4,"start":1,"action_noise":0.15,"location_history":"[1,0,5,4]","action_history":"[1,0,0]","mutagen_history":"[1,0,0]","location_rts":"[1934,1145,386]","trial_type":"fractal-mutation","trial_index":101,"time_elapsed":1897090,"internal_node_id":"0.0-5.0-47.0"},{"group":"hexagon_bi","fractal_assignment":["../images/org_blu.png","../images/blu_wht.png","../images/ylw_slt.png","../images/pnk_blu.png","../images/cyn_red.png","../images/gry_blk.png"],"mutagen_generator_assignment":[0,1],"goal":3,"start":4,"action_noise":0.15,"location_history":"[4,3]","action_history":"[1]","mutagen_history":"[1]","location_rts":"[1263]","trial_type":"fractal-mutation","trial_index":102,"time_elapsed":1902880,"internal_node_id":"0.0-5.0-48.0"},{"group":"hexagon_bi","fractal_assignment":["../images/org_blu.png","../images/blu_wht.png","../images/ylw_slt.png","../images/pnk_blu.png","../images/cyn_red.png","../images/gry_blk.png"],"mutagen_generator_assignment":[0,1],"goal":5,"start":3,"action_noise":0.15,"location_history":"[3,2,3,4,3,2,1,0,1,0,5]","action_history":"[0,1,0,0,1,0,1,1,1,0]","mutagen_history":"[0,1,0,0,1,0,1,1,1,0]","location_rts":"[1330,318,678,566,362,715,1002,665,397,229]","trial_type":"fractal-mutation","trial_index":103,"time_elapsed":1922939,"internal_node_id":"0.0-5.0-49.0"},{"view_history":"[{\"page_index\":0,\"viewing_time\":6898}]","rt":6898,"trial_type":"instructions","trial_index":104,"time_elapsed":1930837,"internal_node_id":"0.0-6.0"},{"rt":2501,"responses":"{\"Q0\":\"\"}","trial_type":"survey-text","trial_index":105,"time_elapsed":1934344,"internal_node_id":"0.0-7.0"}]