[{"view_history":"[{\"page_index\":0,\"viewing_time\":14718},{\"page_index\":1,\"viewing_time\":12531},{\"page_index\":2,\"viewing_time\":17972},{\"page_index\":3,\"viewing_time\":6630}]","rt":51851,"trial_type":"instructions","trial_index":0,"time_elapsed":51852,"internal_node_id":"0.0-0.0"},{"view_history":"[{\"page_index\":0,\"viewing_time\":1706},{\"page_index\":1,\"viewing_time\":24227}]","rt":25933,"trial_type":"instructions","trial_index":1,"time_elapsed":78786,"internal_node_id":"0.0-1.0"},{"group":"hexagon_tri","room_assignment":["blue","yellow","green","purple","red","grey"],"door_color_assignment":["black","white"],"door_generator_assignment":[1,0],"goal":4,"start":0,"action_noise":0.15,"location_history":"[0,5,4]","action_history":"[0,0]","door_history":"[1,1]","location_rts":"[4686,1502]","trial_type":"two-door-navigation","trial_index":2,"time_elapsed":90529,"internal_node_id":"0.0-2.0-0.0"},{"group":"hexagon_tri","room_assignment":["blue","yellow","green","purple","red","grey"],"door_color_assignment":["black","white"],"door_generator_assignment":[1,0],"goal":3,"start":4,"action_noise":0.15,"location_history":"[4,2,3]","action_history":"[1,1]","door_history":"[0,0]","location_rts":"[2698,755]","trial_type":"two-door-navigation","trial_index":3,"time_elapsed":99531,"internal_node_id":"0.0-2.0-1.0"},{"group":"hexagon_tri","room_assignment":["blue","yellow","green","purple","red","grey"],"door_color_assignment":["black","white"],"door_generator_assignment":[1,0],"goal":5,"start":3,"action_noise":0.15,"location_history":"[3,2,1,3,2,1,3,4,2,3,4,2,1,5]","action_history":"[0,0,0,0,0,0,1,1,1,1,1,1,1]","door_history":"[1,1,1,1,1,1,0,0,0,0,0,0,0]","location_rts":"[2831,422,450,481,484,406,1020,353,407,995,888,1022,880]","trial_type":"two-door-navigation","trial_index":4,"time_elapsed":126908,"internal_node_id":"0.0-2.0-2.0"},{"group":"hexagon_tri","room_assignment":["blue","yellow","green","purple","red","grey"],"door_color_assignment":["black","white"],"door_generator_assignment":[1,0],"goal":2,"start":5,"action_noise":0.15,"location_history":"[5,4,0,5,4,0,5,4,2]","action_history":"[0,0,0,0,0,0,0,0]","door_history":"[1,1,1,1,1,1,1,1]","location_rts":"[1683,359,471,442,419,673,1109,527]","trial_type":"two-door-navigation","trial_index":5,"time_elapsed":144247,"internal_node_id":"0.0-2.0-3.0"},{"group":"hexagon_tri","room_assignment":["blue","yellow","green","purple","red","grey"],"door_color_assignment":["black","white"],"door_generator_assignment":[1,0],"goal":1,"start":2,"action_noise":0.15,"location_history":"[2,3,4,2,1]","action_history":"[1,0,1,0]","door_history":"[0,1,0,1]","location_rts":"[1525,387,449,441]","trial_type":"two-door-navigation","trial_index":6,"time_elapsed":154626,"internal_node_id":"0.0-2.0-4.0"},{"group":"hexagon_tri","room_assignment":["blue","yellow","green","purple","red","grey"],"door_color_assignment":["black","white"],"door_generator_assignment":[1,0],"goal":4,"start":1,"action_noise":0.15,"location_history":"[1,3,4]","action_history":"[0,1]","door_history":"[1,0]","location_rts":"[803,412]","trial_type":"two-door-navigation","trial_index":7,"time_elapsed":161383,"internal_node_id":"0.0-2.0-5.0"},{"group":"hexagon_tri","room_assignment":["blue","yellow","green","purple","red","grey"],"door_color_assignment":["black","white"],"door_generator_assignment":[1,0],"goal":1,"start":4,"action_noise":0.15,"location_history":"[4,2,3,2,3,4,2,1]","action_history":"[0,1,1,1,1,1,0]","door_history":"[1,0,0,0,0,0,1]","location_rts":"[522,588,832,448,426,509,777]","trial_type":"two-door-navigation","trial_index":8,"time_elapsed":176128,"internal_node_id":"0.0-2.0-6.0"},{"group":"hexagon_tri","room_assignment":["blue","yellow","green","purple","red","grey"],"door_color_assignment":["black","white"],"door_generator_assignment":[1,0],"goal":5,"start":1,"action_noise":0.15,"location_history":"[1,5]","action_history":"[1]","door_history":"[0]","location_rts":"[1371]","trial_type":"two-door-navigation","trial_index":9,"time_elapsed":182019,"internal_node_id":"0.0-2.0-7.0"},{"group":"hexagon_tri","room_assignment":["blue","yellow","green","purple","red","grey"],"door_color_assignment":["black","white"],"door_generator_assignment":[1,0],"goal":0,"start":5,"action_noise":0.15,"location_history":"[5,0]","action_history":"[1]","door_history":"[0]","location_rts":"[1225]","trial_type":"two-door-navigation","trial_index":10,"time_elapsed":187766,"internal_node_id":"0.0-2.0-8.0"},{"group":"hexagon_tri","room_assignment":["blue","yellow","green","purple","red","grey"],"door_color_assignment":["black","white"],"door_generator_assignment":[1,0],"goal":2,"start":0,"action_noise":0.15,"location_history":"[0,1,3,2]","action_history":"[1,0,0]","door_history":"[0,1,1]","location_rts":"[1543,1740,436]","trial_type":"two-door-navigation","trial_index":11,"time_elapsed":198057,"internal_node_id":"0.0-2.0-9.0"},{"group":"hexagon_tri","room_assignment":["blue","yellow","green","purple","red","grey"],"door_color_assignment":["black","white"],"door_generator_assignment":[1,0],"goal":3,"start":2,"action_noise":0.15,"location_history":"[2,1,5,0,5,0,1,3]","action_history":"[0,1,1,1,1,1,0]","door_history":"[1,0,0,0,0,0,1]","location_rts":"[604,364,400,481,383,501,1240]","trial_type":"two-door-navigation","trial_index":12,"time_elapsed":212666,"internal_node_id":"0.0-2.0-10.0"},{"group":"hexagon_tri","room_assignment":["blue","yellow","green","purple","red","grey"],"door_color_assignment":["black","white"],"door_generator_assignment":[1,0],"goal":0,"start":3,"action_noise":0.15,"location_history":"[3,2,1,3,4,0]","action_history":"[0,0,0,1,1]","door_history":"[1,1,1,0,0]","location_rts":"[981,402,679,934,394]","trial_type":"two-door-navigation","trial_index":13,"time_elapsed":224655,"internal_node_id":"0.0-2.0-11.0"},{"group":"hexagon_tri","room_assignment":["blue","yellow","green","purple","red","grey"],"door_color_assignment":["black","white"],"door_generator_assignment":[1,0],"goal":2,"start":0,"action_noise":0.15,"location_history":"[0,1,5,0,1,3,4,0,1,3,2]","action_history":"[1,1,1,1,1,1,0,0,0,0]","door_history":"[0,0,0,0,0,0,1,1,1,1]","location_rts":"[496,406,425,464,427,441,1015,401,448,383]","trial_type":"two-door-navigation","trial_index":14,"time_elapsed":243259,"internal_node_id":"0.0-2.0-12.0"},{"group":"hexagon_tri","room_assignment":["blue","yellow","green","purple","red","grey"],"door_color_assignment":["black","white"],"door_generator_assignment":[1,0],"goal":5,"start":2,"action_noise":0.15,"location_history":"[2,1,3,2,1,3,2,1,3,2,3,4,2,1,5]","action_history":"[0,0,0,0,0,0,0,0,0,1,1,1,1,1]","door_history":"[1,1,1,1,1,1,1,1,1,0,0,0,0,0]","location_rts":"[994,423,406,401,375,357,340,302,399,413,391,391,351,391]","trial_type":"two-door-navigation","trial_index":15,"time_elapsed":266968,"internal_node_id":"0.0-2.0-13.0"},{"group":"hexagon_tri","room_assignment":["blue","yellow","green","purple","red","grey"],"door_color_assignment":["black","white"],"door_generator_assignment":[1,0],"goal":4,"start":5,"action_noise":0.15,"location_history":"[5,0,1,5,0,1,3,2,3,2,3,2,1,3,2,1,3,2,1,3,4]","action_history":"[1,1,1,1,0,1,0,1,0,1,0,0,0,0,0,0,0,0,0,1]","door_history":"[0,0,0,0,1,0,1,0,1,0,1,1,1,1,1,1,1,1,1,0]","location_rts":"[778,996,409,398,978,677,438,404,420,399,414,399,440,431,402,448,459,372,423,929]","trial_type":"two-door-navigation","trial_index":16,"time_elapsed":301457,"internal_node_id":"0.0-2.0-14.0"},{"group":"hexagon_tri","room_assignment":["blue","yellow","green","purple","red","grey"],"door_color_assignment":["black","white"],"door_generator_assignment":[1,0],"goal":3,"start":4,"action_noise":0.15,"location_history":"[4,2,1,3]","action_history":"[1,0,0]","door_history":"[0,1,1]","location_rts":"[1191,435,467]","trial_type":"two-door-navigation","trial_index":17,"time_elapsed":310104,"internal_node_id":"0.0-2.0-15.0"},{"group":"hexagon_tri","room_assignment":["blue","yellow","green","purple","red","grey"],"door_color_assignment":["black","white"],"door_generator_assignment":[1,0],"goal":1,"start":3,"action_noise":0.15,"location_history":"[3,4,0,5,0,1]","action_history":"[0,0,0,1,1]","door_history":"[1,1,1,0,0]","location_rts":"[935,442,402,415,358]","trial_type":"two-door-navigation","trial_index":18,"time_elapsed":321252,"internal_node_id":"0.0-2.0-16.0"},{"group":"hexagon_tri","room_assignment":["blue","yellow","green","purple","red","grey"],"door_color_assignment":["black","white"],"door_generator_assignment":[1,0],"goal":5,"start":1,"action_noise":0.15,"location_history":"[1,5]","action_history":"[1]","door_history":"[0]","location_rts":"[1480]","trial_type":"two-door-navigation","trial_index":19,"time_elapsed":327254,"internal_node_id":"0.0-2.0-17.0"},{"group":"hexagon_tri","room_assignment":["blue","yellow","green","purple","red","grey"],"door_color_assignment":["black","white"],"door_generator_assignment":[1,0],"goal":4,"start":5,"action_noise":0.15,"location_history":"[5,0,1,5,4]","action_history":"[1,1,1,0]","door_history":"[0,0,0,1]","location_rts":"[570,447,360,420]","trial_type":"two-door-navigation","trial_index":20,"time_elapsed":336638,"internal_node_id":"0.0-2.0-18.0"},{"group":"hexagon_tri","room_assignment":["blue","yellow","green","purple","red","grey"],"door_color_assignment":["black","white"],"door_generator_assignment":[1,0],"goal":0,"start":4,"action_noise":0.15,"location_history":"[4,0]","action_history":"[0]","door_history":"[1]","location_rts":"[569]","trial_type":"two-door-navigation","trial_index":21,"time_elapsed":341728,"internal_node_id":"0.0-2.0-19.0"},{"group":"hexagon_tri","room_assignment":["blue","yellow","green","purple","red","grey"],"door_color_assignment":["black","white"],"door_generator_assignment":[1,0],"goal":1,"start":0,"action_noise":0.15,"location_history":"[0,5,4,0,1]","action_history":"[0,0,0,0]","door_history":"[1,1,1,1]","location_rts":"[1019,394,714,510]","trial_type":"two-door-navigation","trial_index":22,"time_elapsed":351948,"internal_node_id":"0.0-2.0-20.0"},{"group":"hexagon_tri","room_assignment":["blue","yellow","green","purple","red","grey"],"door_color_assignment":["black","white"],"door_generator_assignment":[1,0],"goal":3,"start":1,"action_noise":0.15,"location_history":"[1,3]","action_history":"[0]","door_history":"[1]","location_rts":"[2467]","trial_type":"two-door-navigation","trial_index":23,"time_elapsed":358938,"internal_node_id":"0.0-2.0-21.0"},{"group":"hexagon_tri","room_assignment":["blue","yellow","green","purple","red","grey"],"door_color_assignment":["black","white"],"door_generator_assignment":[1,0],"goal":2,"start":3,"action_noise":0.15,"location_history":"[3,4,2]","action_history":"[1,1]","door_history":"[0,0]","location_rts":"[1025,653]","trial_type":"two-door-navigation","trial_index":24,"time_elapsed":366161,"internal_node_id":"0.0-2.0-22.0"},{"group":"hexagon_tri","room_assignment":["blue","yellow","green","purple","red","grey"],"door_color_assignment":["black","white"],"door_generator_assignment":[1,0],"goal":0,"start":2,"action_noise":0.15,"location_history":"[2,3,2,1,5,0]","action_history":"[1,0,0,1,1]","door_history":"[0,1,1,0,0]","location_rts":"[954,457,371,497,398]","trial_type":"two-door-navigation","trial_index":25,"time_elapsed":377434,"internal_node_id":"0.0-2.0-23.0"},{"group":"hexagon_tri","room_assignment":["blue","yellow","green","purple","red","grey"],"door_color_assignment":["black","white"],"door_generator_assignment":[1,0],"goal":3,"start":0,"action_noise":0.15,"location_history":"[0,5,4,2,3]","action_history":"[1,1,1,1]","door_history":"[0,0,0,0]","location_rts":"[1319,503,447,475]","trial_type":"two-door-navigation","trial_index":26,"time_elapsed":387765,"internal_node_id":"0.0-2.0-24.0"},{"group":"hexagon_tri","room_assignment":["blue","yellow","green","purple","red","grey"],"door_color_assignment":["black","white"],"door_generator_assignment":[1,0],"goal":1,"start":3,"action_noise":0.15,"location_history":"[3,4,2,3,4,2,1]","action_history":"[1,1,1,1,1,0]","door_history":"[0,0,0,0,0,1]","location_rts":"[743,467,408,417,792,376]","trial_type":"two-door-navigation","trial_index":27,"time_elapsed":400580,"internal_node_id":"0.0-2.0-25.0"},{"group":"hexagon_tri","room_assignment":["blue","yellow","green","purple","red","grey"],"door_color_assignment":["black","white"],"door_generator_assignment":[1,0],"goal":2,"start":1,"action_noise":0.15,"location_history":"[1,5,4,2]","action_history":"[1,0,1]","door_history":"[0,1,0]","location_rts":"[1042,615,379]","trial_type":"two-door-navigation","trial_index":28,"time_elapsed":409175,"internal_node_id":"0.0-2.0-26.0"},{"group":"hexagon_tri","room_assignment":["blue","yellow","green","purple","red","grey"],"door_color_assignment":["black","white"],"door_generator_assignment":[1,0],"goal":5,"start":2,"action_noise":0.15,"location_history":"[2,1,5]","action_history":"[0,1]","door_history":"[1,0]","location_rts":"[759,396]","trial_type":"two-door-navigation","trial_index":29,"time_elapsed":415876,"internal_node_id":"0.0-2.0-27.0"},{"group":"hexagon_tri","room_assignment":["blue","yellow","green","purple","red","grey"],"door_color_assignment":["black","white"],"door_generator_assignment":[1,0],"goal":4,"start":5,"action_noise":0.15,"location_history":"[5,0,5,0,1,5,0,1,5,4]","action_history":"[1,0,0,1,1,1,1,1,0]","door_history":"[0,1,1,0,0,0,0,0,1]","location_rts":"[864,877,427,418,434,369,623,895,403]","trial_type":"two-door-navigation","trial_index":30,"time_elapsed":433855,"internal_node_id":"0.0-2.0-28.0"},{"group":"hexagon_tri","room_assignment":["blue","yellow","green","purple","red","grey"],"door_color_assignment":["black","white"],"door_generator_assignment":[1,0],"goal":5,"start":4,"action_noise":0.15,"location_history":"[4,0,5]","action_history":"[0,0]","door_history":"[1,1]","location_rts":"[477,389]","trial_type":"two-door-navigation","trial_index":31,"time_elapsed":440266,"internal_node_id":"0.0-2.0-29.0"},{"group":"hexagon_tri","room_assignment":["blue","yellow","green","purple","red","grey"],"door_color_assignment":["black","white"],"door_generator_assignment":[1,0],"goal":3,"start":5,"action_noise":0.15,"location_history":"[5,4,2,1,3]","action_history":"[1,1,0,0]","door_history":"[0,0,1,1]","location_rts":"[979,447,445,380]","trial_type":"two-door-navigation","trial_index":32,"time_elapsed":450096,"internal_node_id":"0.0-2.0-30.0"},{"group":"hexagon_tri","room_assignment":["blue","yellow","green","purple","red","grey"],"door_color_assignment":["black","white"],"door_generator_assignment":[1,0],"goal":0,"start":3,"action_noise":0.15,"location_history":"[3,2,1,3,4,2,3,4,2,1,3,2,1,3,2,1,5,4,2,1,5,4,2,1,5,0]","action_history":"[0,0,0,1,1,1,1,1,0,0,0,0,0,0,0,1,0,1,0,1,0,1,0,1,1]","door_history":"[1,1,1,0,0,0,0,0,1,1,1,1,1,1,1,0,1,0,1,0,1,0,1,0,0]","location_rts":"[956,427,687,437,411,402,398,428,421,363,455,360,471,422,525,356,380,365,375,393,397,455,410,444,544]","trial_type":"two-door-navigation","trial_index":33,"time_elapsed":490364,"internal_node_id":"0.0-2.0-31.0"},{"group":"hexagon_tri","room_assignment":["blue","yellow","green","purple","red","grey"],"door_color_assignment":["black","white"],"door_generator_assignment":[1,0],"goal":4,"start":0,"action_noise":0.15,"location_history":"[0,5,0,1,5,0,1,5,4]","action_history":"[0,1,1,1,1,1,1,1]","door_history":"[1,0,0,0,0,0,0,0]","location_rts":"[1546,643,874,690,521,441,703,683]","trial_type":"two-door-navigation","trial_index":34,"time_elapsed":508122,"internal_node_id":"0.0-2.0-32.0"},{"group":"hexagon_tri","room_assignment":["blue","yellow","green","purple","red","grey"],"door_color_assignment":["black","white"],"door_generator_assignment":[1,0],"goal":1,"start":4,"action_noise":0.15,"location_history":"[4,2,1]","action_history":"[1,0]","door_history":"[0,1]","location_rts":"[657,389]","trial_type":"two-door-navigation","trial_index":35,"time_elapsed":514706,"internal_node_id":"0.0-2.0-33.0"},{"group":"hexagon_tri","room_assignment":["blue","yellow","green","purple","red","grey"],"door_color_assignment":["black","white"],"door_generator_assignment":[1,0],"goal":2,"start":1,"action_noise":0.15,"location_history":"[1,5,4,0,5,4,2]","action_history":"[0,0,0,0,0,0]","door_history":"[1,1,1,1,1,1]","location_rts":"[963,636,477,362,500,532]","trial_type":"two-door-navigation","trial_index":36,"time_elapsed":527784,"internal_node_id":"0.0-2.0-34.0"},{"group":"hexagon_tri","room_assignment":["blue","yellow","green","purple","red","grey"],"door_color_assignment":["black","white"],"door_generator_assignment":[1,0],"goal":0,"start":2,"action_noise":0.15,"location_history":"[2,3,4,2,1,3,4,2,3,4,2,3,2,1,3,4,0]","action_history":"[0,1,1,0,0,1,1,1,1,1,1,1,0,0,0,0]","door_history":"[1,0,0,1,1,0,0,0,0,0,0,0,1,1,1,1]","location_rts":"[482,967,394,378,355,805,353,560,471,388,442,447,464,221,310,371]","trial_type":"two-door-navigation","trial_index":37,"time_elapsed":554982,"internal_node_id":"0.0-2.0-35.0"},{"group":"hexagon_tri","room_assignment":["blue","yellow","green","purple","red","grey"],"door_color_assignment":["black","white"],"door_generator_assignment":[1,0],"goal":5,"start":0,"action_noise":0.15,"location_history":"[0,1,3,2,3,4,2,1,5]","action_history":"[0,0,0,1,1,1,1,1]","door_history":"[1,1,1,0,0,0,0,0]","location_rts":"[1106,537,572,415,420,1683,408,360]","trial_type":"two-door-navigation","trial_index":38,"time_elapsed":572122,"internal_node_id":"0.0-2.0-36.0"},{"group":"hexagon_tri","room_assignment":["blue","yellow","green","purple","red","grey"],"door_color_assignment":["black","white"],"door_generator_assignment":[1,0],"goal":2,"start":5,"action_noise":0.15,"location_history":"[5,0,1,5,0,5,0,5,0,5,4,0,5,4,0,5,4,0,1,5,0,5,4,0,1,5,0,1,5,4,0,5,0,5,0,5,0,1,3,4,2]","action_history":"[1,1,1,1,1,1,0,0,0,0,0,0,0,0,0,0,0,1,0,1,0,1,0,1,1,1,1,1,0,0,0,0,0,1,0,1,1,0,1,1]","door_history":"[0,0,0,0,0,0,1,1,1,1,1,1,1,1,1,1,1,0,1,0,1,0,1,0,0,0,0,0,1,1,1,1,1,0,1,0,0,1,0,0]","location_rts":"[624,470,537,399,375,489,271,347,354,616,399,1253,454,440,445,459,353,424,445,503,414,418,420,630,433,485,423,399,410,408,424,388,525,24,339,397,326,220,792,325]","trial_type":"two-door-navigation","trial_index":39,"time_elapsed":634215,"internal_node_id":"0.0-2.0-37.0"},{"group":"hexagon_tri","room_assignment":["blue","yellow","green","purple","red","grey"],"door_color_assignment":["black","white"],"door_generator_assignment":[1,0],"goal":1,"start":2,"action_noise":0.15,"location_history":"[2,3,4,2,3,4,2,1]","action_history":"[1,1,1,1,1,1,0]","door_history":"[0,0,0,0,0,0,1]","location_rts":"[1447,464,437,444,470,414,923]","trial_type":"two-door-navigation","trial_index":40,"time_elapsed":649454,"internal_node_id":"0.0-2.0-38.0"},{"group":"hexagon_tri","room_assignment":["blue","yellow","green","purple","red","grey"],"door_color_assignment":["black","white"],"door_generator_assignment":[1,0],"goal":4,"start":1,"action_noise":0.15,"location_history":"[1,3,4]","action_history":"[1,0]","door_history":"[0,1]","location_rts":"[1588,457]","trial_type":"two-door-navigation","trial_index":41,"time_elapsed":657043,"internal_node_id":"0.0-2.0-39.0"},{"group":"hexagon_tri","room_assignment":["blue","yellow","green","purple","red","grey"],"door_color_assignment":["black","white"],"door_generator_assignment":[1,0],"goal":3,"start":4,"action_noise":0.15,"location_history":"[4,0,5,4,0,1,5,4,2,3]","action_history":"[0,0,0,0,1,1,1,1,1]","door_history":"[1,1,1,1,0,0,0,0,0]","location_rts":"[883,1054,413,345,392,352,619,586,511]","trial_type":"two-door-navigation","trial_index":42,"time_elapsed":674866,"internal_node_id":"0.0-2.0-40.0"},{"group":"hexagon_tri","room_assignment":["blue","yellow","green","purple","red","grey"],"door_color_assignment":["black","white"],"door_generator_assignment":[1,0],"goal":5,"start":3,"action_noise":0.15,"location_history":"[3,4,2,3,2,1,5]","action_history":"[1,1,1,1,1,1]","door_history":"[0,0,0,0,0,0]","location_rts":"[1310,465,541,958,525,1351]","trial_type":"two-door-navigation","trial_index":43,"time_elapsed":689629,"internal_node_id":"0.0-2.0-41.0"},{"group":"hexagon_tri","room_assignment":["blue","yellow","green","purple","red","grey"],"door_color_assignment":["black","white"],"door_generator_assignment":[1,0],"goal":3,"start":5,"action_noise":0.15,"location_history":"[5,0,1,5,0,1,3]","action_history":"[1,1,1,1,1,0]","door_history":"[0,0,0,0,0,1]","location_rts":"[1034,553,944,378,565,431]","trial_type":"two-door-navigation","trial_index":44,"time_elapsed":703152,"internal_node_id":"0.0-2.0-42.0"},{"group":"hexagon_tri","room_assignment":["blue","yellow","green","purple","red","grey"],"door_color_assignment":["black","white"],"door_generator_assignment":[1,0],"goal":0,"start":3,"action_noise":0.15,"location_history":"[3,2,1,5,4,0]","action_history":"[0,0,0,0,0]","door_history":"[1,1,1,1,1]","location_rts":"[1114,331,426,554,411]","trial_type":"two-door-navigation","trial_index":45,"time_elapsed":714586,"internal_node_id":"0.0-2.0-43.0"},{"group":"hexagon_tri","room_assignment":["blue","yellow","green","purple","red","grey"],"door_color_assignment":["black","white"],"door_generator_assignment":[1,0],"goal":2,"start":0,"action_noise":0.15,"location_history":"[0,5,0,1,5,0,1,5,4,0,1,3,2]","action_history":"[0,1,1,1,1,1,1,0,0,0,0,0]","door_history":"[1,0,0,0,0,0,0,1,1,1,1,1]","location_rts":"[1438,330,359,409,392,443,600,480,314,402,422,435]","trial_type":"two-door-navigation","trial_index":46,"time_elapsed":736333,"internal_node_id":"0.0-2.0-44.0"},{"group":"hexagon_tri","room_assignment":["blue","yellow","green","purple","red","grey"],"door_color_assignment":["black","white"],"door_generator_assignment":[1,0],"goal":4,"start":2,"action_noise":0.15,"location_history":"[2,1,5,0,1,5,4]","action_history":"[0,1,1,1,1,0]","door_history":"[1,0,0,0,0,1]","location_rts":"[850,462,409,387,476,395]","trial_type":"two-door-navigation","trial_index":47,"time_elapsed":748934,"internal_node_id":"0.0-2.0-45.0"},{"group":"hexagon_tri","room_assignment":["blue","yellow","green","purple","red","grey"],"door_color_assignment":["black","white"],"door_generator_assignment":[1,0],"goal":1,"start":4,"action_noise":0.15,"location_history":"[4,0,5,0,5,0,5,0,5,0,1]","action_history":"[0,0,0,0,0,0,1,0,1,1]","door_history":"[1,1,1,1,1,1,0,1,0,0]","location_rts":"[2524,368,446,2103,500,402,387,352,356,320]","trial_type":"two-door-navigation","trial_index":48,"time_elapsed":770380,"internal_node_id":"0.0-2.0-46.0"},{"group":"hexagon_tri","room_assignment":["blue","yellow","green","purple","red","grey"],"door_color_assignment":["black","white"],"door_generator_assignment":[1,0],"goal":4,"start":1,"action_noise":0.15,"location_history":"[1,3,4]","action_history":"[1,1]","door_history":"[0,0]","location_rts":"[619,678]","trial_type":"two-door-navigation","trial_index":49,"time_elapsed":777217,"internal_node_id":"0.0-2.0-47.0"},{"group":"hexagon_tri","room_assignment":["blue","yellow","green","purple","red","grey"],"door_color_assignment":["black","white"],"door_generator_assignment":[1,0],"goal":3,"start":4,"action_noise":0.15,"location_history":"[4,2,3]","action_history":"[1,1]","door_history":"[0,0]","location_rts":"[514,488]","trial_type":"two-door-navigation","trial_index":50,"time_elapsed":783763,"internal_node_id":"0.0-2.0-48.0"},{"group":"hexagon_tri","room_assignment":["blue","yellow","green","purple","red","grey"],"door_color_assignment":["black","white"],"door_generator_assignment":[1,0],"goal":5,"start":3,"action_noise":0.15,"location_history":"[3,4,0,1,5]","action_history":"[1,1,1,1]","door_history":"[0,0,0,0]","location_rts":"[800,404,1324,470]","trial_type":"two-door-navigation","trial_index":51,"time_elapsed":794336,"internal_node_id":"0.0-2.0-49.0"},{"view_history":"[{\"page_index\":0,\"viewing_time\":110005}]","rt":110005,"trial_type":"instructions","trial_index":52,"time_elapsed":905342,"internal_node_id":"0.0-3.0"},{"view_history":"[{\"page_index\":0,\"viewing_time\":2078},{\"page_index\":1,\"viewing_time\":24805}]","rt":26884,"trial_type":"instructions","trial_index":53,"time_elapsed":933228,"internal_node_id":"0.0-4.0"},{"group":"hexagon_bi","fractal_assignment":["../images/gry_blk.png","../images/org_blu.png","../images/blu_wht.png","../images/cyn_red.png","../images/ylw_slt.png","../images/pnk_blu.png"],"mutagen_generator_assignment":[0,1],"goal":4,"start":0,"action_noise":0.15,"location_history":"[0,5,4]","action_history":"[0,1]","mutagen_history":"[0,1]","location_rts":"[7522,2723]","trial_type":"fractal-mutation","trial_index":54,"time_elapsed":949158,"internal_node_id":"0.0-5.0-0.0"},{"group":"hexagon_bi","fractal_assignment":["../images/gry_blk.png","../images/org_blu.png","../images/blu_wht.png","../images/cyn_red.png","../images/ylw_slt.png","../images/pnk_blu.png"],"mutagen_generator_assignment":[0,1],"goal":3,"start":4,"action_noise":0.15,"location_history":"[4,3]","action_history":"[0]","mutagen_history":"[0]","location_rts":"[1890]","trial_type":"fractal-mutation","trial_index":55,"time_elapsed":955646,"internal_node_id":"0.0-5.0-1.0"},{"group":"hexagon_bi","fractal_assignment":["../images/gry_blk.png","../images/org_blu.png","../images/blu_wht.png","../images/cyn_red.png","../images/ylw_slt.png","../images/pnk_blu.png"],"mutagen_generator_assignment":[0,1],"goal":5,"start":3,"action_noise":0.15,"location_history":"[3,4,5]","action_history":"[0,1]","mutagen_history":"[0,1]","location_rts":"[2455,1356]","trial_type":"fractal-mutation","trial_index":56,"time_elapsed":965132,"internal_node_id":"0.0-5.0-2.0"},{"group":"hexagon_bi","fractal_assignment":["../images/gry_blk.png","../images/org_blu.png","../images/blu_wht.png","../images/cyn_red.png","../images/ylw_slt.png","../images/pnk_blu.png"],"mutagen_generator_assignment":[0,1],"goal":2,"start":5,"action_noise":0.15,"location_history":"[5,0,5,0,5,4,3,4,5,4,3,2]","action_history":"[1,0,0,0,1,1,1,1,1,0,0]","mutagen_history":"[1,0,0,0,1,1,1,1,1,0,0]","location_rts":"[992,1581,995,1117,1040,653,813,787,918,1088,796]","trial_type":"fractal-mutation","trial_index":57,"time_elapsed":991559,"internal_node_id":"0.0-5.0-3.0"},{"group":"hexagon_bi","fractal_assignment":["../images/gry_blk.png","../images/org_blu.png","../images/blu_wht.png","../images/cyn_red.png","../images/ylw_slt.png","../images/pnk_blu.png"],"mutagen_generator_assignment":[0,1],"goal":1,"start":2,"action_noise":0.15,"location_history":"[2,1]","action_history":"[0]","mutagen_history":"[0]","location_rts":"[3911]","trial_type":"fractal-mutation","trial_index":58,"time_elapsed":1000054,"internal_node_id":"0.0-5.0-4.0"},{"group":"hexagon_bi","fractal_assignment":["../images/gry_blk.png","../images/org_blu.png","../images/blu_wht.png","../images/cyn_red.png","../images/ylw_slt.png","../images/pnk_blu.png"],"mutagen_generator_assignment":[0,1],"goal":4,"start":1,"action_noise":0.15,"location_history":"[1,2,1,2,3,2,1,0,1,0,1,0,1,0,1,2,1,2,1,0,1,2,1,0,5,0,5,0,5,4]","action_history":"[0,0,0,0,1,1,1,1,1,1,1,1,0,0,0,0,0,0,0,0,0,0,0,0,0,0,0,0,1]","mutagen_history":"[0,0,0,0,1,1,1,1,1,1,1,1,0,0,0,0,0,0,0,0,0,0,0,0,0,0,0,0,1]","location_rts":"[1245,1365,1147,1022,685,1245,1407,2146,1791,1980,947,687,721,447,522,574,546,569,563,666,522,686,444,473,694,498,541,501,652]","trial_type":"fractal-mutation","trial_index":59,"time_elapsed":1060608,"internal_node_id":"0.0-5.0-5.0"},{"group":"hexagon_bi","fractal_assignment":["../images/gry_blk.png","../images/org_blu.png","../images/blu_wht.png","../images/cyn_red.png","../images/ylw_slt.png","../images/pnk_blu.png"],"mutagen_generator_assignment":[0,1],"goal":1,"start":4,"action_noise":0.15,"location_history":"[4,3,4,3,4,5,4,5,4,5,0,1]","action_history":"[0,0,0,1,1,1,1,1,1,0,0]","mutagen_history":"[0,0,0,1,1,1,1,1,1,0,0]","location_rts":"[1446,669,1044,560,858,526,643,796,706,665,747]","trial_type":"fractal-mutation","trial_index":60,"time_elapsed":1084798,"internal_node_id":"0.0-5.0-6.0"},{"group":"hexagon_bi","fractal_assignment":["../images/gry_blk.png","../images/org_blu.png","../images/blu_wht.png","../images/cyn_red.png","../images/ylw_slt.png","../images/pnk_blu.png"],"mutagen_generator_assignment":[0,1],"goal":5,"start":1,"action_noise":0.15,"location_history":"[1,2,1,2,1,0,5]","action_history":"[0,0,0,0,0,0]","mutagen_history":"[0,0,0,0,0,0]","location_rts":"[1655,673,480,555,520,856]","trial_type":"fractal-mutation","trial_index":61,"time_elapsed":1099508,"internal_node_id":"0.0-5.0-7.0"},{"group":"hexagon_bi","fractal_assignment":["../images/gry_blk.png","../images/org_blu.png","../images/blu_wht.png","../images/cyn_red.png","../images/ylw_slt.png","../images/pnk_blu.png"],"mutagen_generator_assignment":[0,1],"goal":0,"start":5,"action_noise":0.15,"location_history":"[5,0]","action_history":"[0]","mutagen_history":"[0]","location_rts":"[1224]","trial_type":"fractal-mutation","trial_index":62,"time_elapsed":1105313,"internal_node_id":"0.0-5.0-8.0"},{"group":"hexagon_bi","fractal_assignment":["../images/gry_blk.png","../images/org_blu.png","../images/blu_wht.png","../images/cyn_red.png","../images/ylw_slt.png","../images/pnk_blu.png"],"mutagen_generator_assignment":[0,1],"goal":2,"start":0,"action_noise":0.15,"location_history":"[0,5,4,5,4,3,2]","action_history":"[1,1,1,1,0,0]","mutagen_history":"[1,1,1,1,0,0]","location_rts":"[1391,638,565,532,514,807]","trial_type":"fractal-mutation","trial_index":63,"time_elapsed":1119878,"internal_node_id":"0.0-5.0-9.0"},{"group":"hexagon_bi","fractal_assignment":["../images/gry_blk.png","../images/org_blu.png","../images/blu_wht.png","../images/cyn_red.png","../images/ylw_slt.png","../images/pnk_blu.png"],"mutagen_generator_assignment":[0,1],"goal":3,"start":2,"action_noise":0.15,"location_history":"[2,1,2,1,2,1,0,5,4,5,4,5,0,5,0,5,0,5,0,5,0,1,0,1,0,1,2,3]","action_history":"[0,0,0,0,0,1,1,1,1,1,1,0,0,0,0,0,0,0,0,0,1,1,1,1,1,1,1]","mutagen_history":"[0,0,0,0,0,1,1,1,1,1,1,0,0,0,0,0,0,0,0,0,1,1,1,1,1,1,1]","location_rts":"[712,922,916,1013,1240,474,706,543,492,639,641,510,761,934,593,674,582,511,450,497,633,593,588,766,639,450,945]","trial_type":"fractal-mutation","trial_index":64,"time_elapsed":1171462,"internal_node_id":"0.0-5.0-10.0"},{"group":"hexagon_bi","fractal_assignment":["../images/gry_blk.png","../images/org_blu.png","../images/blu_wht.png","../images/cyn_red.png","../images/ylw_slt.png","../images/pnk_blu.png"],"mutagen_generator_assignment":[0,1],"goal":0,"start":3,"action_noise":0.15,"location_history":"[3,4,5,0]","action_history":"[0,1,0]","mutagen_history":"[0,1,0]","location_rts":"[1169,493,834]","trial_type":"fractal-mutation","trial_index":65,"time_elapsed":1180744,"internal_node_id":"0.0-5.0-11.0"},{"group":"hexagon_bi","fractal_assignment":["../images/gry_blk.png","../images/org_blu.png","../images/blu_wht.png","../images/cyn_red.png","../images/ylw_slt.png","../images/pnk_blu.png"],"mutagen_generator_assignment":[0,1],"goal":2,"start":0,"action_noise":0.15,"location_history":"[0,5,4,3,4,5,0,1,2]","action_history":"[0,0,0,0,0,0,0,0]","mutagen_history":"[0,0,0,0,0,0,0,0]","location_rts":"[708,859,1339,521,500,410,872,472]","trial_type":"fractal-mutation","trial_index":66,"time_elapsed":1198493,"internal_node_id":"0.0-5.0-12.0"},{"group":"hexagon_bi","fractal_assignment":["../images/gry_blk.png","../images/org_blu.png","../images/blu_wht.png","../images/cyn_red.png","../images/ylw_slt.png","../images/pnk_blu.png"],"mutagen_generator_assignment":[0,1],"goal":5,"start":2,"action_noise":0.15,"location_history":"[2,1,0,1,0,1,0,5]","action_history":"[0,1,1,1,1,1,0]","mutagen_history":"[0,1,1,1,1,1,0]","location_rts":"[825,1807,422,453,680,711,455]","trial_type":"fractal-mutation","trial_index":67,"time_elapsed":1215079,"internal_node_id":"0.0-5.0-13.0"},{"group":"hexagon_bi","fractal_assignment":["../images/gry_blk.png","../images/org_blu.png","../images/blu_wht.png","../images/cyn_red.png","../images/ylw_slt.png","../images/pnk_blu.png"],"mutagen_generator_assignment":[0,1],"goal":4,"start":5,"action_noise":0.15,"location_history":"[5,0,5,0,5,0,1,0,1,2,1,0,1,2,3,2,3,2,1,2,1,2,1,2,1,2,1,2,1,2,1,2,3,4]","action_history":"[0,0,0,0,1,1,1,1,1,1,1,1,1,1,1,1,1,0,0,0,0,0,0,0,0,0,0,0,0,0,0,1,0]","mutagen_history":"[0,0,0,0,1,1,1,1,1,1,1,1,1,1,1,1,1,0,0,0,0,0,0,0,0,0,0,0,0,0,0,1,0]","location_rts":"[1073,724,510,806,599,483,521,445,671,911,770,698,504,56,487,632,589,1711,694,878,458,587,354,377,483,451,486,681,446,404,572,483,894]","trial_type":"fractal-mutation","trial_index":68,"time_elapsed":1275297,"internal_node_id":"0.0-5.0-14.0"},{"group":"hexagon_bi","fractal_assignment":["../images/gry_blk.png","../images/org_blu.png","../images/blu_wht.png","../images/cyn_red.png","../images/ylw_slt.png","../images/pnk_blu.png"],"mutagen_generator_assignment":[0,1],"goal":3,"start":4,"action_noise":0.15,"location_history":"[4,5,4,5,0,5,0,5,4,5,4,5,0,1,2,3]","action_history":"[0,1,1,0,0,0,0,1,1,1,1,0,1,0,1]","mutagen_history":"[0,1,1,0,0,0,0,1,1,1,1,0,1,0,1]","location_rts":"[974,454,611,457,485,531,532,713,833,499,558,500,440,506,441]","trial_type":"fractal-mutation","trial_index":69,"time_elapsed":1303642,"internal_node_id":"0.0-5.0-15.0"},{"group":"hexagon_bi","fractal_assignment":["../images/gry_blk.png","../images/org_blu.png","../images/blu_wht.png","../images/cyn_red.png","../images/ylw_slt.png","../images/pnk_blu.png"],"mutagen_generator_assignment":[0,1],"goal":1,"start":3,"action_noise":0.15,"location_history":"[3,4,3,2,1]","action_history":"[0,0,0,0]","mutagen_history":"[0,0,0,0]","location_rts":"[1017,992,560,664]","trial_type":"fractal-mutation","trial_index":70,"time_elapsed":1314683,"internal_node_id":"0.0-5.0-16.0"},{"group":"hexagon_bi","fractal_assignment":["../images/gry_blk.png","../images/org_blu.png","../images/blu_wht.png","../images/cyn_red.png","../images/ylw_slt.png","../images/pnk_blu.png"],"mutagen_generator_assignment":[0,1],"goal":5,"start":1,"action_noise":0.15,"location_history":"[1,2,3,4,3,4,5]","action_history":"[0,0,0,0,0,1]","mutagen_history":"[0,0,0,0,0,1]","location_rts":"[834,598,879,683,754,446]","trial_type":"fractal-mutation","trial_index":71,"time_elapsed":1328888,"internal_node_id":"0.0-5.0-17.0"},{"group":"hexagon_bi","fractal_assignment":["../images/gry_blk.png","../images/org_blu.png","../images/blu_wht.png","../images/cyn_red.png","../images/ylw_slt.png","../images/pnk_blu.png"],"mutagen_generator_assignment":[0,1],"goal":4,"start":5,"action_noise":0.15,"location_history":"[5,4]","action_history":"[1]","mutagen_history":"[1]","location_rts":"[1373]","trial_type":"fractal-mutation","trial_index":72,"time_elapsed":1334869,"internal_node_id":"0.0-5.0-18.0"},{"group":"hexagon_bi","fractal_assignment":["../images/gry_blk.png","../images/org_blu.png","../images/blu_wht.png","../images/cyn_red.png","../images/ylw_slt.png","../images/pnk_blu.png"],"mutagen_generator_assignment":[0,1],"goal":0,"start":4,"action_noise":0.15,"location_history":"[4,5,4,5,4,3,2,1,2,1,2,1,2,1,2,3,2,1,0]","action_history":"[1,1,1,1,0,0,0,0,0,0,0,1,0,1,0,1,0,1]","mutagen_history":"[1,1,1,1,0,0,0,0,0,0,0,1,0,1,0,1,0,1]","location_rts":"[913,638,767,443,460,538,502,414,496,460,493,701,992,451,825,627,610,663]","trial_type":"fractal-mutation","trial_index":73,"time_elapsed":1368891,"internal_node_id":"0.0-5.0-19.0"},{"group":"hexagon_bi","fractal_assignment":["../images/gry_blk.png","../images/org_blu.png","../images/blu_wht.png","../images/cyn_red.png","../images/ylw_slt.png","../images/pnk_blu.png"],"mutagen_generator_assignment":[0,1],"goal":1,"start":0,"action_noise":0.15,"location_history":"[0,5,4,5,0,5,4,3,2,1]","action_history":"[1,1,1,0,0,1,0,1,0]","mutagen_history":"[1,1,1,0,0,1,0,1,0]","location_rts":"[937,865,529,885,1253,657,500,909,463]","trial_type":"fractal-mutation","trial_index":74,"time_elapsed":1389443,"internal_node_id":"0.0-5.0-20.0"},{"group":"hexagon_bi","fractal_assignment":["../images/gry_blk.png","../images/org_blu.png","../images/blu_wht.png","../images/cyn_red.png","../images/ylw_slt.png","../images/pnk_blu.png"],"mutagen_generator_assignment":[0,1],"goal":3,"start":1,"action_noise":0.15,"location_history":"[1,0,5,4,3]","action_history":"[1,0,1,0]","mutagen_history":"[1,0,1,0]","location_rts":"[1284,478,516,380]","trial_type":"fractal-mutation","trial_index":75,"time_elapsed":1399974,"internal_node_id":"0.0-5.0-21.0"},{"group":"hexagon_bi","fractal_assignment":["../images/gry_blk.png","../images/org_blu.png","../images/blu_wht.png","../images/cyn_red.png","../images/ylw_slt.png","../images/pnk_blu.png"],"mutagen_generator_assignment":[0,1],"goal":2,"start":3,"action_noise":0.15,"location_history":"[3,2]","action_history":"[1]","mutagen_history":"[1]","location_rts":"[516]","trial_type":"fractal-mutation","trial_index":76,"time_elapsed":1405174,"internal_node_id":"0.0-5.0-22.0"},{"group":"hexagon_bi","fractal_assignment":["../images/gry_blk.png","../images/org_blu.png","../images/blu_wht.png","../images/cyn_red.png","../images/ylw_slt.png","../images/pnk_blu.png"],"mutagen_generator_assignment":[0,1],"goal":0,"start":2,"action_noise":0.15,"location_history":"[2,3,4,3,4,5,0]","action_history":"[1,0,1,0,1,0]","mutagen_history":"[1,0,1,0,1,0]","location_rts":"[693,1762,888,541,612,388]","trial_type":"fractal-mutation","trial_index":77,"time_elapsed":1420077,"internal_node_id":"0.0-5.0-23.0"},{"group":"hexagon_bi","fractal_assignment":["../images/gry_blk.png","../images/org_blu.png","../images/blu_wht.png","../images/cyn_red.png","../images/ylw_slt.png","../images/pnk_blu.png"],"mutagen_generator_assignment":[0,1],"goal":3,"start":0,"action_noise":0.15,"location_history":"[0,1,2,1,2,3]","action_history":"[1,0,1,0,1]","mutagen_history":"[1,0,1,0,1]","location_rts":"[833,550,439,344,305]","trial_type":"fractal-mutation","trial_index":78,"time_elapsed":1431519,"internal_node_id":"0.0-5.0-24.0"},{"group":"hexagon_bi","fractal_assignment":["../images/gry_blk.png","../images/org_blu.png","../images/blu_wht.png","../images/cyn_red.png","../images/ylw_slt.png","../images/pnk_blu.png"],"mutagen_generator_assignment":[0,1],"goal":1,"start":3,"action_noise":0.15,"location_history":"[3,2,1]","action_history":"[1,0]","mutagen_history":"[1,0]","location_rts":"[471,410]","trial_type":"fractal-mutation","trial_index":79,"time_elapsed":1438060,"internal_node_id":"0.0-5.0-25.0"},{"group":"hexagon_bi","fractal_assignment":["../images/gry_blk.png","../images/org_blu.png","../images/blu_wht.png","../images/cyn_red.png","../images/ylw_slt.png","../images/pnk_blu.png"],"mutagen_generator_assignment":[0,1],"goal":2,"start":1,"action_noise":0.15,"location_history":"[1,0,1,2]","action_history":"[1,0,1]","mutagen_history":"[1,0,1]","location_rts":"[521,357,487]","trial_type":"fractal-mutation","trial_index":80,"time_elapsed":1446286,"internal_node_id":"0.0-5.0-26.0"},{"group":"hexagon_bi","fractal_assignment":["../images/gry_blk.png","../images/org_blu.png","../images/blu_wht.png","../images/cyn_red.png","../images/ylw_slt.png","../images/pnk_blu.png"],"mutagen_generator_assignment":[0,1],"goal":5,"start":2,"action_noise":0.15,"location_history":"[2,3,4,5]","action_history":"[1,0,1]","mutagen_history":"[1,0,1]","location_rts":"[722,382,554]","trial_type":"fractal-mutation","trial_index":81,"time_elapsed":1454748,"internal_node_id":"0.0-5.0-27.0"},{"group":"hexagon_bi","fractal_assignment":["../images/gry_blk.png","../images/org_blu.png","../images/blu_wht.png","../images/cyn_red.png","../images/ylw_slt.png","../images/pnk_blu.png"],"mutagen_generator_assignment":[0,1],"goal":4,"start":5,"action_noise":0.15,"location_history":"[5,4]","action_history":"[1]","mutagen_history":"[1]","location_rts":"[375]","trial_type":"fractal-mutation","trial_index":82,"time_elapsed":1459772,"internal_node_id":"0.0-5.0-28.0"},{"group":"hexagon_bi","fractal_assignment":["../images/gry_blk.png","../images/org_blu.png","../images/blu_wht.png","../images/cyn_red.png","../images/ylw_slt.png","../images/pnk_blu.png"],"mutagen_generator_assignment":[0,1],"goal":5,"start":4,"action_noise":0.15,"location_history":"[4,3,4,3,2,1,2,1,0,1,0,5]","action_history":"[1,0,0,1,0,1,0,1,0,1,0]","mutagen_history":"[1,0,0,1,0,1,0,1,0,1,0]","location_rts":"[526,448,780,378,5049,396,548,1132,3184,451,718]","trial_type":"fractal-mutation","trial_index":83,"time_elapsed":1488967,"internal_node_id":"0.0-5.0-29.0"},{"group":"hexagon_bi","fractal_assignment":["../images/gry_blk.png","../images/org_blu.png","../images/blu_wht.png","../images/cyn_red.png","../images/ylw_slt.png","../images/pnk_blu.png"],"mutagen_generator_assignment":[0,1],"goal":3,"start":5,"action_noise":0.15,"location_history":"[5,4,3]","action_history":"[1,0]","mutagen_history":"[1,0]","location_rts":"[1073,1025]","trial_type":"fractal-mutation","trial_index":84,"time_elapsed":1496738,"internal_node_id":"0.0-5.0-30.0"},{"group":"hexagon_bi","fractal_assignment":["../images/gry_blk.png","../images/org_blu.png","../images/blu_wht.png","../images/cyn_red.png","../images/ylw_slt.png","../images/pnk_blu.png"],"mutagen_generator_assignment":[0,1],"goal":0,"start":3,"action_noise":0.15,"location_history":"[3,4,5,0]","action_history":"[0,1,0]","mutagen_history":"[0,1,0]","location_rts":"[964,811,663]","trial_type":"fractal-mutation","trial_index":85,"time_elapsed":1505895,"internal_node_id":"0.0-5.0-31.0"},{"group":"hexagon_bi","fractal_assignment":["../images/gry_blk.png","../images/org_blu.png","../images/blu_wht.png","../images/cyn_red.png","../images/ylw_slt.png","../images/pnk_blu.png"],"mutagen_generator_assignment":[0,1],"goal":4,"start":0,"action_noise":0.15,"location_history":"[0,1,2,3,4]","action_history":"[1,0,1,0]","mutagen_history":"[1,0,1,0]","location_rts":"[1021,426,536,473]","trial_type":"fractal-mutation","trial_index":86,"time_elapsed":1516194,"internal_node_id":"0.0-5.0-32.0"},{"group":"hexagon_bi","fractal_assignment":["../images/gry_blk.png","../images/org_blu.png","../images/blu_wht.png","../images/cyn_red.png","../images/ylw_slt.png","../images/pnk_blu.png"],"mutagen_generator_assignment":[0,1],"goal":1,"start":4,"action_noise":0.15,"location_history":"[4,3,2,1]","action_history":"[0,1,0]","mutagen_history":"[0,1,0]","location_rts":"[802,370,528]","trial_type":"fractal-mutation","trial_index":87,"time_elapsed":1524626,"internal_node_id":"0.0-5.0-33.0"},{"group":"hexagon_bi","fractal_assignment":["../images/gry_blk.png","../images/org_blu.png","../images/blu_wht.png","../images/cyn_red.png","../images/ylw_slt.png","../images/pnk_blu.png"],"mutagen_generator_assignment":[0,1],"goal":2,"start":1,"action_noise":0.15,"location_history":"[1,0,5,4,3,2]","action_history":"[1,0,1,0,1]","mutagen_history":"[1,0,1,0,1]","location_rts":"[363,674,437,685,650]","trial_type":"fractal-mutation","trial_index":88,"time_elapsed":1536404,"internal_node_id":"0.0-5.0-34.0"},{"group":"hexagon_bi","fractal_assignment":["../images/gry_blk.png","../images/org_blu.png","../images/blu_wht.png","../images/cyn_red.png","../images/ylw_slt.png","../images/pnk_blu.png"],"mutagen_generator_assignment":[0,1],"goal":0,"start":2,"action_noise":0.15,"location_history":"[2,3,2,3,2,1,0]","action_history":"[0,1,0,1,0,1]","mutagen_history":"[0,1,0,1,0,1]","location_rts":"[865,582,982,664,729,613]","trial_type":"fractal-mutation","trial_index":89,"time_elapsed":1550896,"internal_node_id":"0.0-5.0-35.0"},{"group":"hexagon_bi","fractal_assignment":["../images/gry_blk.png","../images/org_blu.png","../images/blu_wht.png","../images/cyn_red.png","../images/ylw_slt.png","../images/pnk_blu.png"],"mutagen_generator_assignment":[0,1],"goal":5,"start":0,"action_noise":0.15,"location_history":"[0,5]","action_history":"[0]","mutagen_history":"[0]","location_rts":"[564]","trial_type":"fractal-mutation","trial_index":90,"time_elapsed":1556012,"internal_node_id":"0.0-5.0-36.0"},{"group":"hexagon_bi","fractal_assignment":["../images/gry_blk.png","../images/org_blu.png","../images/blu_wht.png","../images/cyn_red.png","../images/ylw_slt.png","../images/pnk_blu.png"],"mutagen_generator_assignment":[0,1],"goal":2,"start":5,"action_noise":0.15,"location_history":"[5,4,5,4,3,2]","action_history":"[1,0,1,0,1]","mutagen_history":"[1,0,1,0,1]","location_rts":"[1017,596,900,386,460]","trial_type":"fractal-mutation","trial_index":91,"time_elapsed":1568388,"internal_node_id":"0.0-5.0-37.0"},{"group":"hexagon_bi","fractal_assignment":["../images/gry_blk.png","../images/org_blu.png","../images/blu_wht.png","../images/cyn_red.png","../images/ylw_slt.png","../images/pnk_blu.png"],"mutagen_generator_assignment":[0,1],"goal":1,"start":2,"action_noise":0.15,"location_history":"[2,3,2,3,4,5,4,5,0,5,0,1]","action_history":"[1,0,1,0,1,0,1,0,1,0,1]","mutagen_history":"[1,0,1,0,1,0,1,0,1,0,1]","location_rts":"[826,595,427,315,372,428,743,495,456,457,425]","trial_type":"fractal-mutation","trial_index":92,"time_elapsed":1589408,"internal_node_id":"0.0-5.0-38.0"},{"group":"hexagon_bi","fractal_assignment":["../images/gry_blk.png","../images/org_blu.png","../images/blu_wht.png","../images/cyn_red.png","../images/ylw_slt.png","../images/pnk_blu.png"],"mutagen_generator_assignment":[0,1],"goal":4,"start":1,"action_noise":0.15,"location_history":"[1,0,1,0,1,0,5,4]","action_history":"[1,0,1,0,1,0,1]","mutagen_history":"[1,0,1,0,1,0,1]","location_rts":"[716,523,614,358,773,441,620]","trial_type":"fractal-mutation","trial_index":93,"time_elapsed":1604781,"internal_node_id":"0.0-5.0-39.0"},{"group":"hexagon_bi","fractal_assignment":["../images/gry_blk.png","../images/org_blu.png","../images/blu_wht.png","../images/cyn_red.png","../images/ylw_slt.png","../images/pnk_blu.png"],"mutagen_generator_assignment":[0,1],"goal":3,"start":4,"action_noise":0.15,"location_history":"[4,3]","action_history":"[0]","mutagen_history":"[0]","location_rts":"[417]","trial_type":"fractal-mutation","trial_index":94,"time_elapsed":1609774,"internal_node_id":"0.0-5.0-40.0"},{"group":"hexagon_bi","fractal_assignment":["../images/gry_blk.png","../images/org_blu.png","../images/blu_wht.png","../images/cyn_red.png","../images/ylw_slt.png","../images/pnk_blu.png"],"mutagen_generator_assignment":[0,1],"goal":5,"start":3,"action_noise":0.15,"location_history":"[3,4,5]","action_history":"[1,0]","mutagen_history":"[1,0]","location_rts":"[1047,1047]","trial_type":"fractal-mutation","trial_index":95,"time_elapsed":1617511,"internal_node_id":"0.0-5.0-41.0"},{"group":"hexagon_bi","fractal_assignment":["../images/gry_blk.png","../images/org_blu.png","../images/blu_wht.png","../images/cyn_red.png","../images/ylw_slt.png","../images/pnk_blu.png"],"mutagen_generator_assignment":[0,1],"goal":3,"start":5,"action_noise":0.15,"location_history":"[5,4,3]","action_history":"[1,0]","mutagen_history":"[1,0]","location_rts":"[358,608]","trial_type":"fractal-mutation","trial_index":96,"time_elapsed":1624136,"internal_node_id":"0.0-5.0-42.0"},{"group":"hexagon_bi","fractal_assignment":["../images/gry_blk.png","../images/org_blu.png","../images/blu_wht.png","../images/cyn_red.png","../images/ylw_slt.png","../images/pnk_blu.png"],"mutagen_generator_assignment":[0,1],"goal":0,"start":3,"action_noise":0.15,"location_history":"[3,2,1,0]","action_history":"[1,0,1]","mutagen_history":"[1,0,1]","location_rts":"[542,610,419]","trial_type":"fractal-mutation","trial_index":97,"time_elapsed":1632481,"internal_node_id":"0.0-5.0-43.0"},{"group":"hexagon_bi","fractal_assignment":["../images/gry_blk.png","../images/org_blu.png","../images/blu_wht.png","../images/cyn_red.png","../images/ylw_slt.png","../images/pnk_blu.png"],"mutagen_generator_assignment":[0,1],"goal":2,"start":0,"action_noise":0.15,"location_history":"[0,1,2]","action_history":"[1,0]","mutagen_history":"[1,0]","location_rts":"[1165,265]","trial_type":"fractal-mutation","trial_index":98,"time_elapsed":1639583,"internal_node_id":"0.0-5.0-44.0"},{"group":"hexagon_bi","fractal_assignment":["../images/gry_blk.png","../images/org_blu.png","../images/blu_wht.png","../images/cyn_red.png","../images/ylw_slt.png","../images/pnk_blu.png"],"mutagen_generator_assignment":[0,1],"goal":4,"start":2,"action_noise":0.15,"location_history":"[2,3,4]","action_history":"[1,0]","mutagen_history":"[1,0]","location_rts":"[1615,815]","trial_type":"fractal-mutation","trial_index":99,"time_elapsed":1647757,"internal_node_id":"0.0-5.0-45.0"},{"group":"hexagon_bi","fractal_assignment":["../images/gry_blk.png","../images/org_blu.png","../images/blu_wht.png","../images/cyn_red.png","../images/ylw_slt.png","../images/pnk_blu.png"],"mutagen_generator_assignment":[0,1],"goal":1,"start":4,"action_noise":0.15,"location_history":"[4,5,4,3,2,1]","action_history":"[1,1,0,1,0]","mutagen_history":"[1,1,0,1,0]","location_rts":"[1296,3216,467,658,416]","trial_type":"fractal-mutation","trial_index":100,"time_elapsed":1662807,"internal_node_id":"0.0-5.0-46.0"},{"group":"hexagon_bi","fractal_assignment":["../images/gry_blk.png","../images/org_blu.png","../images/blu_wht.png","../images/cyn_red.png","../images/ylw_slt.png","../images/pnk_blu.png"],"mutagen_generator_assignment":[0,1],"goal":4,"start":1,"action_noise":0.15,"location_history":"[1,0,5,4]","action_history":"[1,0,1]","mutagen_history":"[1,0,1]","location_rts":"[830,388,412]","trial_type":"fractal-mutation","trial_index":101,"time_elapsed":1671263,"internal_node_id":"0.0-5.0-47.0"},{"group":"hexagon_bi","fractal_assignment":["../images/gry_blk.png","../images/org_blu.png","../images/blu_wht.png","../images/cyn_red.png","../images/ylw_slt.png","../images/pnk_blu.png"],"mutagen_generator_assignment":[0,1],"goal":3,"start":4,"action_noise":0.15,"location_history":"[4,5,0,1,2,3]","action_history":"[1,0,1,0,1]","mutagen_history":"[1,0,1,0,1]","location_rts":"[576,525,460,503,721]","trial_type":"fractal-mutation","trial_index":102,"time_elapsed":1683036,"internal_node_id":"0.0-5.0-48.0"},{"group":"hexagon_bi","fractal_assignment":["../images/gry_blk.png","../images/org_blu.png","../images/blu_wht.png","../images/cyn_red.png","../images/ylw_slt.png","../images/pnk_blu.png"],"mutagen_generator_assignment":[0,1],"goal":5,"start":3,"action_noise":0.15,"location_history":"[3,4,3,2,1,2,1,0,5]","action_history":"[1,0,1,0,1,0,1,0]","mutagen_history":"[1,0,1,0,1,0,1,0]","location_rts":"[562,507,539,409,515,637,593,692]","trial_type":"fractal-mutation","trial_index":103,"time_elapsed":1699674,"internal_node_id":"0.0-5.0-49.0"},{"view_history":"[{\"page_index\":0,\"viewing_time\":9804}]","rt":9804,"trial_type":"instructions","trial_index":104,"time_elapsed":1710479,"internal_node_id":"0.0-6.0"},{"rt":2842,"responses":"{\"Q0\":\"\"}","trial_type":"survey-text","trial_index":105,"time_elapsed":1714328,"internal_node_id":"0.0-7.0"}]