[{"view_history":"[{\"page_index\":0,\"viewing_time\":88708},{\"page_index\":1,\"viewing_time\":39728},{\"page_index\":2,\"viewing_time\":59645},{\"page_index\":3,\"viewing_time\":47530}]","rt":235612,"trial_type":"instructions","trial_index":0,"time_elapsed":235612,"internal_node_id":"0.0-0.0"},{"view_history":"[{\"page_index\":0,\"viewing_time\":2542},{\"page_index\":1,\"viewing_time\":67503}]","rt":70045,"trial_type":"instructions","trial_index":1,"time_elapsed":306659,"internal_node_id":"0.0-1.0"},{"group":"hexagon_tri","room_assignment":["purple","red","yellow","green","grey","blue"],"door_color_assignment":["black","white"],"door_generator_assignment":[1,0],"goal":4,"start":0,"action_noise":0.15,"location_history":"[0,1,3,4]","action_history":"[1,0,1]","door_history":"[0,1,0]","location_rts":"[3316,15898,7419]","trial_type":"two-door-navigation","trial_index":2,"time_elapsed":339819,"internal_node_id":"0.0-2.0-0.0"},{"group":"hexagon_tri","room_assignment":["purple","red","yellow","green","grey","blue"],"door_color_assignment":["black","white"],"door_generator_assignment":[1,0],"goal":3,"start":4,"action_noise":0.15,"location_history":"[4,0,1,3]","action_history":"[0,0,0]","door_history":"[1,1,1]","location_rts":"[4283,13683,775]","trial_type":"two-door-navigation","trial_index":3,"time_elapsed":365089,"internal_node_id":"0.0-2.0-1.0"},{"group":"hexagon_tri","room_assignment":["purple","red","yellow","green","grey","blue"],"door_color_assignment":["black","white"],"door_generator_assignment":[1,0],"goal":5,"start":3,"action_noise":0.15,"location_history":"[3,4,2,3,4,2,1,3,2,1,5]","action_history":"[1,1,1,1,0,0,0,0,0,1]","door_history":"[0,0,0,0,1,1,1,1,1,0]","location_rts":"[9516,3846,2331,2861,1135,924,542,1277,492,926]","trial_type":"two-door-navigation","trial_index":4,"time_elapsed":402523,"internal_node_id":"0.0-2.0-2.0"},{"group":"hexagon_tri","room_assignment":["purple","red","yellow","green","grey","blue"],"door_color_assignment":["black","white"],"door_generator_assignment":[1,0],"goal":2,"start":5,"action_noise":0.15,"location_history":"[5,0,5,0,5,4,2]","action_history":"[1,1,1,1,1,1]","door_history":"[0,0,0,0,0,0]","location_rts":"[3208,6110,8287,3903,956,5576]","trial_type":"two-door-navigation","trial_index":5,"time_elapsed":440128,"internal_node_id":"0.0-2.0-3.0"},{"group":"hexagon_tri","room_assignment":["purple","red","yellow","green","grey","blue"],"door_color_assignment":["black","white"],"door_generator_assignment":[1,0],"goal":1,"start":2,"action_noise":0.15,"location_history":"[2,1]","action_history":"[0]","door_history":"[1]","location_rts":"[2373]","trial_type":"two-door-navigation","trial_index":6,"time_elapsed":447009,"internal_node_id":"0.0-2.0-4.0"},{"group":"hexagon_tri","room_assignment":["purple","red","yellow","green","grey","blue"],"door_color_assignment":["black","white"],"door_generator_assignment":[1,0],"goal":4,"start":1,"action_noise":0.15,"location_history":"[1,5,4]","action_history":"[1,1]","door_history":"[0,0]","location_rts":"[4796,607]","trial_type":"two-door-navigation","trial_index":7,"time_elapsed":457932,"internal_node_id":"0.0-2.0-5.0"},{"group":"hexagon_tri","room_assignment":["purple","red","yellow","green","grey","blue"],"door_color_assignment":["black","white"],"door_generator_assignment":[1,0],"goal":1,"start":4,"action_noise":0.15,"location_history":"[4,0,5,4,0,5,4,0,1]","action_history":"[0,0,0,0,0,0,0,1]","door_history":"[1,1,1,1,1,1,1,0]","location_rts":"[1882,410,419,824,4104,633,404,1639]","trial_type":"two-door-navigation","trial_index":8,"time_elapsed":479801,"internal_node_id":"0.0-2.0-6.0"},{"group":"hexagon_tri","room_assignment":["purple","red","yellow","green","grey","blue"],"door_color_assignment":["black","white"],"door_generator_assignment":[1,0],"goal":5,"start":1,"action_noise":0.15,"location_history":"[1,5]","action_history":"[1]","door_history":"[0]","location_rts":"[16172]","trial_type":"two-door-navigation","trial_index":9,"time_elapsed":500483,"internal_node_id":"0.0-2.0-7.0"},{"group":"hexagon_tri","room_assignment":["purple","red","yellow","green","grey","blue"],"door_color_assignment":["black","white"],"door_generator_assignment":[1,0],"goal":0,"start":5,"action_noise":0.15,"location_history":"[5,0]","action_history":"[0]","door_history":"[1]","location_rts":"[4564]","trial_type":"two-door-navigation","trial_index":10,"time_elapsed":509556,"internal_node_id":"0.0-2.0-8.0"},{"group":"hexagon_tri","room_assignment":["purple","red","yellow","green","grey","blue"],"door_color_assignment":["black","white"],"door_generator_assignment":[1,0],"goal":2,"start":0,"action_noise":0.15,"location_history":"[0,1,3,4,2]","action_history":"[1,1,1,1]","door_history":"[0,0,0,0]","location_rts":"[4050,402,410,578]","trial_type":"two-door-navigation","trial_index":11,"time_elapsed":522536,"internal_node_id":"0.0-2.0-9.0"},{"group":"hexagon_tri","room_assignment":["purple","red","yellow","green","grey","blue"],"door_color_assignment":["black","white"],"door_generator_assignment":[1,0],"goal":3,"start":2,"action_noise":0.15,"location_history":"[2,1,3]","action_history":"[0,0]","door_history":"[1,1]","location_rts":"[4553,421]","trial_type":"two-door-navigation","trial_index":12,"time_elapsed":533024,"internal_node_id":"0.0-2.0-10.0"},{"group":"hexagon_tri","room_assignment":["purple","red","yellow","green","grey","blue"],"door_color_assignment":["black","white"],"door_generator_assignment":[1,0],"goal":0,"start":3,"action_noise":0.15,"location_history":"[3,4,2,3,4,2,3,4,0]","action_history":"[1,1,1,1,1,1,1,0]","door_history":"[0,0,0,0,0,0,0,1]","location_rts":"[9829,382,375,508,574,366,413,649]","trial_type":"two-door-navigation","trial_index":13,"time_elapsed":557668,"internal_node_id":"0.0-2.0-11.0"},{"group":"hexagon_tri","room_assignment":["purple","red","yellow","green","grey","blue"],"door_color_assignment":["black","white"],"door_generator_assignment":[1,0],"goal":2,"start":0,"action_noise":0.15,"location_history":"[0,1,5,0,5,4,0,5,4,0,1,5,0,1,5,0,5,4,0,5,0,1,3,4,0,1,3,4,0,1,5,4,2]","action_history":"[1,1,1,0,0,0,0,0,0,1,1,1,1,1,1,0,0,0,0,0,1,1,1,0,1,0,1,0,1,1,1,1]","door_history":"[0,0,0,1,1,1,1,1,1,0,0,0,0,0,0,1,1,1,1,1,0,0,0,1,0,1,0,1,0,0,0,0]","location_rts":"[2084,910,689,322,439,798,643,547,798,471,395,398,430,389,317,770,2079,593,369,536,898,574,659,1495,648,1343,865,703,626,417,367,440]","trial_type":"two-door-navigation","trial_index":14,"time_elapsed":616383,"internal_node_id":"0.0-2.0-12.0"},{"group":"hexagon_tri","room_assignment":["purple","red","yellow","green","grey","blue"],"door_color_assignment":["black","white"],"door_generator_assignment":[1,0],"goal":5,"start":2,"action_noise":0.15,"location_history":"[2,1,3,2,1,3,2,1,5]","action_history":"[0,0,0,0,0,0,0,1]","door_history":"[1,1,1,1,1,1,1,0]","location_rts":"[1572,749,3656,1556,909,471,806,1265]","trial_type":"two-door-navigation","trial_index":15,"time_elapsed":638918,"internal_node_id":"0.0-2.0-13.0"},{"group":"hexagon_tri","room_assignment":["purple","red","yellow","green","grey","blue"],"door_color_assignment":["black","white"],"door_generator_assignment":[1,0],"goal":4,"start":5,"action_noise":0.15,"location_history":"[5,0,1,3,4]","action_history":"[1,1,1,1]","door_history":"[0,0,0,0]","location_rts":"[2493,682,513,483]","trial_type":"two-door-navigation","trial_index":16,"time_elapsed":650614,"internal_node_id":"0.0-2.0-14.0"},{"group":"hexagon_tri","room_assignment":["purple","red","yellow","green","grey","blue"],"door_color_assignment":["black","white"],"door_generator_assignment":[1,0],"goal":3,"start":4,"action_noise":0.15,"location_history":"[4,0,1,5,0,5,0,1,5,0,5,4,0,5,4,0,5,0,1,5,0,1,5,0,1,3]","action_history":"[0,1,1,1,1,1,1,1,1,0,0,0,0,0,0,0,1,1,1,1,1,1,1,1,1]","door_history":"[1,0,0,0,0,0,0,0,0,1,1,1,1,1,1,1,0,0,0,0,0,0,0,0,0]","location_rts":"[7977,864,489,474,377,1347,787,1175,682,486,511,605,1067,6310,1217,1482,1412,747,440,526,701,582,387,575,350]","trial_type":"two-door-navigation","trial_index":17,"time_elapsed":710871,"internal_node_id":"0.0-2.0-15.0"},{"group":"hexagon_tri","room_assignment":["purple","red","yellow","green","grey","blue"],"door_color_assignment":["black","white"],"door_generator_assignment":[1,0],"goal":1,"start":3,"action_noise":0.15,"location_history":"[3,4,2,3,4,2,1]","action_history":"[1,1,1,1,1,0]","door_history":"[0,0,0,0,0,1]","location_rts":"[4267,831,521,1028,596,1353]","trial_type":"two-door-navigation","trial_index":18,"time_elapsed":729015,"internal_node_id":"0.0-2.0-16.0"},{"group":"hexagon_tri","room_assignment":["purple","red","yellow","green","grey","blue"],"door_color_assignment":["black","white"],"door_generator_assignment":[1,0],"goal":5,"start":1,"action_noise":0.15,"location_history":"[1,5]","action_history":"[1]","door_history":"[0]","location_rts":"[2870]","trial_type":"two-door-navigation","trial_index":19,"time_elapsed":736397,"internal_node_id":"0.0-2.0-17.0"},{"group":"hexagon_tri","room_assignment":["purple","red","yellow","green","grey","blue"],"door_color_assignment":["black","white"],"door_generator_assignment":[1,0],"goal":4,"start":5,"action_noise":0.15,"location_history":"[5,0,5,4]","action_history":"[1,0,0]","door_history":"[0,1,1]","location_rts":"[1788,1208,382]","trial_type":"two-door-navigation","trial_index":20,"time_elapsed":746306,"internal_node_id":"0.0-2.0-18.0"},{"group":"hexagon_tri","room_assignment":["purple","red","yellow","green","grey","blue"],"door_color_assignment":["black","white"],"door_generator_assignment":[1,0],"goal":0,"start":4,"action_noise":0.15,"location_history":"[4,0]","action_history":"[0]","door_history":"[1]","location_rts":"[1007]","trial_type":"two-door-navigation","trial_index":21,"time_elapsed":751833,"internal_node_id":"0.0-2.0-19.0"},{"group":"hexagon_tri","room_assignment":["purple","red","yellow","green","grey","blue"],"door_color_assignment":["black","white"],"door_generator_assignment":[1,0],"goal":1,"start":0,"action_noise":0.15,"location_history":"[0,1]","action_history":"[1]","door_history":"[0]","location_rts":"[3270]","trial_type":"two-door-navigation","trial_index":22,"time_elapsed":759610,"internal_node_id":"0.0-2.0-20.0"},{"group":"hexagon_tri","room_assignment":["purple","red","yellow","green","grey","blue"],"door_color_assignment":["black","white"],"door_generator_assignment":[1,0],"goal":3,"start":1,"action_noise":0.15,"location_history":"[1,5,0,5,4,0,5,0,5,0,1,5,4,0,5,4,0,1,5,0,1,5,0,1,5,0,1,5,4,0,1,3]","action_history":"[1,0,0,0,0,0,0,0,1,1,0,0,0,0,0,0,1,1,1,1,1,1,1,1,1,1,1,0,0,1,0]","door_history":"[0,1,1,1,1,1,1,1,0,0,1,1,1,1,1,1,0,0,0,0,0,0,0,0,0,0,0,1,1,0,1]","location_rts":"[1455,1136,1018,422,503,387,375,429,703,393,836,522,413,438,537,524,197,478,545,357,634,563,330,327,363,323,408,908,483,575,501]","trial_type":"two-door-navigation","trial_index":23,"time_elapsed":811420,"internal_node_id":"0.0-2.0-21.0"},{"group":"hexagon_tri","room_assignment":["purple","red","yellow","green","grey","blue"],"door_color_assignment":["black","white"],"door_generator_assignment":[1,0],"goal":2,"start":3,"action_noise":0.15,"location_history":"[3,2]","action_history":"[0]","door_history":"[1]","location_rts":"[2339]","trial_type":"two-door-navigation","trial_index":24,"time_elapsed":818266,"internal_node_id":"0.0-2.0-22.0"},{"group":"hexagon_tri","room_assignment":["purple","red","yellow","green","grey","blue"],"door_color_assignment":["black","white"],"door_generator_assignment":[1,0],"goal":0,"start":2,"action_noise":0.15,"location_history":"[2,1,3,4,0]","action_history":"[0,0,0,0]","door_history":"[1,1,1,1]","location_rts":"[1988,470,737,519]","trial_type":"two-door-navigation","trial_index":25,"time_elapsed":829502,"internal_node_id":"0.0-2.0-23.0"},{"group":"hexagon_tri","room_assignment":["purple","red","yellow","green","grey","blue"],"door_color_assignment":["black","white"],"door_generator_assignment":[1,0],"goal":3,"start":0,"action_noise":0.15,"location_history":"[0,1,5,0,5,4,2,1,5,4,2,3]","action_history":"[1,1,1,1,1,1,1,1,1,1,1]","door_history":"[0,0,0,0,0,0,0,0,0,0,0]","location_rts":"[16562,4789,377,679,620,339,304,333,451,488,761]","trial_type":"two-door-navigation","trial_index":26,"time_elapsed":869781,"internal_node_id":"0.0-2.0-24.0"},{"group":"hexagon_tri","room_assignment":["purple","red","yellow","green","grey","blue"],"door_color_assignment":["black","white"],"door_generator_assignment":[1,0],"goal":1,"start":3,"action_noise":0.15,"location_history":"[3,2,1]","action_history":"[0,0]","door_history":"[1,1]","location_rts":"[5856,620]","trial_type":"two-door-navigation","trial_index":27,"time_elapsed":881774,"internal_node_id":"0.0-2.0-25.0"},{"group":"hexagon_tri","room_assignment":["purple","red","yellow","green","grey","blue"],"door_color_assignment":["black","white"],"door_generator_assignment":[1,0],"goal":2,"start":1,"action_noise":0.15,"location_history":"[1,5,0,1,5,4,2]","action_history":"[1,1,1,1,1,1]","door_history":"[0,0,0,0,0,0]","location_rts":"[2451,494,429,1023,405,455]","trial_type":"two-door-navigation","trial_index":28,"time_elapsed":896577,"internal_node_id":"0.0-2.0-26.0"},{"group":"hexagon_tri","room_assignment":["purple","red","yellow","green","grey","blue"],"door_color_assignment":["black","white"],"door_generator_assignment":[1,0],"goal":5,"start":2,"action_noise":0.15,"location_history":"[2,1,3,2,3,2,1,3,2,1,5]","action_history":"[0,0,0,0,0,0,0,0,0,1]","door_history":"[1,1,1,1,1,1,1,1,1,0]","location_rts":"[2118,769,594,714,818,710,609,418,377,747]","trial_type":"two-door-navigation","trial_index":29,"time_elapsed":918015,"internal_node_id":"0.0-2.0-27.0"},{"group":"hexagon_tri","room_assignment":["purple","red","yellow","green","grey","blue"],"door_color_assignment":["black","white"],"door_generator_assignment":[1,0],"goal":4,"start":5,"action_noise":0.15,"location_history":"[5,0,5,4]","action_history":"[1,0,0]","door_history":"[0,1,1]","location_rts":"[1291,841,773]","trial_type":"two-door-navigation","trial_index":30,"time_elapsed":927446,"internal_node_id":"0.0-2.0-28.0"},{"group":"hexagon_tri","room_assignment":["purple","red","yellow","green","grey","blue"],"door_color_assignment":["black","white"],"door_generator_assignment":[1,0],"goal":5,"start":4,"action_noise":0.15,"location_history":"[4,2,3,4,0,1,5]","action_history":"[0,1,1,1,1,1]","door_history":"[1,0,0,0,0,0]","location_rts":"[1171,612,420,611,401,571]","trial_type":"two-door-navigation","trial_index":31,"time_elapsed":940768,"internal_node_id":"0.0-2.0-29.0"},{"group":"hexagon_tri","room_assignment":["purple","red","yellow","green","grey","blue"],"door_color_assignment":["black","white"],"door_generator_assignment":[1,0],"goal":3,"start":5,"action_noise":0.15,"location_history":"[5,4,0,5,0,1,5,0,5,4,2,1,5,0,5,0,5,0,1,3]","action_history":"[0,0,0,1,1,1,1,0,0,1,1,1,1,0,0,0,0,0,0]","door_history":"[1,1,1,0,0,0,0,1,1,0,0,0,0,1,1,1,1,1,1]","location_rts":"[2584,425,501,1580,2215,828,531,636,551,801,551,1092,475,744,334,486,257,193,252]","trial_type":"two-door-navigation","trial_index":32,"time_elapsed":978437,"internal_node_id":"0.0-2.0-30.0"},{"group":"hexagon_tri","room_assignment":["purple","red","yellow","green","grey","blue"],"door_color_assignment":["black","white"],"door_generator_assignment":[1,0],"goal":0,"start":3,"action_noise":0.15,"location_history":"[3,2,1,3,2,3,2,3,4,2,1,5,0]","action_history":"[0,0,0,0,0,0,1,1,1,1,1,1]","door_history":"[1,1,1,1,1,1,0,0,0,0,0,0]","location_rts":"[25495,643,612,421,423,455,720,791,491,417,393,460]","trial_type":"two-door-navigation","trial_index":33,"time_elapsed":1025348,"internal_node_id":"0.0-2.0-31.0"},{"group":"hexagon_tri","room_assignment":["purple","red","yellow","green","grey","blue"],"door_color_assignment":["black","white"],"door_generator_assignment":[1,0],"goal":4,"start":0,"action_noise":0.15,"location_history":"[0,1,3,2,1,3,2,1,3,2,3,2,3,4]","action_history":"[1,0,0,0,0,0,0,0,0,0,0,0,1]","door_history":"[0,1,1,1,1,1,1,1,1,1,1,1,0]","location_rts":"[1388,525,447,415,434,4517,1788,814,605,3253,804,483,892]","trial_type":"two-door-navigation","trial_index":34,"time_elapsed":1058353,"internal_node_id":"0.0-2.0-32.0"},{"group":"hexagon_tri","room_assignment":["purple","red","yellow","green","grey","blue"],"door_color_assignment":["black","white"],"door_generator_assignment":[1,0],"goal":1,"start":4,"action_noise":0.15,"location_history":"[4,0,5,4,0,5,4,0,1]","action_history":"[0,0,0,0,0,0,1,1]","door_history":"[1,1,1,1,1,1,0,0]","location_rts":"[3746,6327,10496,4584,5112,533,1713,1661]","trial_type":"two-door-navigation","trial_index":35,"time_elapsed":1104129,"internal_node_id":"0.0-2.0-33.0"},{"group":"hexagon_tri","room_assignment":["purple","red","yellow","green","grey","blue"],"door_color_assignment":["black","white"],"door_generator_assignment":[1,0],"goal":2,"start":1,"action_noise":0.15,"location_history":"[1,3,2]","action_history":"[0,0]","door_history":"[1,1]","location_rts":"[5868,4389]","trial_type":"two-door-navigation","trial_index":36,"time_elapsed":1119906,"internal_node_id":"0.0-2.0-34.0"},{"group":"hexagon_tri","room_assignment":["purple","red","yellow","green","grey","blue"],"door_color_assignment":["black","white"],"door_generator_assignment":[1,0],"goal":0,"start":2,"action_noise":0.15,"location_history":"[2,1,3,2,1,5,0]","action_history":"[0,0,0,1,1,1]","door_history":"[1,1,1,0,0,0]","location_rts":"[3217,1395,9868,3039,3332,3718]","trial_type":"two-door-navigation","trial_index":37,"time_elapsed":1154014,"internal_node_id":"0.0-2.0-35.0"},{"group":"hexagon_tri","room_assignment":["purple","red","yellow","green","grey","blue"],"door_color_assignment":["black","white"],"door_generator_assignment":[1,0],"goal":5,"start":0,"action_noise":0.15,"location_history":"[0,1,5]","action_history":"[1,1]","door_history":"[0,0]","location_rts":"[7483,1031]","trial_type":"two-door-navigation","trial_index":38,"time_elapsed":1168038,"internal_node_id":"0.0-2.0-36.0"},{"group":"hexagon_tri","room_assignment":["purple","red","yellow","green","grey","blue"],"door_color_assignment":["black","white"],"door_generator_assignment":[1,0],"goal":2,"start":5,"action_noise":0.15,"location_history":"[5,4,0,5,4,2]","action_history":"[0,0,0,0,1]","door_history":"[1,1,1,1,0]","location_rts":"[1268,360,364,1102,382]","trial_type":"two-door-navigation","trial_index":39,"time_elapsed":1180054,"internal_node_id":"0.0-2.0-37.0"},{"group":"hexagon_tri","room_assignment":["purple","red","yellow","green","grey","blue"],"door_color_assignment":["black","white"],"door_generator_assignment":[1,0],"goal":1,"start":2,"action_noise":0.15,"location_history":"[2,3,4,2,3,4,2,3,4,2,1]","action_history":"[1,1,1,0,1,1,1,1,1,0]","door_history":"[0,0,0,1,0,0,0,0,0,1]","location_rts":"[1638,355,369,363,1217,383,378,363,389,273]","trial_type":"two-door-navigation","trial_index":40,"time_elapsed":1199367,"internal_node_id":"0.0-2.0-38.0"},{"group":"hexagon_tri","room_assignment":["purple","red","yellow","green","grey","blue"],"door_color_assignment":["black","white"],"door_generator_assignment":[1,0],"goal":4,"start":1,"action_noise":0.15,"location_history":"[1,3,4]","action_history":"[1,1]","door_history":"[0,0]","location_rts":"[1186,271]","trial_type":"two-door-navigation","trial_index":41,"time_elapsed":1206349,"internal_node_id":"0.0-2.0-39.0"},{"group":"hexagon_tri","room_assignment":["purple","red","yellow","green","grey","blue"],"door_color_assignment":["black","white"],"door_generator_assignment":[1,0],"goal":3,"start":4,"action_noise":0.15,"location_history":"[4,2,3]","action_history":"[1,1]","door_history":"[0,0]","location_rts":"[1045,406]","trial_type":"two-door-navigation","trial_index":42,"time_elapsed":1213316,"internal_node_id":"0.0-2.0-40.0"},{"group":"hexagon_tri","room_assignment":["purple","red","yellow","green","grey","blue"],"door_color_assignment":["black","white"],"door_generator_assignment":[1,0],"goal":5,"start":3,"action_noise":0.15,"location_history":"[3,2,3,4,2,1,3,2,1,5]","action_history":"[1,1,1,1,0,0,0,0,1]","door_history":"[0,0,0,0,1,1,1,1,0]","location_rts":"[1818,347,498,474,1181,690,596,409,464]","trial_type":"two-door-navigation","trial_index":43,"time_elapsed":1232357,"internal_node_id":"0.0-2.0-41.0"},{"group":"hexagon_tri","room_assignment":["purple","red","yellow","green","grey","blue"],"door_color_assignment":["black","white"],"door_generator_assignment":[1,0],"goal":3,"start":5,"action_noise":0.15,"location_history":"[5,0,1,3]","action_history":"[1,1,1]","door_history":"[0,0,0]","location_rts":"[7073,351,295]","trial_type":"two-door-navigation","trial_index":44,"time_elapsed":1246608,"internal_node_id":"0.0-2.0-42.0"},{"group":"hexagon_tri","room_assignment":["purple","red","yellow","green","grey","blue"],"door_color_assignment":["black","white"],"door_generator_assignment":[1,0],"goal":0,"start":3,"action_noise":0.15,"location_history":"[3,2,1,3,2,1,5,0]","action_history":"[0,0,0,0,0,1,0]","door_history":"[1,1,1,1,1,0,1]","location_rts":"[1489,338,2691,345,414,1371,2284]","trial_type":"two-door-navigation","trial_index":45,"time_elapsed":1266095,"internal_node_id":"0.0-2.0-43.0"},{"group":"hexagon_tri","room_assignment":["purple","red","yellow","green","grey","blue"],"door_color_assignment":["black","white"],"door_generator_assignment":[1,0],"goal":2,"start":0,"action_noise":0.15,"location_history":"[0,1,3,4,2]","action_history":"[1,1,1,1]","door_history":"[0,0,0,0]","location_rts":"[1994,525,2124,588]","trial_type":"two-door-navigation","trial_index":46,"time_elapsed":1278863,"internal_node_id":"0.0-2.0-44.0"},{"group":"hexagon_tri","room_assignment":["purple","red","yellow","green","grey","blue"],"door_color_assignment":["black","white"],"door_generator_assignment":[1,0],"goal":4,"start":2,"action_noise":0.15,"location_history":"[2,1,3,2,1,5,0,1,5,4]","action_history":"[0,0,0,0,1,1,1,1,1]","door_history":"[1,1,1,1,0,0,0,0,0]","location_rts":"[6120,355,270,3581,1170,12097,4511,2280,523]","trial_type":"two-door-navigation","trial_index":47,"time_elapsed":1322348,"internal_node_id":"0.0-2.0-45.0"},{"group":"hexagon_tri","room_assignment":["purple","red","yellow","green","grey","blue"],"door_color_assignment":["black","white"],"door_generator_assignment":[1,0],"goal":1,"start":4,"action_noise":0.15,"location_history":"[4,0,5,4,0,5,4,2,3,4,2,1]","action_history":"[0,0,0,0,0,0,1,1,1,1,1]","door_history":"[1,1,1,1,1,1,0,0,0,0,0]","location_rts":"[7780,382,1744,492,400,721,262,411,370,441,604]","trial_type":"two-door-navigation","trial_index":48,"time_elapsed":1350535,"internal_node_id":"0.0-2.0-46.0"},{"group":"hexagon_tri","room_assignment":["purple","red","yellow","green","grey","blue"],"door_color_assignment":["black","white"],"door_generator_assignment":[1,0],"goal":4,"start":1,"action_noise":0.15,"location_history":"[1,3,2,1,3,2,3,2,3,4]","action_history":"[0,0,0,0,0,1,1,1,1]","door_history":"[1,1,1,1,1,0,0,0,0]","location_rts":"[24656,791,2184,1117,227,363,665,603,571]","trial_type":"two-door-navigation","trial_index":49,"time_elapsed":1394285,"internal_node_id":"0.0-2.0-47.0"},{"group":"hexagon_tri","room_assignment":["purple","red","yellow","green","grey","blue"],"door_color_assignment":["black","white"],"door_generator_assignment":[1,0],"goal":3,"start":4,"action_noise":0.15,"location_history":"[4,0,5,4,0,1,3]","action_history":"[0,0,0,0,0,0]","door_history":"[1,1,1,1,1,1]","location_rts":"[1797,8391,4554,4182,1073,1438]","trial_type":"two-door-navigation","trial_index":50,"time_elapsed":1425261,"internal_node_id":"0.0-2.0-48.0"},{"group":"hexagon_tri","room_assignment":["purple","red","yellow","green","grey","blue"],"door_color_assignment":["black","white"],"door_generator_assignment":[1,0],"goal":5,"start":3,"action_noise":0.15,"location_history":"[3,4,2,3,2,1,3,4,0,5]","action_history":"[0,0,0,0,0,0,0,0,0]","door_history":"[1,1,1,1,1,1,1,1,1]","location_rts":"[14051,4604,881,5167,622,530,537,2317,642]","trial_type":"two-door-navigation","trial_index":51,"time_elapsed":1467193,"internal_node_id":"0.0-2.0-49.0"},{"view_history":"[{\"page_index\":0,\"viewing_time\":3714}]","rt":3714,"trial_type":"instructions","trial_index":52,"time_elapsed":1471908,"internal_node_id":"0.0-3.0"},{"view_history":"[{\"page_index\":0,\"viewing_time\":3972},{\"page_index\":1,\"viewing_time\":104251}]","rt":108223,"trial_type":"instructions","trial_index":53,"time_elapsed":1581131,"internal_node_id":"0.0-4.0"},{"group":"hexagon_bi","fractal_assignment":["../images/pnk_blu.png","../images/org_blu.png","../images/cyn_red.png","../images/blu_wht.png","../images/gry_blk.png","../images/ylw_slt.png"],"mutagen_generator_assignment":[0,1],"goal":4,"start":0,"action_noise":0.15,"location_history":"[0,5,0,1,0,1,0,5,0,1,2,3,4]","action_history":"[0,0,1,1,1,1,0,0,0,0,0,0]","mutagen_history":"[0,0,1,1,1,1,0,0,0,0,0,0]","location_rts":"[11919,9192,3966,1285,1252,3753,742,2408,4281,694,3496,3014]","trial_type":"fractal-mutation","trial_index":54,"time_elapsed":1642902,"internal_node_id":"0.0-5.0-0.0"},{"group":"hexagon_bi","fractal_assignment":["../images/pnk_blu.png","../images/org_blu.png","../images/cyn_red.png","../images/blu_wht.png","../images/gry_blk.png","../images/ylw_slt.png"],"mutagen_generator_assignment":[0,1],"goal":3,"start":4,"action_noise":0.15,"location_history":"[4,3]","action_history":"[0]","mutagen_history":"[0]","location_rts":"[3485]","trial_type":"fractal-mutation","trial_index":55,"time_elapsed":1650903,"internal_node_id":"0.0-5.0-1.0"},{"group":"hexagon_bi","fractal_assignment":["../images/pnk_blu.png","../images/org_blu.png","../images/cyn_red.png","../images/blu_wht.png","../images/gry_blk.png","../images/ylw_slt.png"],"mutagen_generator_assignment":[0,1],"goal":5,"start":3,"action_noise":0.15,"location_history":"[3,2,1,0,1,0,5]","action_history":"[1,1,1,1,1,0]","mutagen_history":"[1,1,1,1,1,0]","location_rts":"[3922,570,641,831,815,463]","trial_type":"fractal-mutation","trial_index":56,"time_elapsed":1667799,"internal_node_id":"0.0-5.0-2.0"},{"group":"hexagon_bi","fractal_assignment":["../images/pnk_blu.png","../images/org_blu.png","../images/cyn_red.png","../images/blu_wht.png","../images/gry_blk.png","../images/ylw_slt.png"],"mutagen_generator_assignment":[0,1],"goal":2,"start":5,"action_noise":0.15,"location_history":"[5,0,1,0,5,0,5,0,5,0,1,0,1,0,1,0,1,2]","action_history":"[1,0,0,0,0,0,0,0,0,1,1,1,1,1,1,1,0]","mutagen_history":"[1,0,0,0,0,0,0,0,0,1,1,1,1,1,1,1,0]","location_rts":"[2240,639,208,493,357,851,626,724,493,1354,424,442,663,458,557,592,448]","trial_type":"fractal-mutation","trial_index":57,"time_elapsed":1700176,"internal_node_id":"0.0-5.0-3.0"},{"group":"hexagon_bi","fractal_assignment":["../images/pnk_blu.png","../images/org_blu.png","../images/cyn_red.png","../images/blu_wht.png","../images/gry_blk.png","../images/ylw_slt.png"],"mutagen_generator_assignment":[0,1],"goal":1,"start":2,"action_noise":0.15,"location_history":"[2,3,2,1]","action_history":"[1,1,1]","mutagen_history":"[1,1,1]","location_rts":"[1762,887,477]","trial_type":"fractal-mutation","trial_index":58,"time_elapsed":1709861,"internal_node_id":"0.0-5.0-4.0"},{"group":"hexagon_bi","fractal_assignment":["../images/pnk_blu.png","../images/org_blu.png","../images/cyn_red.png","../images/blu_wht.png","../images/gry_blk.png","../images/ylw_slt.png"],"mutagen_generator_assignment":[0,1],"goal":4,"start":1,"action_noise":0.15,"location_history":"[1,2,1,2,1,2,1,2,1,0,5,0,5,4]","action_history":"[0,0,0,0,0,0,0,0,0,0,0,0,0]","mutagen_history":"[0,0,0,0,0,0,0,0,0,0,0,0,0]","location_rts":"[2443,533,205,457,471,441,458,345,441,379,383,429,384]","trial_type":"fractal-mutation","trial_index":59,"time_elapsed":1733886,"internal_node_id":"0.0-5.0-5.0"},{"group":"hexagon_bi","fractal_assignment":["../images/pnk_blu.png","../images/org_blu.png","../images/cyn_red.png","../images/blu_wht.png","../images/gry_blk.png","../images/ylw_slt.png"],"mutagen_generator_assignment":[0,1],"goal":1,"start":4,"action_noise":0.15,"location_history":"[4,5,4,5,4,3,2,1]","action_history":"[1,1,1,1,1,1,1]","mutagen_history":"[1,1,1,1,1,1,1]","location_rts":"[2196,549,893,636,693,584,582]","trial_type":"fractal-mutation","trial_index":60,"time_elapsed":1750708,"internal_node_id":"0.0-5.0-6.0"},{"group":"hexagon_bi","fractal_assignment":["../images/pnk_blu.png","../images/org_blu.png","../images/cyn_red.png","../images/blu_wht.png","../images/gry_blk.png","../images/ylw_slt.png"],"mutagen_generator_assignment":[0,1],"goal":5,"start":1,"action_noise":0.15,"location_history":"[1,0,1,0,1,0,5]","action_history":"[1,1,1,1,1,0]","mutagen_history":"[1,1,1,1,1,0]","location_rts":"[2466,514,540,610,729,990]","trial_type":"fractal-mutation","trial_index":61,"time_elapsed":1766207,"internal_node_id":"0.0-5.0-7.0"},{"group":"hexagon_bi","fractal_assignment":["../images/pnk_blu.png","../images/org_blu.png","../images/cyn_red.png","../images/blu_wht.png","../images/gry_blk.png","../images/ylw_slt.png"],"mutagen_generator_assignment":[0,1],"goal":0,"start":5,"action_noise":0.15,"location_history":"[5,4,5,4,5,0]","action_history":"[1,1,1,1,0]","mutagen_history":"[1,1,1,1,0]","location_rts":"[3133,682,586,721,502]","trial_type":"fractal-mutation","trial_index":62,"time_elapsed":1780448,"internal_node_id":"0.0-5.0-8.0"},{"group":"hexagon_bi","fractal_assignment":["../images/pnk_blu.png","../images/org_blu.png","../images/cyn_red.png","../images/blu_wht.png","../images/gry_blk.png","../images/ylw_slt.png"],"mutagen_generator_assignment":[0,1],"goal":2,"start":0,"action_noise":0.15,"location_history":"[0,5,0,5,0,5,0,5,0,5,0,5,0,1,0,5,4,5,4,5,4,5,0,1,2]","action_history":"[0,0,0,0,0,0,0,0,0,0,0,0,0,0,0,1,1,1,1,1,1,0,0,0]","mutagen_history":"[0,0,0,0,0,0,0,0,0,0,0,0,0,0,0,1,1,1,1,1,1,0,0,0]","location_rts":"[1188,378,383,377,379,423,138,336,354,306,471,403,328,755,646,824,513,326,318,789,705,472,86,765]","trial_type":"fractal-mutation","trial_index":63,"time_elapsed":1819978,"internal_node_id":"0.0-5.0-9.0"},{"group":"hexagon_bi","fractal_assignment":["../images/pnk_blu.png","../images/org_blu.png","../images/cyn_red.png","../images/blu_wht.png","../images/gry_blk.png","../images/ylw_slt.png"],"mutagen_generator_assignment":[0,1],"goal":3,"start":2,"action_noise":0.15,"location_history":"[2,1,2,1,2,1,2,1,2,1,2,1,2,1,0,1,0,1,0,5,4,5,0,1,2,1,2,3]","action_history":"[0,0,0,0,0,0,0,0,0,0,0,0,0,1,1,1,1,1,1,1,1,1,1,0,0,0,1]","mutagen_history":"[0,0,0,0,0,0,0,0,0,0,0,0,0,1,1,1,1,1,1,1,1,1,1,0,0,0,1]","location_rts":"[2210,475,507,335,674,405,410,349,499,427,491,331,246,459,425,363,270,351,275,403,306,325,361,936,620,508,597]","trial_type":"fractal-mutation","trial_index":64,"time_elapsed":1864497,"internal_node_id":"0.0-5.0-10.0"},{"group":"hexagon_bi","fractal_assignment":["../images/pnk_blu.png","../images/org_blu.png","../images/cyn_red.png","../images/blu_wht.png","../images/gry_blk.png","../images/ylw_slt.png"],"mutagen_generator_assignment":[0,1],"goal":0,"start":3,"action_noise":0.15,"location_history":"[3,4,3,4,3,2,3,2,3,4,3,4,5,0]","action_history":"[0,0,0,0,1,1,1,1,0,0,0,0,0]","mutagen_history":"[0,0,0,0,1,1,1,1,0,0,0,0,0]","location_rts":"[1427,541,523,644,387,634,495,758,291,440,518,293,230]","trial_type":"fractal-mutation","trial_index":65,"time_elapsed":1888416,"internal_node_id":"0.0-5.0-11.0"},{"group":"hexagon_bi","fractal_assignment":["../images/pnk_blu.png","../images/org_blu.png","../images/cyn_red.png","../images/blu_wht.png","../images/gry_blk.png","../images/ylw_slt.png"],"mutagen_generator_assignment":[0,1],"goal":2,"start":0,"action_noise":0.15,"location_history":"[0,5,0,1,0,1,2]","action_history":"[1,0,1,1,1,0]","mutagen_history":"[1,0,1,1,1,0]","location_rts":"[2585,850,840,689,619,479]","trial_type":"fractal-mutation","trial_index":66,"time_elapsed":1904108,"internal_node_id":"0.0-5.0-12.0"},{"group":"hexagon_bi","fractal_assignment":["../images/pnk_blu.png","../images/org_blu.png","../images/cyn_red.png","../images/blu_wht.png","../images/gry_blk.png","../images/ylw_slt.png"],"mutagen_generator_assignment":[0,1],"goal":5,"start":2,"action_noise":0.15,"location_history":"[2,3,2,3,2,1,0,5]","action_history":"[1,1,1,1,0,0,0]","mutagen_history":"[1,1,1,1,0,0,0]","location_rts":"[6631,760,650,637,297,563,680]","trial_type":"fractal-mutation","trial_index":67,"time_elapsed":1924971,"internal_node_id":"0.0-5.0-13.0"},{"group":"hexagon_bi","fractal_assignment":["../images/pnk_blu.png","../images/org_blu.png","../images/cyn_red.png","../images/blu_wht.png","../images/gry_blk.png","../images/ylw_slt.png"],"mutagen_generator_assignment":[0,1],"goal":4,"start":5,"action_noise":0.15,"location_history":"[5,0,5,4]","action_history":"[0,0,1]","mutagen_history":"[0,0,1]","location_rts":"[1847,837,1028]","trial_type":"fractal-mutation","trial_index":68,"time_elapsed":1935232,"internal_node_id":"0.0-5.0-14.0"},{"group":"hexagon_bi","fractal_assignment":["../images/pnk_blu.png","../images/org_blu.png","../images/cyn_red.png","../images/blu_wht.png","../images/gry_blk.png","../images/ylw_slt.png"],"mutagen_generator_assignment":[0,1],"goal":3,"start":4,"action_noise":0.15,"location_history":"[4,5,4,5,4,5,0,5,0,5,4,5,4,3]","action_history":"[1,1,1,1,1,0,0,0,0,1,1,1,1]","mutagen_history":"[1,1,1,1,1,0,0,0,0,1,1,1,1]","location_rts":"[5000,512,1077,593,530,315,670,458,565,584,584,417,245]","trial_type":"fractal-mutation","trial_index":69,"time_elapsed":1963549,"internal_node_id":"0.0-5.0-15.0"},{"group":"hexagon_bi","fractal_assignment":["../images/pnk_blu.png","../images/org_blu.png","../images/cyn_red.png","../images/blu_wht.png","../images/gry_blk.png","../images/ylw_slt.png"],"mutagen_generator_assignment":[0,1],"goal":1,"start":3,"action_noise":0.15,"location_history":"[3,2,1]","action_history":"[0,0]","mutagen_history":"[0,0]","location_rts":"[1509,505]","trial_type":"fractal-mutation","trial_index":70,"time_elapsed":1971100,"internal_node_id":"0.0-5.0-16.0"},{"group":"hexagon_bi","fractal_assignment":["../images/pnk_blu.png","../images/org_blu.png","../images/cyn_red.png","../images/blu_wht.png","../images/gry_blk.png","../images/ylw_slt.png"],"mutagen_generator_assignment":[0,1],"goal":5,"start":1,"action_noise":0.15,"location_history":"[1,2,3,4,3,2,1,0,5]","action_history":"[0,0,0,0,1,1,1,0]","mutagen_history":"[0,0,0,0,1,1,1,0]","location_rts":"[1529,119,417,628,1073,568,815,797]","trial_type":"fractal-mutation","trial_index":71,"time_elapsed":1988707,"internal_node_id":"0.0-5.0-17.0"},{"group":"hexagon_bi","fractal_assignment":["../images/pnk_blu.png","../images/org_blu.png","../images/cyn_red.png","../images/blu_wht.png","../images/gry_blk.png","../images/ylw_slt.png"],"mutagen_generator_assignment":[0,1],"goal":4,"start":5,"action_noise":0.15,"location_history":"[5,0,5,4]","action_history":"[0,0,1]","mutagen_history":"[0,0,1]","location_rts":"[1243,1739,914]","trial_type":"fractal-mutation","trial_index":72,"time_elapsed":1999177,"internal_node_id":"0.0-5.0-18.0"},{"group":"hexagon_bi","fractal_assignment":["../images/pnk_blu.png","../images/org_blu.png","../images/cyn_red.png","../images/blu_wht.png","../images/gry_blk.png","../images/ylw_slt.png"],"mutagen_generator_assignment":[0,1],"goal":0,"start":4,"action_noise":0.15,"location_history":"[4,3,4,3,4,5,0]","action_history":"[0,0,0,0,0,0]","mutagen_history":"[0,0,0,0,0,0]","location_rts":"[1198,383,829,802,815,713]","trial_type":"fractal-mutation","trial_index":73,"time_elapsed":2013542,"internal_node_id":"0.0-5.0-19.0"},{"group":"hexagon_bi","fractal_assignment":["../images/pnk_blu.png","../images/org_blu.png","../images/cyn_red.png","../images/blu_wht.png","../images/gry_blk.png","../images/ylw_slt.png"],"mutagen_generator_assignment":[0,1],"goal":1,"start":0,"action_noise":0.15,"location_history":"[0,1]","action_history":"[0]","mutagen_history":"[0]","location_rts":"[1273]","trial_type":"fractal-mutation","trial_index":74,"time_elapsed":2019333,"internal_node_id":"0.0-5.0-20.0"},{"group":"hexagon_bi","fractal_assignment":["../images/pnk_blu.png","../images/org_blu.png","../images/cyn_red.png","../images/blu_wht.png","../images/gry_blk.png","../images/ylw_slt.png"],"mutagen_generator_assignment":[0,1],"goal":3,"start":1,"action_noise":0.15,"location_history":"[1,0,5,4,5,0,5,0,5,0,5,4,3]","action_history":"[1,1,1,1,0,0,0,0,0,0,1,0]","mutagen_history":"[1,1,1,1,0,0,0,0,0,0,1,0]","location_rts":"[2406,1050,586,768,645,447,513,651,567,1204,359,1169]","trial_type":"fractal-mutation","trial_index":75,"time_elapsed":2045372,"internal_node_id":"0.0-5.0-21.0"},{"group":"hexagon_bi","fractal_assignment":["../images/pnk_blu.png","../images/org_blu.png","../images/cyn_red.png","../images/blu_wht.png","../images/gry_blk.png","../images/ylw_slt.png"],"mutagen_generator_assignment":[0,1],"goal":2,"start":3,"action_noise":0.15,"location_history":"[3,4,3,4,3,2]","action_history":"[1,0,0,0,1]","mutagen_history":"[1,0,0,0,1]","location_rts":"[6583,1341,669,775,1203]","trial_type":"fractal-mutation","trial_index":76,"time_elapsed":2064543,"internal_node_id":"0.0-5.0-22.0"},{"group":"hexagon_bi","fractal_assignment":["../images/pnk_blu.png","../images/org_blu.png","../images/cyn_red.png","../images/blu_wht.png","../images/gry_blk.png","../images/ylw_slt.png"],"mutagen_generator_assignment":[0,1],"goal":0,"start":2,"action_noise":0.15,"location_history":"[2,3,2,3,4,3,4,3,4,3,2,3,4,5,0]","action_history":"[1,1,1,0,0,0,0,0,1,1,1,1,1,0]","mutagen_history":"[1,1,1,0,0,0,0,0,1,1,1,1,1,0]","location_rts":"[1895,505,736,1380,737,796,1035,967,923,413,862,683,660,802]","trial_type":"fractal-mutation","trial_index":77,"time_elapsed":2094709,"internal_node_id":"0.0-5.0-23.0"},{"group":"hexagon_bi","fractal_assignment":["../images/pnk_blu.png","../images/org_blu.png","../images/cyn_red.png","../images/blu_wht.png","../images/gry_blk.png","../images/ylw_slt.png"],"mutagen_generator_assignment":[0,1],"goal":3,"start":0,"action_noise":0.15,"location_history":"[0,1,2,1,2,1,2,1,2,1,0,5,0,1,0,1,0,1,0,1,0,1,2,1,2,1,0,5,0,5,0,1,0,1,0,1,2,3]","action_history":"[0,0,1,0,0,0,0,0,0,1,0,0,1,1,1,1,1,1,1,1,1,0,0,0,0,0,0,0,0,0,1,1,1,1,1,1,0]","mutagen_history":"[0,0,1,0,0,0,0,0,0,1,0,0,1,1,1,1,1,1,1,1,1,0,0,0,0,0,0,0,0,0,1,1,1,1,1,1,0]","location_rts":"[20974,543,1047,418,355,575,621,627,1591,838,822,711,1108,544,540,426,473,357,446,398,489,559,632,555,550,670,508,632,599,863,1677,823,569,534,1094,907,604]","trial_type":"fractal-mutation","trial_index":78,"time_elapsed":2181594,"internal_node_id":"0.0-5.0-24.0"},{"group":"hexagon_bi","fractal_assignment":["../images/pnk_blu.png","../images/org_blu.png","../images/cyn_red.png","../images/blu_wht.png","../images/gry_blk.png","../images/ylw_slt.png"],"mutagen_generator_assignment":[0,1],"goal":1,"start":3,"action_noise":0.15,"location_history":"[3,4,5,4,3,4,5,4,3,4,5,0,1]","action_history":"[0,0,0,0,0,1,1,0,0,0,0,1]","mutagen_history":"[0,0,0,0,0,1,1,0,0,0,0,1]","location_rts":"[1370,688,1524,765,804,753,580,881,727,533,1244,675]","trial_type":"fractal-mutation","trial_index":79,"time_elapsed":2207866,"internal_node_id":"0.0-5.0-25.0"},{"group":"hexagon_bi","fractal_assignment":["../images/pnk_blu.png","../images/org_blu.png","../images/cyn_red.png","../images/blu_wht.png","../images/gry_blk.png","../images/ylw_slt.png"],"mutagen_generator_assignment":[0,1],"goal":2,"start":1,"action_noise":0.15,"location_history":"[1,2]","action_history":"[0]","mutagen_history":"[0]","location_rts":"[3586]","trial_type":"fractal-mutation","trial_index":80,"time_elapsed":2215971,"internal_node_id":"0.0-5.0-26.0"},{"group":"hexagon_bi","fractal_assignment":["../images/pnk_blu.png","../images/org_blu.png","../images/cyn_red.png","../images/blu_wht.png","../images/gry_blk.png","../images/ylw_slt.png"],"mutagen_generator_assignment":[0,1],"goal":5,"start":2,"action_noise":0.15,"location_history":"[2,3,2,3,2,1,2,1,2,1,2,1,2,1,2,1,0,5]","action_history":"[1,1,1,1,0,0,0,0,0,0,0,0,0,0,0,1,0]","mutagen_history":"[1,1,1,1,0,0,0,0,0,0,0,0,0,0,0,1,0]","location_rts":"[1973,514,556,846,350,835,637,858,908,816,941,989,504,757,837,1044,965]","trial_type":"fractal-mutation","trial_index":81,"time_elapsed":2251080,"internal_node_id":"0.0-5.0-27.0"},{"group":"hexagon_bi","fractal_assignment":["../images/pnk_blu.png","../images/org_blu.png","../images/cyn_red.png","../images/blu_wht.png","../images/gry_blk.png","../images/ylw_slt.png"],"mutagen_generator_assignment":[0,1],"goal":4,"start":5,"action_noise":0.15,"location_history":"[5,0,5,0,1,2,1,2,1,2,1,2,1,2,1,0,5,0,5,0,5,0,5,4]","action_history":"[1,1,1,1,0,0,0,0,0,0,1,0,0,0,1,0,0,0,0,0,0,0,0]","mutagen_history":"[1,1,1,1,0,0,0,0,0,0,1,0,0,0,1,0,0,0,0,0,0,0,0]","location_rts":"[2362,474,509,1135,920,1232,624,450,503,677,354,412,547,487,902,638,583,954,858,413,352,429,474]","trial_type":"fractal-mutation","trial_index":82,"time_elapsed":2294289,"internal_node_id":"0.0-5.0-28.0"},{"group":"hexagon_bi","fractal_assignment":["../images/pnk_blu.png","../images/org_blu.png","../images/cyn_red.png","../images/blu_wht.png","../images/gry_blk.png","../images/ylw_slt.png"],"mutagen_generator_assignment":[0,1],"goal":5,"start":4,"action_noise":0.15,"location_history":"[4,3,2,3,2,1,2,3,4,3,2,3,4,3,4,5]","action_history":"[1,1,1,1,0,0,0,0,0,0,1,0,0,0,0]","mutagen_history":"[1,1,1,1,0,0,0,0,0,0,1,0,0,0,0]","location_rts":"[1365,862,681,699,610,536,517,614,675,486,864,809,621,426,562]","trial_type":"fractal-mutation","trial_index":83,"time_elapsed":2323386,"internal_node_id":"0.0-5.0-29.0"},{"group":"hexagon_bi","fractal_assignment":["../images/pnk_blu.png","../images/org_blu.png","../images/cyn_red.png","../images/blu_wht.png","../images/gry_blk.png","../images/ylw_slt.png"],"mutagen_generator_assignment":[0,1],"goal":3,"start":5,"action_noise":0.15,"location_history":"[5,0,5,0,5,0,5,0,1,2,3]","action_history":"[0,0,0,0,0,0,1,1,0,0]","mutagen_history":"[0,0,0,0,0,0,1,1,0,0]","location_rts":"[2482,526,405,358,369,290,888,938,1790,640]","trial_type":"fractal-mutation","trial_index":84,"time_elapsed":2345766,"internal_node_id":"0.0-5.0-30.0"},{"group":"hexagon_bi","fractal_assignment":["../images/pnk_blu.png","../images/org_blu.png","../images/cyn_red.png","../images/blu_wht.png","../images/gry_blk.png","../images/ylw_slt.png"],"mutagen_generator_assignment":[0,1],"goal":0,"start":3,"action_noise":0.15,"location_history":"[3,2,1,0]","action_history":"[1,1,1]","mutagen_history":"[1,1,1]","location_rts":"[5564,366,556]","trial_type":"fractal-mutation","trial_index":85,"time_elapsed":2358826,"internal_node_id":"0.0-5.0-31.0"},{"group":"hexagon_bi","fractal_assignment":["../images/pnk_blu.png","../images/org_blu.png","../images/cyn_red.png","../images/blu_wht.png","../images/gry_blk.png","../images/ylw_slt.png"],"mutagen_generator_assignment":[0,1],"goal":4,"start":0,"action_noise":0.15,"location_history":"[0,5,0,5,0,5,0,5,0,5,0,5,0,1,0,1,2,1,2,3,4]","action_history":"[0,0,0,0,0,0,0,0,0,0,0,0,0,1,0,0,0,0,1,0]","mutagen_history":"[0,0,0,0,0,0,0,0,0,0,0,0,0,1,0,0,0,0,1,0]","location_rts":"[1630,448,564,50,420,405,592,852,271,581,176,216,381,671,677,477,431,727,591,735]","trial_type":"fractal-mutation","trial_index":86,"time_elapsed":2393579,"internal_node_id":"0.0-5.0-32.0"},{"group":"hexagon_bi","fractal_assignment":["../images/pnk_blu.png","../images/org_blu.png","../images/cyn_red.png","../images/blu_wht.png","../images/gry_blk.png","../images/ylw_slt.png"],"mutagen_generator_assignment":[0,1],"goal":1,"start":4,"action_noise":0.15,"location_history":"[4,3,2,1]","action_history":"[0,0,0]","mutagen_history":"[0,0,0]","location_rts":"[1504,1105,1125]","trial_type":"fractal-mutation","trial_index":87,"time_elapsed":2403846,"internal_node_id":"0.0-5.0-33.0"},{"group":"hexagon_bi","fractal_assignment":["../images/pnk_blu.png","../images/org_blu.png","../images/cyn_red.png","../images/blu_wht.png","../images/gry_blk.png","../images/ylw_slt.png"],"mutagen_generator_assignment":[0,1],"goal":2,"start":1,"action_noise":0.15,"location_history":"[1,0,1,2]","action_history":"[0,0,0]","mutagen_history":"[0,0,0]","location_rts":"[994,665,843]","trial_type":"fractal-mutation","trial_index":88,"time_elapsed":2412898,"internal_node_id":"0.0-5.0-34.0"},{"group":"hexagon_bi","fractal_assignment":["../images/pnk_blu.png","../images/org_blu.png","../images/cyn_red.png","../images/blu_wht.png","../images/gry_blk.png","../images/ylw_slt.png"],"mutagen_generator_assignment":[0,1],"goal":0,"start":2,"action_noise":0.15,"location_history":"[2,1,0]","action_history":"[0,0]","mutagen_history":"[0,0]","location_rts":"[2003,708]","trial_type":"fractal-mutation","trial_index":89,"time_elapsed":2421139,"internal_node_id":"0.0-5.0-35.0"},{"group":"hexagon_bi","fractal_assignment":["../images/pnk_blu.png","../images/org_blu.png","../images/cyn_red.png","../images/blu_wht.png","../images/gry_blk.png","../images/ylw_slt.png"],"mutagen_generator_assignment":[0,1],"goal":5,"start":0,"action_noise":0.15,"location_history":"[0,1,2,1,2,1,2,1,2,1,0,5]","action_history":"[0,0,0,0,0,0,0,0,0,1,0]","mutagen_history":"[0,0,0,0,0,0,0,0,0,1,0]","location_rts":"[2177,461,530,487,525,589,935,568,603,511,988]","trial_type":"fractal-mutation","trial_index":90,"time_elapsed":2444210,"internal_node_id":"0.0-5.0-36.0"},{"group":"hexagon_bi","fractal_assignment":["../images/pnk_blu.png","../images/org_blu.png","../images/cyn_red.png","../images/blu_wht.png","../images/gry_blk.png","../images/ylw_slt.png"],"mutagen_generator_assignment":[0,1],"goal":2,"start":5,"action_noise":0.15,"location_history":"[5,4,3,2]","action_history":"[0,0,0]","mutagen_history":"[0,0,0]","location_rts":"[1021,574,1372]","trial_type":"fractal-mutation","trial_index":91,"time_elapsed":2453705,"internal_node_id":"0.0-5.0-37.0"},{"group":"hexagon_bi","fractal_assignment":["../images/pnk_blu.png","../images/org_blu.png","../images/cyn_red.png","../images/blu_wht.png","../images/gry_blk.png","../images/ylw_slt.png"],"mutagen_generator_assignment":[0,1],"goal":1,"start":2,"action_noise":0.15,"location_history":"[2,3,2,1]","action_history":"[1,1,1]","mutagen_history":"[1,1,1]","location_rts":"[2096,501,617]","trial_type":"fractal-mutation","trial_index":92,"time_elapsed":2463497,"internal_node_id":"0.0-5.0-38.0"},{"group":"hexagon_bi","fractal_assignment":["../images/pnk_blu.png","../images/org_blu.png","../images/cyn_red.png","../images/blu_wht.png","../images/gry_blk.png","../images/ylw_slt.png"],"mutagen_generator_assignment":[0,1],"goal":4,"start":1,"action_noise":0.15,"location_history":"[1,2,3,2,1,2,1,2,1,0,5,0,5,0,5,0,5,0,5,0,1,2,1,2,1,2,1,2,1,2,1,2,1,0,5,0,5,4]","action_history":"[0,0,0,0,0,0,0,0,1,0,0,0,0,0,0,0,0,0,0,1,0,0,0,0,0,1,0,0,0,0,0,0,0,0,0,0,0]","mutagen_history":"[0,0,0,0,0,0,0,0,1,0,0,0,0,0,0,0,0,0,0,1,0,0,0,0,0,1,0,0,0,0,0,0,0,0,0,0,0]","location_rts":"[1869,532,558,669,529,251,401,1712,832,716,480,462,889,478,532,683,535,1984,878,719,1488,698,681,978,1603,777,584,672,499,593,356,178,133,196,144,36,628]","trial_type":"fractal-mutation","trial_index":93,"time_elapsed":2530595,"internal_node_id":"0.0-5.0-39.0"},{"group":"hexagon_bi","fractal_assignment":["../images/pnk_blu.png","../images/org_blu.png","../images/cyn_red.png","../images/blu_wht.png","../images/gry_blk.png","../images/ylw_slt.png"],"mutagen_generator_assignment":[0,1],"goal":3,"start":4,"action_noise":0.15,"location_history":"[4,3]","action_history":"[0]","mutagen_history":"[0]","location_rts":"[1424]","trial_type":"fractal-mutation","trial_index":94,"time_elapsed":2536534,"internal_node_id":"0.0-5.0-40.0"},{"group":"hexagon_bi","fractal_assignment":["../images/pnk_blu.png","../images/org_blu.png","../images/cyn_red.png","../images/blu_wht.png","../images/gry_blk.png","../images/ylw_slt.png"],"mutagen_generator_assignment":[0,1],"goal":5,"start":3,"action_noise":0.15,"location_history":"[3,2,1,0,5]","action_history":"[1,1,1,0]","mutagen_history":"[1,1,1,0]","location_rts":"[5182,474,539,714]","trial_type":"fractal-mutation","trial_index":95,"time_elapsed":2551050,"internal_node_id":"0.0-5.0-41.0"},{"group":"hexagon_bi","fractal_assignment":["../images/pnk_blu.png","../images/org_blu.png","../images/cyn_red.png","../images/blu_wht.png","../images/gry_blk.png","../images/ylw_slt.png"],"mutagen_generator_assignment":[0,1],"goal":3,"start":5,"action_noise":0.15,"location_history":"[5,0,5,0,5,0,5,0,1,2,1,0,5,0,1,2,3]","action_history":"[0,0,0,0,0,0,0,0,0,0,1,0,0,0,0,1]","mutagen_history":"[0,0,0,0,0,0,0,0,0,0,1,0,0,0,0,1]","location_rts":"[1127,540,437,533,814,172,559,236,241,324,808,869,555,434,438,680]","trial_type":"fractal-mutation","trial_index":96,"time_elapsed":2579579,"internal_node_id":"0.0-5.0-42.0"},{"group":"hexagon_bi","fractal_assignment":["../images/pnk_blu.png","../images/org_blu.png","../images/cyn_red.png","../images/blu_wht.png","../images/gry_blk.png","../images/ylw_slt.png"],"mutagen_generator_assignment":[0,1],"goal":0,"start":3,"action_noise":0.15,"location_history":"[3,2,1,2,3,2,3,2,3,2,3,2,3,2,1,2,3,4,3,4,3,4,3,4,5,4,3,4,5,0]","action_history":"[1,1,1,1,1,1,1,1,1,1,1,1,1,1,0,0,0,0,0,0,0,0,0,1,1,0,0,0,0]","mutagen_history":"[1,1,1,1,1,1,1,1,1,1,1,1,1,1,0,0,0,0,0,0,0,0,0,1,1,0,0,0,0]","location_rts":"[1579,416,422,454,585,470,487,529,443,435,403,407,373,643,589,530,581,495,448,427,229,512,297,621,1331,987,530,1841,1379]","trial_type":"fractal-mutation","trial_index":97,"time_elapsed":2631140,"internal_node_id":"0.0-5.0-43.0"},{"group":"hexagon_bi","fractal_assignment":["../images/pnk_blu.png","../images/org_blu.png","../images/cyn_red.png","../images/blu_wht.png","../images/gry_blk.png","../images/ylw_slt.png"],"mutagen_generator_assignment":[0,1],"goal":2,"start":0,"action_noise":0.15,"location_history":"[0,5,0,5,0,5,4,3,2]","action_history":"[0,0,0,0,0,0,0,1]","mutagen_history":"[0,0,0,0,0,0,0,1]","location_rts":"[1300,347,1009,467,943,746,884,1570]","trial_type":"fractal-mutation","trial_index":98,"time_elapsed":2650024,"internal_node_id":"0.0-5.0-44.0"},{"group":"hexagon_bi","fractal_assignment":["../images/pnk_blu.png","../images/org_blu.png","../images/cyn_red.png","../images/blu_wht.png","../images/gry_blk.png","../images/ylw_slt.png"],"mutagen_generator_assignment":[0,1],"goal":4,"start":2,"action_noise":0.15,"location_history":"[2,1,0,5,4]","action_history":"[0,0,0,1]","mutagen_history":"[0,0,0,1]","location_rts":"[1084,368,253,496]","trial_type":"fractal-mutation","trial_index":99,"time_elapsed":2659798,"internal_node_id":"0.0-5.0-45.0"},{"group":"hexagon_bi","fractal_assignment":["../images/pnk_blu.png","../images/org_blu.png","../images/cyn_red.png","../images/blu_wht.png","../images/gry_blk.png","../images/ylw_slt.png"],"mutagen_generator_assignment":[0,1],"goal":1,"start":4,"action_noise":0.15,"location_history":"[4,5,4,5,4,5,4,5,0,1]","action_history":"[1,1,1,1,1,1,1,1,1]","mutagen_history":"[1,1,1,1,1,1,1,1,1]","location_rts":"[4466,1683,529,739,560,681,550,809,2204]","trial_type":"fractal-mutation","trial_index":100,"time_elapsed":2684844,"internal_node_id":"0.0-5.0-46.0"},{"group":"hexagon_bi","fractal_assignment":["../images/pnk_blu.png","../images/org_blu.png","../images/cyn_red.png","../images/blu_wht.png","../images/gry_blk.png","../images/ylw_slt.png"],"mutagen_generator_assignment":[0,1],"goal":4,"start":1,"action_noise":0.15,"location_history":"[1,2,3,4]","action_history":"[0,0,0]","mutagen_history":"[0,0,0]","location_rts":"[4364,952,414]","trial_type":"fractal-mutation","trial_index":101,"time_elapsed":2697114,"internal_node_id":"0.0-5.0-47.0"},{"group":"hexagon_bi","fractal_assignment":["../images/pnk_blu.png","../images/org_blu.png","../images/cyn_red.png","../images/blu_wht.png","../images/gry_blk.png","../images/ylw_slt.png"],"mutagen_generator_assignment":[0,1],"goal":3,"start":4,"action_noise":0.15,"location_history":"[4,3]","action_history":"[0]","mutagen_history":"[0]","location_rts":"[933]","trial_type":"fractal-mutation","trial_index":102,"time_elapsed":2702570,"internal_node_id":"0.0-5.0-48.0"},{"group":"hexagon_bi","fractal_assignment":["../images/pnk_blu.png","../images/org_blu.png","../images/cyn_red.png","../images/blu_wht.png","../images/gry_blk.png","../images/ylw_slt.png"],"mutagen_generator_assignment":[0,1],"goal":5,"start":3,"action_noise":0.15,"location_history":"[3,2,3,4,5]","action_history":"[1,1,1,1]","mutagen_history":"[1,1,1,1]","location_rts":"[1780,394,471,648]","trial_type":"fractal-mutation","trial_index":103,"time_elapsed":2713466,"internal_node_id":"0.0-5.0-49.0"},{"view_history":"[{\"page_index\":0,\"viewing_time\":11000}]","rt":11000,"trial_type":"instructions","trial_index":104,"time_elapsed":2725466,"internal_node_id":"0.0-6.0"},{"rt":6930,"responses":"{\"Q0\":\"fun thanks :)\"}","trial_type":"survey-text","trial_index":105,"time_elapsed":2733400,"internal_node_id":"0.0-7.0"}]