[{"view_history":"[{\"page_index\":0,\"viewing_time\":5441},{\"page_index\":1,\"viewing_time\":11489},{\"page_index\":2,\"viewing_time\":14621},{\"page_index\":3,\"viewing_time\":10375}]","rt":41927,"trial_type":"instructions","trial_index":0,"time_elapsed":41927,"internal_node_id":"0.0-0.0"},{"view_history":"[{\"page_index\":0,\"viewing_time\":2366},{\"page_index\":1,\"viewing_time\":20737}]","rt":23103,"trial_type":"instructions","trial_index":1,"time_elapsed":66031,"internal_node_id":"0.0-1.0"},{"group":"hexagon_bi","room_assignment":["grey","purple","blue","red","yellow","green"],"door_color_assignment":["black","white"],"door_generator_assignment":[0,1],"goal":4,"start":0,"action_noise":0.15,"location_history":"[0,1,0,5,0,1,0,1,2,1,2,3,2,3,4]","action_history":"[1,1,1,1,1,1,1,0,0,0,1,1,1,0]","door_history":"[1,1,1,1,1,1,1,0,0,0,1,1,1,0]","location_rts":"[3869,6231,3314,2494,1277,1203,782,3575,1651,2262,1349,2634,2470,1175]","trial_type":"two-door-navigation","trial_index":2,"time_elapsed":118294,"internal_node_id":"0.0-2.0-0.0"},{"group":"hexagon_bi","room_assignment":["grey","purple","blue","red","yellow","green"],"door_color_assignment":["black","white"],"door_generator_assignment":[0,1],"goal":3,"start":4,"action_noise":0.15,"location_history":"[4,3]","action_history":"[0]","door_history":"[0]","location_rts":"[3896]","trial_type":"two-door-navigation","trial_index":3,"time_elapsed":126755,"internal_node_id":"0.0-2.0-1.0"},{"group":"hexagon_bi","room_assignment":["grey","purple","blue","red","yellow","green"],"door_color_assignment":["black","white"],"door_generator_assignment":[0,1],"goal":5,"start":3,"action_noise":0.15,"location_history":"[3,2,3,4,3,2,3,2,3,2,1,2,1,2,3,2,3,2,1,2,1,0,5]","action_history":"[1,0,0,0,1,1,1,1,1,0,0,0,1,1,1,1,1,0,0,0,1,0]","door_history":"[1,0,0,0,1,1,1,1,1,0,0,0,1,1,1,1,1,0,0,0,1,0]","location_rts":"[2920,2263,1691,1346,1845,892,847,784,1016,1727,3493,879,1340,1198,1011,675,1070,553,1336,540,1554,2002]","trial_type":"two-door-navigation","trial_index":4,"time_elapsed":184215,"internal_node_id":"0.0-2.0-2.0"},{"group":"hexagon_bi","room_assignment":["grey","purple","blue","red","yellow","green"],"door_color_assignment":["black","white"],"door_generator_assignment":[0,1],"goal":2,"start":5,"action_noise":0.15,"location_history":"[5,4,5,0,5,4,5,4,3,2]","action_history":"[1,1,0,0,1,1,1,0,1]","door_history":"[1,1,0,0,1,1,1,0,1]","location_rts":"[4592,1812,2145,970,1993,1234,1092,540,4202]","trial_type":"two-door-navigation","trial_index":5,"time_elapsed":215683,"internal_node_id":"0.0-2.0-3.0"},{"group":"hexagon_bi","room_assignment":["grey","purple","blue","red","yellow","green"],"door_color_assignment":["black","white"],"door_generator_assignment":[0,1],"goal":1,"start":2,"action_noise":0.15,"location_history":"[2,1]","action_history":"[0]","door_history":"[0]","location_rts":"[2546]","trial_type":"two-door-navigation","trial_index":6,"time_elapsed":222758,"internal_node_id":"0.0-2.0-4.0"},{"group":"hexagon_bi","room_assignment":["grey","purple","blue","red","yellow","green"],"door_color_assignment":["black","white"],"door_generator_assignment":[0,1],"goal":4,"start":1,"action_noise":0.15,"location_history":"[1,0,1,0,5,4]","action_history":"[1,1,0,0,1]","door_history":"[1,1,0,0,1]","location_rts":"[2296,1572,1439,884,1500]","trial_type":"two-door-navigation","trial_index":7,"time_elapsed":239093,"internal_node_id":"0.0-2.0-5.0"},{"group":"hexagon_bi","room_assignment":["grey","purple","blue","red","yellow","green"],"door_color_assignment":["black","white"],"door_generator_assignment":[0,1],"goal":1,"start":4,"action_noise":0.15,"location_history":"[4,3,2,3,4,3,4,3,2,1]","action_history":"[0,1,0,0,0,1,1,1,0]","door_history":"[0,1,0,0,0,1,1,1,0]","location_rts":"[2499,2393,2895,1071,1181,1394,667,395,3669]","trial_type":"two-door-navigation","trial_index":8,"time_elapsed":268283,"internal_node_id":"0.0-2.0-6.0"},{"group":"hexagon_bi","room_assignment":["grey","purple","blue","red","yellow","green"],"door_color_assignment":["black","white"],"door_generator_assignment":[0,1],"goal":5,"start":1,"action_noise":0.15,"location_history":"[1,0,1,2,1,2,3,4,3,2,1,2,3,4,3,2,1,0,5]","action_history":"[1,0,0,0,0,1,0,0,1,1,1,0,0,0,1,0,1,0]","door_history":"[1,0,0,0,0,1,0,0,1,1,1,0,0,0,1,0,1,0]","location_rts":"[3076,4299,1396,1007,758,1210,3597,1333,1054,2086,404,1692,1565,1616,1180,2656,1407,1984]","trial_type":"two-door-navigation","trial_index":9,"time_elapsed":322911,"internal_node_id":"0.0-2.0-7.0"},{"group":"hexagon_bi","room_assignment":["grey","purple","blue","red","yellow","green"],"door_color_assignment":["black","white"],"door_generator_assignment":[0,1],"goal":0,"start":5,"action_noise":0.15,"location_history":"[5,0]","action_history":"[0]","door_history":"[0]","location_rts":"[3050]","trial_type":"two-door-navigation","trial_index":10,"time_elapsed":330527,"internal_node_id":"0.0-2.0-8.0"},{"group":"hexagon_bi","room_assignment":["grey","purple","blue","red","yellow","green"],"door_color_assignment":["black","white"],"door_generator_assignment":[0,1],"goal":2,"start":0,"action_noise":0.15,"location_history":"[0,1,0,1,2]","action_history":"[1,1,1,0]","door_history":"[1,1,1,0]","location_rts":"[2304,2047,1134,1014]","trial_type":"two-door-navigation","trial_index":11,"time_elapsed":344678,"internal_node_id":"0.0-2.0-9.0"},{"group":"hexagon_bi","room_assignment":["grey","purple","blue","red","yellow","green"],"door_color_assignment":["black","white"],"door_generator_assignment":[0,1],"goal":3,"start":2,"action_noise":0.15,"location_history":"[2,1,0,5,4,3]","action_history":"[0,1,1,1,1]","door_history":"[0,1,1,1,1]","location_rts":"[5008,1170,1194,1363,1417]","trial_type":"two-door-navigation","trial_index":12,"time_elapsed":363553,"internal_node_id":"0.0-2.0-10.0"},{"group":"hexagon_bi","room_assignment":["grey","purple","blue","red","yellow","green"],"door_color_assignment":["black","white"],"door_generator_assignment":[0,1],"goal":0,"start":3,"action_noise":0.15,"location_history":"[3,2,1,0]","action_history":"[1,0,0]","door_history":"[1,0,0]","location_rts":"[3231,1447,1526]","trial_type":"two-door-navigation","trial_index":13,"time_elapsed":376417,"internal_node_id":"0.0-2.0-11.0"},{"group":"hexagon_bi","room_assignment":["grey","purple","blue","red","yellow","green"],"door_color_assignment":["black","white"],"door_generator_assignment":[0,1],"goal":2,"start":0,"action_noise":0.15,"location_history":"[0,1,0,1,2]","action_history":"[1,1,1,0]","door_history":"[1,1,1,0]","location_rts":"[3175,1401,673,1382]","trial_type":"two-door-navigation","trial_index":14,"time_elapsed":390710,"internal_node_id":"0.0-2.0-12.0"},{"group":"hexagon_bi","room_assignment":["grey","purple","blue","red","yellow","green"],"door_color_assignment":["black","white"],"door_generator_assignment":[0,1],"goal":5,"start":2,"action_noise":0.15,"location_history":"[2,1,0,5]","action_history":"[0,0,0]","door_history":"[0,0,0]","location_rts":"[7232,870,2804]","trial_type":"two-door-navigation","trial_index":15,"time_elapsed":408238,"internal_node_id":"0.0-2.0-13.0"},{"group":"hexagon_bi","room_assignment":["grey","purple","blue","red","yellow","green"],"door_color_assignment":["black","white"],"door_generator_assignment":[0,1],"goal":4,"start":5,"action_noise":0.15,"location_history":"[5,0,1,2,3,4]","action_history":"[0,1,0,1,1]","door_history":"[0,1,0,1,1]","location_rts":"[3720,679,1847,2132,1321]","trial_type":"two-door-navigation","trial_index":16,"time_elapsed":426659,"internal_node_id":"0.0-2.0-14.0"},{"group":"hexagon_bi","room_assignment":["grey","purple","blue","red","yellow","green"],"door_color_assignment":["black","white"],"door_generator_assignment":[0,1],"goal":3,"start":4,"action_noise":0.15,"location_history":"[4,5,4,3]","action_history":"[1,1,1]","door_history":"[1,1,1]","location_rts":"[2601,1197,637]","trial_type":"two-door-navigation","trial_index":17,"time_elapsed":437712,"internal_node_id":"0.0-2.0-15.0"},{"group":"hexagon_bi","room_assignment":["grey","purple","blue","red","yellow","green"],"door_color_assignment":["black","white"],"door_generator_assignment":[0,1],"goal":1,"start":3,"action_noise":0.15,"location_history":"[3,4,3,2,1]","action_history":"[0,0,1,0]","door_history":"[0,0,1,0]","location_rts":"[4430,3679,1238,2597]","trial_type":"two-door-navigation","trial_index":18,"time_elapsed":457371,"internal_node_id":"0.0-2.0-16.0"},{"group":"hexagon_bi","room_assignment":["grey","purple","blue","red","yellow","green"],"door_color_assignment":["black","white"],"door_generator_assignment":[0,1],"goal":5,"start":1,"action_noise":0.15,"location_history":"[1,2,3,4,3,4,3,2,3,2,1,2,1,2,3,4,5]","action_history":"[0,1,0,0,0,0,1,1,1,0,1,0,0,1,0,0]","door_history":"[0,1,0,0,0,0,1,1,1,0,1,0,0,1,0,0]","location_rts":"[2076,2884,1997,1953,1080,520,496,4564,445,1061,2001,1995,700,1565,1581,2429]","trial_type":"two-door-navigation","trial_index":19,"time_elapsed":505053,"internal_node_id":"0.0-2.0-17.0"},{"group":"hexagon_bi","room_assignment":["grey","purple","blue","red","yellow","green"],"door_color_assignment":["black","white"],"door_generator_assignment":[0,1],"goal":4,"start":5,"action_noise":0.15,"location_history":"[5,0,1,0,1,2,3,2,1,2,3,2,3,4]","action_history":"[0,1,1,1,0,1,1,0,1,1,1,1,0]","door_history":"[0,1,1,1,0,1,1,0,1,1,1,1,0]","location_rts":"[4712,1376,1224,786,633,1299,1216,1881,897,982,1880,598,576]","trial_type":"two-door-navigation","trial_index":20,"time_elapsed":540266,"internal_node_id":"0.0-2.0-18.0"},{"group":"hexagon_bi","room_assignment":["grey","purple","blue","red","yellow","green"],"door_color_assignment":["black","white"],"door_generator_assignment":[0,1],"goal":0,"start":4,"action_noise":0.15,"location_history":"[4,3,2,1,2,3,4,5,0]","action_history":"[0,1,0,0,0,0,0,0]","door_history":"[0,1,0,0,0,0,0,0]","location_rts":"[2398,1223,1489,1363,362,1910,1343,3444]","trial_type":"two-door-navigation","trial_index":21,"time_elapsed":565636,"internal_node_id":"0.0-2.0-19.0"},{"group":"hexagon_bi","room_assignment":["grey","purple","blue","red","yellow","green"],"door_color_assignment":["black","white"],"door_generator_assignment":[0,1],"goal":1,"start":0,"action_noise":0.15,"location_history":"[0,5,4,3,2,1]","action_history":"[1,1,0,1,1]","door_history":"[1,1,0,1,1]","location_rts":"[2483,3589,1495,2925,374]","trial_type":"two-door-navigation","trial_index":22,"time_elapsed":585212,"internal_node_id":"0.0-2.0-20.0"},{"group":"hexagon_bi","room_assignment":["grey","purple","blue","red","yellow","green"],"door_color_assignment":["black","white"],"door_generator_assignment":[0,1],"goal":3,"start":1,"action_noise":0.15,"location_history":"[1,2,3]","action_history":"[0,1]","door_history":"[0,1]","location_rts":"[2018,1512]","trial_type":"two-door-navigation","trial_index":23,"time_elapsed":594324,"internal_node_id":"0.0-2.0-21.0"},{"group":"hexagon_bi","room_assignment":["grey","purple","blue","red","yellow","green"],"door_color_assignment":["black","white"],"door_generator_assignment":[0,1],"goal":2,"start":3,"action_noise":0.15,"location_history":"[3,2]","action_history":"[0]","door_history":"[0]","location_rts":"[4961]","trial_type":"two-door-navigation","trial_index":24,"time_elapsed":603816,"internal_node_id":"0.0-2.0-22.0"},{"group":"hexagon_bi","room_assignment":["grey","purple","blue","red","yellow","green"],"door_color_assignment":["black","white"],"door_generator_assignment":[0,1],"goal":0,"start":2,"action_noise":0.15,"location_history":"[2,1,2,1,0]","action_history":"[1,0,1,1]","door_history":"[1,0,1,1]","location_rts":"[2687,4714,1606,1751]","trial_type":"two-door-navigation","trial_index":25,"time_elapsed":622242,"internal_node_id":"0.0-2.0-23.0"},{"group":"hexagon_bi","room_assignment":["grey","purple","blue","red","yellow","green"],"door_color_assignment":["black","white"],"door_generator_assignment":[0,1],"goal":3,"start":0,"action_noise":0.15,"location_history":"[0,5,0,5,4,3]","action_history":"[0,1,0,1,0]","door_history":"[0,1,0,1,0]","location_rts":"[5100,1162,1801,812,2132]","trial_type":"two-door-navigation","trial_index":26,"time_elapsed":641876,"internal_node_id":"0.0-2.0-24.0"},{"group":"hexagon_bi","room_assignment":["grey","purple","blue","red","yellow","green"],"door_color_assignment":["black","white"],"door_generator_assignment":[0,1],"goal":1,"start":3,"action_noise":0.15,"location_history":"[3,4,3,2,1]","action_history":"[1,0,0,1]","door_history":"[1,0,0,1]","location_rts":"[2324,1391,1713,2635]","trial_type":"two-door-navigation","trial_index":27,"time_elapsed":657603,"internal_node_id":"0.0-2.0-25.0"},{"group":"hexagon_bi","room_assignment":["grey","purple","blue","red","yellow","green"],"door_color_assignment":["black","white"],"door_generator_assignment":[0,1],"goal":2,"start":1,"action_noise":0.15,"location_history":"[1,0,1,0,1,2]","action_history":"[1,1,0,1,0]","door_history":"[1,1,0,1,0]","location_rts":"[2311,1637,2046,1662,483]","trial_type":"two-door-navigation","trial_index":28,"time_elapsed":674559,"internal_node_id":"0.0-2.0-26.0"},{"group":"hexagon_bi","room_assignment":["grey","purple","blue","red","yellow","green"],"door_color_assignment":["black","white"],"door_generator_assignment":[0,1],"goal":5,"start":2,"action_noise":0.15,"location_history":"[2,3,4,3,2,1,0,5]","action_history":"[1,0,0,1,0,1,0]","door_history":"[1,0,0,1,0,1,0]","location_rts":"[2864,3690,1418,1376,4095,2119,1466]","trial_type":"two-door-navigation","trial_index":29,"time_elapsed":702459,"internal_node_id":"0.0-2.0-27.0"},{"group":"hexagon_bi","room_assignment":["grey","purple","blue","red","yellow","green"],"door_color_assignment":["black","white"],"door_generator_assignment":[0,1],"goal":4,"start":5,"action_noise":0.15,"location_history":"[5,4]","action_history":"[1]","door_history":"[1]","location_rts":"[3806]","trial_type":"two-door-navigation","trial_index":30,"time_elapsed":710799,"internal_node_id":"0.0-2.0-28.0"},{"group":"hexagon_bi","room_assignment":["grey","purple","blue","red","yellow","green"],"door_color_assignment":["black","white"],"door_generator_assignment":[0,1],"goal":5,"start":4,"action_noise":0.15,"location_history":"[4,5]","action_history":"[1]","door_history":"[1]","location_rts":"[5986]","trial_type":"two-door-navigation","trial_index":31,"time_elapsed":721403,"internal_node_id":"0.0-2.0-29.0"},{"group":"hexagon_bi","room_assignment":["grey","purple","blue","red","yellow","green"],"door_color_assignment":["black","white"],"door_generator_assignment":[0,1],"goal":3,"start":5,"action_noise":0.15,"location_history":"[5,4,3]","action_history":"[1,0]","door_history":"[1,0]","location_rts":"[5052,1300]","trial_type":"two-door-navigation","trial_index":32,"time_elapsed":733394,"internal_node_id":"0.0-2.0-30.0"},{"group":"hexagon_bi","room_assignment":["grey","purple","blue","red","yellow","green"],"door_color_assignment":["black","white"],"door_generator_assignment":[0,1],"goal":0,"start":3,"action_noise":0.15,"location_history":"[3,2,1,0]","action_history":"[1,0,1]","door_history":"[1,0,1]","location_rts":"[4147,2524,1248]","trial_type":"two-door-navigation","trial_index":33,"time_elapsed":747992,"internal_node_id":"0.0-2.0-31.0"},{"group":"hexagon_bi","room_assignment":["grey","purple","blue","red","yellow","green"],"door_color_assignment":["black","white"],"door_generator_assignment":[0,1],"goal":4,"start":0,"action_noise":0.15,"location_history":"[0,5,0,5,4]","action_history":"[0,1,0,1]","door_history":"[0,1,0,1]","location_rts":"[2486,940,1383,706]","trial_type":"two-door-navigation","trial_index":34,"time_elapsed":761281,"internal_node_id":"0.0-2.0-32.0"},{"group":"hexagon_bi","room_assignment":["grey","purple","blue","red","yellow","green"],"door_color_assignment":["black","white"],"door_generator_assignment":[0,1],"goal":1,"start":4,"action_noise":0.15,"location_history":"[4,3,2,1]","action_history":"[0,1,0]","door_history":"[0,1,0]","location_rts":"[5359,2390,2382]","trial_type":"two-door-navigation","trial_index":35,"time_elapsed":778060,"internal_node_id":"0.0-2.0-33.0"},{"group":"hexagon_bi","room_assignment":["grey","purple","blue","red","yellow","green"],"door_color_assignment":["black","white"],"door_generator_assignment":[0,1],"goal":2,"start":1,"action_noise":0.15,"location_history":"[1,2]","action_history":"[0]","door_history":"[0]","location_rts":"[4220]","trial_type":"two-door-navigation","trial_index":36,"time_elapsed":786813,"internal_node_id":"0.0-2.0-34.0"},{"group":"hexagon_bi","room_assignment":["grey","purple","blue","red","yellow","green"],"door_color_assignment":["black","white"],"door_generator_assignment":[0,1],"goal":0,"start":2,"action_noise":0.15,"location_history":"[2,3,4,3,4,3,2,3,4,3,2,1,2,1,0]","action_history":"[1,0,1,1,0,0,1,0,0,1,0,1,0,1]","door_history":"[1,0,1,1,0,0,1,0,0,1,0,1,0,1]","location_rts":"[2840,2161,2679,1069,856,1351,2517,773,1351,1976,2079,1625,1273,466]","trial_type":"two-door-navigation","trial_index":37,"time_elapsed":828264,"internal_node_id":"0.0-2.0-35.0"},{"group":"hexagon_bi","room_assignment":["grey","purple","blue","red","yellow","green"],"door_color_assignment":["black","white"],"door_generator_assignment":[0,1],"goal":5,"start":0,"action_noise":0.15,"location_history":"[0,5]","action_history":"[0]","door_history":"[0]","location_rts":"[1990]","trial_type":"two-door-navigation","trial_index":38,"time_elapsed":834777,"internal_node_id":"0.0-2.0-36.0"},{"group":"hexagon_bi","room_assignment":["grey","purple","blue","red","yellow","green"],"door_color_assignment":["black","white"],"door_generator_assignment":[0,1],"goal":2,"start":5,"action_noise":0.15,"location_history":"[5,4,3,2]","action_history":"[1,0,1]","door_history":"[1,0,1]","location_rts":"[3365,4734,1079]","trial_type":"two-door-navigation","trial_index":39,"time_elapsed":850582,"internal_node_id":"0.0-2.0-37.0"},{"group":"hexagon_bi","room_assignment":["grey","purple","blue","red","yellow","green"],"door_color_assignment":["black","white"],"door_generator_assignment":[0,1],"goal":1,"start":2,"action_noise":0.15,"location_history":"[2,1]","action_history":"[0]","door_history":"[0]","location_rts":"[2079]","trial_type":"two-door-navigation","trial_index":40,"time_elapsed":857202,"internal_node_id":"0.0-2.0-38.0"},{"group":"hexagon_bi","room_assignment":["grey","purple","blue","red","yellow","green"],"door_color_assignment":["black","white"],"door_generator_assignment":[0,1],"goal":4,"start":1,"action_noise":0.15,"location_history":"[1,0,5,4]","action_history":"[1,0,1]","door_history":"[1,0,1]","location_rts":"[5685,2481,602]","trial_type":"two-door-navigation","trial_index":41,"time_elapsed":872690,"internal_node_id":"0.0-2.0-39.0"},{"group":"hexagon_bi","room_assignment":["grey","purple","blue","red","yellow","green"],"door_color_assignment":["black","white"],"door_generator_assignment":[0,1],"goal":3,"start":4,"action_noise":0.15,"location_history":"[4,5,4,3]","action_history":"[1,1,0]","door_history":"[1,1,0]","location_rts":"[2165,2379,1536]","trial_type":"two-door-navigation","trial_index":42,"time_elapsed":885440,"internal_node_id":"0.0-2.0-40.0"},{"group":"hexagon_bi","room_assignment":["grey","purple","blue","red","yellow","green"],"door_color_assignment":["black","white"],"door_generator_assignment":[0,1],"goal":5,"start":3,"action_noise":0.15,"location_history":"[3,4,5]","action_history":"[0,1]","door_history":"[0,1]","location_rts":"[6614,1573]","trial_type":"two-door-navigation","trial_index":43,"time_elapsed":899200,"internal_node_id":"0.0-2.0-41.0"},{"group":"hexagon_bi","room_assignment":["grey","purple","blue","red","yellow","green"],"door_color_assignment":["black","white"],"door_generator_assignment":[0,1],"goal":3,"start":5,"action_noise":0.15,"location_history":"[5,4,5,4,3]","action_history":"[1,0,1,0]","door_history":"[1,0,1,0]","location_rts":"[4040,669,1898,413]","trial_type":"two-door-navigation","trial_index":44,"time_elapsed":913910,"internal_node_id":"0.0-2.0-42.0"},{"group":"hexagon_bi","room_assignment":["grey","purple","blue","red","yellow","green"],"door_color_assignment":["black","white"],"door_generator_assignment":[0,1],"goal":0,"start":3,"action_noise":0.15,"location_history":"[3,4,5,0]","action_history":"[0,1,0]","door_history":"[0,1,0]","location_rts":"[7132,2082,1096]","trial_type":"two-door-navigation","trial_index":45,"time_elapsed":930923,"internal_node_id":"0.0-2.0-43.0"},{"group":"hexagon_bi","room_assignment":["grey","purple","blue","red","yellow","green"],"door_color_assignment":["black","white"],"door_generator_assignment":[0,1],"goal":2,"start":0,"action_noise":0.15,"location_history":"[0,5,0,5,0,1,2]","action_history":"[1,0,1,0,1,0]","door_history":"[1,0,1,0,1,0]","location_rts":"[2585,4494,941,1658,1130,3500]","trial_type":"two-door-navigation","trial_index":46,"time_elapsed":955105,"internal_node_id":"0.0-2.0-44.0"},{"group":"hexagon_bi","room_assignment":["grey","purple","blue","red","yellow","green"],"door_color_assignment":["black","white"],"door_generator_assignment":[0,1],"goal":4,"start":2,"action_noise":0.15,"location_history":"[2,1,0,5,4]","action_history":"[0,1,0,1]","door_history":"[0,1,0,1]","location_rts":"[4934,1610,1985,566]","trial_type":"two-door-navigation","trial_index":47,"time_elapsed":971962,"internal_node_id":"0.0-2.0-45.0"},{"group":"hexagon_bi","room_assignment":["grey","purple","blue","red","yellow","green"],"door_color_assignment":["black","white"],"door_generator_assignment":[0,1],"goal":1,"start":4,"action_noise":0.15,"location_history":"[4,5,0,1]","action_history":"[1,0,1]","door_history":"[1,0,1]","location_rts":"[2624,6123,1962]","trial_type":"two-door-navigation","trial_index":48,"time_elapsed":989375,"internal_node_id":"0.0-2.0-46.0"},{"group":"hexagon_bi","room_assignment":["grey","purple","blue","red","yellow","green"],"door_color_assignment":["black","white"],"door_generator_assignment":[0,1],"goal":4,"start":1,"action_noise":0.15,"location_history":"[1,2,3,4]","action_history":"[0,1,0]","door_history":"[0,1,0]","location_rts":"[4158,2435,2262]","trial_type":"two-door-navigation","trial_index":49,"time_elapsed":1004936,"internal_node_id":"0.0-2.0-47.0"},{"group":"hexagon_bi","room_assignment":["grey","purple","blue","red","yellow","green"],"door_color_assignment":["black","white"],"door_generator_assignment":[0,1],"goal":3,"start":4,"action_noise":0.15,"location_history":"[4,3]","action_history":"[0]","door_history":"[0]","location_rts":"[1743]","trial_type":"two-door-navigation","trial_index":50,"time_elapsed":1011266,"internal_node_id":"0.0-2.0-48.0"},{"group":"hexagon_bi","room_assignment":["grey","purple","blue","red","yellow","green"],"door_color_assignment":["black","white"],"door_generator_assignment":[0,1],"goal":5,"start":3,"action_noise":0.15,"location_history":"[3,2,1,0,1,0,5]","action_history":"[0,0,1,0,0,0]","door_history":"[0,0,1,0,0,0]","location_rts":"[3756,2044,2210,1452,2545,1346]","trial_type":"two-door-navigation","trial_index":51,"time_elapsed":1034449,"internal_node_id":"0.0-2.0-49.0"},{"view_history":"[{\"page_index\":0,\"viewing_time\":4668}]","rt":4668,"trial_type":"instructions","trial_index":52,"time_elapsed":1040119,"internal_node_id":"0.0-3.0"},{"view_history":"[{\"page_index\":0,\"viewing_time\":3760},{\"page_index\":1,\"viewing_time\":31086}]","rt":34846,"trial_type":"instructions","trial_index":53,"time_elapsed":1075966,"internal_node_id":"0.0-4.0"},{"group":"hexagon_tri","fractal_assignment":["../images/blu_wht.png","../images/ylw_slt.png","../images/gry_blk.png","../images/cyn_red.png","../images/pnk_blu.png","../images/org_blu.png"],"mutagen_generator_assignment":[0,1],"goal":4,"start":0,"action_noise":0.15,"location_history":"[0,5,4]","action_history":"[0,1]","mutagen_history":"[0,1]","location_rts":"[7477,4493]","trial_type":"fractal-mutation","trial_index":54,"time_elapsed":1093687,"internal_node_id":"0.0-5.0-0.0"},{"group":"hexagon_tri","fractal_assignment":["../images/blu_wht.png","../images/ylw_slt.png","../images/gry_blk.png","../images/cyn_red.png","../images/pnk_blu.png","../images/org_blu.png"],"mutagen_generator_assignment":[0,1],"goal":3,"start":4,"action_noise":0.15,"location_history":"[4,0,1,3]","action_history":"[1,1,0]","mutagen_history":"[1,1,0]","location_rts":"[1903,1717,1281]","trial_type":"fractal-mutation","trial_index":55,"time_elapsed":1105443,"internal_node_id":"0.0-5.0-1.0"},{"group":"hexagon_tri","fractal_assignment":["../images/blu_wht.png","../images/ylw_slt.png","../images/gry_blk.png","../images/cyn_red.png","../images/pnk_blu.png","../images/org_blu.png"],"mutagen_generator_assignment":[0,1],"goal":5,"start":3,"action_noise":0.15,"location_history":"[3,4,0,5]","action_history":"[0,1,0]","mutagen_history":"[0,1,0]","location_rts":"[2066,1655,1116]","trial_type":"fractal-mutation","trial_index":56,"time_elapsed":1116975,"internal_node_id":"0.0-5.0-2.0"},{"group":"hexagon_tri","fractal_assignment":["../images/blu_wht.png","../images/ylw_slt.png","../images/gry_blk.png","../images/cyn_red.png","../images/pnk_blu.png","../images/org_blu.png"],"mutagen_generator_assignment":[0,1],"goal":2,"start":5,"action_noise":0.15,"location_history":"[5,0,5,0,1,5,0,1,5,4,0,5,4,2]","action_history":"[0,0,1,1,1,1,1,1,0,0,0,0,1]","mutagen_history":"[0,0,1,1,1,1,1,1,0,0,0,0,1]","location_rts":"[1518,1057,671,896,1074,752,608,1145,1217,825,745,669,1186]","trial_type":"fractal-mutation","trial_index":57,"time_elapsed":1146532,"internal_node_id":"0.0-5.0-3.0"},{"group":"hexagon_tri","fractal_assignment":["../images/blu_wht.png","../images/ylw_slt.png","../images/gry_blk.png","../images/cyn_red.png","../images/pnk_blu.png","../images/org_blu.png"],"mutagen_generator_assignment":[0,1],"goal":1,"start":2,"action_noise":0.15,"location_history":"[2,3,2,1]","action_history":"[1,0,0]","mutagen_history":"[1,0,0]","location_rts":"[2657,681,1761]","trial_type":"fractal-mutation","trial_index":58,"time_elapsed":1158319,"internal_node_id":"0.0-5.0-4.0"},{"group":"hexagon_tri","fractal_assignment":["../images/blu_wht.png","../images/ylw_slt.png","../images/gry_blk.png","../images/cyn_red.png","../images/pnk_blu.png","../images/org_blu.png"],"mutagen_generator_assignment":[0,1],"goal":4,"start":1,"action_noise":0.15,"location_history":"[1,3,4]","action_history":"[0,1]","mutagen_history":"[0,1]","location_rts":"[1488,783]","trial_type":"fractal-mutation","trial_index":59,"time_elapsed":1166295,"internal_node_id":"0.0-5.0-5.0"},{"group":"hexagon_tri","fractal_assignment":["../images/blu_wht.png","../images/ylw_slt.png","../images/gry_blk.png","../images/cyn_red.png","../images/pnk_blu.png","../images/org_blu.png"],"mutagen_generator_assignment":[0,1],"goal":1,"start":4,"action_noise":0.15,"location_history":"[4,0,1]","action_history":"[0,0]","mutagen_history":"[0,0]","location_rts":"[2175,751]","trial_type":"fractal-mutation","trial_index":60,"time_elapsed":1174817,"internal_node_id":"0.0-5.0-6.0"},{"group":"hexagon_tri","fractal_assignment":["../images/blu_wht.png","../images/ylw_slt.png","../images/gry_blk.png","../images/cyn_red.png","../images/pnk_blu.png","../images/org_blu.png"],"mutagen_generator_assignment":[0,1],"goal":5,"start":1,"action_noise":0.15,"location_history":"[1,5]","action_history":"[1]","mutagen_history":"[1]","location_rts":"[1692]","trial_type":"fractal-mutation","trial_index":61,"time_elapsed":1181080,"internal_node_id":"0.0-5.0-7.0"},{"group":"hexagon_tri","fractal_assignment":["../images/blu_wht.png","../images/ylw_slt.png","../images/gry_blk.png","../images/cyn_red.png","../images/pnk_blu.png","../images/org_blu.png"],"mutagen_generator_assignment":[0,1],"goal":0,"start":5,"action_noise":0.15,"location_history":"[5,4,0]","action_history":"[0,0]","mutagen_history":"[0,0]","location_rts":"[1454,1377]","trial_type":"fractal-mutation","trial_index":62,"time_elapsed":1189557,"internal_node_id":"0.0-5.0-8.0"},{"group":"hexagon_tri","fractal_assignment":["../images/blu_wht.png","../images/ylw_slt.png","../images/gry_blk.png","../images/cyn_red.png","../images/pnk_blu.png","../images/org_blu.png"],"mutagen_generator_assignment":[0,1],"goal":2,"start":0,"action_noise":0.15,"location_history":"[0,5,4,2]","action_history":"[0,0,1]","mutagen_history":"[0,0,1]","location_rts":"[1463,901,727]","trial_type":"fractal-mutation","trial_index":63,"time_elapsed":1199287,"internal_node_id":"0.0-5.0-9.0"},{"group":"hexagon_tri","fractal_assignment":["../images/blu_wht.png","../images/ylw_slt.png","../images/gry_blk.png","../images/cyn_red.png","../images/pnk_blu.png","../images/org_blu.png"],"mutagen_generator_assignment":[0,1],"goal":3,"start":2,"action_noise":0.15,"location_history":"[2,3]","action_history":"[1]","mutagen_history":"[1]","location_rts":"[1461]","trial_type":"fractal-mutation","trial_index":64,"time_elapsed":1205336,"internal_node_id":"0.0-5.0-10.0"},{"group":"hexagon_tri","fractal_assignment":["../images/blu_wht.png","../images/ylw_slt.png","../images/gry_blk.png","../images/cyn_red.png","../images/pnk_blu.png","../images/org_blu.png"],"mutagen_generator_assignment":[0,1],"goal":0,"start":3,"action_noise":0.15,"location_history":"[3,2,1,5,4,0]","action_history":"[0,0,1,0,0]","mutagen_history":"[0,0,1,0,0]","location_rts":"[1638,1287,1134,1102,1628]","trial_type":"fractal-mutation","trial_index":65,"time_elapsed":1220849,"internal_node_id":"0.0-5.0-11.0"},{"group":"hexagon_tri","fractal_assignment":["../images/blu_wht.png","../images/ylw_slt.png","../images/gry_blk.png","../images/cyn_red.png","../images/pnk_blu.png","../images/org_blu.png"],"mutagen_generator_assignment":[0,1],"goal":2,"start":0,"action_noise":0.15,"location_history":"[0,5,0,5,0,5,0,5,4,0,5,0,1,3,4,0,1,5,0,1,5,4,2]","action_history":"[0,1,1,1,0,1,0,0,1,0,0,1,0,1,0,1,0,1,1,1,0,1]","mutagen_history":"[0,1,1,1,0,1,0,0,1,0,0,1,0,1,0,1,0,1,1,1,0,1]","location_rts":"[3118,595,846,830,841,509,668,304,671,919,507,357,1320,1486,987,1229,586,1414,862,1018,1027,1596]","trial_type":"fractal-mutation","trial_index":66,"time_elapsed":1269509,"internal_node_id":"0.0-5.0-12.0"},{"group":"hexagon_tri","fractal_assignment":["../images/blu_wht.png","../images/ylw_slt.png","../images/gry_blk.png","../images/cyn_red.png","../images/pnk_blu.png","../images/org_blu.png"],"mutagen_generator_assignment":[0,1],"goal":5,"start":2,"action_noise":0.15,"location_history":"[2,1,3,2,3,2,3,2,3,2,1,5]","action_history":"[0,0,0,1,0,1,1,1,1,0,1]","mutagen_history":"[0,0,0,1,0,1,1,1,1,0,1]","location_rts":"[1485,799,961,962,1214,426,330,794,643,448,803]","trial_type":"fractal-mutation","trial_index":67,"time_elapsed":1293587,"internal_node_id":"0.0-5.0-13.0"},{"group":"hexagon_tri","fractal_assignment":["../images/blu_wht.png","../images/ylw_slt.png","../images/gry_blk.png","../images/cyn_red.png","../images/pnk_blu.png","../images/org_blu.png"],"mutagen_generator_assignment":[0,1],"goal":4,"start":5,"action_noise":0.15,"location_history":"[5,0,1,3,4]","action_history":"[1,1,0,1]","mutagen_history":"[1,1,0,1]","location_rts":"[1708,1526,733,1070]","trial_type":"fractal-mutation","trial_index":68,"time_elapsed":1306558,"internal_node_id":"0.0-5.0-14.0"},{"group":"hexagon_tri","fractal_assignment":["../images/blu_wht.png","../images/ylw_slt.png","../images/gry_blk.png","../images/cyn_red.png","../images/pnk_blu.png","../images/org_blu.png"],"mutagen_generator_assignment":[0,1],"goal":3,"start":4,"action_noise":0.15,"location_history":"[4,2,3]","action_history":"[1,1]","mutagen_history":"[1,1]","location_rts":"[1947,942]","trial_type":"fractal-mutation","trial_index":69,"time_elapsed":1315150,"internal_node_id":"0.0-5.0-15.0"},{"group":"hexagon_tri","fractal_assignment":["../images/blu_wht.png","../images/ylw_slt.png","../images/gry_blk.png","../images/cyn_red.png","../images/pnk_blu.png","../images/org_blu.png"],"mutagen_generator_assignment":[0,1],"goal":1,"start":3,"action_noise":0.15,"location_history":"[3,4,0,5,4,2,1]","action_history":"[0,1,0,0,1,0]","mutagen_history":"[0,1,0,0,1,0]","location_rts":"[1217,1371,851,985,767,1095]","trial_type":"fractal-mutation","trial_index":70,"time_elapsed":1331484,"internal_node_id":"0.0-5.0-16.0"},{"group":"hexagon_tri","fractal_assignment":["../images/blu_wht.png","../images/ylw_slt.png","../images/gry_blk.png","../images/cyn_red.png","../images/pnk_blu.png","../images/org_blu.png"],"mutagen_generator_assignment":[0,1],"goal":5,"start":1,"action_noise":0.15,"location_history":"[1,5]","action_history":"[1]","mutagen_history":"[1]","location_rts":"[1707]","trial_type":"fractal-mutation","trial_index":71,"time_elapsed":1337756,"internal_node_id":"0.0-5.0-17.0"},{"group":"hexagon_tri","fractal_assignment":["../images/blu_wht.png","../images/ylw_slt.png","../images/gry_blk.png","../images/cyn_red.png","../images/pnk_blu.png","../images/org_blu.png"],"mutagen_generator_assignment":[0,1],"goal":4,"start":5,"action_noise":0.15,"location_history":"[5,0,5,4]","action_history":"[1,1,0]","mutagen_history":"[1,1,0]","location_rts":"[2753,1190,1659]","trial_type":"fractal-mutation","trial_index":72,"time_elapsed":1350065,"internal_node_id":"0.0-5.0-18.0"},{"group":"hexagon_tri","fractal_assignment":["../images/blu_wht.png","../images/ylw_slt.png","../images/gry_blk.png","../images/cyn_red.png","../images/pnk_blu.png","../images/org_blu.png"],"mutagen_generator_assignment":[0,1],"goal":0,"start":4,"action_noise":0.15,"location_history":"[4,0]","action_history":"[0]","mutagen_history":"[0]","location_rts":"[1230]","trial_type":"fractal-mutation","trial_index":73,"time_elapsed":1355879,"internal_node_id":"0.0-5.0-19.0"},{"group":"hexagon_tri","fractal_assignment":["../images/blu_wht.png","../images/ylw_slt.png","../images/gry_blk.png","../images/cyn_red.png","../images/pnk_blu.png","../images/org_blu.png"],"mutagen_generator_assignment":[0,1],"goal":1,"start":0,"action_noise":0.15,"location_history":"[0,1]","action_history":"[1]","mutagen_history":"[1]","location_rts":"[2584]","trial_type":"fractal-mutation","trial_index":74,"time_elapsed":1363018,"internal_node_id":"0.0-5.0-20.0"},{"group":"hexagon_tri","fractal_assignment":["../images/blu_wht.png","../images/ylw_slt.png","../images/gry_blk.png","../images/cyn_red.png","../images/pnk_blu.png","../images/org_blu.png"],"mutagen_generator_assignment":[0,1],"goal":3,"start":1,"action_noise":0.15,"location_history":"[1,5,0,5,4,2,1,3]","action_history":"[0,1,0,0,1,1,0]","mutagen_history":"[0,1,0,0,1,1,0]","location_rts":"[1178,1024,1380,865,791,1024,652]","trial_type":"fractal-mutation","trial_index":75,"time_elapsed":1380884,"internal_node_id":"0.0-5.0-21.0"},{"group":"hexagon_tri","fractal_assignment":["../images/blu_wht.png","../images/ylw_slt.png","../images/gry_blk.png","../images/cyn_red.png","../images/pnk_blu.png","../images/org_blu.png"],"mutagen_generator_assignment":[0,1],"goal":2,"start":3,"action_noise":0.15,"location_history":"[3,4,2]","action_history":"[1,1]","mutagen_history":"[1,1]","location_rts":"[2268,1096]","trial_type":"fractal-mutation","trial_index":76,"time_elapsed":1389951,"internal_node_id":"0.0-5.0-22.0"},{"group":"hexagon_tri","fractal_assignment":["../images/blu_wht.png","../images/ylw_slt.png","../images/gry_blk.png","../images/cyn_red.png","../images/pnk_blu.png","../images/org_blu.png"],"mutagen_generator_assignment":[0,1],"goal":0,"start":2,"action_noise":0.15,"location_history":"[2,1,5,0]","action_history":"[0,1,1]","mutagen_history":"[0,1,1]","location_rts":"[1095,565,1106]","trial_type":"fractal-mutation","trial_index":77,"time_elapsed":1399442,"internal_node_id":"0.0-5.0-23.0"},{"group":"hexagon_tri","fractal_assignment":["../images/blu_wht.png","../images/ylw_slt.png","../images/gry_blk.png","../images/cyn_red.png","../images/pnk_blu.png","../images/org_blu.png"],"mutagen_generator_assignment":[0,1],"goal":3,"start":0,"action_noise":0.15,"location_history":"[0,5,0,1,3]","action_history":"[0,1,1,1]","mutagen_history":"[0,1,1,1]","location_rts":"[4067,566,822,945]","trial_type":"fractal-mutation","trial_index":78,"time_elapsed":1413550,"internal_node_id":"0.0-5.0-24.0"},{"group":"hexagon_tri","fractal_assignment":["../images/blu_wht.png","../images/ylw_slt.png","../images/gry_blk.png","../images/cyn_red.png","../images/pnk_blu.png","../images/org_blu.png"],"mutagen_generator_assignment":[0,1],"goal":1,"start":3,"action_noise":0.15,"location_history":"[3,2,1]","action_history":"[0,0]","mutagen_history":"[0,0]","location_rts":"[874,895]","trial_type":"fractal-mutation","trial_index":79,"time_elapsed":1420967,"internal_node_id":"0.0-5.0-25.0"},{"group":"hexagon_tri","fractal_assignment":["../images/blu_wht.png","../images/ylw_slt.png","../images/gry_blk.png","../images/cyn_red.png","../images/pnk_blu.png","../images/org_blu.png"],"mutagen_generator_assignment":[0,1],"goal":2,"start":1,"action_noise":0.15,"location_history":"[1,3,2]","action_history":"[0,0]","mutagen_history":"[0,0]","location_rts":"[1493,1268]","trial_type":"fractal-mutation","trial_index":80,"time_elapsed":1429305,"internal_node_id":"0.0-5.0-26.0"},{"group":"hexagon_tri","fractal_assignment":["../images/blu_wht.png","../images/ylw_slt.png","../images/gry_blk.png","../images/cyn_red.png","../images/pnk_blu.png","../images/org_blu.png"],"mutagen_generator_assignment":[0,1],"goal":5,"start":2,"action_noise":0.15,"location_history":"[2,3,2,3,2,3,2,3,2,1,5]","action_history":"[1,0,1,1,1,0,1,0,1,1]","mutagen_history":"[1,0,1,1,1,0,1,0,1,1]","location_rts":"[1350,667,521,451,659,434,440,1152,466,301]","trial_type":"fractal-mutation","trial_index":81,"time_elapsed":1450009,"internal_node_id":"0.0-5.0-27.0"},{"group":"hexagon_tri","fractal_assignment":["../images/blu_wht.png","../images/ylw_slt.png","../images/gry_blk.png","../images/cyn_red.png","../images/pnk_blu.png","../images/org_blu.png"],"mutagen_generator_assignment":[0,1],"goal":4,"start":5,"action_noise":0.15,"location_history":"[5,0,5,4]","action_history":"[1,0,0]","mutagen_history":"[1,0,0]","location_rts":"[2396,1896,663]","trial_type":"fractal-mutation","trial_index":82,"time_elapsed":1461694,"internal_node_id":"0.0-5.0-28.0"},{"group":"hexagon_tri","fractal_assignment":["../images/blu_wht.png","../images/ylw_slt.png","../images/gry_blk.png","../images/cyn_red.png","../images/pnk_blu.png","../images/org_blu.png"],"mutagen_generator_assignment":[0,1],"goal":5,"start":4,"action_noise":0.15,"location_history":"[4,0,5]","action_history":"[0,0]","mutagen_history":"[0,0]","location_rts":"[1903,980]","trial_type":"fractal-mutation","trial_index":83,"time_elapsed":1470227,"internal_node_id":"0.0-5.0-29.0"},{"group":"hexagon_tri","fractal_assignment":["../images/blu_wht.png","../images/ylw_slt.png","../images/gry_blk.png","../images/cyn_red.png","../images/pnk_blu.png","../images/org_blu.png"],"mutagen_generator_assignment":[0,1],"goal":3,"start":5,"action_noise":0.15,"location_history":"[5,4,0,1,5,0,1,3]","action_history":"[1,0,1,1,1,1,0]","mutagen_history":"[1,0,1,1,1,1,0]","location_rts":"[1793,832,1370,1094,955,848,534]","trial_type":"fractal-mutation","trial_index":84,"time_elapsed":1488633,"internal_node_id":"0.0-5.0-30.0"},{"group":"hexagon_tri","fractal_assignment":["../images/blu_wht.png","../images/ylw_slt.png","../images/gry_blk.png","../images/cyn_red.png","../images/pnk_blu.png","../images/org_blu.png"],"mutagen_generator_assignment":[0,1],"goal":0,"start":3,"action_noise":0.15,"location_history":"[3,2,3,4,0]","action_history":"[1,1,0,0]","mutagen_history":"[1,1,0,0]","location_rts":"[2215,1129,706,1129]","trial_type":"fractal-mutation","trial_index":85,"time_elapsed":1501638,"internal_node_id":"0.0-5.0-31.0"},{"group":"hexagon_tri","fractal_assignment":["../images/blu_wht.png","../images/ylw_slt.png","../images/gry_blk.png","../images/cyn_red.png","../images/pnk_blu.png","../images/org_blu.png"],"mutagen_generator_assignment":[0,1],"goal":4,"start":0,"action_noise":0.15,"location_history":"[0,5,4]","action_history":"[0,0]","mutagen_history":"[0,0]","location_rts":"[2831,621]","trial_type":"fractal-mutation","trial_index":86,"time_elapsed":1510671,"internal_node_id":"0.0-5.0-32.0"},{"group":"hexagon_tri","fractal_assignment":["../images/blu_wht.png","../images/ylw_slt.png","../images/gry_blk.png","../images/cyn_red.png","../images/pnk_blu.png","../images/org_blu.png"],"mutagen_generator_assignment":[0,1],"goal":1,"start":4,"action_noise":0.15,"location_history":"[4,0,1]","action_history":"[1,1]","mutagen_history":"[1,1]","location_rts":"[2774,1266]","trial_type":"fractal-mutation","trial_index":87,"time_elapsed":1520468,"internal_node_id":"0.0-5.0-33.0"},{"group":"hexagon_tri","fractal_assignment":["../images/blu_wht.png","../images/ylw_slt.png","../images/gry_blk.png","../images/cyn_red.png","../images/pnk_blu.png","../images/org_blu.png"],"mutagen_generator_assignment":[0,1],"goal":2,"start":1,"action_noise":0.15,"location_history":"[1,3,2]","action_history":"[0,0]","mutagen_history":"[0,0]","location_rts":"[1858,822]","trial_type":"fractal-mutation","trial_index":88,"time_elapsed":1528743,"internal_node_id":"0.0-5.0-34.0"},{"group":"hexagon_tri","fractal_assignment":["../images/blu_wht.png","../images/ylw_slt.png","../images/gry_blk.png","../images/cyn_red.png","../images/pnk_blu.png","../images/org_blu.png"],"mutagen_generator_assignment":[0,1],"goal":0,"start":2,"action_noise":0.15,"location_history":"[2,3,2,3,4,0]","action_history":"[1,0,1,1,0]","mutagen_history":"[1,0,1,1,0]","location_rts":"[2769,367,809,418,879]","trial_type":"fractal-mutation","trial_index":89,"time_elapsed":1542779,"internal_node_id":"0.0-5.0-35.0"},{"group":"hexagon_tri","fractal_assignment":["../images/blu_wht.png","../images/ylw_slt.png","../images/gry_blk.png","../images/cyn_red.png","../images/pnk_blu.png","../images/org_blu.png"],"mutagen_generator_assignment":[0,1],"goal":5,"start":0,"action_noise":0.15,"location_history":"[0,5]","action_history":"[0]","mutagen_history":"[0]","location_rts":"[1884]","trial_type":"fractal-mutation","trial_index":90,"time_elapsed":1549205,"internal_node_id":"0.0-5.0-36.0"},{"group":"hexagon_tri","fractal_assignment":["../images/blu_wht.png","../images/ylw_slt.png","../images/gry_blk.png","../images/cyn_red.png","../images/pnk_blu.png","../images/org_blu.png"],"mutagen_generator_assignment":[0,1],"goal":2,"start":5,"action_noise":0.15,"location_history":"[5,0,5,4,2]","action_history":"[1,0,0,1]","mutagen_history":"[1,0,0,1]","location_rts":"[1816,956,1418,297]","trial_type":"fractal-mutation","trial_index":91,"time_elapsed":1561329,"internal_node_id":"0.0-5.0-37.0"},{"group":"hexagon_tri","fractal_assignment":["../images/blu_wht.png","../images/ylw_slt.png","../images/gry_blk.png","../images/cyn_red.png","../images/pnk_blu.png","../images/org_blu.png"],"mutagen_generator_assignment":[0,1],"goal":1,"start":2,"action_noise":0.15,"location_history":"[2,3,4,2,3,2,1]","action_history":"[0,1,1,1,1,0]","mutagen_history":"[0,1,1,1,1,0]","location_rts":"[1219,1873,1166,1049,1448,694]","trial_type":"fractal-mutation","trial_index":92,"time_elapsed":1578603,"internal_node_id":"0.0-5.0-38.0"},{"group":"hexagon_tri","fractal_assignment":["../images/blu_wht.png","../images/ylw_slt.png","../images/gry_blk.png","../images/cyn_red.png","../images/pnk_blu.png","../images/org_blu.png"],"mutagen_generator_assignment":[0,1],"goal":4,"start":1,"action_noise":0.15,"location_history":"[1,3,2,3,4]","action_history":"[0,0,1,1]","mutagen_history":"[0,0,1,1]","location_rts":"[1450,1884,1146,738]","trial_type":"fractal-mutation","trial_index":93,"time_elapsed":1591601,"internal_node_id":"0.0-5.0-39.0"},{"group":"hexagon_tri","fractal_assignment":["../images/blu_wht.png","../images/ylw_slt.png","../images/gry_blk.png","../images/cyn_red.png","../images/pnk_blu.png","../images/org_blu.png"],"mutagen_generator_assignment":[0,1],"goal":3,"start":4,"action_noise":0.15,"location_history":"[4,0,1,3]","action_history":"[1,1,1]","mutagen_history":"[1,1,1]","location_rts":"[3941,2538,1262]","trial_type":"fractal-mutation","trial_index":94,"time_elapsed":1606019,"internal_node_id":"0.0-5.0-40.0"},{"group":"hexagon_tri","fractal_assignment":["../images/blu_wht.png","../images/ylw_slt.png","../images/gry_blk.png","../images/cyn_red.png","../images/pnk_blu.png","../images/org_blu.png"],"mutagen_generator_assignment":[0,1],"goal":5,"start":3,"action_noise":0.15,"location_history":"[3,4,2,1,5]","action_history":"[1,1,1,1]","mutagen_history":"[1,1,1,1]","location_rts":"[1405,785,1023,948]","trial_type":"fractal-mutation","trial_index":95,"time_elapsed":1617811,"internal_node_id":"0.0-5.0-41.0"},{"group":"hexagon_tri","fractal_assignment":["../images/blu_wht.png","../images/ylw_slt.png","../images/gry_blk.png","../images/cyn_red.png","../images/pnk_blu.png","../images/org_blu.png"],"mutagen_generator_assignment":[0,1],"goal":3,"start":5,"action_noise":0.15,"location_history":"[5,0,1,5,0,1,5,4,0,1,5,4,0,5,0,5,4,2,1,5,0,1,5,0,5,4,2,3]","action_history":"[0,1,1,1,1,1,1,1,1,1,0,1,0,1,0,0,1,1,1,1,1,1,1,0,0,1,1]","mutagen_history":"[0,1,1,1,1,1,1,1,1,1,0,1,0,1,0,0,1,1,1,1,1,1,1,0,0,1,1]","location_rts":"[1621,1251,1064,3025,737,668,738,864,2360,636,2016,609,864,652,905,608,357,2113,1057,1261,1537,585,725,795,961,470,1067]","trial_type":"fractal-mutation","trial_index":96,"time_elapsed":1679406,"internal_node_id":"0.0-5.0-42.0"},{"group":"hexagon_tri","fractal_assignment":["../images/blu_wht.png","../images/ylw_slt.png","../images/gry_blk.png","../images/cyn_red.png","../images/pnk_blu.png","../images/org_blu.png"],"mutagen_generator_assignment":[0,1],"goal":0,"start":3,"action_noise":0.15,"location_history":"[3,2,1,3,4,2,1,3,4,0]","action_history":"[0,0,1,1,1,1,1,1,0]","mutagen_history":"[0,0,1,1,1,1,1,1,0]","location_rts":"[1273,552,1113,972,928,1154,617,669,1127]","trial_type":"fractal-mutation","trial_index":97,"time_elapsed":1700905,"internal_node_id":"0.0-5.0-43.0"},{"group":"hexagon_tri","fractal_assignment":["../images/blu_wht.png","../images/ylw_slt.png","../images/gry_blk.png","../images/cyn_red.png","../images/pnk_blu.png","../images/org_blu.png"],"mutagen_generator_assignment":[0,1],"goal":2,"start":0,"action_noise":0.15,"location_history":"[0,1,3,4,2]","action_history":"[1,0,0,0]","mutagen_history":"[1,0,0,0]","location_rts":"[1780,589,827,1011]","trial_type":"fractal-mutation","trial_index":98,"time_elapsed":1712799,"internal_node_id":"0.0-5.0-44.0"},{"group":"hexagon_tri","fractal_assignment":["../images/blu_wht.png","../images/ylw_slt.png","../images/gry_blk.png","../images/cyn_red.png","../images/pnk_blu.png","../images/org_blu.png"],"mutagen_generator_assignment":[0,1],"goal":4,"start":2,"action_noise":0.15,"location_history":"[2,3,4]","action_history":"[0,1]","mutagen_history":"[0,1]","location_rts":"[1863,467]","trial_type":"fractal-mutation","trial_index":99,"time_elapsed":1720714,"internal_node_id":"0.0-5.0-45.0"},{"group":"hexagon_tri","fractal_assignment":["../images/blu_wht.png","../images/ylw_slt.png","../images/gry_blk.png","../images/cyn_red.png","../images/pnk_blu.png","../images/org_blu.png"],"mutagen_generator_assignment":[0,1],"goal":1,"start":4,"action_noise":0.15,"location_history":"[4,0,5,4,0,1]","action_history":"[0,0,0,1,1]","mutagen_history":"[0,0,0,1,1]","location_rts":"[2517,1115,891,437,1391]","trial_type":"fractal-mutation","trial_index":100,"time_elapsed":1735827,"internal_node_id":"0.0-5.0-46.0"},{"group":"hexagon_tri","fractal_assignment":["../images/blu_wht.png","../images/ylw_slt.png","../images/gry_blk.png","../images/cyn_red.png","../images/pnk_blu.png","../images/org_blu.png"],"mutagen_generator_assignment":[0,1],"goal":4,"start":1,"action_noise":0.15,"location_history":"[1,5,4]","action_history":"[0,0]","mutagen_history":"[0,0]","location_rts":"[1389,1934]","trial_type":"fractal-mutation","trial_index":101,"time_elapsed":1744714,"internal_node_id":"0.0-5.0-47.0"},{"group":"hexagon_tri","fractal_assignment":["../images/blu_wht.png","../images/ylw_slt.png","../images/gry_blk.png","../images/cyn_red.png","../images/pnk_blu.png","../images/org_blu.png"],"mutagen_generator_assignment":[0,1],"goal":3,"start":4,"action_noise":0.15,"location_history":"[4,2,3]","action_history":"[1,1]","mutagen_history":"[1,1]","location_rts":"[1882,1185]","trial_type":"fractal-mutation","trial_index":102,"time_elapsed":1753459,"internal_node_id":"0.0-5.0-48.0"},{"group":"hexagon_tri","fractal_assignment":["../images/blu_wht.png","../images/ylw_slt.png","../images/gry_blk.png","../images/cyn_red.png","../images/pnk_blu.png","../images/org_blu.png"],"mutagen_generator_assignment":[0,1],"goal":5,"start":3,"action_noise":0.15,"location_history":"[3,4,0,5]","action_history":"[1,0,0]","mutagen_history":"[1,0,0]","location_rts":"[2075,1882,474]","trial_type":"fractal-mutation","trial_index":103,"time_elapsed":1764615,"internal_node_id":"0.0-5.0-49.0"},{"view_history":"[{\"page_index\":0,\"viewing_time\":53520}]","rt":53521,"trial_type":"instructions","trial_index":104,"time_elapsed":1819136,"internal_node_id":"0.0-6.0"},{"rt":5077,"responses":"{\"Q0\":\"no comments\"}","trial_type":"survey-text","trial_index":105,"time_elapsed":1825218,"internal_node_id":"0.0-7.0"}]