[{"view_history":"[{\"page_index\":0,\"viewing_time\":131226},{\"page_index\":1,\"viewing_time\":12065},{\"page_index\":2,\"viewing_time\":127878},{\"page_index\":3,\"viewing_time\":7236}]","rt":278406,"trial_type":"instructions","trial_index":0,"time_elapsed":278406,"internal_node_id":"0.0-0.0"},{"view_history":"[{\"page_index\":0,\"viewing_time\":1207840},{\"page_index\":1,\"viewing_time\":33070}]","rt":1240910,"trial_type":"instructions","trial_index":1,"time_elapsed":1520317,"internal_node_id":"0.0-1.0"},{"group":"hexagon_bi","room_assignment":["purple","blue","red","green","yellow","grey"],"door_color_assignment":["white","black"],"door_generator_assignment":[1,0],"goal":4,"start":0,"action_noise":0.15,"location_history":"[0,5,0,5,4]","action_history":"[1,0,0,0]","door_history":"[0,1,1,1]","location_rts":"[155381,1854,1039,743]","trial_type":"two-door-navigation","trial_index":2,"time_elapsed":1686916,"internal_node_id":"0.0-2.0-0.0"},{"group":"hexagon_bi","room_assignment":["purple","blue","red","green","yellow","grey"],"door_color_assignment":["white","black"],"door_generator_assignment":[1,0],"goal":3,"start":4,"action_noise":0.15,"location_history":"[4,5,4,5,0,1,2,3]","action_history":"[1,1,1,0,1,0,0]","door_history":"[0,0,0,1,0,1,1]","location_rts":"[1713,494,1173,1171,1353,1347,3265]","trial_type":"two-door-navigation","trial_index":3,"time_elapsed":1708065,"internal_node_id":"0.0-2.0-1.0"},{"group":"hexagon_bi","room_assignment":["purple","blue","red","green","yellow","grey"],"door_color_assignment":["white","black"],"door_generator_assignment":[1,0],"goal":5,"start":3,"action_noise":0.15,"location_history":"[3,2,3,2,1,0,1,0,5]","action_history":"[1,1,1,0,1,1,1,0]","door_history":"[0,0,0,1,0,0,0,1]","location_rts":"[1647,410,470,531,580,722,641,435]","trial_type":"two-door-navigation","trial_index":4,"time_elapsed":1725152,"internal_node_id":"0.0-2.0-2.0"},{"group":"hexagon_bi","room_assignment":["purple","blue","red","green","yellow","grey"],"door_color_assignment":["white","black"],"door_generator_assignment":[1,0],"goal":2,"start":5,"action_noise":0.15,"location_history":"[5,0,1,2]","action_history":"[0,1,0]","door_history":"[1,0,1]","location_rts":"[2582,1086,987]","trial_type":"two-door-navigation","trial_index":5,"time_elapsed":1736367,"internal_node_id":"0.0-2.0-3.0"},{"group":"hexagon_bi","room_assignment":["purple","blue","red","green","yellow","grey"],"door_color_assignment":["white","black"],"door_generator_assignment":[1,0],"goal":1,"start":2,"action_noise":0.15,"location_history":"[2,1]","action_history":"[0]","door_history":"[1]","location_rts":"[1844]","trial_type":"two-door-navigation","trial_index":6,"time_elapsed":1742732,"internal_node_id":"0.0-2.0-4.0"},{"group":"hexagon_bi","room_assignment":["purple","blue","red","green","yellow","grey"],"door_color_assignment":["white","black"],"door_generator_assignment":[1,0],"goal":4,"start":1,"action_noise":0.15,"location_history":"[1,0,1,2,1,0,5,0,1,0,5,4]","action_history":"[0,1,0,0,1,0,0,1,1,0,1]","door_history":"[1,0,1,1,0,1,1,0,0,1,0]","location_rts":"[776,834,832,518,538,963,2042,637,789,672,1252]","trial_type":"two-door-navigation","trial_index":7,"time_elapsed":1767291,"internal_node_id":"0.0-2.0-5.0"},{"group":"hexagon_bi","room_assignment":["purple","blue","red","green","yellow","grey"],"door_color_assignment":["white","black"],"door_generator_assignment":[1,0],"goal":1,"start":4,"action_noise":0.15,"location_history":"[4,3,2,1]","action_history":"[1,1,0]","door_history":"[0,0,1]","location_rts":"[9495,10318,7791]","trial_type":"two-door-navigation","trial_index":8,"time_elapsed":1801455,"internal_node_id":"0.0-2.0-6.0"},{"group":"hexagon_bi","room_assignment":["purple","blue","red","green","yellow","grey"],"door_color_assignment":["white","black"],"door_generator_assignment":[1,0],"goal":5,"start":1,"action_noise":0.15,"location_history":"[1,0,1,2,3,2,1,0,1,2,3,2,3,4,5]","action_history":"[1,1,0,0,1,0,1,1,1,1,1,1,0,1]","door_history":"[0,0,1,1,0,1,0,0,0,0,0,0,1,0]","location_rts":"[4963,9321,9864,8128,13385,1429,578,687,973,696,1023,608,651,1114]","trial_type":"two-door-navigation","trial_index":9,"time_elapsed":1872618,"internal_node_id":"0.0-2.0-7.0"},{"group":"hexagon_bi","room_assignment":["purple","blue","red","green","yellow","grey"],"door_color_assignment":["white","black"],"door_generator_assignment":[1,0],"goal":0,"start":5,"action_noise":0.15,"location_history":"[5,0]","action_history":"[1]","door_history":"[0]","location_rts":"[6197]","trial_type":"two-door-navigation","trial_index":10,"time_elapsed":1883337,"internal_node_id":"0.0-2.0-8.0"},{"group":"hexagon_bi","room_assignment":["purple","blue","red","green","yellow","grey"],"door_color_assignment":["white","black"],"door_generator_assignment":[1,0],"goal":2,"start":0,"action_noise":0.15,"location_history":"[0,1,0,5,4,5,0,1,2]","action_history":"[0,1,0,1,1,0,1,0]","door_history":"[1,0,1,0,0,1,0,1]","location_rts":"[1289,418,7514,643,648,658,1096,4578]","trial_type":"two-door-navigation","trial_index":11,"time_elapsed":1911820,"internal_node_id":"0.0-2.0-9.0"},{"group":"hexagon_bi","room_assignment":["purple","blue","red","green","yellow","grey"],"door_color_assignment":["white","black"],"door_generator_assignment":[1,0],"goal":3,"start":2,"action_noise":0.15,"location_history":"[2,1,2,1,2,1,2,3]","action_history":"[0,0,0,0,1,0,1]","door_history":"[1,1,1,1,0,1,0]","location_rts":"[3113,1156,703,596,272,661,516]","trial_type":"two-door-navigation","trial_index":12,"time_elapsed":1929468,"internal_node_id":"0.0-2.0-10.0"},{"group":"hexagon_bi","room_assignment":["purple","blue","red","green","yellow","grey"],"door_color_assignment":["white","black"],"door_generator_assignment":[1,0],"goal":0,"start":3,"action_noise":0.15,"location_history":"[3,4,3,2,1,0]","action_history":"[0,1,1,0,1]","door_history":"[1,0,0,1,0]","location_rts":"[1248,620,317,2863,1439]","trial_type":"two-door-navigation","trial_index":13,"time_elapsed":1944548,"internal_node_id":"0.0-2.0-11.0"},{"group":"hexagon_bi","room_assignment":["purple","blue","red","green","yellow","grey"],"door_color_assignment":["white","black"],"door_generator_assignment":[1,0],"goal":2,"start":0,"action_noise":0.15,"location_history":"[0,1,2]","action_history":"[1,0]","door_history":"[0,1]","location_rts":"[4690,465]","trial_type":"two-door-navigation","trial_index":14,"time_elapsed":1955240,"internal_node_id":"0.0-2.0-12.0"},{"group":"hexagon_bi","room_assignment":["purple","blue","red","green","yellow","grey"],"door_color_assignment":["white","black"],"door_generator_assignment":[1,0],"goal":5,"start":2,"action_noise":0.15,"location_history":"[2,3,4,5]","action_history":"[1,0,1]","door_history":"[0,1,0]","location_rts":"[4237,614,400]","trial_type":"two-door-navigation","trial_index":15,"time_elapsed":1967051,"internal_node_id":"0.0-2.0-13.0"},{"group":"hexagon_bi","room_assignment":["purple","blue","red","green","yellow","grey"],"door_color_assignment":["white","black"],"door_generator_assignment":[1,0],"goal":4,"start":5,"action_noise":0.15,"location_history":"[5,4]","action_history":"[1]","door_history":"[0]","location_rts":"[1032]","trial_type":"two-door-navigation","trial_index":16,"time_elapsed":1972603,"internal_node_id":"0.0-2.0-14.0"},{"group":"hexagon_bi","room_assignment":["purple","blue","red","green","yellow","grey"],"door_color_assignment":["white","black"],"door_generator_assignment":[1,0],"goal":3,"start":4,"action_noise":0.15,"location_history":"[4,3]","action_history":"[0]","door_history":"[1]","location_rts":"[2160]","trial_type":"two-door-navigation","trial_index":17,"time_elapsed":1979284,"internal_node_id":"0.0-2.0-15.0"},{"group":"hexagon_bi","room_assignment":["purple","blue","red","green","yellow","grey"],"door_color_assignment":["white","black"],"door_generator_assignment":[1,0],"goal":1,"start":3,"action_noise":0.15,"location_history":"[3,2,3,2,3,2,3,2,3,4,5,0,1]","action_history":"[1,0,1,1,1,0,1,1,0,1,0,1]","door_history":"[0,1,0,0,0,1,0,0,1,0,1,0]","location_rts":"[1230,510,625,283,370,365,510,468,350,694,993,599]","trial_type":"two-door-navigation","trial_index":18,"time_elapsed":2002006,"internal_node_id":"0.0-2.0-16.0"},{"group":"hexagon_bi","room_assignment":["purple","blue","red","green","yellow","grey"],"door_color_assignment":["white","black"],"door_generator_assignment":[1,0],"goal":5,"start":1,"action_noise":0.15,"location_history":"[1,0,5]","action_history":"[1,0]","door_history":"[0,1]","location_rts":"[4171,3644]","trial_type":"two-door-navigation","trial_index":19,"time_elapsed":2015359,"internal_node_id":"0.0-2.0-17.0"},{"group":"hexagon_bi","room_assignment":["purple","blue","red","green","yellow","grey"],"door_color_assignment":["white","black"],"door_generator_assignment":[1,0],"goal":4,"start":5,"action_noise":0.15,"location_history":"[5,4]","action_history":"[1]","door_history":"[0]","location_rts":"[445]","trial_type":"two-door-navigation","trial_index":20,"time_elapsed":2020323,"internal_node_id":"0.0-2.0-18.0"},{"group":"hexagon_bi","room_assignment":["purple","blue","red","green","yellow","grey"],"door_color_assignment":["white","black"],"door_generator_assignment":[1,0],"goal":0,"start":4,"action_noise":0.15,"location_history":"[4,3,2,1,0]","action_history":"[0,1,0,1]","door_history":"[1,0,1,0]","location_rts":"[8311,587,1077,715]","trial_type":"two-door-navigation","trial_index":21,"time_elapsed":2038587,"internal_node_id":"0.0-2.0-19.0"},{"group":"hexagon_bi","room_assignment":["purple","blue","red","green","yellow","grey"],"door_color_assignment":["white","black"],"door_generator_assignment":[1,0],"goal":1,"start":0,"action_noise":0.15,"location_history":"[0,5,0,5,0,1]","action_history":"[1,0,1,0,0]","door_history":"[0,1,0,1,1]","location_rts":"[5451,418,408,603,478]","trial_type":"two-door-navigation","trial_index":22,"time_elapsed":2054532,"internal_node_id":"0.0-2.0-20.0"},{"group":"hexagon_bi","room_assignment":["purple","blue","red","green","yellow","grey"],"door_color_assignment":["white","black"],"door_generator_assignment":[1,0],"goal":3,"start":1,"action_noise":0.15,"location_history":"[1,0,1,2,3]","action_history":"[1,0,1,1]","door_history":"[0,1,0,0]","location_rts":"[2016,616,460,866]","trial_type":"two-door-navigation","trial_index":23,"time_elapsed":2066062,"internal_node_id":"0.0-2.0-21.0"},{"group":"hexagon_bi","room_assignment":["purple","blue","red","green","yellow","grey"],"door_color_assignment":["white","black"],"door_generator_assignment":[1,0],"goal":2,"start":3,"action_noise":0.15,"location_history":"[3,4,5,4,5,0,5,4,3,4,5,4,3,2]","action_history":"[0,1,0,0,0,1,1,0,0,1,1,0,0]","door_history":"[1,0,1,1,1,0,0,1,1,0,0,1,1]","location_rts":"[5676,654,1666,1721,382,133,335,262,333,623,336,388,312]","trial_type":"two-door-navigation","trial_index":24,"time_elapsed":2095610,"internal_node_id":"0.0-2.0-22.0"},{"group":"hexagon_bi","room_assignment":["purple","blue","red","green","yellow","grey"],"door_color_assignment":["white","black"],"door_generator_assignment":[1,0],"goal":0,"start":2,"action_noise":0.15,"location_history":"[2,3,2,1,0]","action_history":"[1,1,0,1]","door_history":"[0,0,1,0]","location_rts":"[3607,611,304,884]","trial_type":"two-door-navigation","trial_index":25,"time_elapsed":2108597,"internal_node_id":"0.0-2.0-23.0"},{"group":"hexagon_bi","room_assignment":["purple","blue","red","green","yellow","grey"],"door_color_assignment":["white","black"],"door_generator_assignment":[1,0],"goal":3,"start":0,"action_noise":0.15,"location_history":"[0,1,2,3]","action_history":"[1,0,1]","door_history":"[0,1,0]","location_rts":"[1448,591,528]","trial_type":"two-door-navigation","trial_index":26,"time_elapsed":2117725,"internal_node_id":"0.0-2.0-24.0"},{"group":"hexagon_bi","room_assignment":["purple","blue","red","green","yellow","grey"],"door_color_assignment":["white","black"],"door_generator_assignment":[1,0],"goal":1,"start":3,"action_noise":0.15,"location_history":"[3,2,1]","action_history":"[1,0]","door_history":"[0,1]","location_rts":"[375,494]","trial_type":"two-door-navigation","trial_index":27,"time_elapsed":2124132,"internal_node_id":"0.0-2.0-25.0"},{"group":"hexagon_bi","room_assignment":["purple","blue","red","green","yellow","grey"],"door_color_assignment":["white","black"],"door_generator_assignment":[1,0],"goal":2,"start":1,"action_noise":0.15,"location_history":"[1,2]","action_history":"[0]","door_history":"[1]","location_rts":"[18418]","trial_type":"two-door-navigation","trial_index":28,"time_elapsed":2147071,"internal_node_id":"0.0-2.0-26.0"},{"group":"hexagon_bi","room_assignment":["purple","blue","red","green","yellow","grey"],"door_color_assignment":["white","black"],"door_generator_assignment":[1,0],"goal":5,"start":2,"action_noise":0.15,"location_history":"[2,3,2,1,0,5]","action_history":"[1,1,0,1,1]","door_history":"[0,0,1,0,0]","location_rts":"[1233,792,405,346,2185]","trial_type":"two-door-navigation","trial_index":29,"time_elapsed":2160626,"internal_node_id":"0.0-2.0-27.0"},{"group":"hexagon_bi","room_assignment":["purple","blue","red","green","yellow","grey"],"door_color_assignment":["white","black"],"door_generator_assignment":[1,0],"goal":4,"start":5,"action_noise":0.15,"location_history":"[5,4]","action_history":"[1]","door_history":"[0]","location_rts":"[8283]","trial_type":"two-door-navigation","trial_index":30,"time_elapsed":2173430,"internal_node_id":"0.0-2.0-28.0"},{"group":"hexagon_bi","room_assignment":["purple","blue","red","green","yellow","grey"],"door_color_assignment":["white","black"],"door_generator_assignment":[1,0],"goal":5,"start":4,"action_noise":0.15,"location_history":"[4,3,2,3,2,1,0,1,0,5]","action_history":"[1,1,1,1,0,1,1,1,0]","door_history":"[0,0,0,0,1,0,0,0,1]","location_rts":"[1379,374,442,443,477,431,342,345,569]","trial_type":"two-door-navigation","trial_index":31,"time_elapsed":2190897,"internal_node_id":"0.0-2.0-29.0"},{"group":"hexagon_bi","room_assignment":["purple","blue","red","green","yellow","grey"],"door_color_assignment":["white","black"],"door_generator_assignment":[1,0],"goal":3,"start":5,"action_noise":0.15,"location_history":"[5,4,3]","action_history":"[1,0]","door_history":"[0,1]","location_rts":"[990,449]","trial_type":"two-door-navigation","trial_index":32,"time_elapsed":2197871,"internal_node_id":"0.0-2.0-30.0"},{"group":"hexagon_bi","room_assignment":["purple","blue","red","green","yellow","grey"],"door_color_assignment":["white","black"],"door_generator_assignment":[1,0],"goal":0,"start":3,"action_noise":0.15,"location_history":"[3,4,3,2,3,2,1,0]","action_history":"[1,0,1,1,1,0,1]","door_history":"[0,1,0,0,0,1,0]","location_rts":"[1303,531,436,1174,408,260,894]","trial_type":"two-door-navigation","trial_index":33,"time_elapsed":2213506,"internal_node_id":"0.0-2.0-31.0"},{"group":"hexagon_bi","room_assignment":["purple","blue","red","green","yellow","grey"],"door_color_assignment":["white","black"],"door_generator_assignment":[1,0],"goal":4,"start":0,"action_noise":0.15,"location_history":"[0,1,0,5,4]","action_history":"[1,1,0,1]","door_history":"[0,0,1,0]","location_rts":"[2728,693,310,800]","trial_type":"two-door-navigation","trial_index":34,"time_elapsed":2225607,"internal_node_id":"0.0-2.0-32.0"},{"group":"hexagon_bi","room_assignment":["purple","blue","red","green","yellow","grey"],"door_color_assignment":["white","black"],"door_generator_assignment":[1,0],"goal":1,"start":4,"action_noise":0.15,"location_history":"[4,5,0,1]","action_history":"[1,0,1]","door_history":"[0,1,0]","location_rts":"[984,405,388]","trial_type":"two-door-navigation","trial_index":35,"time_elapsed":2233940,"internal_node_id":"0.0-2.0-33.0"},{"group":"hexagon_bi","room_assignment":["purple","blue","red","green","yellow","grey"],"door_color_assignment":["white","black"],"door_generator_assignment":[1,0],"goal":2,"start":1,"action_noise":0.15,"location_history":"[1,0,5,4,3,2]","action_history":"[1,0,1,0,1]","door_history":"[0,1,0,1,0]","location_rts":"[4134,905,405,1410,380]","trial_type":"two-door-navigation","trial_index":36,"time_elapsed":2249760,"internal_node_id":"0.0-2.0-34.0"},{"group":"hexagon_bi","room_assignment":["purple","blue","red","green","yellow","grey"],"door_color_assignment":["white","black"],"door_generator_assignment":[1,0],"goal":0,"start":2,"action_noise":0.15,"location_history":"[2,3,4,5,4,3,4,5,0]","action_history":"[1,0,1,1,0,0,1,0]","door_history":"[0,1,0,0,1,1,0,1]","location_rts":"[966,719,319,344,308,966,495,543]","trial_type":"two-door-navigation","trial_index":37,"time_elapsed":2266070,"internal_node_id":"0.0-2.0-35.0"},{"group":"hexagon_bi","room_assignment":["purple","blue","red","green","yellow","grey"],"door_color_assignment":["white","black"],"door_generator_assignment":[1,0],"goal":5,"start":0,"action_noise":0.15,"location_history":"[0,1,2,3,4,3,2,1,0,5]","action_history":"[1,0,1,0,0,1,0,1,0]","door_history":"[0,1,0,1,1,0,1,0,1]","location_rts":"[2202,772,575,389,474,483,368,899,543]","trial_type":"two-door-navigation","trial_index":38,"time_elapsed":2285440,"internal_node_id":"0.0-2.0-36.0"},{"group":"hexagon_bi","room_assignment":["purple","blue","red","green","yellow","grey"],"door_color_assignment":["white","black"],"door_generator_assignment":[1,0],"goal":2,"start":5,"action_noise":0.15,"location_history":"[5,0,5,4,3,2]","action_history":"[0,1,1,0,1]","door_history":"[1,0,0,1,0]","location_rts":"[2838,460,950,391,468]","trial_type":"two-door-navigation","trial_index":39,"time_elapsed":2299147,"internal_node_id":"0.0-2.0-37.0"},{"group":"hexagon_bi","room_assignment":["purple","blue","red","green","yellow","grey"],"door_color_assignment":["white","black"],"door_generator_assignment":[1,0],"goal":1,"start":2,"action_noise":0.15,"location_history":"[2,3,2,3,2,1]","action_history":"[1,1,0,1,0]","door_history":"[0,0,1,0,1]","location_rts":"[1858,352,326,398,638]","trial_type":"two-door-navigation","trial_index":40,"time_elapsed":2311314,"internal_node_id":"0.0-2.0-38.0"},{"group":"hexagon_bi","room_assignment":["purple","blue","red","green","yellow","grey"],"door_color_assignment":["white","black"],"door_generator_assignment":[1,0],"goal":4,"start":1,"action_noise":0.15,"location_history":"[1,0,1,2,3,4]","action_history":"[1,1,0,1,0]","door_history":"[0,0,1,0,1]","location_rts":"[1080,428,132,977,4878]","trial_type":"two-door-navigation","trial_index":41,"time_elapsed":2327398,"internal_node_id":"0.0-2.0-39.0"},{"group":"hexagon_bi","room_assignment":["purple","blue","red","green","yellow","grey"],"door_color_assignment":["white","black"],"door_generator_assignment":[1,0],"goal":3,"start":4,"action_noise":0.15,"location_history":"[4,3]","action_history":"[1]","door_history":"[0]","location_rts":"[6812]","trial_type":"two-door-navigation","trial_index":42,"time_elapsed":2338731,"internal_node_id":"0.0-2.0-40.0"},{"group":"hexagon_bi","room_assignment":["purple","blue","red","green","yellow","grey"],"door_color_assignment":["white","black"],"door_generator_assignment":[1,0],"goal":5,"start":3,"action_noise":0.15,"location_history":"[3,2,1,0,5]","action_history":"[1,0,1,0]","door_history":"[0,1,0,1]","location_rts":"[3097,356,372,734]","trial_type":"two-door-navigation","trial_index":43,"time_elapsed":2350865,"internal_node_id":"0.0-2.0-41.0"},{"group":"hexagon_bi","room_assignment":["purple","blue","red","green","yellow","grey"],"door_color_assignment":["white","black"],"door_generator_assignment":[1,0],"goal":3,"start":5,"action_noise":0.15,"location_history":"[5,0,1,0,1,0,1,2,3]","action_history":"[0,1,0,1,1,1,0,1]","door_history":"[1,0,1,0,0,0,1,0]","location_rts":"[2129,261,624,362,617,989,600,506]","trial_type":"two-door-navigation","trial_index":44,"time_elapsed":2368597,"internal_node_id":"0.0-2.0-42.0"},{"group":"hexagon_bi","room_assignment":["purple","blue","red","green","yellow","grey"],"door_color_assignment":["white","black"],"door_generator_assignment":[1,0],"goal":0,"start":3,"action_noise":0.15,"location_history":"[3,4,5,0]","action_history":"[0,1,0]","door_history":"[1,0,1]","location_rts":"[1216,558,678]","trial_type":"two-door-navigation","trial_index":45,"time_elapsed":2377613,"internal_node_id":"0.0-2.0-43.0"},{"group":"hexagon_bi","room_assignment":["purple","blue","red","green","yellow","grey"],"door_color_assignment":["white","black"],"door_generator_assignment":[1,0],"goal":2,"start":0,"action_noise":0.15,"location_history":"[0,5,4,3,2]","action_history":"[0,1,0,1]","door_history":"[1,0,1,0]","location_rts":"[1608,295,889,721]","trial_type":"two-door-navigation","trial_index":46,"time_elapsed":2388701,"internal_node_id":"0.0-2.0-44.0"},{"group":"hexagon_bi","room_assignment":["purple","blue","red","green","yellow","grey"],"door_color_assignment":["white","black"],"door_generator_assignment":[1,0],"goal":4,"start":2,"action_noise":0.15,"location_history":"[2,3,2,3,2,1,0,5,0,1,0,5,4]","action_history":"[1,0,1,1,0,1,0,1,1,1,0,1]","door_history":"[0,1,0,0,1,0,1,0,0,0,1,0]","location_rts":"[1951,417,301,898,174,433,764,317,627,560,372,370]","trial_type":"two-door-navigation","trial_index":47,"time_elapsed":2411597,"internal_node_id":"0.0-2.0-45.0"},{"group":"hexagon_bi","room_assignment":["purple","blue","red","green","yellow","grey"],"door_color_assignment":["white","black"],"door_generator_assignment":[1,0],"goal":1,"start":4,"action_noise":0.15,"location_history":"[4,5,0,1]","action_history":"[1,0,1]","door_history":"[0,1,0]","location_rts":"[748,1225,376]","trial_type":"two-door-navigation","trial_index":48,"time_elapsed":2420500,"internal_node_id":"0.0-2.0-46.0"},{"group":"hexagon_bi","room_assignment":["purple","blue","red","green","yellow","grey"],"door_color_assignment":["white","black"],"door_generator_assignment":[1,0],"goal":4,"start":1,"action_noise":0.15,"location_history":"[1,0,5,4]","action_history":"[1,0,1]","door_history":"[0,1,0]","location_rts":"[1388,968,11383]","trial_type":"two-door-navigation","trial_index":49,"time_elapsed":2440800,"internal_node_id":"0.0-2.0-47.0"},{"group":"hexagon_bi","room_assignment":["purple","blue","red","green","yellow","grey"],"door_color_assignment":["white","black"],"door_generator_assignment":[1,0],"goal":3,"start":4,"action_noise":0.15,"location_history":"[4,5,4,3]","action_history":"[1,1,0]","door_history":"[0,0,1]","location_rts":"[2801,475,264]","trial_type":"two-door-navigation","trial_index":50,"time_elapsed":2450899,"internal_node_id":"0.0-2.0-48.0"},{"group":"hexagon_bi","room_assignment":["purple","blue","red","green","yellow","grey"],"door_color_assignment":["white","black"],"door_generator_assignment":[1,0],"goal":5,"start":3,"action_noise":0.15,"location_history":"[3,2,1,0,5]","action_history":"[1,0,1,0]","door_history":"[0,1,0,1]","location_rts":"[5313,465,330,377]","trial_type":"two-door-navigation","trial_index":51,"time_elapsed":2464964,"internal_node_id":"0.0-2.0-49.0"},{"view_history":"[{\"page_index\":0,\"viewing_time\":2611}]","rt":2611,"trial_type":"instructions","trial_index":52,"time_elapsed":2468575,"internal_node_id":"0.0-3.0"},{"view_history":"[{\"page_index\":0,\"viewing_time\":25988},{\"page_index\":1,\"viewing_time\":236055}]","rt":262043,"trial_type":"instructions","trial_index":53,"time_elapsed":2731619,"internal_node_id":"0.0-4.0"},{"group":"hexagon_tri","fractal_assignment":["../images/gry_blk.png","../images/cyn_red.png","../images/ylw_slt.png","../images/pnk_blu.png","../images/blu_wht.png","../images/org_blu.png"],"mutagen_generator_assignment":[0,1],"goal":4,"start":0,"action_noise":0.15,"location_history":"[0,1,5,0,5,4]","action_history":"[0,1,1,0,0]","mutagen_history":"[0,1,1,0,0]","location_rts":"[4514,2831,2403,714,1197]","trial_type":"fractal-mutation","trial_index":54,"time_elapsed":2752097,"internal_node_id":"0.0-5.0-0.0"},{"group":"hexagon_tri","fractal_assignment":["../images/gry_blk.png","../images/cyn_red.png","../images/ylw_slt.png","../images/pnk_blu.png","../images/blu_wht.png","../images/org_blu.png"],"mutagen_generator_assignment":[0,1],"goal":3,"start":4,"action_noise":0.15,"location_history":"[4,2,3]","action_history":"[1,1]","mutagen_history":"[1,1]","location_rts":"[1443,448]","trial_type":"fractal-mutation","trial_index":55,"time_elapsed":2759649,"internal_node_id":"0.0-5.0-1.0"},{"group":"hexagon_tri","fractal_assignment":["../images/gry_blk.png","../images/cyn_red.png","../images/ylw_slt.png","../images/pnk_blu.png","../images/blu_wht.png","../images/org_blu.png"],"mutagen_generator_assignment":[0,1],"goal":5,"start":3,"action_noise":0.15,"location_history":"[3,2,1,3,2,3,4,2,3,4,0,5]","action_history":"[0,0,0,0,1,0,1,1,1,0,0]","mutagen_history":"[0,0,0,0,1,0,1,1,1,0,0]","location_rts":"[1834,383,563,553,605,698,596,263,737,824,806]","trial_type":"fractal-mutation","trial_index":56,"time_elapsed":2782665,"internal_node_id":"0.0-5.0-2.0"},{"group":"hexagon_tri","fractal_assignment":["../images/gry_blk.png","../images/cyn_red.png","../images/ylw_slt.png","../images/pnk_blu.png","../images/blu_wht.png","../images/org_blu.png"],"mutagen_generator_assignment":[0,1],"goal":2,"start":5,"action_noise":0.15,"location_history":"[5,4,0,1,3,4,0,5,4,2]","action_history":"[0,0,1,0,1,0,0,0,1]","mutagen_history":"[0,0,1,0,1,0,0,0,1]","location_rts":"[1474,718,701,904,1238,1406,417,691,899]","trial_type":"fractal-mutation","trial_index":57,"time_elapsed":2804150,"internal_node_id":"0.0-5.0-3.0"},{"group":"hexagon_tri","fractal_assignment":["../images/gry_blk.png","../images/cyn_red.png","../images/ylw_slt.png","../images/pnk_blu.png","../images/blu_wht.png","../images/org_blu.png"],"mutagen_generator_assignment":[0,1],"goal":1,"start":2,"action_noise":0.15,"location_history":"[2,3,2,1]","action_history":"[1,0,0]","mutagen_history":"[1,0,0]","location_rts":"[1182,385,553]","trial_type":"fractal-mutation","trial_index":58,"time_elapsed":2812946,"internal_node_id":"0.0-5.0-4.0"},{"group":"hexagon_tri","fractal_assignment":["../images/gry_blk.png","../images/cyn_red.png","../images/ylw_slt.png","../images/pnk_blu.png","../images/blu_wht.png","../images/org_blu.png"],"mutagen_generator_assignment":[0,1],"goal":4,"start":1,"action_noise":0.15,"location_history":"[1,3,2,3,4]","action_history":"[0,1,1,1]","mutagen_history":"[0,1,1,1]","location_rts":"[1505,306,405,541]","trial_type":"fractal-mutation","trial_index":59,"time_elapsed":2823487,"internal_node_id":"0.0-5.0-5.0"},{"group":"hexagon_tri","fractal_assignment":["../images/gry_blk.png","../images/cyn_red.png","../images/ylw_slt.png","../images/pnk_blu.png","../images/blu_wht.png","../images/org_blu.png"],"mutagen_generator_assignment":[0,1],"goal":1,"start":4,"action_noise":0.15,"location_history":"[4,2,3,2,3,4,2,1]","action_history":"[1,1,0,0,1,1,0]","mutagen_history":"[1,1,0,0,1,1,0]","location_rts":"[4725,408,422,864,494,478,707]","trial_type":"fractal-mutation","trial_index":60,"time_elapsed":2842546,"internal_node_id":"0.0-5.0-6.0"},{"group":"hexagon_tri","fractal_assignment":["../images/gry_blk.png","../images/cyn_red.png","../images/ylw_slt.png","../images/pnk_blu.png","../images/blu_wht.png","../images/org_blu.png"],"mutagen_generator_assignment":[0,1],"goal":5,"start":1,"action_noise":0.15,"location_history":"[1,5]","action_history":"[0]","mutagen_history":"[0]","location_rts":"[3482]","trial_type":"fractal-mutation","trial_index":61,"time_elapsed":2850584,"internal_node_id":"0.0-5.0-7.0"},{"group":"hexagon_tri","fractal_assignment":["../images/gry_blk.png","../images/cyn_red.png","../images/ylw_slt.png","../images/pnk_blu.png","../images/blu_wht.png","../images/org_blu.png"],"mutagen_generator_assignment":[0,1],"goal":0,"start":5,"action_noise":0.15,"location_history":"[5,0]","action_history":"[1]","mutagen_history":"[1]","location_rts":"[2347]","trial_type":"fractal-mutation","trial_index":62,"time_elapsed":2857514,"internal_node_id":"0.0-5.0-8.0"},{"group":"hexagon_tri","fractal_assignment":["../images/gry_blk.png","../images/cyn_red.png","../images/ylw_slt.png","../images/pnk_blu.png","../images/blu_wht.png","../images/org_blu.png"],"mutagen_generator_assignment":[0,1],"goal":2,"start":0,"action_noise":0.15,"location_history":"[0,1,3,2]","action_history":"[1,0,0]","mutagen_history":"[1,0,0]","location_rts":"[1417,7993,354]","trial_type":"fractal-mutation","trial_index":63,"time_elapsed":2873946,"internal_node_id":"0.0-5.0-9.0"},{"group":"hexagon_tri","fractal_assignment":["../images/gry_blk.png","../images/cyn_red.png","../images/ylw_slt.png","../images/pnk_blu.png","../images/blu_wht.png","../images/org_blu.png"],"mutagen_generator_assignment":[0,1],"goal":3,"start":2,"action_noise":0.15,"location_history":"[2,1,5,0,1,5,0,1,3]","action_history":"[0,1,1,0,0,1,1,0]","mutagen_history":"[0,1,1,0,0,1,1,0]","location_rts":"[753,313,884,907,625,1607,4176,565]","trial_type":"fractal-mutation","trial_index":64,"time_elapsed":2895770,"internal_node_id":"0.0-5.0-10.0"},{"group":"hexagon_tri","fractal_assignment":["../images/gry_blk.png","../images/cyn_red.png","../images/ylw_slt.png","../images/pnk_blu.png","../images/blu_wht.png","../images/org_blu.png"],"mutagen_generator_assignment":[0,1],"goal":0,"start":3,"action_noise":0.15,"location_history":"[3,4,2,3,2,1,3,4,0]","action_history":"[1,1,1,0,0,0,1,0]","mutagen_history":"[1,1,1,0,0,0,1,0]","location_rts":"[3106,455,459,484,469,558,155,2987]","trial_type":"fractal-mutation","trial_index":65,"time_elapsed":2916434,"internal_node_id":"0.0-5.0-11.0"},{"group":"hexagon_tri","fractal_assignment":["../images/gry_blk.png","../images/cyn_red.png","../images/ylw_slt.png","../images/pnk_blu.png","../images/blu_wht.png","../images/org_blu.png"],"mutagen_generator_assignment":[0,1],"goal":2,"start":0,"action_noise":0.15,"location_history":"[0,5,0,1,5,0,5,4,0,1,5,4,2]","action_history":"[0,1,1,1,0,0,0,1,1,0,0,1]","mutagen_history":"[0,1,1,1,0,0,0,1,1,0,0,1]","location_rts":"[6050,438,346,414,463,441,1036,111,1107,849,504,461]","trial_type":"fractal-mutation","trial_index":66,"time_elapsed":2944899,"internal_node_id":"0.0-5.0-12.0"},{"group":"hexagon_tri","fractal_assignment":["../images/gry_blk.png","../images/cyn_red.png","../images/ylw_slt.png","../images/pnk_blu.png","../images/blu_wht.png","../images/org_blu.png"],"mutagen_generator_assignment":[0,1],"goal":5,"start":2,"action_noise":0.15,"location_history":"[2,1,3,4,0,5]","action_history":"[0,1,1,0,0]","mutagen_history":"[0,1,1,0,0]","location_rts":"[3271,669,559,447,466]","trial_type":"fractal-mutation","trial_index":67,"time_elapsed":2959099,"internal_node_id":"0.0-5.0-13.0"},{"group":"hexagon_tri","fractal_assignment":["../images/gry_blk.png","../images/cyn_red.png","../images/ylw_slt.png","../images/pnk_blu.png","../images/blu_wht.png","../images/org_blu.png"],"mutagen_generator_assignment":[0,1],"goal":4,"start":5,"action_noise":0.15,"location_history":"[5,4]","action_history":"[1]","mutagen_history":"[1]","location_rts":"[369]","trial_type":"fractal-mutation","trial_index":68,"time_elapsed":2964049,"internal_node_id":"0.0-5.0-14.0"},{"group":"hexagon_tri","fractal_assignment":["../images/gry_blk.png","../images/cyn_red.png","../images/ylw_slt.png","../images/pnk_blu.png","../images/blu_wht.png","../images/org_blu.png"],"mutagen_generator_assignment":[0,1],"goal":3,"start":4,"action_noise":0.15,"location_history":"[4,0,1,3]","action_history":"[1,1,0]","mutagen_history":"[1,1,0]","location_rts":"[1543,850,548]","trial_type":"fractal-mutation","trial_index":69,"time_elapsed":2973699,"internal_node_id":"0.0-5.0-15.0"},{"group":"hexagon_tri","fractal_assignment":["../images/gry_blk.png","../images/cyn_red.png","../images/ylw_slt.png","../images/pnk_blu.png","../images/blu_wht.png","../images/org_blu.png"],"mutagen_generator_assignment":[0,1],"goal":1,"start":3,"action_noise":0.15,"location_history":"[3,2,1]","action_history":"[0,0]","mutagen_history":"[0,0]","location_rts":"[3367,435]","trial_type":"fractal-mutation","trial_index":70,"time_elapsed":2983109,"internal_node_id":"0.0-5.0-16.0"},{"group":"hexagon_tri","fractal_assignment":["../images/gry_blk.png","../images/cyn_red.png","../images/ylw_slt.png","../images/pnk_blu.png","../images/blu_wht.png","../images/org_blu.png"],"mutagen_generator_assignment":[0,1],"goal":5,"start":1,"action_noise":0.15,"location_history":"[1,5]","action_history":"[1]","mutagen_history":"[1]","location_rts":"[1654]","trial_type":"fractal-mutation","trial_index":71,"time_elapsed":2989338,"internal_node_id":"0.0-5.0-17.0"},{"group":"hexagon_tri","fractal_assignment":["../images/gry_blk.png","../images/cyn_red.png","../images/ylw_slt.png","../images/pnk_blu.png","../images/blu_wht.png","../images/org_blu.png"],"mutagen_generator_assignment":[0,1],"goal":4,"start":5,"action_noise":0.15,"location_history":"[5,4]","action_history":"[0]","mutagen_history":"[0]","location_rts":"[889]","trial_type":"fractal-mutation","trial_index":72,"time_elapsed":2994782,"internal_node_id":"0.0-5.0-18.0"},{"group":"hexagon_tri","fractal_assignment":["../images/gry_blk.png","../images/cyn_red.png","../images/ylw_slt.png","../images/pnk_blu.png","../images/blu_wht.png","../images/org_blu.png"],"mutagen_generator_assignment":[0,1],"goal":0,"start":4,"action_noise":0.15,"location_history":"[4,0]","action_history":"[0]","mutagen_history":"[0]","location_rts":"[1740]","trial_type":"fractal-mutation","trial_index":73,"time_elapsed":3001078,"internal_node_id":"0.0-5.0-19.0"},{"group":"hexagon_tri","fractal_assignment":["../images/gry_blk.png","../images/cyn_red.png","../images/ylw_slt.png","../images/pnk_blu.png","../images/blu_wht.png","../images/org_blu.png"],"mutagen_generator_assignment":[0,1],"goal":1,"start":0,"action_noise":0.15,"location_history":"[0,1]","action_history":"[1]","mutagen_history":"[1]","location_rts":"[4190]","trial_type":"fractal-mutation","trial_index":74,"time_elapsed":3009847,"internal_node_id":"0.0-5.0-20.0"},{"group":"hexagon_tri","fractal_assignment":["../images/gry_blk.png","../images/cyn_red.png","../images/ylw_slt.png","../images/pnk_blu.png","../images/blu_wht.png","../images/org_blu.png"],"mutagen_generator_assignment":[0,1],"goal":3,"start":1,"action_noise":0.15,"location_history":"[1,5,0,1,3]","action_history":"[1,1,0,0]","mutagen_history":"[1,1,0,0]","location_rts":"[1619,11441,619,4217]","trial_type":"fractal-mutation","trial_index":75,"time_elapsed":3035497,"internal_node_id":"0.0-5.0-21.0"},{"group":"hexagon_tri","fractal_assignment":["../images/gry_blk.png","../images/cyn_red.png","../images/ylw_slt.png","../images/pnk_blu.png","../images/blu_wht.png","../images/org_blu.png"],"mutagen_generator_assignment":[0,1],"goal":2,"start":3,"action_noise":0.15,"location_history":"[3,4,2]","action_history":"[1,0]","mutagen_history":"[1,0]","location_rts":"[1506,575]","trial_type":"fractal-mutation","trial_index":76,"time_elapsed":3043201,"internal_node_id":"0.0-5.0-22.0"},{"group":"hexagon_tri","fractal_assignment":["../images/gry_blk.png","../images/cyn_red.png","../images/ylw_slt.png","../images/pnk_blu.png","../images/blu_wht.png","../images/org_blu.png"],"mutagen_generator_assignment":[0,1],"goal":0,"start":2,"action_noise":0.15,"location_history":"[2,3,4,2,3,2,1,5,4,0]","action_history":"[1,0,0,1,0,0,1,0,0]","mutagen_history":"[1,0,0,1,0,0,1,0,0]","location_rts":"[778,1709,475,631,329,472,711,416,434]","trial_type":"fractal-mutation","trial_index":77,"time_elapsed":3062176,"internal_node_id":"0.0-5.0-23.0"},{"group":"hexagon_tri","fractal_assignment":["../images/gry_blk.png","../images/cyn_red.png","../images/ylw_slt.png","../images/pnk_blu.png","../images/blu_wht.png","../images/org_blu.png"],"mutagen_generator_assignment":[0,1],"goal":3,"start":0,"action_noise":0.15,"location_history":"[0,1,3]","action_history":"[1,0]","mutagen_history":"[1,0]","location_rts":"[7011,358]","trial_type":"fractal-mutation","trial_index":78,"time_elapsed":3075169,"internal_node_id":"0.0-5.0-24.0"},{"group":"hexagon_tri","fractal_assignment":["../images/gry_blk.png","../images/cyn_red.png","../images/ylw_slt.png","../images/pnk_blu.png","../images/blu_wht.png","../images/org_blu.png"],"mutagen_generator_assignment":[0,1],"goal":1,"start":3,"action_noise":0.15,"location_history":"[3,4,0,5,0,5,4,2,3,2,3,2,1]","action_history":"[1,0,0,1,0,0,1,0,0,1,0,0]","mutagen_history":"[1,0,0,1,0,0,1,0,0,1,0,0]","location_rts":"[2763,333,377,303,357,550,545,479,1008,512,385,440]","trial_type":"fractal-mutation","trial_index":79,"time_elapsed":3099392,"internal_node_id":"0.0-5.0-25.0"},{"group":"hexagon_tri","fractal_assignment":["../images/gry_blk.png","../images/cyn_red.png","../images/ylw_slt.png","../images/pnk_blu.png","../images/blu_wht.png","../images/org_blu.png"],"mutagen_generator_assignment":[0,1],"goal":2,"start":1,"action_noise":0.15,"location_history":"[1,3,2]","action_history":"[0,0]","mutagen_history":"[0,0]","location_rts":"[8651,455]","trial_type":"fractal-mutation","trial_index":80,"time_elapsed":3114100,"internal_node_id":"0.0-5.0-26.0"},{"group":"hexagon_tri","fractal_assignment":["../images/gry_blk.png","../images/cyn_red.png","../images/ylw_slt.png","../images/pnk_blu.png","../images/blu_wht.png","../images/org_blu.png"],"mutagen_generator_assignment":[0,1],"goal":5,"start":2,"action_noise":0.15,"location_history":"[2,1,5]","action_history":"[0,1]","mutagen_history":"[0,1]","location_rts":"[1792,514]","trial_type":"fractal-mutation","trial_index":81,"time_elapsed":3122028,"internal_node_id":"0.0-5.0-27.0"},{"group":"hexagon_tri","fractal_assignment":["../images/gry_blk.png","../images/cyn_red.png","../images/ylw_slt.png","../images/pnk_blu.png","../images/blu_wht.png","../images/org_blu.png"],"mutagen_generator_assignment":[0,1],"goal":4,"start":5,"action_noise":0.15,"location_history":"[5,4]","action_history":"[0]","mutagen_history":"[0]","location_rts":"[993]","trial_type":"fractal-mutation","trial_index":82,"time_elapsed":3127572,"internal_node_id":"0.0-5.0-28.0"},{"group":"hexagon_tri","fractal_assignment":["../images/gry_blk.png","../images/cyn_red.png","../images/ylw_slt.png","../images/pnk_blu.png","../images/blu_wht.png","../images/org_blu.png"],"mutagen_generator_assignment":[0,1],"goal":5,"start":4,"action_noise":0.15,"location_history":"[4,0,5]","action_history":"[1,0]","mutagen_history":"[1,0]","location_rts":"[1550,415]","trial_type":"fractal-mutation","trial_index":83,"time_elapsed":3135162,"internal_node_id":"0.0-5.0-29.0"},{"group":"hexagon_tri","fractal_assignment":["../images/gry_blk.png","../images/cyn_red.png","../images/ylw_slt.png","../images/pnk_blu.png","../images/blu_wht.png","../images/org_blu.png"],"mutagen_generator_assignment":[0,1],"goal":3,"start":5,"action_noise":0.15,"location_history":"[5,4,2,1,3]","action_history":"[0,1,0,0]","mutagen_history":"[0,1,0,0]","location_rts":"[1770,648,461,443]","trial_type":"fractal-mutation","trial_index":84,"time_elapsed":3146206,"internal_node_id":"0.0-5.0-30.0"},{"group":"hexagon_tri","fractal_assignment":["../images/gry_blk.png","../images/cyn_red.png","../images/ylw_slt.png","../images/pnk_blu.png","../images/blu_wht.png","../images/org_blu.png"],"mutagen_generator_assignment":[0,1],"goal":0,"start":3,"action_noise":0.15,"location_history":"[3,2,1,5,4,0]","action_history":"[0,0,1,0,0]","mutagen_history":"[0,0,1,0,0]","location_rts":"[1014,424,483,469,521]","trial_type":"fractal-mutation","trial_index":85,"time_elapsed":3157883,"internal_node_id":"0.0-5.0-31.0"},{"group":"hexagon_tri","fractal_assignment":["../images/gry_blk.png","../images/cyn_red.png","../images/ylw_slt.png","../images/pnk_blu.png","../images/blu_wht.png","../images/org_blu.png"],"mutagen_generator_assignment":[0,1],"goal":4,"start":0,"action_noise":0.15,"location_history":"[0,5,4]","action_history":"[0,0]","mutagen_history":"[0,0]","location_rts":"[1272,366]","trial_type":"fractal-mutation","trial_index":86,"time_elapsed":3165127,"internal_node_id":"0.0-5.0-32.0"},{"group":"hexagon_tri","fractal_assignment":["../images/gry_blk.png","../images/cyn_red.png","../images/ylw_slt.png","../images/pnk_blu.png","../images/blu_wht.png","../images/org_blu.png"],"mutagen_generator_assignment":[0,1],"goal":1,"start":4,"action_noise":0.15,"location_history":"[4,2,1]","action_history":"[1,0]","mutagen_history":"[1,0]","location_rts":"[1484,340]","trial_type":"fractal-mutation","trial_index":87,"time_elapsed":3172580,"internal_node_id":"0.0-5.0-33.0"},{"group":"hexagon_tri","fractal_assignment":["../images/gry_blk.png","../images/cyn_red.png","../images/ylw_slt.png","../images/pnk_blu.png","../images/blu_wht.png","../images/org_blu.png"],"mutagen_generator_assignment":[0,1],"goal":2,"start":1,"action_noise":0.15,"location_history":"[1,3,2]","action_history":"[0,0]","mutagen_history":"[0,0]","location_rts":"[927,500]","trial_type":"fractal-mutation","trial_index":88,"time_elapsed":3179614,"internal_node_id":"0.0-5.0-34.0"},{"group":"hexagon_tri","fractal_assignment":["../images/gry_blk.png","../images/cyn_red.png","../images/ylw_slt.png","../images/pnk_blu.png","../images/blu_wht.png","../images/org_blu.png"],"mutagen_generator_assignment":[0,1],"goal":0,"start":2,"action_noise":0.15,"location_history":"[2,1,5,4,0]","action_history":"[0,1,0,0]","mutagen_history":"[0,1,0,0]","location_rts":"[3325,821,383,364]","trial_type":"fractal-mutation","trial_index":89,"time_elapsed":3192236,"internal_node_id":"0.0-5.0-35.0"},{"group":"hexagon_tri","fractal_assignment":["../images/gry_blk.png","../images/cyn_red.png","../images/ylw_slt.png","../images/pnk_blu.png","../images/blu_wht.png","../images/org_blu.png"],"mutagen_generator_assignment":[0,1],"goal":5,"start":0,"action_noise":0.15,"location_history":"[0,5]","action_history":"[0]","mutagen_history":"[0]","location_rts":"[2567]","trial_type":"fractal-mutation","trial_index":90,"time_elapsed":3199355,"internal_node_id":"0.0-5.0-36.0"},{"group":"hexagon_tri","fractal_assignment":["../images/gry_blk.png","../images/cyn_red.png","../images/ylw_slt.png","../images/pnk_blu.png","../images/blu_wht.png","../images/org_blu.png"],"mutagen_generator_assignment":[0,1],"goal":2,"start":5,"action_noise":0.15,"location_history":"[5,4,0,1,3,2]","action_history":"[0,0,1,0,0]","mutagen_history":"[0,0,1,0,0]","location_rts":"[874,428,388,305,1163]","trial_type":"fractal-mutation","trial_index":91,"time_elapsed":3211294,"internal_node_id":"0.0-5.0-37.0"},{"group":"hexagon_tri","fractal_assignment":["../images/gry_blk.png","../images/cyn_red.png","../images/ylw_slt.png","../images/pnk_blu.png","../images/blu_wht.png","../images/org_blu.png"],"mutagen_generator_assignment":[0,1],"goal":1,"start":2,"action_noise":0.15,"location_history":"[2,1]","action_history":"[0]","mutagen_history":"[0]","location_rts":"[526]","trial_type":"fractal-mutation","trial_index":92,"time_elapsed":3216373,"internal_node_id":"0.0-5.0-38.0"},{"group":"hexagon_tri","fractal_assignment":["../images/gry_blk.png","../images/cyn_red.png","../images/ylw_slt.png","../images/pnk_blu.png","../images/blu_wht.png","../images/org_blu.png"],"mutagen_generator_assignment":[0,1],"goal":4,"start":1,"action_noise":0.15,"location_history":"[1,5,4]","action_history":"[0,0]","mutagen_history":"[0,0]","location_rts":"[1005,389]","trial_type":"fractal-mutation","trial_index":93,"time_elapsed":3223364,"internal_node_id":"0.0-5.0-39.0"},{"group":"hexagon_tri","fractal_assignment":["../images/gry_blk.png","../images/cyn_red.png","../images/ylw_slt.png","../images/pnk_blu.png","../images/blu_wht.png","../images/org_blu.png"],"mutagen_generator_assignment":[0,1],"goal":3,"start":4,"action_noise":0.15,"location_history":"[4,2,1,3]","action_history":"[1,0,0]","mutagen_history":"[1,0,0]","location_rts":"[2056,392,307]","trial_type":"fractal-mutation","trial_index":94,"time_elapsed":3232793,"internal_node_id":"0.0-5.0-40.0"},{"group":"hexagon_tri","fractal_assignment":["../images/gry_blk.png","../images/cyn_red.png","../images/ylw_slt.png","../images/pnk_blu.png","../images/blu_wht.png","../images/org_blu.png"],"mutagen_generator_assignment":[0,1],"goal":5,"start":3,"action_noise":0.15,"location_history":"[3,2,3,4,0,5]","action_history":"[0,0,1,0,0]","mutagen_history":"[0,0,1,0,0]","location_rts":"[1163,377,463,675,374]","trial_type":"fractal-mutation","trial_index":95,"time_elapsed":3244620,"internal_node_id":"0.0-5.0-41.0"},{"group":"hexagon_tri","fractal_assignment":["../images/gry_blk.png","../images/cyn_red.png","../images/ylw_slt.png","../images/pnk_blu.png","../images/blu_wht.png","../images/org_blu.png"],"mutagen_generator_assignment":[0,1],"goal":3,"start":5,"action_noise":0.15,"location_history":"[5,4,0,1,3]","action_history":"[0,0,1,0]","mutagen_history":"[0,0,1,0]","location_rts":"[1912,639,320,299]","trial_type":"fractal-mutation","trial_index":96,"time_elapsed":3255516,"internal_node_id":"0.0-5.0-42.0"},{"group":"hexagon_tri","fractal_assignment":["../images/gry_blk.png","../images/cyn_red.png","../images/ylw_slt.png","../images/pnk_blu.png","../images/blu_wht.png","../images/org_blu.png"],"mutagen_generator_assignment":[0,1],"goal":0,"start":3,"action_noise":0.15,"location_history":"[3,4,0]","action_history":"[1,0]","mutagen_history":"[1,0]","location_rts":"[615,361]","trial_type":"fractal-mutation","trial_index":97,"time_elapsed":3262120,"internal_node_id":"0.0-5.0-43.0"},{"group":"hexagon_tri","fractal_assignment":["../images/gry_blk.png","../images/cyn_red.png","../images/ylw_slt.png","../images/pnk_blu.png","../images/blu_wht.png","../images/org_blu.png"],"mutagen_generator_assignment":[0,1],"goal":2,"start":0,"action_noise":0.15,"location_history":"[0,5,4,2]","action_history":"[0,0,1]","mutagen_history":"[0,0,1]","location_rts":"[1451,495,405]","trial_type":"fractal-mutation","trial_index":98,"time_elapsed":3271164,"internal_node_id":"0.0-5.0-44.0"},{"group":"hexagon_tri","fractal_assignment":["../images/gry_blk.png","../images/cyn_red.png","../images/ylw_slt.png","../images/pnk_blu.png","../images/blu_wht.png","../images/org_blu.png"],"mutagen_generator_assignment":[0,1],"goal":4,"start":2,"action_noise":0.15,"location_history":"[2,1,5,0,5,0,1,5,0,1,3,2,1,3,2,1,5,4]","action_history":"[0,1,1,0,1,1,0,1,1,0,1,1,1,0,1,1,0]","mutagen_history":"[0,1,1,0,1,1,0,1,1,0,1,1,1,0,1,1,0]","location_rts":"[319,217,351,527,356,414,595,215,367,556,839,369,867,263,347,345,722]","trial_type":"fractal-mutation","trial_index":99,"time_elapsed":3300435,"internal_node_id":"0.0-5.0-45.0"},{"group":"hexagon_tri","fractal_assignment":["../images/gry_blk.png","../images/cyn_red.png","../images/ylw_slt.png","../images/pnk_blu.png","../images/blu_wht.png","../images/org_blu.png"],"mutagen_generator_assignment":[0,1],"goal":1,"start":4,"action_noise":0.15,"location_history":"[4,0,5,4,2,1]","action_history":"[0,0,0,1,0]","mutagen_history":"[0,0,0,1,0]","location_rts":"[1895,336,529,392,903]","trial_type":"fractal-mutation","trial_index":100,"time_elapsed":3313259,"internal_node_id":"0.0-5.0-46.0"},{"group":"hexagon_tri","fractal_assignment":["../images/gry_blk.png","../images/cyn_red.png","../images/ylw_slt.png","../images/pnk_blu.png","../images/blu_wht.png","../images/org_blu.png"],"mutagen_generator_assignment":[0,1],"goal":4,"start":1,"action_noise":0.15,"location_history":"[1,5,4]","action_history":"[1,0]","mutagen_history":"[1,0]","location_rts":"[1376,120]","trial_type":"fractal-mutation","trial_index":101,"time_elapsed":3320375,"internal_node_id":"0.0-5.0-47.0"},{"group":"hexagon_tri","fractal_assignment":["../images/gry_blk.png","../images/cyn_red.png","../images/ylw_slt.png","../images/pnk_blu.png","../images/blu_wht.png","../images/org_blu.png"],"mutagen_generator_assignment":[0,1],"goal":3,"start":4,"action_noise":0.15,"location_history":"[4,0,1,3]","action_history":"[0,1,0]","mutagen_history":"[0,1,0]","location_rts":"[11587,404,617]","trial_type":"fractal-mutation","trial_index":102,"time_elapsed":3339659,"internal_node_id":"0.0-5.0-48.0"},{"group":"hexagon_tri","fractal_assignment":["../images/gry_blk.png","../images/cyn_red.png","../images/ylw_slt.png","../images/pnk_blu.png","../images/blu_wht.png","../images/org_blu.png"],"mutagen_generator_assignment":[0,1],"goal":5,"start":3,"action_noise":0.15,"location_history":"[3,2,3,4,0,1,3,2,1,3,2,1,5]","action_history":"[0,1,1,0,0,1,0,0,1,0,0,1]","mutagen_history":"[0,1,1,0,0,1,0,0,1,0,0,1]","location_rts":"[872,326,371,729,423,624,301,353,802,419,366,1087]","trial_type":"fractal-mutation","trial_index":103,"time_elapsed":3362535,"internal_node_id":"0.0-5.0-49.0"},{"view_history":"[{\"page_index\":0,\"viewing_time\":10079}]","rt":10079,"trial_type":"instructions","trial_index":104,"time_elapsed":3373614,"internal_node_id":"0.0-6.0"},{"rt":3842,"responses":"{\"Q0\":\"no\"}","trial_type":"survey-text","trial_index":105,"time_elapsed":3378461,"internal_node_id":"0.0-7.0"}]