[{"view_history":"[{\"page_index\":0,\"viewing_time\":9529},{\"page_index\":1,\"viewing_time\":15754},{\"page_index\":2,\"viewing_time\":22856},{\"page_index\":3,\"viewing_time\":758494}]","rt":806635,"trial_type":"instructions","trial_index":0,"time_elapsed":806636,"internal_node_id":"0.0-0.0"},{"view_history":"[{\"page_index\":0,\"viewing_time\":3667},{\"page_index\":1,\"viewing_time\":30096}]","rt":33765,"trial_type":"instructions","trial_index":1,"time_elapsed":841404,"internal_node_id":"0.0-1.0"},{"group":"hexagon_bi","room_assignment":["purple","yellow","red","green","blue","grey"],"door_color_assignment":["white","black"],"door_generator_assignment":[0,1],"goal":4,"start":0,"action_noise":0.15,"location_history":"[0,1,0,1,2,1,2,3,2,3,4]","action_history":"[0,1,1,0,0,0,1,1,1,0]","door_history":"[0,1,1,0,0,0,1,1,1,0]","location_rts":"[4548,1557,1254,2123,1531,1191,606,1396,895,671]","trial_type":"two-door-navigation","trial_index":2,"time_elapsed":871227,"internal_node_id":"0.0-2.0-0.0"},{"group":"hexagon_bi","room_assignment":["purple","yellow","red","green","blue","grey"],"door_color_assignment":["white","black"],"door_generator_assignment":[0,1],"goal":3,"start":4,"action_noise":0.15,"location_history":"[4,5,0,1,0,5,0,5,0,1,0,1,2,1,0,5,0,1,2,1,2,3]","action_history":"[1,0,0,1,0,0,0,1,1,1,1,0,0,1,0,0,1,0,0,0,1]","door_history":"[1,0,0,1,0,0,0,1,1,1,1,0,0,1,0,0,1,0,0,0,1]","location_rts":"[2169,1605,922,1235,1701,765,820,914,680,1730,1097,855,1682,799,2071,1725,1641,1094,1441,1233,390]","trial_type":"two-door-navigation","trial_index":3,"time_elapsed":923870,"internal_node_id":"0.0-2.0-1.0"},{"group":"hexagon_bi","room_assignment":["purple","yellow","red","green","blue","grey"],"door_color_assignment":["white","black"],"door_generator_assignment":[0,1],"goal":5,"start":3,"action_noise":0.15,"location_history":"[3,4,3,4,5]","action_history":"[0,0,0,0]","door_history":"[0,0,0,0]","location_rts":"[8308,17859,1704,1106]","trial_type":"two-door-navigation","trial_index":4,"time_elapsed":960617,"internal_node_id":"0.0-2.0-2.0"},{"group":"hexagon_bi","room_assignment":["purple","yellow","red","green","blue","grey"],"door_color_assignment":["white","black"],"door_generator_assignment":[0,1],"goal":2,"start":5,"action_noise":0.15,"location_history":"[5,0,1,2]","action_history":"[0,1,0]","door_history":"[0,1,0]","location_rts":"[2009,933,1367]","trial_type":"two-door-navigation","trial_index":5,"time_elapsed":971672,"internal_node_id":"0.0-2.0-3.0"},{"group":"hexagon_bi","room_assignment":["purple","yellow","red","green","blue","grey"],"door_color_assignment":["white","black"],"door_generator_assignment":[0,1],"goal":1,"start":2,"action_noise":0.15,"location_history":"[2,3,4,3,4,5,0,1]","action_history":"[0,0,0,1,1,0,1]","door_history":"[0,0,0,1,1,0,1]","location_rts":"[1779,1145,1020,1161,1590,1213,1334]","trial_type":"two-door-navigation","trial_index":6,"time_elapsed":991908,"internal_node_id":"0.0-2.0-4.0"},{"group":"hexagon_bi","room_assignment":["purple","yellow","red","green","blue","grey"],"door_color_assignment":["white","black"],"door_generator_assignment":[0,1],"goal":4,"start":1,"action_noise":0.15,"location_history":"[1,0,5,4]","action_history":"[1,0,1]","door_history":"[1,0,1]","location_rts":"[1990,1505,2004]","trial_type":"two-door-navigation","trial_index":7,"time_elapsed":1004117,"internal_node_id":"0.0-2.0-5.0"},{"group":"hexagon_bi","room_assignment":["purple","yellow","red","green","blue","grey"],"door_color_assignment":["white","black"],"door_generator_assignment":[0,1],"goal":1,"start":4,"action_noise":0.15,"location_history":"[4,3,4,3,4,5,4,5,0,1]","action_history":"[0,0,0,0,1,1,1,0,1]","door_history":"[0,0,0,0,1,1,1,0,1]","location_rts":"[1932,1528,989,1353,779,1337,1339,889,779]","trial_type":"two-door-navigation","trial_index":8,"time_elapsed":1028290,"internal_node_id":"0.0-2.0-6.0"},{"group":"hexagon_bi","room_assignment":["purple","yellow","red","green","blue","grey"],"door_color_assignment":["white","black"],"door_generator_assignment":[0,1],"goal":5,"start":1,"action_noise":0.15,"location_history":"[1,2,3,2,1,2,1,0,1,2,1,2,3,4,5]","action_history":"[0,1,1,0,0,0,1,1,0,1,1,0,0,1]","door_history":"[0,1,1,0,0,0,1,1,0,1,1,0,0,1]","location_rts":"[2038,1124,1111,689,81349,1080,2321,832,1627,1232,1227,924,1170,1118]","trial_type":"two-door-navigation","trial_index":9,"time_elapsed":1144305,"internal_node_id":"0.0-2.0-7.0"},{"group":"hexagon_bi","room_assignment":["purple","yellow","red","green","blue","grey"],"door_color_assignment":["white","black"],"door_generator_assignment":[0,1],"goal":0,"start":5,"action_noise":0.15,"location_history":"[5,4,5,0]","action_history":"[1,1,0]","door_history":"[1,1,0]","location_rts":"[1559,1083,2253]","trial_type":"two-door-navigation","trial_index":10,"time_elapsed":1155809,"internal_node_id":"0.0-2.0-8.0"},{"group":"hexagon_bi","room_assignment":["purple","yellow","red","green","blue","grey"],"door_color_assignment":["white","black"],"door_generator_assignment":[0,1],"goal":2,"start":0,"action_noise":0.15,"location_history":"[0,5,4,5,0,5,0,5,4,5,4,3,2]","action_history":"[0,1,1,0,0,0,0,1,1,1,0,0]","door_history":"[0,1,1,0,0,0,0,1,1,1,0,0]","location_rts":"[1827,973,647,1259,613,859,1547,822,795,1161,315,1287]","trial_type":"two-door-navigation","trial_index":11,"time_elapsed":1183972,"internal_node_id":"0.0-2.0-9.0"},{"group":"hexagon_bi","room_assignment":["purple","yellow","red","green","blue","grey"],"door_color_assignment":["white","black"],"door_generator_assignment":[0,1],"goal":3,"start":2,"action_noise":0.15,"location_history":"[2,3]","action_history":"[1]","door_history":"[1]","location_rts":"[2174]","trial_type":"two-door-navigation","trial_index":12,"time_elapsed":1190703,"internal_node_id":"0.0-2.0-10.0"},{"group":"hexagon_bi","room_assignment":["purple","yellow","red","green","blue","grey"],"door_color_assignment":["white","black"],"door_generator_assignment":[0,1],"goal":0,"start":3,"action_noise":0.15,"location_history":"[3,2,1,2,3,2,1,2,1,2,3,4,5,4,5,0]","action_history":"[1,0,1,1,1,0,0,0,1,1,0,1,1,1,0]","door_history":"[1,0,1,1,1,0,0,0,1,1,0,1,1,1,0]","location_rts":"[1633,930,1348,1355,1113,1131,712,1171,1607,1278,1542,1548,1034,1759,1262]","trial_type":"two-door-navigation","trial_index":13,"time_elapsed":1229636,"internal_node_id":"0.0-2.0-11.0"},{"group":"hexagon_bi","room_assignment":["purple","yellow","red","green","blue","grey"],"door_color_assignment":["white","black"],"door_generator_assignment":[0,1],"goal":2,"start":0,"action_noise":0.15,"location_history":"[0,1,2]","action_history":"[0,0]","door_history":"[0,0]","location_rts":"[13780,5466]","trial_type":"two-door-navigation","trial_index":14,"time_elapsed":1254562,"internal_node_id":"0.0-2.0-12.0"},{"group":"hexagon_bi","room_assignment":["purple","yellow","red","green","blue","grey"],"door_color_assignment":["white","black"],"door_generator_assignment":[0,1],"goal":5,"start":2,"action_noise":0.15,"location_history":"[2,3,2,3,4,5]","action_history":"[1,1,1,0,1]","door_history":"[1,1,1,0,1]","location_rts":"[1606,762,874,335,597]","trial_type":"two-door-navigation","trial_index":15,"time_elapsed":1267571,"internal_node_id":"0.0-2.0-13.0"},{"group":"hexagon_bi","room_assignment":["purple","yellow","red","green","blue","grey"],"door_color_assignment":["white","black"],"door_generator_assignment":[0,1],"goal":4,"start":5,"action_noise":0.15,"location_history":"[5,4]","action_history":"[1]","door_history":"[1]","location_rts":"[2327]","trial_type":"two-door-navigation","trial_index":16,"time_elapsed":1274452,"internal_node_id":"0.0-2.0-14.0"},{"group":"hexagon_bi","room_assignment":["purple","yellow","red","green","blue","grey"],"door_color_assignment":["white","black"],"door_generator_assignment":[0,1],"goal":3,"start":4,"action_noise":0.15,"location_history":"[4,5,0,1,0,5,4,5,0,1,0,5,0,1,2,3]","action_history":"[1,0,1,1,0,1,1,1,1,1,0,0,1,0,1]","door_history":"[1,0,1,1,0,1,1,1,1,1,0,0,1,0,1]","location_rts":"[4061,1251,958,804,1470,1210,981,1367,1524,941,1486,1109,743,1305,858]","trial_type":"two-door-navigation","trial_index":17,"time_elapsed":1313929,"internal_node_id":"0.0-2.0-15.0"},{"group":"hexagon_bi","room_assignment":["purple","yellow","red","green","blue","grey"],"door_color_assignment":["white","black"],"door_generator_assignment":[0,1],"goal":1,"start":3,"action_noise":0.15,"location_history":"[3,4,3,2,1]","action_history":"[0,0,1,0]","door_history":"[0,0,1,0]","location_rts":"[3899,1242,1160,781]","trial_type":"two-door-navigation","trial_index":18,"time_elapsed":1328697,"internal_node_id":"0.0-2.0-16.0"},{"group":"hexagon_bi","room_assignment":["purple","yellow","red","green","blue","grey"],"door_color_assignment":["white","black"],"door_generator_assignment":[0,1],"goal":5,"start":1,"action_noise":0.15,"location_history":"[1,0,1,2,1,2,3,4,5]","action_history":"[1,1,1,0,0,1,1,0]","door_history":"[1,1,1,0,0,1,1,0]","location_rts":"[1644,1748,1688,331,1614,813,1203,1549]","trial_type":"two-door-navigation","trial_index":19,"time_elapsed":1351411,"internal_node_id":"0.0-2.0-17.0"},{"group":"hexagon_bi","room_assignment":["purple","yellow","red","green","blue","grey"],"door_color_assignment":["white","black"],"door_generator_assignment":[0,1],"goal":4,"start":5,"action_noise":0.15,"location_history":"[5,0,5,4]","action_history":"[0,0,1]","door_history":"[0,0,1]","location_rts":"[10722,4777,957]","trial_type":"two-door-navigation","trial_index":20,"time_elapsed":1374572,"internal_node_id":"0.0-2.0-18.0"},{"group":"hexagon_bi","room_assignment":["purple","yellow","red","green","blue","grey"],"door_color_assignment":["white","black"],"door_generator_assignment":[0,1],"goal":0,"start":4,"action_noise":0.15,"location_history":"[4,3,4,5,0]","action_history":"[0,1,1,0]","door_history":"[0,1,1,0]","location_rts":"[2607,1008,963,1075]","trial_type":"two-door-navigation","trial_index":21,"time_elapsed":1387986,"internal_node_id":"0.0-2.0-19.0"},{"group":"hexagon_bi","room_assignment":["purple","yellow","red","green","blue","grey"],"door_color_assignment":["white","black"],"door_generator_assignment":[0,1],"goal":1,"start":0,"action_noise":0.15,"location_history":"[0,5,0,1]","action_history":"[0,0,0]","door_history":"[0,0,0]","location_rts":"[5799,1614,706]","trial_type":"two-door-navigation","trial_index":22,"time_elapsed":1402810,"internal_node_id":"0.0-2.0-20.0"},{"group":"hexagon_bi","room_assignment":["purple","yellow","red","green","blue","grey"],"door_color_assignment":["white","black"],"door_generator_assignment":[0,1],"goal":3,"start":1,"action_noise":0.15,"location_history":"[1,0,5,4,5,0,5,0,5,0,1,0,1,2,3]","action_history":"[1,0,1,1,1,1,0,0,0,1,1,1,0,1]","door_history":"[1,0,1,1,1,1,0,0,0,1,1,1,0,1]","location_rts":"[2613,1133,1090,751,958,744,1573,559,1000,937,998,1512,567,1000]","trial_type":"two-door-navigation","trial_index":23,"time_elapsed":1436471,"internal_node_id":"0.0-2.0-21.0"},{"group":"hexagon_bi","room_assignment":["purple","yellow","red","green","blue","grey"],"door_color_assignment":["white","black"],"door_generator_assignment":[0,1],"goal":2,"start":3,"action_noise":0.15,"location_history":"[3,2]","action_history":"[1]","door_history":"[1]","location_rts":"[1994]","trial_type":"two-door-navigation","trial_index":24,"time_elapsed":1443023,"internal_node_id":"0.0-2.0-22.0"},{"group":"hexagon_bi","room_assignment":["purple","yellow","red","green","blue","grey"],"door_color_assignment":["white","black"],"door_generator_assignment":[0,1],"goal":0,"start":2,"action_noise":0.15,"location_history":"[2,1,0]","action_history":"[0,1]","door_history":"[0,1]","location_rts":"[2225,1615]","trial_type":"two-door-navigation","trial_index":25,"time_elapsed":1452517,"internal_node_id":"0.0-2.0-23.0"},{"group":"hexagon_bi","room_assignment":["purple","yellow","red","green","blue","grey"],"door_color_assignment":["white","black"],"door_generator_assignment":[0,1],"goal":3,"start":0,"action_noise":0.15,"location_history":"[0,1,2,3]","action_history":"[1,0,0]","door_history":"[1,0,0]","location_rts":"[8754,1477,4881]","trial_type":"two-door-navigation","trial_index":26,"time_elapsed":1474261,"internal_node_id":"0.0-2.0-24.0"},{"group":"hexagon_bi","room_assignment":["purple","yellow","red","green","blue","grey"],"door_color_assignment":["white","black"],"door_generator_assignment":[0,1],"goal":1,"start":3,"action_noise":0.15,"location_history":"[3,2,3,4,3,4,3,2,3,2,1]","action_history":"[0,1,1,0,0,0,1,0,1,1]","door_history":"[0,1,1,0,0,0,1,0,1,1]","location_rts":"[1414,1499,5184,1011,730,990,873,941,1086,281]","trial_type":"two-door-navigation","trial_index":27,"time_elapsed":1502386,"internal_node_id":"0.0-2.0-25.0"},{"group":"hexagon_bi","room_assignment":["purple","yellow","red","green","blue","grey"],"door_color_assignment":["white","black"],"door_generator_assignment":[0,1],"goal":2,"start":1,"action_noise":0.15,"location_history":"[1,0,5,0,5,0,5,4,3,2]","action_history":"[1,1,1,0,0,0,1,0,1]","door_history":"[1,1,1,0,0,0,1,0,1]","location_rts":"[1975,1586,1215,953,5120,2043,2125,9082,4671]","trial_type":"two-door-navigation","trial_index":28,"time_elapsed":1544867,"internal_node_id":"0.0-2.0-26.0"},{"group":"hexagon_bi","room_assignment":["purple","yellow","red","green","blue","grey"],"door_color_assignment":["white","black"],"door_generator_assignment":[0,1],"goal":5,"start":2,"action_noise":0.15,"location_history":"[2,1,2,3,4,5]","action_history":"[0,0,1,0,1]","door_history":"[0,0,1,0,1]","location_rts":"[10837,11268,4289,12671,1052]","trial_type":"two-door-navigation","trial_index":29,"time_elapsed":1593984,"internal_node_id":"0.0-2.0-27.0"},{"group":"hexagon_bi","room_assignment":["purple","yellow","red","green","blue","grey"],"door_color_assignment":["white","black"],"door_generator_assignment":[0,1],"goal":4,"start":5,"action_noise":0.15,"location_history":"[5,4]","action_history":"[1]","door_history":"[1]","location_rts":"[1618]","trial_type":"two-door-navigation","trial_index":30,"time_elapsed":1600217,"internal_node_id":"0.0-2.0-28.0"},{"group":"hexagon_bi","room_assignment":["purple","yellow","red","green","blue","grey"],"door_color_assignment":["white","black"],"door_generator_assignment":[0,1],"goal":5,"start":4,"action_noise":0.15,"location_history":"[4,5]","action_history":"[1]","door_history":"[1]","location_rts":"[2068]","trial_type":"two-door-navigation","trial_index":31,"time_elapsed":1606859,"internal_node_id":"0.0-2.0-29.0"},{"group":"hexagon_bi","room_assignment":["purple","yellow","red","green","blue","grey"],"door_color_assignment":["white","black"],"door_generator_assignment":[0,1],"goal":3,"start":5,"action_noise":0.15,"location_history":"[5,4,5,0,1,2,3]","action_history":"[1,0,0,1,1,1]","door_history":"[1,0,0,1,1,1]","location_rts":"[2041,3875,1146,956,1404,880]","trial_type":"two-door-navigation","trial_index":32,"time_elapsed":1627126,"internal_node_id":"0.0-2.0-30.0"},{"group":"hexagon_bi","room_assignment":["purple","yellow","red","green","blue","grey"],"door_color_assignment":["white","black"],"door_generator_assignment":[0,1],"goal":0,"start":3,"action_noise":0.15,"location_history":"[3,2,3,4,3,4,3,2,3,4,3,4,5,0]","action_history":"[1,1,0,1,0,0,1,0,0,0,0,1,0]","door_history":"[1,1,0,1,0,0,1,0,0,0,0,1,0]","location_rts":"[1394,1722,8631,12081,6824,1230,1789,1329,1760,1579,1083,454,1097]","trial_type":"two-door-navigation","trial_index":33,"time_elapsed":1685238,"internal_node_id":"0.0-2.0-31.0"},{"group":"hexagon_bi","room_assignment":["purple","yellow","red","green","blue","grey"],"door_color_assignment":["white","black"],"door_generator_assignment":[0,1],"goal":4,"start":0,"action_noise":0.15,"location_history":"[0,1,0,1,0,5,4]","action_history":"[1,1,1,1,0,1]","door_history":"[1,1,1,1,0,1]","location_rts":"[19439,7477,4438,1118,860,1095]","trial_type":"two-door-navigation","trial_index":34,"time_elapsed":1729477,"internal_node_id":"0.0-2.0-32.0"},{"group":"hexagon_bi","room_assignment":["purple","yellow","red","green","blue","grey"],"door_color_assignment":["white","black"],"door_generator_assignment":[0,1],"goal":1,"start":4,"action_noise":0.15,"location_history":"[4,3,2,1]","action_history":"[0,1,0]","door_history":"[0,1,0]","location_rts":"[6694,7705,837]","trial_type":"two-door-navigation","trial_index":35,"time_elapsed":1751567,"internal_node_id":"0.0-2.0-33.0"},{"group":"hexagon_bi","room_assignment":["purple","yellow","red","green","blue","grey"],"door_color_assignment":["white","black"],"door_generator_assignment":[0,1],"goal":2,"start":1,"action_noise":0.15,"location_history":"[1,0,5,0,5,0,5,0,1,2]","action_history":"[1,0,0,0,0,1,0,1,0]","door_history":"[1,0,0,0,0,1,0,1,0]","location_rts":"[19790,8773,849,610,817,683,863,1157,800]","trial_type":"two-door-navigation","trial_index":36,"time_elapsed":1798995,"internal_node_id":"0.0-2.0-34.0"},{"group":"hexagon_bi","room_assignment":["purple","yellow","red","green","blue","grey"],"door_color_assignment":["white","black"],"door_generator_assignment":[0,1],"goal":0,"start":2,"action_noise":0.15,"location_history":"[2,1,0]","action_history":"[1,1]","door_history":"[1,1]","location_rts":"[16408,9249]","trial_type":"two-door-navigation","trial_index":37,"time_elapsed":1830290,"internal_node_id":"0.0-2.0-35.0"},{"group":"hexagon_bi","room_assignment":["purple","yellow","red","green","blue","grey"],"door_color_assignment":["white","black"],"door_generator_assignment":[0,1],"goal":5,"start":0,"action_noise":0.15,"location_history":"[0,5]","action_history":"[0]","door_history":"[0]","location_rts":"[6139]","trial_type":"two-door-navigation","trial_index":38,"time_elapsed":1840993,"internal_node_id":"0.0-2.0-36.0"},{"group":"hexagon_bi","room_assignment":["purple","yellow","red","green","blue","grey"],"door_color_assignment":["white","black"],"door_generator_assignment":[0,1],"goal":2,"start":5,"action_noise":0.15,"location_history":"[5,4,5,0,1,0,1,0,1,2]","action_history":"[1,0,0,1,0,1,1,1,0]","door_history":"[1,0,0,1,0,1,1,1,0]","location_rts":"[10999,1221,856,4331,641,3156,732,1939,298]","trial_type":"two-door-navigation","trial_index":39,"time_elapsed":1878374,"internal_node_id":"0.0-2.0-37.0"},{"group":"hexagon_bi","room_assignment":["purple","yellow","red","green","blue","grey"],"door_color_assignment":["white","black"],"door_generator_assignment":[0,1],"goal":1,"start":2,"action_noise":0.15,"location_history":"[2,1]","action_history":"[0]","door_history":"[0]","location_rts":"[1652]","trial_type":"two-door-navigation","trial_index":40,"time_elapsed":1884686,"internal_node_id":"0.0-2.0-38.0"},{"group":"hexagon_bi","room_assignment":["purple","yellow","red","green","blue","grey"],"door_color_assignment":["white","black"],"door_generator_assignment":[0,1],"goal":4,"start":1,"action_noise":0.15,"location_history":"[1,2,3,2,3,4]","action_history":"[0,1,1,1,0]","door_history":"[0,1,1,1,0]","location_rts":"[1620,935,743,1850,1144]","trial_type":"two-door-navigation","trial_index":41,"time_elapsed":1899810,"internal_node_id":"0.0-2.0-39.0"},{"group":"hexagon_bi","room_assignment":["purple","yellow","red","green","blue","grey"],"door_color_assignment":["white","black"],"door_generator_assignment":[0,1],"goal":3,"start":4,"action_noise":0.15,"location_history":"[4,5,4,5,4,5,4,5,4,3]","action_history":"[1,1,0,0,1,1,1,1,0]","door_history":"[1,1,0,0,1,1,1,1,0]","location_rts":"[1441,1040,1661,871,1062,744,536,394,558]","trial_type":"two-door-navigation","trial_index":42,"time_elapsed":1921114,"internal_node_id":"0.0-2.0-40.0"},{"group":"hexagon_bi","room_assignment":["purple","yellow","red","green","blue","grey"],"door_color_assignment":["white","black"],"door_generator_assignment":[0,1],"goal":5,"start":3,"action_noise":0.15,"location_history":"[3,4,5]","action_history":"[0,0]","door_history":"[0,0]","location_rts":"[1495,1120]","trial_type":"two-door-navigation","trial_index":43,"time_elapsed":1929290,"internal_node_id":"0.0-2.0-41.0"},{"group":"hexagon_bi","room_assignment":["purple","yellow","red","green","blue","grey"],"door_color_assignment":["white","black"],"door_generator_assignment":[0,1],"goal":3,"start":5,"action_noise":0.15,"location_history":"[5,4,3]","action_history":"[1,1]","door_history":"[1,1]","location_rts":"[2038,519]","trial_type":"two-door-navigation","trial_index":44,"time_elapsed":1937451,"internal_node_id":"0.0-2.0-42.0"},{"group":"hexagon_bi","room_assignment":["purple","yellow","red","green","blue","grey"],"door_color_assignment":["white","black"],"door_generator_assignment":[0,1],"goal":0,"start":3,"action_noise":0.15,"location_history":"[3,2,1,0]","action_history":"[1,0,1]","door_history":"[1,0,1]","location_rts":"[2191,1081,1323]","trial_type":"two-door-navigation","trial_index":45,"time_elapsed":1948864,"internal_node_id":"0.0-2.0-43.0"},{"group":"hexagon_bi","room_assignment":["purple","yellow","red","green","blue","grey"],"door_color_assignment":["white","black"],"door_generator_assignment":[0,1],"goal":2,"start":0,"action_noise":0.15,"location_history":"[0,1,2]","action_history":"[1,0]","door_history":"[1,0]","location_rts":"[1363,1075]","trial_type":"two-door-navigation","trial_index":46,"time_elapsed":1956977,"internal_node_id":"0.0-2.0-44.0"},{"group":"hexagon_bi","room_assignment":["purple","yellow","red","green","blue","grey"],"door_color_assignment":["white","black"],"door_generator_assignment":[0,1],"goal":4,"start":2,"action_noise":0.15,"location_history":"[2,3,4]","action_history":"[1,0]","door_history":"[1,0]","location_rts":"[1314,1176]","trial_type":"two-door-navigation","trial_index":47,"time_elapsed":1965054,"internal_node_id":"0.0-2.0-45.0"},{"group":"hexagon_bi","room_assignment":["purple","yellow","red","green","blue","grey"],"door_color_assignment":["white","black"],"door_generator_assignment":[0,1],"goal":1,"start":4,"action_noise":0.15,"location_history":"[4,5,0,1]","action_history":"[0,0,1]","door_history":"[0,0,1]","location_rts":"[1204,1401,1225]","trial_type":"two-door-navigation","trial_index":48,"time_elapsed":1975790,"internal_node_id":"0.0-2.0-46.0"},{"group":"hexagon_bi","room_assignment":["purple","yellow","red","green","blue","grey"],"door_color_assignment":["white","black"],"door_generator_assignment":[0,1],"goal":4,"start":1,"action_noise":0.15,"location_history":"[1,0,5,4]","action_history":"[1,0,1]","door_history":"[1,0,1]","location_rts":"[1571,1470,1378]","trial_type":"two-door-navigation","trial_index":49,"time_elapsed":1986999,"internal_node_id":"0.0-2.0-47.0"},{"group":"hexagon_bi","room_assignment":["purple","yellow","red","green","blue","grey"],"door_color_assignment":["white","black"],"door_generator_assignment":[0,1],"goal":3,"start":4,"action_noise":0.15,"location_history":"[4,5,4,3]","action_history":"[1,1,0]","door_history":"[1,1,0]","location_rts":"[1496,757,930]","trial_type":"two-door-navigation","trial_index":50,"time_elapsed":1996773,"internal_node_id":"0.0-2.0-48.0"},{"group":"hexagon_bi","room_assignment":["purple","yellow","red","green","blue","grey"],"door_color_assignment":["white","black"],"door_generator_assignment":[0,1],"goal":5,"start":3,"action_noise":0.15,"location_history":"[3,4,3,2,3,2,1,2,1,0,5]","action_history":"[0,0,1,1,1,0,0,0,1,0]","door_history":"[0,0,1,1,1,0,0,0,1,0]","location_rts":"[1396,1059,911,556,1475,619,1303,1942,691,945]","trial_type":"two-door-navigation","trial_index":51,"time_elapsed":2021852,"internal_node_id":"0.0-2.0-49.0"},{"view_history":"[{\"page_index\":0,\"viewing_time\":7273}]","rt":7274,"trial_type":"instructions","trial_index":52,"time_elapsed":2030134,"internal_node_id":"0.0-3.0"},{"view_history":"[{\"page_index\":0,\"viewing_time\":2559},{\"page_index\":1,\"viewing_time\":33055}]","rt":35614,"trial_type":"instructions","trial_index":53,"time_elapsed":2066755,"internal_node_id":"0.0-4.0"},{"group":"hexagon_bi","fractal_assignment":["../images/ylw_slt.png","../images/gry_blk.png","../images/blu_wht.png","../images/org_blu.png","../images/pnk_blu.png","../images/cyn_red.png"],"mutagen_generator_assignment":[1,0],"goal":4,"start":0,"action_noise":0.15,"location_history":"[0,1,2,1,2,3,4]","action_history":"[1,0,0,0,1,0]","mutagen_history":"[0,1,1,1,0,1]","location_rts":"[5171,2071,1383,1413,781,1048]","trial_type":"fractal-mutation","trial_index":54,"time_elapsed":2090206,"internal_node_id":"0.0-5.0-0.0"},{"group":"hexagon_bi","fractal_assignment":["../images/ylw_slt.png","../images/gry_blk.png","../images/blu_wht.png","../images/org_blu.png","../images/pnk_blu.png","../images/cyn_red.png"],"mutagen_generator_assignment":[1,0],"goal":3,"start":4,"action_noise":0.15,"location_history":"[4,3]","action_history":"[0]","mutagen_history":"[1]","location_rts":"[1617]","trial_type":"fractal-mutation","trial_index":55,"time_elapsed":2096532,"internal_node_id":"0.0-5.0-1.0"},{"group":"hexagon_bi","fractal_assignment":["../images/ylw_slt.png","../images/gry_blk.png","../images/blu_wht.png","../images/org_blu.png","../images/pnk_blu.png","../images/cyn_red.png"],"mutagen_generator_assignment":[1,0],"goal":5,"start":3,"action_noise":0.15,"location_history":"[3,2,1,0,5]","action_history":"[1,0,1,0]","mutagen_history":"[0,1,0,1]","location_rts":"[1300,1169,1436,1127]","trial_type":"fractal-mutation","trial_index":56,"time_elapsed":2110366,"internal_node_id":"0.0-5.0-2.0"},{"group":"hexagon_bi","fractal_assignment":["../images/ylw_slt.png","../images/gry_blk.png","../images/blu_wht.png","../images/org_blu.png","../images/pnk_blu.png","../images/cyn_red.png"],"mutagen_generator_assignment":[1,0],"goal":2,"start":5,"action_noise":0.15,"location_history":"[5,0,5,4,5,0,5,0,5,4,5,0,5,4,5,0,1,0,1,0,1,2]","action_history":"[0,0,1,1,0,0,0,0,1,0,1,1,1,1,0,1,1,1,0,0,0]","mutagen_history":"[1,1,0,0,1,1,1,1,0,1,0,0,0,0,1,0,0,0,1,1,1]","location_rts":"[1055,1341,802,1288,862,984,982,1288,892,1326,1473,889,964,1104,2584,1901,1588,1455,575,932,879]","trial_type":"fractal-mutation","trial_index":57,"time_elapsed":2162836,"internal_node_id":"0.0-5.0-3.0"},{"group":"hexagon_bi","fractal_assignment":["../images/ylw_slt.png","../images/gry_blk.png","../images/blu_wht.png","../images/org_blu.png","../images/pnk_blu.png","../images/cyn_red.png"],"mutagen_generator_assignment":[1,0],"goal":1,"start":2,"action_noise":0.15,"location_history":"[2,3,2,3,2,3,2,1]","action_history":"[1,0,0,1,1,1,0]","mutagen_history":"[0,1,1,0,0,0,1]","location_rts":"[1892,975,797,750,857,993,908]","trial_type":"fractal-mutation","trial_index":58,"time_elapsed":2181614,"internal_node_id":"0.0-5.0-4.0"},{"group":"hexagon_bi","fractal_assignment":["../images/ylw_slt.png","../images/gry_blk.png","../images/blu_wht.png","../images/org_blu.png","../images/pnk_blu.png","../images/cyn_red.png"],"mutagen_generator_assignment":[1,0],"goal":4,"start":1,"action_noise":0.15,"location_history":"[1,2,1,2,1,2,3,4]","action_history":"[0,1,0,0,1,1,0]","mutagen_history":"[1,0,1,1,0,0,1]","location_rts":"[1315,1769,1228,1178,1201,897,938]","trial_type":"fractal-mutation","trial_index":59,"time_elapsed":2201700,"internal_node_id":"0.0-5.0-5.0"},{"group":"hexagon_bi","fractal_assignment":["../images/ylw_slt.png","../images/gry_blk.png","../images/blu_wht.png","../images/org_blu.png","../images/pnk_blu.png","../images/cyn_red.png"],"mutagen_generator_assignment":[1,0],"goal":1,"start":4,"action_noise":0.15,"location_history":"[4,3,2,1]","action_history":"[0,1,0]","mutagen_history":"[1,0,1]","location_rts":"[1146,1297,1260]","trial_type":"fractal-mutation","trial_index":60,"time_elapsed":2212339,"internal_node_id":"0.0-5.0-6.0"},{"group":"hexagon_bi","fractal_assignment":["../images/ylw_slt.png","../images/gry_blk.png","../images/blu_wht.png","../images/org_blu.png","../images/pnk_blu.png","../images/cyn_red.png"],"mutagen_generator_assignment":[1,0],"goal":5,"start":1,"action_noise":0.15,"location_history":"[1,0,5]","action_history":"[1,0]","mutagen_history":"[0,1]","location_rts":"[1428,951]","trial_type":"fractal-mutation","trial_index":61,"time_elapsed":2220309,"internal_node_id":"0.0-5.0-7.0"},{"group":"hexagon_bi","fractal_assignment":["../images/ylw_slt.png","../images/gry_blk.png","../images/blu_wht.png","../images/org_blu.png","../images/pnk_blu.png","../images/cyn_red.png"],"mutagen_generator_assignment":[1,0],"goal":0,"start":5,"action_noise":0.15,"location_history":"[5,4,3,2,1,2,3,4,5,0]","action_history":"[1,0,1,0,1,1,0,1,1]","mutagen_history":"[0,1,0,1,0,0,1,0,0]","location_rts":"[1113,1027,1332,895,1536,1035,912,1427,1313]","trial_type":"fractal-mutation","trial_index":62,"time_elapsed":2244921,"internal_node_id":"0.0-5.0-8.0"},{"group":"hexagon_bi","fractal_assignment":["../images/ylw_slt.png","../images/gry_blk.png","../images/blu_wht.png","../images/org_blu.png","../images/pnk_blu.png","../images/cyn_red.png"],"mutagen_generator_assignment":[1,0],"goal":2,"start":0,"action_noise":0.15,"location_history":"[0,5,0,5,4,3,4,5,0,5,4,5,4,3,4,5,0,1,2]","action_history":"[0,0,1,1,0,1,1,0,0,1,1,1,0,1,1,0,1,0]","mutagen_history":"[1,1,0,0,1,0,0,1,1,0,0,0,1,0,0,1,0,1]","location_rts":"[1384,1438,948,763,1015,980,1361,901,1249,2044,1329,1540,600,1526,1161,1721,1541,1304]","trial_type":"fractal-mutation","trial_index":63,"time_elapsed":2291397,"internal_node_id":"0.0-5.0-9.0"},{"group":"hexagon_bi","fractal_assignment":["../images/ylw_slt.png","../images/gry_blk.png","../images/blu_wht.png","../images/org_blu.png","../images/pnk_blu.png","../images/cyn_red.png"],"mutagen_generator_assignment":[1,0],"goal":3,"start":2,"action_noise":0.15,"location_history":"[2,3]","action_history":"[0]","mutagen_history":"[1]","location_rts":"[1698]","trial_type":"fractal-mutation","trial_index":64,"time_elapsed":2297672,"internal_node_id":"0.0-5.0-10.0"},{"group":"hexagon_bi","fractal_assignment":["../images/ylw_slt.png","../images/gry_blk.png","../images/blu_wht.png","../images/org_blu.png","../images/pnk_blu.png","../images/cyn_red.png"],"mutagen_generator_assignment":[1,0],"goal":0,"start":3,"action_noise":0.15,"location_history":"[3,4,5,0]","action_history":"[1,1,0]","mutagen_history":"[0,0,1]","location_rts":"[1465,1058,800]","trial_type":"fractal-mutation","trial_index":65,"time_elapsed":2307798,"internal_node_id":"0.0-5.0-11.0"},{"group":"hexagon_bi","fractal_assignment":["../images/ylw_slt.png","../images/gry_blk.png","../images/blu_wht.png","../images/org_blu.png","../images/pnk_blu.png","../images/cyn_red.png"],"mutagen_generator_assignment":[1,0],"goal":2,"start":0,"action_noise":0.15,"location_history":"[0,1,0,5,0,1,2]","action_history":"[0,1,0,0,1,0]","mutagen_history":"[1,0,1,1,0,1]","location_rts":"[1235,1177,944,757,985,1047]","trial_type":"fractal-mutation","trial_index":66,"time_elapsed":2324740,"internal_node_id":"0.0-5.0-12.0"},{"group":"hexagon_bi","fractal_assignment":["../images/ylw_slt.png","../images/gry_blk.png","../images/blu_wht.png","../images/org_blu.png","../images/pnk_blu.png","../images/cyn_red.png"],"mutagen_generator_assignment":[1,0],"goal":5,"start":2,"action_noise":0.15,"location_history":"[2,1,2,3,2,1,2,1,0,1,0,5]","action_history":"[0,1,1,1,0,1,0,0,1,1,0]","mutagen_history":"[1,0,0,0,1,0,1,1,0,0,1]","location_rts":"[1513,942,799,904,1448,1008,833,732,903,983,1143]","trial_type":"fractal-mutation","trial_index":67,"time_elapsed":2351857,"internal_node_id":"0.0-5.0-13.0"},{"group":"hexagon_bi","fractal_assignment":["../images/ylw_slt.png","../images/gry_blk.png","../images/blu_wht.png","../images/org_blu.png","../images/pnk_blu.png","../images/cyn_red.png"],"mutagen_generator_assignment":[1,0],"goal":4,"start":5,"action_noise":0.15,"location_history":"[5,4]","action_history":"[1]","mutagen_history":"[0]","location_rts":"[6619]","trial_type":"fractal-mutation","trial_index":68,"time_elapsed":2363062,"internal_node_id":"0.0-5.0-14.0"},{"group":"hexagon_bi","fractal_assignment":["../images/ylw_slt.png","../images/gry_blk.png","../images/blu_wht.png","../images/org_blu.png","../images/pnk_blu.png","../images/cyn_red.png"],"mutagen_generator_assignment":[1,0],"goal":3,"start":4,"action_noise":0.15,"location_history":"[4,5,4,5,0,5,4,5,4,3]","action_history":"[0,1,1,0,0,1,1,0,0]","mutagen_history":"[1,0,0,1,1,0,0,1,1]","location_rts":"[1041,1238,770,977,887,1347,1865,1551,794]","trial_type":"fractal-mutation","trial_index":69,"time_elapsed":2387584,"internal_node_id":"0.0-5.0-15.0"},{"group":"hexagon_bi","fractal_assignment":["../images/ylw_slt.png","../images/gry_blk.png","../images/blu_wht.png","../images/org_blu.png","../images/pnk_blu.png","../images/cyn_red.png"],"mutagen_generator_assignment":[1,0],"goal":1,"start":3,"action_noise":0.15,"location_history":"[3,4,5,4,5,0,1]","action_history":"[0,0,1,1,0,1]","mutagen_history":"[1,1,0,0,1,0]","location_rts":"[1270,1202,800,688,1241,950]","trial_type":"fractal-mutation","trial_index":70,"time_elapsed":2404204,"internal_node_id":"0.0-5.0-16.0"},{"group":"hexagon_bi","fractal_assignment":["../images/ylw_slt.png","../images/gry_blk.png","../images/blu_wht.png","../images/org_blu.png","../images/pnk_blu.png","../images/cyn_red.png"],"mutagen_generator_assignment":[1,0],"goal":5,"start":1,"action_noise":0.15,"location_history":"[1,2,1,2,3,4,5]","action_history":"[0,0,0,1,0,1]","mutagen_history":"[1,1,1,0,1,0]","location_rts":"[1307,1040,983,742,1068,667]","trial_type":"fractal-mutation","trial_index":71,"time_elapsed":2420298,"internal_node_id":"0.0-5.0-17.0"},{"group":"hexagon_bi","fractal_assignment":["../images/ylw_slt.png","../images/gry_blk.png","../images/blu_wht.png","../images/org_blu.png","../images/pnk_blu.png","../images/cyn_red.png"],"mutagen_generator_assignment":[1,0],"goal":4,"start":5,"action_noise":0.15,"location_history":"[5,0,5,4]","action_history":"[0,0,1]","mutagen_history":"[1,1,0]","location_rts":"[1179,935,908]","trial_type":"fractal-mutation","trial_index":72,"time_elapsed":2430095,"internal_node_id":"0.0-5.0-18.0"},{"group":"hexagon_bi","fractal_assignment":["../images/ylw_slt.png","../images/gry_blk.png","../images/blu_wht.png","../images/org_blu.png","../images/pnk_blu.png","../images/cyn_red.png"],"mutagen_generator_assignment":[1,0],"goal":0,"start":4,"action_noise":0.15,"location_history":"[4,5,0]","action_history":"[1,0]","mutagen_history":"[0,1]","location_rts":"[1057,1955]","trial_type":"fractal-mutation","trial_index":73,"time_elapsed":2438997,"internal_node_id":"0.0-5.0-19.0"},{"group":"hexagon_bi","fractal_assignment":["../images/ylw_slt.png","../images/gry_blk.png","../images/blu_wht.png","../images/org_blu.png","../images/pnk_blu.png","../images/cyn_red.png"],"mutagen_generator_assignment":[1,0],"goal":1,"start":0,"action_noise":0.15,"location_history":"[0,1]","action_history":"[0]","mutagen_history":"[1]","location_rts":"[1365]","trial_type":"fractal-mutation","trial_index":74,"time_elapsed":2444991,"internal_node_id":"0.0-5.0-20.0"},{"group":"hexagon_bi","fractal_assignment":["../images/ylw_slt.png","../images/gry_blk.png","../images/blu_wht.png","../images/org_blu.png","../images/pnk_blu.png","../images/cyn_red.png"],"mutagen_generator_assignment":[1,0],"goal":3,"start":1,"action_noise":0.15,"location_history":"[1,2,1,2,1,0,5,4,5,4,5,0,5,0,1,0,1,2,1,2,3]","action_history":"[1,0,0,0,1,0,1,0,1,1,1,0,0,1,1,1,0,0,0,1]","mutagen_history":"[0,1,1,1,0,1,0,1,0,0,0,1,1,0,0,0,1,1,1,0]","location_rts":"[1666,926,928,1170,672,1131,1320,1126,1541,497,954,600,880,881,1074,1616,1012,736,799,1116]","trial_type":"fractal-mutation","trial_index":75,"time_elapsed":2492405,"internal_node_id":"0.0-5.0-21.0"},{"group":"hexagon_bi","fractal_assignment":["../images/ylw_slt.png","../images/gry_blk.png","../images/blu_wht.png","../images/org_blu.png","../images/pnk_blu.png","../images/cyn_red.png"],"mutagen_generator_assignment":[1,0],"goal":2,"start":3,"action_noise":0.15,"location_history":"[3,4,3,4,5,4,3,2]","action_history":"[0,0,0,1,1,0,1]","mutagen_history":"[1,1,1,0,0,1,0]","location_rts":"[1156,841,1018,817,1206,691,1081]","trial_type":"fractal-mutation","trial_index":76,"time_elapsed":2510608,"internal_node_id":"0.0-5.0-22.0"},{"group":"hexagon_bi","fractal_assignment":["../images/ylw_slt.png","../images/gry_blk.png","../images/blu_wht.png","../images/org_blu.png","../images/pnk_blu.png","../images/cyn_red.png"],"mutagen_generator_assignment":[1,0],"goal":0,"start":2,"action_noise":0.15,"location_history":"[2,1,2,1,0]","action_history":"[0,0,1,1]","mutagen_history":"[1,1,0,0]","location_rts":"[1693,975,887,717]","trial_type":"fractal-mutation","trial_index":77,"time_elapsed":2522789,"internal_node_id":"0.0-5.0-23.0"},{"group":"hexagon_bi","fractal_assignment":["../images/ylw_slt.png","../images/gry_blk.png","../images/blu_wht.png","../images/org_blu.png","../images/pnk_blu.png","../images/cyn_red.png"],"mutagen_generator_assignment":[1,0],"goal":3,"start":0,"action_noise":0.15,"location_history":"[0,1,0,5,0,5,0,1,2,1,0,1,0,1,2,3]","action_history":"[1,1,0,0,0,1,1,0,0,1,1,1,1,0,1]","mutagen_history":"[0,0,1,1,1,0,0,1,1,0,0,0,0,1,0]","location_rts":"[1009,856,878,817,1320,931,1035,658,942,950,1004,1027,1443,354,829]","trial_type":"fractal-mutation","trial_index":78,"time_elapsed":2556618,"internal_node_id":"0.0-5.0-24.0"},{"group":"hexagon_bi","fractal_assignment":["../images/ylw_slt.png","../images/gry_blk.png","../images/blu_wht.png","../images/org_blu.png","../images/pnk_blu.png","../images/cyn_red.png"],"mutagen_generator_assignment":[1,0],"goal":1,"start":3,"action_noise":0.15,"location_history":"[3,4,5,4,5,0,5,4,5,4,3,4,5,4,3,2,1]","action_history":"[0,0,1,1,0,0,1,1,1,0,0,1,1,0,1,0]","mutagen_history":"[1,1,0,0,1,1,0,0,0,1,1,0,0,1,0,1]","location_rts":"[1600,4000,2382,1016,3716,1248,1150,548,1174,901,1055,1319,1157,391,953,975]","trial_type":"fractal-mutation","trial_index":79,"time_elapsed":2601546,"internal_node_id":"0.0-5.0-25.0"},{"group":"hexagon_bi","fractal_assignment":["../images/ylw_slt.png","../images/gry_blk.png","../images/blu_wht.png","../images/org_blu.png","../images/pnk_blu.png","../images/cyn_red.png"],"mutagen_generator_assignment":[1,0],"goal":2,"start":1,"action_noise":0.15,"location_history":"[1,2]","action_history":"[0]","mutagen_history":"[1]","location_rts":"[2070]","trial_type":"fractal-mutation","trial_index":80,"time_elapsed":2608524,"internal_node_id":"0.0-5.0-26.0"},{"group":"hexagon_bi","fractal_assignment":["../images/ylw_slt.png","../images/gry_blk.png","../images/blu_wht.png","../images/org_blu.png","../images/pnk_blu.png","../images/cyn_red.png"],"mutagen_generator_assignment":[1,0],"goal":5,"start":2,"action_noise":0.15,"location_history":"[2,3,2,1,0,5]","action_history":"[1,1,0,1,0]","mutagen_history":"[0,0,1,0,1]","location_rts":"[883,1097,723,750,1159]","trial_type":"fractal-mutation","trial_index":81,"time_elapsed":2622423,"internal_node_id":"0.0-5.0-27.0"},{"group":"hexagon_bi","fractal_assignment":["../images/ylw_slt.png","../images/gry_blk.png","../images/blu_wht.png","../images/org_blu.png","../images/pnk_blu.png","../images/cyn_red.png"],"mutagen_generator_assignment":[1,0],"goal":4,"start":5,"action_noise":0.15,"location_history":"[5,4]","action_history":"[1]","mutagen_history":"[0]","location_rts":"[1581]","trial_type":"fractal-mutation","trial_index":82,"time_elapsed":2628660,"internal_node_id":"0.0-5.0-28.0"},{"group":"hexagon_bi","fractal_assignment":["../images/ylw_slt.png","../images/gry_blk.png","../images/blu_wht.png","../images/org_blu.png","../images/pnk_blu.png","../images/cyn_red.png"],"mutagen_generator_assignment":[1,0],"goal":5,"start":4,"action_noise":0.15,"location_history":"[4,5]","action_history":"[1]","mutagen_history":"[0]","location_rts":"[1468]","trial_type":"fractal-mutation","trial_index":83,"time_elapsed":2634840,"internal_node_id":"0.0-5.0-29.0"},{"group":"hexagon_bi","fractal_assignment":["../images/ylw_slt.png","../images/gry_blk.png","../images/blu_wht.png","../images/org_blu.png","../images/pnk_blu.png","../images/cyn_red.png"],"mutagen_generator_assignment":[1,0],"goal":3,"start":5,"action_noise":0.15,"location_history":"[5,0,1,2,3]","action_history":"[0,1,0,1]","mutagen_history":"[1,0,1,0]","location_rts":"[1854,1350,894,1039]","trial_type":"fractal-mutation","trial_index":84,"time_elapsed":2647965,"internal_node_id":"0.0-5.0-30.0"},{"group":"hexagon_bi","fractal_assignment":["../images/ylw_slt.png","../images/gry_blk.png","../images/blu_wht.png","../images/org_blu.png","../images/pnk_blu.png","../images/cyn_red.png"],"mutagen_generator_assignment":[1,0],"goal":0,"start":3,"action_noise":0.15,"location_history":"[3,2,1,0]","action_history":"[1,0,1]","mutagen_history":"[0,1,0]","location_rts":"[1605,1024,1021]","trial_type":"fractal-mutation","trial_index":85,"time_elapsed":2658647,"internal_node_id":"0.0-5.0-31.0"},{"group":"hexagon_bi","fractal_assignment":["../images/ylw_slt.png","../images/gry_blk.png","../images/blu_wht.png","../images/org_blu.png","../images/pnk_blu.png","../images/cyn_red.png"],"mutagen_generator_assignment":[1,0],"goal":4,"start":0,"action_noise":0.15,"location_history":"[0,5,0,5,0,1,0,5,0,1,0,1,2,3,4]","action_history":"[0,1,0,1,1,0,0,1,1,1,1,0,1,0]","mutagen_history":"[1,0,1,0,0,1,1,0,0,0,0,1,0,1]","location_rts":"[2249,643,1728,362,1827,959,990,1535,1051,798,1372,387,1292,894]","trial_type":"fractal-mutation","trial_index":86,"time_elapsed":2693678,"internal_node_id":"0.0-5.0-32.0"},{"group":"hexagon_bi","fractal_assignment":["../images/ylw_slt.png","../images/gry_blk.png","../images/blu_wht.png","../images/org_blu.png","../images/pnk_blu.png","../images/cyn_red.png"],"mutagen_generator_assignment":[1,0],"goal":1,"start":4,"action_noise":0.15,"location_history":"[4,5,4,3,4,3,4,5,4,5,0,5,0,5,4,3,2,3,2,3,4,3,4,3,4,3,4,5,4,3,2,1]","action_history":"[1,0,0,1,0,0,0,1,1,1,0,0,0,1,0,1,1,1,1,0,0,0,1,1,0,0,1,0,0,1,0]","mutagen_history":"[0,1,1,0,1,1,1,0,0,0,1,1,1,0,1,0,0,0,0,1,1,1,0,0,1,1,0,1,1,0,1]","location_rts":"[2427,976,716,931,1466,476,869,1272,899,1097,826,1383,823,1045,1393,1339,1468,999,1182,492,1692,1767,1862,1078,1424,1240,2101,2978,2240,973,1409]","trial_type":"fractal-mutation","trial_index":87,"time_elapsed":2773312,"internal_node_id":"0.0-5.0-33.0"},{"group":"hexagon_bi","fractal_assignment":["../images/ylw_slt.png","../images/gry_blk.png","../images/blu_wht.png","../images/org_blu.png","../images/pnk_blu.png","../images/cyn_red.png"],"mutagen_generator_assignment":[1,0],"goal":2,"start":1,"action_noise":0.15,"location_history":"[1,0,5,0,1,2]","action_history":"[1,1,0,0,1]","mutagen_history":"[0,0,1,1,0]","location_rts":"[115378,1302,632,798,1186]","trial_type":"fractal-mutation","trial_index":88,"time_elapsed":2901850,"internal_node_id":"0.0-5.0-34.0"},{"group":"hexagon_bi","fractal_assignment":["../images/ylw_slt.png","../images/gry_blk.png","../images/blu_wht.png","../images/org_blu.png","../images/pnk_blu.png","../images/cyn_red.png"],"mutagen_generator_assignment":[1,0],"goal":0,"start":2,"action_noise":0.15,"location_history":"[2,1,2,3,4,5,0]","action_history":"[0,0,1,0,1,0]","mutagen_history":"[1,1,0,1,0,1]","location_rts":"[1522,891,761,953,1525,1102]","trial_type":"fractal-mutation","trial_index":89,"time_elapsed":2919117,"internal_node_id":"0.0-5.0-35.0"},{"group":"hexagon_bi","fractal_assignment":["../images/ylw_slt.png","../images/gry_blk.png","../images/blu_wht.png","../images/org_blu.png","../images/pnk_blu.png","../images/cyn_red.png"],"mutagen_generator_assignment":[1,0],"goal":5,"start":0,"action_noise":0.15,"location_history":"[0,1,0,5]","action_history":"[1,0,0]","mutagen_history":"[0,1,1]","location_rts":"[2073,1035,1168]","trial_type":"fractal-mutation","trial_index":90,"time_elapsed":2930299,"internal_node_id":"0.0-5.0-36.0"},{"group":"hexagon_bi","fractal_assignment":["../images/ylw_slt.png","../images/gry_blk.png","../images/blu_wht.png","../images/org_blu.png","../images/pnk_blu.png","../images/cyn_red.png"],"mutagen_generator_assignment":[1,0],"goal":2,"start":5,"action_noise":0.15,"location_history":"[5,0,5,4,3,2]","action_history":"[0,0,1,0,1]","mutagen_history":"[1,1,0,1,0]","location_rts":"[1076,1276,845,1043,1017]","trial_type":"fractal-mutation","trial_index":91,"time_elapsed":2944724,"internal_node_id":"0.0-5.0-37.0"},{"group":"hexagon_bi","fractal_assignment":["../images/ylw_slt.png","../images/gry_blk.png","../images/blu_wht.png","../images/org_blu.png","../images/pnk_blu.png","../images/cyn_red.png"],"mutagen_generator_assignment":[1,0],"goal":1,"start":2,"action_noise":0.15,"location_history":"[2,1]","action_history":"[0]","mutagen_history":"[1]","location_rts":"[1197]","trial_type":"fractal-mutation","trial_index":92,"time_elapsed":2950543,"internal_node_id":"0.0-5.0-38.0"},{"group":"hexagon_bi","fractal_assignment":["../images/ylw_slt.png","../images/gry_blk.png","../images/blu_wht.png","../images/org_blu.png","../images/pnk_blu.png","../images/cyn_red.png"],"mutagen_generator_assignment":[1,0],"goal":4,"start":1,"action_noise":0.15,"location_history":"[1,0,5,4]","action_history":"[1,0,1]","mutagen_history":"[0,1,0]","location_rts":"[1496,703,858]","trial_type":"fractal-mutation","trial_index":93,"time_elapsed":2960487,"internal_node_id":"0.0-5.0-39.0"},{"group":"hexagon_bi","fractal_assignment":["../images/ylw_slt.png","../images/gry_blk.png","../images/blu_wht.png","../images/org_blu.png","../images/pnk_blu.png","../images/cyn_red.png"],"mutagen_generator_assignment":[1,0],"goal":3,"start":4,"action_noise":0.15,"location_history":"[4,3]","action_history":"[0]","mutagen_history":"[1]","location_rts":"[945]","trial_type":"fractal-mutation","trial_index":94,"time_elapsed":2965960,"internal_node_id":"0.0-5.0-40.0"},{"group":"hexagon_bi","fractal_assignment":["../images/ylw_slt.png","../images/gry_blk.png","../images/blu_wht.png","../images/org_blu.png","../images/pnk_blu.png","../images/cyn_red.png"],"mutagen_generator_assignment":[1,0],"goal":5,"start":3,"action_noise":0.15,"location_history":"[3,4,5]","action_history":"[1,1]","mutagen_history":"[0,0]","location_rts":"[1420,1105]","trial_type":"fractal-mutation","trial_index":95,"time_elapsed":2974212,"internal_node_id":"0.0-5.0-41.0"},{"group":"hexagon_bi","fractal_assignment":["../images/ylw_slt.png","../images/gry_blk.png","../images/blu_wht.png","../images/org_blu.png","../images/pnk_blu.png","../images/cyn_red.png"],"mutagen_generator_assignment":[1,0],"goal":3,"start":5,"action_noise":0.15,"location_history":"[5,0,1,0,5,0,5,4,3]","action_history":"[0,1,1,0,0,0,1,0]","mutagen_history":"[1,0,0,1,1,1,0,1]","location_rts":"[1216,885,772,709,1014,1108,909,436]","trial_type":"fractal-mutation","trial_index":96,"time_elapsed":2994057,"internal_node_id":"0.0-5.0-42.0"},{"group":"hexagon_bi","fractal_assignment":["../images/ylw_slt.png","../images/gry_blk.png","../images/blu_wht.png","../images/org_blu.png","../images/pnk_blu.png","../images/cyn_red.png"],"mutagen_generator_assignment":[1,0],"goal":0,"start":3,"action_noise":0.15,"location_history":"[3,2,3,2,1,0]","action_history":"[0,1,1,0,0]","mutagen_history":"[1,0,0,1,1]","location_rts":"[1254,1013,942,1263,1058]","trial_type":"fractal-mutation","trial_index":97,"time_elapsed":3008662,"internal_node_id":"0.0-5.0-43.0"},{"group":"hexagon_bi","fractal_assignment":["../images/ylw_slt.png","../images/gry_blk.png","../images/blu_wht.png","../images/org_blu.png","../images/pnk_blu.png","../images/cyn_red.png"],"mutagen_generator_assignment":[1,0],"goal":2,"start":0,"action_noise":0.15,"location_history":"[0,5,4,3,2]","action_history":"[0,1,0,0]","mutagen_history":"[1,0,1,1]","location_rts":"[1357,1559,400,1045]","trial_type":"fractal-mutation","trial_index":98,"time_elapsed":3021060,"internal_node_id":"0.0-5.0-44.0"},{"group":"hexagon_bi","fractal_assignment":["../images/ylw_slt.png","../images/gry_blk.png","../images/blu_wht.png","../images/org_blu.png","../images/pnk_blu.png","../images/cyn_red.png"],"mutagen_generator_assignment":[1,0],"goal":4,"start":2,"action_noise":0.15,"location_history":"[2,1,0,1,2,1,0,5,4]","action_history":"[0,0,1,0,1,1,0,1]","mutagen_history":"[1,1,0,1,0,0,1,0]","location_rts":"[1701,738,911,702,1186,767,1133,863]","trial_type":"fractal-mutation","trial_index":99,"time_elapsed":3041744,"internal_node_id":"0.0-5.0-45.0"},{"group":"hexagon_bi","fractal_assignment":["../images/ylw_slt.png","../images/gry_blk.png","../images/blu_wht.png","../images/org_blu.png","../images/pnk_blu.png","../images/cyn_red.png"],"mutagen_generator_assignment":[1,0],"goal":1,"start":4,"action_noise":0.15,"location_history":"[4,3,2,1]","action_history":"[0,1,0]","mutagen_history":"[1,0,1]","location_rts":"[1115,1030,1223]","trial_type":"fractal-mutation","trial_index":100,"time_elapsed":3051992,"internal_node_id":"0.0-5.0-46.0"},{"group":"hexagon_bi","fractal_assignment":["../images/ylw_slt.png","../images/gry_blk.png","../images/blu_wht.png","../images/org_blu.png","../images/pnk_blu.png","../images/cyn_red.png"],"mutagen_generator_assignment":[1,0],"goal":4,"start":1,"action_noise":0.15,"location_history":"[1,0,5,4]","action_history":"[1,0,1]","mutagen_history":"[0,1,0]","location_rts":"[2017,706,1034]","trial_type":"fractal-mutation","trial_index":101,"time_elapsed":3062516,"internal_node_id":"0.0-5.0-47.0"},{"group":"hexagon_bi","fractal_assignment":["../images/ylw_slt.png","../images/gry_blk.png","../images/blu_wht.png","../images/org_blu.png","../images/pnk_blu.png","../images/cyn_red.png"],"mutagen_generator_assignment":[1,0],"goal":3,"start":4,"action_noise":0.15,"location_history":"[4,5,0,1,2,3]","action_history":"[1,0,1,0,1]","mutagen_history":"[0,1,0,1,0]","location_rts":"[1282,1134,992,999,888]","trial_type":"fractal-mutation","trial_index":102,"time_elapsed":3076948,"internal_node_id":"0.0-5.0-48.0"},{"group":"hexagon_bi","fractal_assignment":["../images/ylw_slt.png","../images/gry_blk.png","../images/blu_wht.png","../images/org_blu.png","../images/pnk_blu.png","../images/cyn_red.png"],"mutagen_generator_assignment":[1,0],"goal":5,"start":3,"action_noise":0.15,"location_history":"[3,2,1,0,1,2,3,4,5]","action_history":"[1,0,1,1,0,1,0,1]","mutagen_history":"[0,1,0,0,1,0,1,0]","location_rts":"[1309,943,868,620,793,1094,1423,1014]","trial_type":"fractal-mutation","trial_index":103,"time_elapsed":3097409,"internal_node_id":"0.0-5.0-49.0"},{"view_history":"[{\"page_index\":0,\"viewing_time\":20794}]","rt":20795,"trial_type":"instructions","trial_index":104,"time_elapsed":3119205,"internal_node_id":"0.0-6.0"},{"rt":4096,"responses":"{\"Q0\":\"No\"}","trial_type":"survey-text","trial_index":105,"time_elapsed":3124426,"internal_node_id":"0.0-7.0"}]