[{"view_history":"[{\"page_index\":0,\"viewing_time\":39700},{\"page_index\":1,\"viewing_time\":7537},{\"page_index\":2,\"viewing_time\":10136},{\"page_index\":3,\"viewing_time\":2543}]","rt":59916,"trial_type":"instructions","trial_index":0,"time_elapsed":59917,"internal_node_id":"0.0-0.0"},{"view_history":"[{\"page_index\":0,\"viewing_time\":998},{\"page_index\":1,\"viewing_time\":9811}]","rt":10809,"trial_type":"instructions","trial_index":1,"time_elapsed":71730,"internal_node_id":"0.0-1.0"},{"group":"hexagon_tri","room_assignment":["grey","yellow","green","blue","red","purple"],"door_color_assignment":["white","black"],"door_generator_assignment":[1,0],"goal":4,"start":0,"action_noise":0.15,"location_history":"[0,5,0,5,4]","action_history":"[0,1,0,0]","door_history":"[1,0,1,1]","location_rts":"[3935,1386,1051,604]","trial_type":"two-door-navigation","trial_index":2,"time_elapsed":86505,"internal_node_id":"0.0-2.0-0.0"},{"group":"hexagon_tri","room_assignment":["grey","yellow","green","blue","red","purple"],"door_color_assignment":["white","black"],"door_generator_assignment":[1,0],"goal":3,"start":4,"action_noise":0.15,"location_history":"[4,2,3]","action_history":"[0,1]","door_history":"[1,0]","location_rts":"[1084,574]","trial_type":"two-door-navigation","trial_index":3,"time_elapsed":93794,"internal_node_id":"0.0-2.0-1.0"},{"group":"hexagon_tri","room_assignment":["grey","yellow","green","blue","red","purple"],"door_color_assignment":["white","black"],"door_generator_assignment":[1,0],"goal":5,"start":3,"action_noise":0.15,"location_history":"[3,4,0,5]","action_history":"[1,0,0]","door_history":"[0,1,1]","location_rts":"[478,441,541]","trial_type":"two-door-navigation","trial_index":4,"time_elapsed":101943,"internal_node_id":"0.0-2.0-2.0"},{"group":"hexagon_tri","room_assignment":["grey","yellow","green","blue","red","purple"],"door_color_assignment":["white","black"],"door_generator_assignment":[1,0],"goal":2,"start":5,"action_noise":0.15,"location_history":"[5,4,0,1,5,0,1,5,0,1,3,2]","action_history":"[0,0,1,1,1,1,0,0,0,0,0]","door_history":"[1,1,0,0,0,0,1,1,1,1,1]","location_rts":"[789,468,948,565,533,584,865,419,516,566,463]","trial_type":"two-door-navigation","trial_index":5,"time_elapsed":123940,"internal_node_id":"0.0-2.0-3.0"},{"group":"hexagon_tri","room_assignment":["grey","yellow","green","blue","red","purple"],"door_color_assignment":["white","black"],"door_generator_assignment":[1,0],"goal":1,"start":2,"action_noise":0.15,"location_history":"[2,1]","action_history":"[1]","door_history":"[0]","location_rts":"[619]","trial_type":"two-door-navigation","trial_index":6,"time_elapsed":129123,"internal_node_id":"0.0-2.0-4.0"},{"group":"hexagon_tri","room_assignment":["grey","yellow","green","blue","red","purple"],"door_color_assignment":["white","black"],"door_generator_assignment":[1,0],"goal":4,"start":1,"action_noise":0.15,"location_history":"[1,3,2,1,3,2,3,4]","action_history":"[0,0,0,0,0,1,1]","door_history":"[1,1,1,1,1,0,0]","location_rts":"[352,504,445,364,404,543,405]","trial_type":"two-door-navigation","trial_index":7,"time_elapsed":143139,"internal_node_id":"0.0-2.0-5.0"},{"group":"hexagon_tri","room_assignment":["grey","yellow","green","blue","red","purple"],"door_color_assignment":["white","black"],"door_generator_assignment":[1,0],"goal":1,"start":4,"action_noise":0.15,"location_history":"[4,0,1]","action_history":"[1,1]","door_history":"[0,0]","location_rts":"[396,505]","trial_type":"two-door-navigation","trial_index":8,"time_elapsed":149698,"internal_node_id":"0.0-2.0-6.0"},{"group":"hexagon_tri","room_assignment":["grey","yellow","green","blue","red","purple"],"door_color_assignment":["white","black"],"door_generator_assignment":[1,0],"goal":5,"start":1,"action_noise":0.15,"location_history":"[1,5]","action_history":"[1]","door_history":"[0]","location_rts":"[814]","trial_type":"two-door-navigation","trial_index":9,"time_elapsed":155095,"internal_node_id":"0.0-2.0-7.0"},{"group":"hexagon_tri","room_assignment":["grey","yellow","green","blue","red","purple"],"door_color_assignment":["white","black"],"door_generator_assignment":[1,0],"goal":0,"start":5,"action_noise":0.15,"location_history":"[5,4,0]","action_history":"[0,0]","door_history":"[1,1]","location_rts":"[840,486]","trial_type":"two-door-navigation","trial_index":10,"time_elapsed":162071,"internal_node_id":"0.0-2.0-8.0"},{"group":"hexagon_tri","room_assignment":["grey","yellow","green","blue","red","purple"],"door_color_assignment":["white","black"],"door_generator_assignment":[1,0],"goal":2,"start":0,"action_noise":0.15,"location_history":"[0,5,4,2]","action_history":"[0,0,0]","door_history":"[1,1,1]","location_rts":"[443,466,411]","trial_type":"two-door-navigation","trial_index":11,"time_elapsed":170104,"internal_node_id":"0.0-2.0-9.0"},{"group":"hexagon_tri","room_assignment":["grey","yellow","green","blue","red","purple"],"door_color_assignment":["white","black"],"door_generator_assignment":[1,0],"goal":3,"start":2,"action_noise":0.15,"location_history":"[2,3]","action_history":"[1]","door_history":"[0]","location_rts":"[546]","trial_type":"two-door-navigation","trial_index":12,"time_elapsed":175223,"internal_node_id":"0.0-2.0-10.0"},{"group":"hexagon_tri","room_assignment":["grey","yellow","green","blue","red","purple"],"door_color_assignment":["white","black"],"door_generator_assignment":[1,0],"goal":0,"start":3,"action_noise":0.15,"location_history":"[3,2,3,2,1,5,4,0]","action_history":"[0,1,0,1,1,0,0]","door_history":"[1,0,1,0,0,1,1]","location_rts":"[1165,1101,827,979,615,867,437]","trial_type":"two-door-navigation","trial_index":13,"time_elapsed":192154,"internal_node_id":"0.0-2.0-11.0"},{"group":"hexagon_tri","room_assignment":["grey","yellow","green","blue","red","purple"],"door_color_assignment":["white","black"],"door_generator_assignment":[1,0],"goal":2,"start":0,"action_noise":0.15,"location_history":"[0,5,4,2]","action_history":"[0,0,1]","door_history":"[1,1,0]","location_rts":"[648,627,432]","trial_type":"two-door-navigation","trial_index":14,"time_elapsed":200533,"internal_node_id":"0.0-2.0-12.0"},{"group":"hexagon_tri","room_assignment":["grey","yellow","green","blue","red","purple"],"door_color_assignment":["white","black"],"door_generator_assignment":[1,0],"goal":5,"start":2,"action_noise":0.15,"location_history":"[2,3,2,1,3,4,2,3,4,2,3,2,3,2,1,3,2,1,3,2,1,5]","action_history":"[1,0,0,0,1,1,1,1,1,1,0,0,0,0,0,0,0,0,0,1,1]","door_history":"[0,1,1,1,0,0,0,0,0,0,1,1,1,1,1,1,1,1,1,0,0]","location_rts":"[546,496,523,394,411,411,405,388,416,607,436,363,398,385,409,340,381,364,467,490,394]","trial_type":"two-door-navigation","trial_index":15,"time_elapsed":235502,"internal_node_id":"0.0-2.0-13.0"},{"group":"hexagon_tri","room_assignment":["grey","yellow","green","blue","red","purple"],"door_color_assignment":["white","black"],"door_generator_assignment":[1,0],"goal":4,"start":5,"action_noise":0.15,"location_history":"[5,0,1,3,4]","action_history":"[1,1,0,0]","door_history":"[0,0,1,1]","location_rts":"[671,376,941,582]","trial_type":"two-door-navigation","trial_index":16,"time_elapsed":245814,"internal_node_id":"0.0-2.0-14.0"},{"group":"hexagon_tri","room_assignment":["grey","yellow","green","blue","red","purple"],"door_color_assignment":["white","black"],"door_generator_assignment":[1,0],"goal":3,"start":4,"action_noise":0.15,"location_history":"[4,0,5,4,2,3]","action_history":"[0,0,0,1,1]","door_history":"[1,1,1,0,0]","location_rts":"[80569,542,453,530,363]","trial_type":"two-door-navigation","trial_index":17,"time_elapsed":338853,"internal_node_id":"0.0-2.0-15.0"},{"group":"hexagon_tri","room_assignment":["grey","yellow","green","blue","red","purple"],"door_color_assignment":["white","black"],"door_generator_assignment":[1,0],"goal":1,"start":3,"action_noise":0.15,"location_history":"[3,2,1]","action_history":"[0,0]","door_history":"[1,1]","location_rts":"[19584,539]","trial_type":"two-door-navigation","trial_index":18,"time_elapsed":366010,"internal_node_id":"0.0-2.0-16.0"},{"group":"hexagon_tri","room_assignment":["grey","yellow","green","blue","red","purple"],"door_color_assignment":["white","black"],"door_generator_assignment":[1,0],"goal":5,"start":1,"action_noise":0.15,"location_history":"[1,3,2,3,2,1,3,4,2,3,4,2,3,4,2,3,2,1,3,2,1,3,2,3,4,0,5]","action_history":"[0,0,0,0,0,0,1,1,1,1,1,1,1,1,1,0,0,0,0,0,0,0,0,0,0,0]","door_history":"[1,1,1,1,1,1,0,0,0,0,0,0,0,0,0,1,1,1,1,1,1,1,1,1,1,1]","location_rts":"[7696,426,406,368,350,369,645,367,374,397,392,374,560,438,374,886,354,423,326,394,366,512,385,446,457,955]","trial_type":"two-door-navigation","trial_index":19,"time_elapsed":417907,"internal_node_id":"0.0-2.0-17.0"},{"group":"hexagon_tri","room_assignment":["grey","yellow","green","blue","red","purple"],"door_color_assignment":["white","black"],"door_generator_assignment":[1,0],"goal":4,"start":5,"action_noise":0.15,"location_history":"[5,0,5,4]","action_history":"[0,0,0]","door_history":"[1,1,1]","location_rts":"[17319,429,437]","trial_type":"two-door-navigation","trial_index":20,"time_elapsed":443768,"internal_node_id":"0.0-2.0-18.0"},{"group":"hexagon_tri","room_assignment":["grey","yellow","green","blue","red","purple"],"door_color_assignment":["white","black"],"door_generator_assignment":[1,0],"goal":0,"start":4,"action_noise":0.15,"location_history":"[4,0]","action_history":"[0]","door_history":"[1]","location_rts":"[9483]","trial_type":"two-door-navigation","trial_index":21,"time_elapsed":458804,"internal_node_id":"0.0-2.0-19.0"},{"group":"hexagon_tri","room_assignment":["grey","yellow","green","blue","red","purple"],"door_color_assignment":["white","black"],"door_generator_assignment":[1,0],"goal":1,"start":0,"action_noise":0.15,"location_history":"[0,5,4,0,5,0,1]","action_history":"[0,0,0,0,1,1]","door_history":"[1,1,1,1,0,0]","location_rts":"[13444,394,444,511,831,408]","trial_type":"two-door-navigation","trial_index":22,"time_elapsed":484841,"internal_node_id":"0.0-2.0-20.0"},{"group":"hexagon_tri","room_assignment":["grey","yellow","green","blue","red","purple"],"door_color_assignment":["white","black"],"door_generator_assignment":[1,0],"goal":3,"start":1,"action_noise":0.15,"location_history":"[1,3]","action_history":"[0]","door_history":"[1]","location_rts":"[12074]","trial_type":"two-door-navigation","trial_index":23,"time_elapsed":502854,"internal_node_id":"0.0-2.0-21.0"},{"group":"hexagon_tri","room_assignment":["grey","yellow","green","blue","red","purple"],"door_color_assignment":["white","black"],"door_generator_assignment":[1,0],"goal":2,"start":3,"action_noise":0.15,"location_history":"[3,4,0,1,5,4,2]","action_history":"[1,1,1,1,1,1]","door_history":"[0,0,0,0,0,0]","location_rts":"[21185,409,448,400,423,444]","trial_type":"two-door-navigation","trial_index":24,"time_elapsed":536734,"internal_node_id":"0.0-2.0-22.0"},{"group":"hexagon_tri","room_assignment":["grey","yellow","green","blue","red","purple"],"door_color_assignment":["white","black"],"door_generator_assignment":[1,0],"goal":0,"start":2,"action_noise":0.15,"location_history":"[2,1,3,2,1,3,2,3,4,2,3,2,3,4,2,3,2,3,2,1,3,2,1,5,0]","action_history":"[0,0,0,0,0,0,1,1,1,1,1,1,1,1,0,0,0,0,0,0,0,0,0,1]","door_history":"[1,1,1,1,1,1,0,0,0,0,0,0,0,0,1,1,1,1,1,1,1,1,1,0]","location_rts":"[38486,403,369,380,984,409,901,362,312,315,430,514,408,407,434,384,564,349,358,352,427,352,336,395]","trial_type":"two-door-navigation","trial_index":25,"time_elapsed":615043,"internal_node_id":"0.0-2.0-23.0"},{"group":"hexagon_tri","room_assignment":["grey","yellow","green","blue","red","purple"],"door_color_assignment":["white","black"],"door_generator_assignment":[1,0],"goal":3,"start":0,"action_noise":0.15,"location_history":"[0,5,4,0,1,3]","action_history":"[0,0,0,0,0]","door_history":"[1,1,1,1,1]","location_rts":"[3201,633,373,401,556]","trial_type":"two-door-navigation","trial_index":26,"time_elapsed":630895,"internal_node_id":"0.0-2.0-24.0"},{"group":"hexagon_tri","room_assignment":["grey","yellow","green","blue","red","purple"],"door_color_assignment":["white","black"],"door_generator_assignment":[1,0],"goal":1,"start":3,"action_noise":0.15,"location_history":"[3,2,3,4,2,3,4,0,1]","action_history":"[0,0,0,1,1,1,1,1]","door_history":"[1,1,1,0,0,0,0,0]","location_rts":"[69938,456,410,703,378,383,395,491]","trial_type":"two-door-navigation","trial_index":27,"time_elapsed":717893,"internal_node_id":"0.0-2.0-25.0"},{"group":"hexagon_tri","room_assignment":["grey","yellow","green","blue","red","purple"],"door_color_assignment":["white","black"],"door_generator_assignment":[1,0],"goal":2,"start":1,"action_noise":0.15,"location_history":"[1,3,2]","action_history":"[0,0]","door_history":"[1,1]","location_rts":"[47802,385]","trial_type":"two-door-navigation","trial_index":28,"time_elapsed":772730,"internal_node_id":"0.0-2.0-26.0"},{"group":"hexagon_tri","room_assignment":["grey","yellow","green","blue","red","purple"],"door_color_assignment":["white","black"],"door_generator_assignment":[1,0],"goal":5,"start":2,"action_noise":0.15,"location_history":"[2,1,3,2,1,3,2,1,3,4,0,1,3,2,1,5]","action_history":"[0,0,0,0,0,0,0,0,0,0,0,0,0,1,1]","door_history":"[1,1,1,1,1,1,1,1,1,1,1,1,1,0,0]","location_rts":"[47693,693,397,340,414,365,374,368,374,377,425,386,421,353,376]","trial_type":"two-door-navigation","trial_index":29,"time_elapsed":845970,"internal_node_id":"0.0-2.0-27.0"},{"group":"hexagon_tri","room_assignment":["grey","yellow","green","blue","red","purple"],"door_color_assignment":["white","black"],"door_generator_assignment":[1,0],"goal":4,"start":5,"action_noise":0.15,"location_history":"[5,4]","action_history":"[0]","door_history":"[1]","location_rts":"[48111]","trial_type":"two-door-navigation","trial_index":30,"time_elapsed":898751,"internal_node_id":"0.0-2.0-28.0"},{"group":"hexagon_tri","room_assignment":["grey","yellow","green","blue","red","purple"],"door_color_assignment":["white","black"],"door_generator_assignment":[1,0],"goal":5,"start":4,"action_noise":0.15,"location_history":"[4,0,1,3,4,0,1,5]","action_history":"[0,1,1,1,1,1,1]","door_history":"[1,0,0,0,0,0,0]","location_rts":"[42573,453,337,363,561,352,364]","trial_type":"two-door-navigation","trial_index":31,"time_elapsed":954775,"internal_node_id":"0.0-2.0-29.0"},{"group":"hexagon_tri","room_assignment":["grey","yellow","green","blue","red","purple"],"door_color_assignment":["white","black"],"door_generator_assignment":[1,0],"goal":3,"start":5,"action_noise":0.15,"location_history":"[5,4,0,5,0,5,0,1,5,0,1,5,4,2,3]","action_history":"[0,0,0,0,0,1,1,1,1,1,1,1,1,1]","door_history":"[1,1,1,1,1,0,0,0,0,0,0,0,0,0]","location_rts":"[96806,492,360,598,427,776,357,364,518,356,453,368,382,428]","trial_type":"two-door-navigation","trial_index":32,"time_elapsed":1077801,"internal_node_id":"0.0-2.0-30.0"},{"group":"hexagon_tri","room_assignment":["grey","yellow","green","blue","red","purple"],"door_color_assignment":["white","black"],"door_generator_assignment":[1,0],"goal":0,"start":3,"action_noise":0.15,"location_history":"[3,2,1,3,2,1,3,4,2,3,2,3,4,0]","action_history":"[0,0,0,0,0,0,0,1,1,1,1,1,1]","door_history":"[1,1,1,1,1,1,1,0,0,0,0,0,0]","location_rts":"[104922,623,416,377,384,365,438,501,386,422,345,334,363]","trial_type":"two-door-navigation","trial_index":33,"time_elapsed":1205080,"internal_node_id":"0.0-2.0-31.0"},{"group":"hexagon_tri","room_assignment":["grey","yellow","green","blue","red","purple"],"door_color_assignment":["white","black"],"door_generator_assignment":[1,0],"goal":4,"start":0,"action_noise":0.15,"location_history":"[0,5,4]","action_history":"[0,0]","door_history":"[1,1]","location_rts":"[807,749]","trial_type":"two-door-navigation","trial_index":34,"time_elapsed":1212904,"internal_node_id":"0.0-2.0-32.0"},{"group":"hexagon_tri","room_assignment":["grey","yellow","green","blue","red","purple"],"door_color_assignment":["white","black"],"door_generator_assignment":[1,0],"goal":1,"start":4,"action_noise":0.15,"location_history":"[4,0,5,4,0,1]","action_history":"[0,0,0,0,0]","door_history":"[1,1,1,1,1]","location_rts":"[26800,480,417,326,450]","trial_type":"two-door-navigation","trial_index":35,"time_elapsed":1250885,"internal_node_id":"0.0-2.0-33.0"},{"group":"hexagon_tri","room_assignment":["grey","yellow","green","blue","red","purple"],"door_color_assignment":["white","black"],"door_generator_assignment":[1,0],"goal":2,"start":1,"action_noise":0.15,"location_history":"[1,5,4,0,5,0,5,0,5,0,1,5,0,1,5,0,1,5,0,5,0,1,5,0,5,4,0,5,4,0,5,0,5,4,0,5,0,5,0,1,5,4,2]","action_history":"[0,0,0,0,0,0,0,0,1,1,1,1,1,1,1,1,1,0,0,1,1,1,1,1,0,0,0,0,0,1,1,1,0,0,1,1,0,1,1,1,0,1]","door_history":"[1,1,1,1,1,1,1,1,0,0,0,0,0,0,0,0,0,1,1,0,0,0,0,0,1,1,1,1,1,0,0,0,1,1,0,0,1,0,0,0,1,0]","location_rts":"[852,705,427,628,508,408,408,637,409,472,458,360,451,353,497,531,537,620,455,925,429,354,362,440,827,584,380,399,741,883,380,479,1195,597,1239,611,694,1056,467,801,822,989]","trial_type":"two-door-navigation","trial_index":36,"time_elapsed":1325227,"internal_node_id":"0.0-2.0-34.0"},{"group":"hexagon_tri","room_assignment":["grey","yellow","green","blue","red","purple"],"door_color_assignment":["white","black"],"door_generator_assignment":[1,0],"goal":0,"start":2,"action_noise":0.15,"location_history":"[2,3,4,0]","action_history":"[1,0,0]","door_history":"[0,1,1]","location_rts":"[1059,477,481]","trial_type":"two-door-navigation","trial_index":37,"time_elapsed":1333932,"internal_node_id":"0.0-2.0-35.0"},{"group":"hexagon_tri","room_assignment":["grey","yellow","green","blue","red","purple"],"door_color_assignment":["white","black"],"door_generator_assignment":[1,0],"goal":5,"start":0,"action_noise":0.15,"location_history":"[0,1,5]","action_history":"[1,0]","door_history":"[0,1]","location_rts":"[1436,952]","trial_type":"two-door-navigation","trial_index":38,"time_elapsed":1341965,"internal_node_id":"0.0-2.0-36.0"},{"group":"hexagon_tri","room_assignment":["grey","yellow","green","blue","red","purple"],"door_color_assignment":["white","black"],"door_generator_assignment":[1,0],"goal":2,"start":5,"action_noise":0.15,"location_history":"[5,0,5,0,5,0,1,5,0,1,5,0,1,5,4,0,5,4,2]","action_history":"[1,0,1,0,1,1,0,1,1,1,1,0,1,0,0,0,0,1]","door_history":"[0,1,0,1,0,0,1,0,0,0,0,1,0,1,1,1,1,0]","location_rts":"[1006,846,588,958,960,561,1051,621,579,353,547,738,1150,682,89,245,446,1041]","trial_type":"two-door-navigation","trial_index":39,"time_elapsed":1377845,"internal_node_id":"0.0-2.0-37.0"},{"group":"hexagon_tri","room_assignment":["grey","yellow","green","blue","red","purple"],"door_color_assignment":["white","black"],"door_generator_assignment":[1,0],"goal":1,"start":2,"action_noise":0.15,"location_history":"[2,3,2,1]","action_history":"[1,1,0]","door_history":"[0,0,1]","location_rts":"[26199,683,1441]","trial_type":"two-door-navigation","trial_index":40,"time_elapsed":1413075,"internal_node_id":"0.0-2.0-38.0"},{"group":"hexagon_tri","room_assignment":["grey","yellow","green","blue","red","purple"],"door_color_assignment":["white","black"],"door_generator_assignment":[1,0],"goal":4,"start":1,"action_noise":0.15,"location_history":"[1,5,4]","action_history":"[1,0]","door_history":"[0,1]","location_rts":"[1042,1077]","trial_type":"two-door-navigation","trial_index":41,"time_elapsed":1420816,"internal_node_id":"0.0-2.0-39.0"},{"group":"hexagon_tri","room_assignment":["grey","yellow","green","blue","red","purple"],"door_color_assignment":["white","black"],"door_generator_assignment":[1,0],"goal":3,"start":4,"action_noise":0.15,"location_history":"[4,2,1,3]","action_history":"[1,0,0]","door_history":"[0,1,1]","location_rts":"[730,1225,1094]","trial_type":"two-door-navigation","trial_index":42,"time_elapsed":1430539,"internal_node_id":"0.0-2.0-40.0"},{"group":"hexagon_tri","room_assignment":["grey","yellow","green","blue","red","purple"],"door_color_assignment":["white","black"],"door_generator_assignment":[1,0],"goal":5,"start":3,"action_noise":0.15,"location_history":"[3,4,0,5]","action_history":"[1,0,0]","door_history":"[0,1,1]","location_rts":"[779,936,739]","trial_type":"two-door-navigation","trial_index":43,"time_elapsed":1439692,"internal_node_id":"0.0-2.0-41.0"},{"group":"hexagon_tri","room_assignment":["grey","yellow","green","blue","red","purple"],"door_color_assignment":["white","black"],"door_generator_assignment":[1,0],"goal":3,"start":5,"action_noise":0.15,"location_history":"[5,0,1,5,0,1,5,4,0,1,3]","action_history":"[1,1,0,1,1,1,0,0,1,1]","door_history":"[0,0,1,0,0,0,1,1,0,0]","location_rts":"[941,1595,601,771,447,677,669,919,899,478]","trial_type":"two-door-navigation","trial_index":44,"time_elapsed":1461861,"internal_node_id":"0.0-2.0-42.0"},{"group":"hexagon_tri","room_assignment":["grey","yellow","green","blue","red","purple"],"door_color_assignment":["white","black"],"door_generator_assignment":[1,0],"goal":0,"start":3,"action_noise":0.15,"location_history":"[3,2,3,4,2,1,3,2,1,3,4,0]","action_history":"[0,1,1,1,0,0,0,0,0,1,1]","door_history":"[1,0,0,0,1,1,1,1,1,0,0]","location_rts":"[1001,649,554,1236,534,367,424,379,597,686,405]","trial_type":"two-door-navigation","trial_index":45,"time_elapsed":1484753,"internal_node_id":"0.0-2.0-43.0"},{"group":"hexagon_tri","room_assignment":["grey","yellow","green","blue","red","purple"],"door_color_assignment":["white","black"],"door_generator_assignment":[1,0],"goal":2,"start":0,"action_noise":0.15,"location_history":"[0,5,4,0,1,5,0,1,3,2]","action_history":"[0,0,0,1,1,1,1,1,0]","door_history":"[1,1,1,0,0,0,0,0,1]","location_rts":"[70812,798,543,927,387,550,434,655,400]","trial_type":"two-door-navigation","trial_index":46,"time_elapsed":1573762,"internal_node_id":"0.0-2.0-44.0"},{"group":"hexagon_tri","room_assignment":["grey","yellow","green","blue","red","purple"],"door_color_assignment":["white","black"],"door_generator_assignment":[1,0],"goal":4,"start":2,"action_noise":0.15,"location_history":"[2,1,3,4]","action_history":"[0,1,1]","door_history":"[1,0,0]","location_rts":"[33397,928,979]","trial_type":"two-door-navigation","trial_index":47,"time_elapsed":1616867,"internal_node_id":"0.0-2.0-45.0"},{"group":"hexagon_tri","room_assignment":["grey","yellow","green","blue","red","purple"],"door_color_assignment":["white","black"],"door_generator_assignment":[1,0],"goal":1,"start":4,"action_noise":0.15,"location_history":"[4,0,1]","action_history":"[0,1]","door_history":"[1,0]","location_rts":"[21352,739]","trial_type":"two-door-navigation","trial_index":48,"time_elapsed":1644784,"internal_node_id":"0.0-2.0-46.0"},{"group":"hexagon_tri","room_assignment":["grey","yellow","green","blue","red","purple"],"door_color_assignment":["white","black"],"door_generator_assignment":[1,0],"goal":4,"start":1,"action_noise":0.15,"location_history":"[1,3,2,1,5,0,1,5,4]","action_history":"[0,0,0,1,1,1,1,0]","door_history":"[1,1,1,0,0,0,0,1]","location_rts":"[68449,703,1268,843,458,478,532,747]","trial_type":"two-door-navigation","trial_index":49,"time_elapsed":1730793,"internal_node_id":"0.0-2.0-47.0"},{"group":"hexagon_tri","room_assignment":["grey","yellow","green","blue","red","purple"],"door_color_assignment":["white","black"],"door_generator_assignment":[1,0],"goal":3,"start":4,"action_noise":0.15,"location_history":"[4,0,5,0,1,3]","action_history":"[0,0,1,1,1]","door_history":"[1,1,0,0,0]","location_rts":"[5624,591,724,411,462]","trial_type":"two-door-navigation","trial_index":50,"time_elapsed":1748796,"internal_node_id":"0.0-2.0-48.0"},{"group":"hexagon_tri","room_assignment":["grey","yellow","green","blue","red","purple"],"door_color_assignment":["white","black"],"door_generator_assignment":[1,0],"goal":5,"start":3,"action_noise":0.15,"location_history":"[3,4,2,1,3,2,1,5]","action_history":"[0,1,0,1,0,0,0]","door_history":"[1,0,1,0,1,1,1]","location_rts":"[96837,734,676,971,706,494,717]","trial_type":"two-door-navigation","trial_index":51,"time_elapsed":1862878,"internal_node_id":"0.0-2.0-49.0"},{"view_history":"[{\"page_index\":0,\"viewing_time\":9512}]","rt":9513,"trial_type":"instructions","trial_index":52,"time_elapsed":1874521,"internal_node_id":"0.0-3.0"},{"view_history":"[{\"page_index\":0,\"viewing_time\":1595},{\"page_index\":1,\"viewing_time\":11475}]","rt":13070,"trial_type":"instructions","trial_index":53,"time_elapsed":1888594,"internal_node_id":"0.0-4.0"},{"group":"hexagon_bi","fractal_assignment":["../images/org_blu.png","../images/cyn_red.png","../images/ylw_slt.png","../images/blu_wht.png","../images/gry_blk.png","../images/pnk_blu.png"],"mutagen_generator_assignment":[0,1],"goal":4,"start":0,"action_noise":0.15,"location_history":"[0,5,0,1,2,1,2,3,2,1,0,1,2,1,2,1,2,1,2,3,4]","action_history":"[0,0,1,0,0,0,1,1,0,1,1,0,0,0,0,0,0,0,0,0]","mutagen_history":"[0,0,1,0,0,0,1,1,0,1,1,0,0,0,0,0,0,0,0,0]","location_rts":"[1061,151,147,112,104,133,159,4,47,165,65,92,199,136,235,3,233,91,174,153]","trial_type":"fractal-mutation","trial_index":54,"time_elapsed":1916994,"internal_node_id":"0.0-5.0-0.0"},{"group":"hexagon_bi","fractal_assignment":["../images/org_blu.png","../images/cyn_red.png","../images/ylw_slt.png","../images/blu_wht.png","../images/gry_blk.png","../images/pnk_blu.png"],"mutagen_generator_assignment":[0,1],"goal":3,"start":4,"action_noise":0.15,"location_history":"[4,3]","action_history":"[0]","mutagen_history":"[0]","location_rts":"[371]","trial_type":"fractal-mutation","trial_index":55,"time_elapsed":1921952,"internal_node_id":"0.0-5.0-1.0"},{"group":"hexagon_bi","fractal_assignment":["../images/org_blu.png","../images/cyn_red.png","../images/ylw_slt.png","../images/blu_wht.png","../images/gry_blk.png","../images/pnk_blu.png"],"mutagen_generator_assignment":[0,1],"goal":5,"start":3,"action_noise":0.15,"location_history":"[3,4,5]","action_history":"[0,1]","mutagen_history":"[0,1]","location_rts":"[389,624]","trial_type":"fractal-mutation","trial_index":56,"time_elapsed":1928631,"internal_node_id":"0.0-5.0-2.0"},{"group":"hexagon_bi","fractal_assignment":["../images/org_blu.png","../images/cyn_red.png","../images/ylw_slt.png","../images/blu_wht.png","../images/gry_blk.png","../images/pnk_blu.png"],"mutagen_generator_assignment":[0,1],"goal":2,"start":5,"action_noise":0.15,"location_history":"[5,0,1,2]","action_history":"[0,1,0]","mutagen_history":"[0,1,0]","location_rts":"[480,500,568]","trial_type":"fractal-mutation","trial_index":57,"time_elapsed":1936923,"internal_node_id":"0.0-5.0-3.0"},{"group":"hexagon_bi","fractal_assignment":["../images/org_blu.png","../images/cyn_red.png","../images/ylw_slt.png","../images/blu_wht.png","../images/gry_blk.png","../images/pnk_blu.png"],"mutagen_generator_assignment":[0,1],"goal":1,"start":2,"action_noise":0.15,"location_history":"[2,3,2,1]","action_history":"[1,1,0]","mutagen_history":"[1,1,0]","location_rts":"[459,26,206]","trial_type":"fractal-mutation","trial_index":58,"time_elapsed":1944359,"internal_node_id":"0.0-5.0-4.0"},{"group":"hexagon_bi","fractal_assignment":["../images/org_blu.png","../images/cyn_red.png","../images/ylw_slt.png","../images/blu_wht.png","../images/gry_blk.png","../images/pnk_blu.png"],"mutagen_generator_assignment":[0,1],"goal":4,"start":1,"action_noise":0.15,"location_history":"[1,0,1,2,1,2,1,0,5,4]","action_history":"[1,1,0,1,0,0,0,0,1]","mutagen_history":"[1,1,0,1,0,0,0,0,1]","location_rts":"[614,1429,784,1013,408,509,112,610,534]","trial_type":"fractal-mutation","trial_index":59,"time_elapsed":1963588,"internal_node_id":"0.0-5.0-5.0"},{"group":"hexagon_bi","fractal_assignment":["../images/org_blu.png","../images/cyn_red.png","../images/ylw_slt.png","../images/blu_wht.png","../images/gry_blk.png","../images/pnk_blu.png"],"mutagen_generator_assignment":[0,1],"goal":1,"start":4,"action_noise":0.15,"location_history":"[4,5,4,3,4,5,0,5,0,1]","action_history":"[1,1,0,0,1,0,0,0,0]","mutagen_history":"[1,1,0,0,1,0,0,0,0]","location_rts":"[320,47,320,829,821,357,335,406,696]","trial_type":"fractal-mutation","trial_index":60,"time_elapsed":1980945,"internal_node_id":"0.0-5.0-6.0"},{"group":"hexagon_bi","fractal_assignment":["../images/org_blu.png","../images/cyn_red.png","../images/ylw_slt.png","../images/blu_wht.png","../images/gry_blk.png","../images/pnk_blu.png"],"mutagen_generator_assignment":[0,1],"goal":5,"start":1,"action_noise":0.15,"location_history":"[1,2,3,4,3,4,5]","action_history":"[1,1,0,0,0,1]","mutagen_history":"[1,1,0,0,0,1]","location_rts":"[536,619,741,375,285,413]","trial_type":"fractal-mutation","trial_index":61,"time_elapsed":1993907,"internal_node_id":"0.0-5.0-7.0"},{"group":"hexagon_bi","fractal_assignment":["../images/org_blu.png","../images/cyn_red.png","../images/ylw_slt.png","../images/blu_wht.png","../images/gry_blk.png","../images/pnk_blu.png"],"mutagen_generator_assignment":[0,1],"goal":0,"start":5,"action_noise":0.15,"location_history":"[5,0]","action_history":"[0]","mutagen_history":"[0]","location_rts":"[510]","trial_type":"fractal-mutation","trial_index":62,"time_elapsed":1998997,"internal_node_id":"0.0-5.0-8.0"},{"group":"hexagon_bi","fractal_assignment":["../images/org_blu.png","../images/cyn_red.png","../images/ylw_slt.png","../images/blu_wht.png","../images/gry_blk.png","../images/pnk_blu.png"],"mutagen_generator_assignment":[0,1],"goal":2,"start":0,"action_noise":0.15,"location_history":"[0,1,2]","action_history":"[1,0]","mutagen_history":"[1,0]","location_rts":"[348,608]","trial_type":"fractal-mutation","trial_index":63,"time_elapsed":2005632,"internal_node_id":"0.0-5.0-9.0"},{"group":"hexagon_bi","fractal_assignment":["../images/org_blu.png","../images/cyn_red.png","../images/ylw_slt.png","../images/blu_wht.png","../images/gry_blk.png","../images/pnk_blu.png"],"mutagen_generator_assignment":[0,1],"goal":3,"start":2,"action_noise":0.15,"location_history":"[2,1,0,5,0,5,4,3]","action_history":"[0,1,0,0,0,1,1]","mutagen_history":"[0,1,0,0,0,1,1]","location_rts":"[375,465,423,305,424,789,512]","trial_type":"fractal-mutation","trial_index":64,"time_elapsed":2019961,"internal_node_id":"0.0-5.0-10.0"},{"group":"hexagon_bi","fractal_assignment":["../images/org_blu.png","../images/cyn_red.png","../images/ylw_slt.png","../images/blu_wht.png","../images/gry_blk.png","../images/pnk_blu.png"],"mutagen_generator_assignment":[0,1],"goal":0,"start":3,"action_noise":0.15,"location_history":"[3,4,5,4,3,4,3,2,3,4,3,4,3,4,5,4,5,4,5,0]","action_history":"[1,1,1,0,0,0,1,1,0,0,0,0,0,1,1,1,1,1,1]","mutagen_history":"[1,1,1,0,0,0,1,1,0,0,0,0,0,1,1,1,1,1,1]","location_rts":"[455,169,136,68,631,551,608,470,796,471,1106,730,337,153,412,434,444,408,408]","trial_type":"fractal-mutation","trial_index":65,"time_elapsed":2052660,"internal_node_id":"0.0-5.0-11.0"},{"group":"hexagon_bi","fractal_assignment":["../images/org_blu.png","../images/cyn_red.png","../images/ylw_slt.png","../images/blu_wht.png","../images/gry_blk.png","../images/pnk_blu.png"],"mutagen_generator_assignment":[0,1],"goal":2,"start":0,"action_noise":0.15,"location_history":"[0,5,4,5,0,5,4,5,0,1,0,5,0,5,4,5,0,5,0,1,0,1,0,1,2]","action_history":"[0,1,1,0,0,0,0,0,1,1,0,0,0,1,1,0,0,0,1,1,1,1,0,0]","mutagen_history":"[0,1,1,0,0,0,0,0,1,1,0,0,0,1,1,0,0,0,1,1,1,1,0,0]","location_rts":"[563,355,394,326,543,414,357,498,396,442,544,358,257,531,359,1337,329,241,487,361,508,381,312,71]","trial_type":"fractal-mutation","trial_index":66,"time_elapsed":2092359,"internal_node_id":"0.0-5.0-12.0"},{"group":"hexagon_bi","fractal_assignment":["../images/org_blu.png","../images/cyn_red.png","../images/ylw_slt.png","../images/blu_wht.png","../images/gry_blk.png","../images/pnk_blu.png"],"mutagen_generator_assignment":[0,1],"goal":5,"start":2,"action_noise":0.15,"location_history":"[2,3,2,1,2,3,4,5]","action_history":"[1,1,0,0,1,1,1]","mutagen_history":"[1,1,0,0,1,1,1]","location_rts":"[6898,353,18,254,579,612,279]","trial_type":"fractal-mutation","trial_index":67,"time_elapsed":2112382,"internal_node_id":"0.0-5.0-13.0"},{"group":"hexagon_bi","fractal_assignment":["../images/org_blu.png","../images/cyn_red.png","../images/ylw_slt.png","../images/blu_wht.png","../images/gry_blk.png","../images/pnk_blu.png"],"mutagen_generator_assignment":[0,1],"goal":4,"start":5,"action_noise":0.15,"location_history":"[5,0,5,4]","action_history":"[0,0,1]","mutagen_history":"[0,0,1]","location_rts":"[680,102,421]","trial_type":"fractal-mutation","trial_index":68,"time_elapsed":2120328,"internal_node_id":"0.0-5.0-14.0"},{"group":"hexagon_bi","fractal_assignment":["../images/org_blu.png","../images/cyn_red.png","../images/ylw_slt.png","../images/blu_wht.png","../images/gry_blk.png","../images/pnk_blu.png"],"mutagen_generator_assignment":[0,1],"goal":3,"start":4,"action_noise":0.15,"location_history":"[4,3]","action_history":"[0]","mutagen_history":"[0]","location_rts":"[362]","trial_type":"fractal-mutation","trial_index":69,"time_elapsed":2125273,"internal_node_id":"0.0-5.0-15.0"},{"group":"hexagon_bi","fractal_assignment":["../images/org_blu.png","../images/cyn_red.png","../images/ylw_slt.png","../images/blu_wht.png","../images/gry_blk.png","../images/pnk_blu.png"],"mutagen_generator_assignment":[0,1],"goal":1,"start":3,"action_noise":0.15,"location_history":"[3,4,5,0,1]","action_history":"[0,1,0,0]","mutagen_history":"[0,1,0,0]","location_rts":"[908,604,408,358]","trial_type":"fractal-mutation","trial_index":70,"time_elapsed":2135383,"internal_node_id":"0.0-5.0-16.0"},{"group":"hexagon_bi","fractal_assignment":["../images/org_blu.png","../images/cyn_red.png","../images/ylw_slt.png","../images/blu_wht.png","../images/gry_blk.png","../images/pnk_blu.png"],"mutagen_generator_assignment":[0,1],"goal":5,"start":1,"action_noise":0.15,"location_history":"[1,2,1,0,5]","action_history":"[0,0,1,1]","mutagen_history":"[0,0,1,1]","location_rts":"[540,1216,339,384]","trial_type":"fractal-mutation","trial_index":71,"time_elapsed":2145674,"internal_node_id":"0.0-5.0-17.0"},{"group":"hexagon_bi","fractal_assignment":["../images/org_blu.png","../images/cyn_red.png","../images/ylw_slt.png","../images/blu_wht.png","../images/gry_blk.png","../images/pnk_blu.png"],"mutagen_generator_assignment":[0,1],"goal":4,"start":5,"action_noise":0.15,"location_history":"[5,4]","action_history":"[1]","mutagen_history":"[1]","location_rts":"[384]","trial_type":"fractal-mutation","trial_index":72,"time_elapsed":2150647,"internal_node_id":"0.0-5.0-18.0"},{"group":"hexagon_bi","fractal_assignment":["../images/org_blu.png","../images/cyn_red.png","../images/ylw_slt.png","../images/blu_wht.png","../images/gry_blk.png","../images/pnk_blu.png"],"mutagen_generator_assignment":[0,1],"goal":0,"start":4,"action_noise":0.15,"location_history":"[4,3,2,3,4,5,0]","action_history":"[0,1,1,0,0,0]","mutagen_history":"[0,1,1,0,0,0]","location_rts":"[733,682,567,555,432,532]","trial_type":"fractal-mutation","trial_index":73,"time_elapsed":2164118,"internal_node_id":"0.0-5.0-19.0"},{"group":"hexagon_bi","fractal_assignment":["../images/org_blu.png","../images/cyn_red.png","../images/ylw_slt.png","../images/blu_wht.png","../images/gry_blk.png","../images/pnk_blu.png"],"mutagen_generator_assignment":[0,1],"goal":1,"start":0,"action_noise":0.15,"location_history":"[0,5,4,5,4,3,2,3,4,3,4,3,2,1]","action_history":"[0,1,1,0,0,1,1,1,0,0,0,1,0]","mutagen_history":"[0,1,1,0,0,1,1,1,0,0,0,1,0]","location_rts":"[684,370,786,780,346,501,484,560,527,669,424,653,814]","trial_type":"fractal-mutation","trial_index":74,"time_elapsed":2189191,"internal_node_id":"0.0-5.0-20.0"},{"group":"hexagon_bi","fractal_assignment":["../images/org_blu.png","../images/cyn_red.png","../images/ylw_slt.png","../images/blu_wht.png","../images/gry_blk.png","../images/pnk_blu.png"],"mutagen_generator_assignment":[0,1],"goal":3,"start":1,"action_noise":0.15,"location_history":"[1,2,3]","action_history":"[0,1]","mutagen_history":"[0,1]","location_rts":"[585,1092]","trial_type":"fractal-mutation","trial_index":75,"time_elapsed":2196527,"internal_node_id":"0.0-5.0-21.0"},{"group":"hexagon_bi","fractal_assignment":["../images/org_blu.png","../images/cyn_red.png","../images/ylw_slt.png","../images/blu_wht.png","../images/gry_blk.png","../images/pnk_blu.png"],"mutagen_generator_assignment":[0,1],"goal":2,"start":3,"action_noise":0.15,"location_history":"[3,4,5,4,5,0,5,0,1,2]","action_history":"[0,1,1,0,0,0,1,1,0]","mutagen_history":"[0,1,1,0,0,0,1,1,0]","location_rts":"[820,729,360,439,426,418,967,371,583]","trial_type":"fractal-mutation","trial_index":76,"time_elapsed":2214815,"internal_node_id":"0.0-5.0-22.0"},{"group":"hexagon_bi","fractal_assignment":["../images/org_blu.png","../images/cyn_red.png","../images/ylw_slt.png","../images/blu_wht.png","../images/gry_blk.png","../images/pnk_blu.png"],"mutagen_generator_assignment":[0,1],"goal":0,"start":2,"action_noise":0.15,"location_history":"[2,3,4,5,4,3,4,3,4,3,2,1,2,1,0]","action_history":"[0,1,1,1,0,0,0,0,0,1,0,0,0,1]","mutagen_history":"[0,1,1,1,0,0,0,0,0,1,0,0,0,1]","location_rts":"[297,468,489,665,342,451,335,428,307,454,467,384,472,871]","trial_type":"fractal-mutation","trial_index":77,"time_elapsed":2239824,"internal_node_id":"0.0-5.0-23.0"},{"group":"hexagon_bi","fractal_assignment":["../images/org_blu.png","../images/cyn_red.png","../images/ylw_slt.png","../images/blu_wht.png","../images/gry_blk.png","../images/pnk_blu.png"],"mutagen_generator_assignment":[0,1],"goal":3,"start":0,"action_noise":0.15,"location_history":"[0,5,4,5,4,5,0,5,0,1,2,1,2,1,0,5,4,3]","action_history":"[0,1,1,1,1,0,0,0,1,0,0,0,1,1,1,1,0]","mutagen_history":"[0,1,1,1,1,0,0,0,1,0,0,0,1,1,1,1,0]","location_rts":"[668,412,371,339,479,450,291,439,910,390,511,521,1026,416,387,510,428]","trial_type":"fractal-mutation","trial_index":78,"time_elapsed":2270178,"internal_node_id":"0.0-5.0-24.0"},{"group":"hexagon_bi","fractal_assignment":["../images/org_blu.png","../images/cyn_red.png","../images/ylw_slt.png","../images/blu_wht.png","../images/gry_blk.png","../images/pnk_blu.png"],"mutagen_generator_assignment":[0,1],"goal":1,"start":3,"action_noise":0.15,"location_history":"[3,2,3,4,3,2,1]","action_history":"[1,1,0,0,1,0]","mutagen_history":"[1,1,0,0,1,0]","location_rts":"[835,473,593,525,352,449]","trial_type":"fractal-mutation","trial_index":79,"time_elapsed":2283371,"internal_node_id":"0.0-5.0-25.0"},{"group":"hexagon_bi","fractal_assignment":["../images/org_blu.png","../images/cyn_red.png","../images/ylw_slt.png","../images/blu_wht.png","../images/gry_blk.png","../images/pnk_blu.png"],"mutagen_generator_assignment":[0,1],"goal":2,"start":1,"action_noise":0.15,"location_history":"[1,0,5,0,5,4,3,2]","action_history":"[1,0,0,1,1,0,1]","mutagen_history":"[1,0,0,1,1,0,1]","location_rts":"[738,401,452,383,353,444,876]","trial_type":"fractal-mutation","trial_index":80,"time_elapsed":2298067,"internal_node_id":"0.0-5.0-26.0"},{"group":"hexagon_bi","fractal_assignment":["../images/org_blu.png","../images/cyn_red.png","../images/ylw_slt.png","../images/blu_wht.png","../images/gry_blk.png","../images/pnk_blu.png"],"mutagen_generator_assignment":[0,1],"goal":5,"start":2,"action_noise":0.15,"location_history":"[2,1,2,3,4,3,2,1,0,5]","action_history":"[1,0,1,0,0,1,0,1,0]","mutagen_history":"[1,0,1,0,0,1,0,1,0]","location_rts":"[601,391,797,537,509,590,755,583,800]","trial_type":"fractal-mutation","trial_index":81,"time_elapsed":2316819,"internal_node_id":"0.0-5.0-27.0"},{"group":"hexagon_bi","fractal_assignment":["../images/org_blu.png","../images/cyn_red.png","../images/ylw_slt.png","../images/blu_wht.png","../images/gry_blk.png","../images/pnk_blu.png"],"mutagen_generator_assignment":[0,1],"goal":4,"start":5,"action_noise":0.15,"location_history":"[5,0,5,4]","action_history":"[1,0,1]","mutagen_history":"[1,0,1]","location_rts":"[657,377,611]","trial_type":"fractal-mutation","trial_index":82,"time_elapsed":2325212,"internal_node_id":"0.0-5.0-28.0"},{"group":"hexagon_bi","fractal_assignment":["../images/org_blu.png","../images/cyn_red.png","../images/ylw_slt.png","../images/blu_wht.png","../images/gry_blk.png","../images/pnk_blu.png"],"mutagen_generator_assignment":[0,1],"goal":5,"start":4,"action_noise":0.15,"location_history":"[4,5]","action_history":"[1]","mutagen_history":"[1]","location_rts":"[703]","trial_type":"fractal-mutation","trial_index":83,"time_elapsed":2330509,"internal_node_id":"0.0-5.0-29.0"},{"group":"hexagon_bi","fractal_assignment":["../images/org_blu.png","../images/cyn_red.png","../images/ylw_slt.png","../images/blu_wht.png","../images/gry_blk.png","../images/pnk_blu.png"],"mutagen_generator_assignment":[0,1],"goal":3,"start":5,"action_noise":0.15,"location_history":"[5,4,3]","action_history":"[1,0]","mutagen_history":"[1,0]","location_rts":"[782,584]","trial_type":"fractal-mutation","trial_index":84,"time_elapsed":2337546,"internal_node_id":"0.0-5.0-30.0"},{"group":"hexagon_bi","fractal_assignment":["../images/org_blu.png","../images/cyn_red.png","../images/ylw_slt.png","../images/blu_wht.png","../images/gry_blk.png","../images/pnk_blu.png"],"mutagen_generator_assignment":[0,1],"goal":0,"start":3,"action_noise":0.15,"location_history":"[3,4,5,0]","action_history":"[0,1,1]","mutagen_history":"[0,1,1]","location_rts":"[394,177,284]","trial_type":"fractal-mutation","trial_index":85,"time_elapsed":2345148,"internal_node_id":"0.0-5.0-31.0"},{"group":"hexagon_bi","fractal_assignment":["../images/org_blu.png","../images/cyn_red.png","../images/ylw_slt.png","../images/blu_wht.png","../images/gry_blk.png","../images/pnk_blu.png"],"mutagen_generator_assignment":[0,1],"goal":4,"start":0,"action_noise":0.15,"location_history":"[0,5,4]","action_history":"[0,1]","mutagen_history":"[0,1]","location_rts":"[421,393]","trial_type":"fractal-mutation","trial_index":86,"time_elapsed":2351619,"internal_node_id":"0.0-5.0-32.0"},{"group":"hexagon_bi","fractal_assignment":["../images/org_blu.png","../images/cyn_red.png","../images/ylw_slt.png","../images/blu_wht.png","../images/gry_blk.png","../images/pnk_blu.png"],"mutagen_generator_assignment":[0,1],"goal":1,"start":4,"action_noise":0.15,"location_history":"[4,3,4,3,4,5,4,3,4,5,0,1]","action_history":"[0,1,0,0,1,1,0,0,1,0,1]","mutagen_history":"[0,1,0,0,1,1,0,0,1,0,1]","location_rts":"[980,332,487,494,429,483,497,989,377,341,1118]","trial_type":"fractal-mutation","trial_index":87,"time_elapsed":2373523,"internal_node_id":"0.0-5.0-33.0"},{"group":"hexagon_bi","fractal_assignment":["../images/org_blu.png","../images/cyn_red.png","../images/ylw_slt.png","../images/blu_wht.png","../images/gry_blk.png","../images/pnk_blu.png"],"mutagen_generator_assignment":[0,1],"goal":2,"start":1,"action_noise":0.15,"location_history":"[1,0,5,0,1,2]","action_history":"[1,0,0,1,1]","mutagen_history":"[1,0,0,1,1]","location_rts":"[926,409,734,666,798]","trial_type":"fractal-mutation","trial_index":88,"time_elapsed":2385938,"internal_node_id":"0.0-5.0-34.0"},{"group":"hexagon_bi","fractal_assignment":["../images/org_blu.png","../images/cyn_red.png","../images/ylw_slt.png","../images/blu_wht.png","../images/gry_blk.png","../images/pnk_blu.png"],"mutagen_generator_assignment":[0,1],"goal":0,"start":2,"action_noise":0.15,"location_history":"[2,1,0]","action_history":"[0,1]","mutagen_history":"[0,1]","location_rts":"[911,502]","trial_type":"fractal-mutation","trial_index":89,"time_elapsed":2393007,"internal_node_id":"0.0-5.0-35.0"},{"group":"hexagon_bi","fractal_assignment":["../images/org_blu.png","../images/cyn_red.png","../images/ylw_slt.png","../images/blu_wht.png","../images/gry_blk.png","../images/pnk_blu.png"],"mutagen_generator_assignment":[0,1],"goal":5,"start":0,"action_noise":0.15,"location_history":"[0,1,0,1,0,5]","action_history":"[1,0,1,1,0]","mutagen_history":"[1,0,1,1,0]","location_rts":"[723,820,503,523,483]","trial_type":"fractal-mutation","trial_index":90,"time_elapsed":2404969,"internal_node_id":"0.0-5.0-36.0"},{"group":"hexagon_bi","fractal_assignment":["../images/org_blu.png","../images/cyn_red.png","../images/ylw_slt.png","../images/blu_wht.png","../images/gry_blk.png","../images/pnk_blu.png"],"mutagen_generator_assignment":[0,1],"goal":2,"start":5,"action_noise":0.15,"location_history":"[5,0,1,0,5,0,5,0,5,4,5,0,1,0,5,4,5,4,3,4,5,4,5,4,3,4,5,0,1,2]","action_history":"[0,1,1,0,0,1,0,0,1,1,0,1,1,0,1,0,1,0,0,1,0,1,1,0,0,1,0,1,0]","mutagen_history":"[0,1,1,0,0,1,0,0,1,1,0,1,1,0,1,0,1,0,0,1,0,1,1,0,0,1,0,1,0]","location_rts":"[564,546,526,1039,1005,470,782,758,864,585,608,713,1001,560,910,454,908,424,401,568,501,483,1029,553,869,903,1254,1114,1030]","trial_type":"fractal-mutation","trial_index":91,"time_elapsed":2461191,"internal_node_id":"0.0-5.0-37.0"},{"group":"hexagon_bi","fractal_assignment":["../images/org_blu.png","../images/cyn_red.png","../images/ylw_slt.png","../images/blu_wht.png","../images/gry_blk.png","../images/pnk_blu.png"],"mutagen_generator_assignment":[0,1],"goal":1,"start":2,"action_noise":0.15,"location_history":"[2,1]","action_history":"[0]","mutagen_history":"[0]","location_rts":"[2132]","trial_type":"fractal-mutation","trial_index":92,"time_elapsed":2467994,"internal_node_id":"0.0-5.0-38.0"},{"group":"hexagon_bi","fractal_assignment":["../images/org_blu.png","../images/cyn_red.png","../images/ylw_slt.png","../images/blu_wht.png","../images/gry_blk.png","../images/pnk_blu.png"],"mutagen_generator_assignment":[0,1],"goal":4,"start":1,"action_noise":0.15,"location_history":"[1,0,1,0,1,0,5,4]","action_history":"[1,1,0,1,0,1,1]","mutagen_history":"[1,1,0,1,0,1,1]","location_rts":"[9570,524,463,753,518,440,450]","trial_type":"fractal-mutation","trial_index":93,"time_elapsed":2492578,"internal_node_id":"0.0-5.0-39.0"},{"group":"hexagon_bi","fractal_assignment":["../images/org_blu.png","../images/cyn_red.png","../images/ylw_slt.png","../images/blu_wht.png","../images/gry_blk.png","../images/pnk_blu.png"],"mutagen_generator_assignment":[0,1],"goal":3,"start":4,"action_noise":0.15,"location_history":"[4,3]","action_history":"[0]","mutagen_history":"[0]","location_rts":"[930]","trial_type":"fractal-mutation","trial_index":94,"time_elapsed":2498092,"internal_node_id":"0.0-5.0-40.0"},{"group":"hexagon_bi","fractal_assignment":["../images/org_blu.png","../images/cyn_red.png","../images/ylw_slt.png","../images/blu_wht.png","../images/gry_blk.png","../images/pnk_blu.png"],"mutagen_generator_assignment":[0,1],"goal":5,"start":3,"action_noise":0.15,"location_history":"[3,2,3,2,3,4,5]","action_history":"[0,1,1,1,0,0]","mutagen_history":"[0,1,1,1,0,0]","location_rts":"[14147,504,427,364,477,309]","trial_type":"fractal-mutation","trial_index":95,"time_elapsed":2524303,"internal_node_id":"0.0-5.0-41.0"},{"group":"hexagon_bi","fractal_assignment":["../images/org_blu.png","../images/cyn_red.png","../images/ylw_slt.png","../images/blu_wht.png","../images/gry_blk.png","../images/pnk_blu.png"],"mutagen_generator_assignment":[0,1],"goal":3,"start":5,"action_noise":0.15,"location_history":"[5,4,5,0,1,0,5,4,3]","action_history":"[1,1,0,1,0,0,1,0]","mutagen_history":"[1,1,0,1,0,0,1,0]","location_rts":"[345,99,702,548,527,411,364,684]","trial_type":"fractal-mutation","trial_index":96,"time_elapsed":2540125,"internal_node_id":"0.0-5.0-42.0"},{"group":"hexagon_bi","fractal_assignment":["../images/org_blu.png","../images/cyn_red.png","../images/ylw_slt.png","../images/blu_wht.png","../images/gry_blk.png","../images/pnk_blu.png"],"mutagen_generator_assignment":[0,1],"goal":0,"start":3,"action_noise":0.15,"location_history":"[3,2,1,2,1,2,1,0]","action_history":"[1,0,1,0,0,0,1]","mutagen_history":"[1,0,1,0,0,0,1]","location_rts":"[690,507,697,499,298,1016,411]","trial_type":"fractal-mutation","trial_index":97,"time_elapsed":2555296,"internal_node_id":"0.0-5.0-43.0"},{"group":"hexagon_bi","fractal_assignment":["../images/org_blu.png","../images/cyn_red.png","../images/ylw_slt.png","../images/blu_wht.png","../images/gry_blk.png","../images/pnk_blu.png"],"mutagen_generator_assignment":[0,1],"goal":2,"start":0,"action_noise":0.15,"location_history":"[0,5,0,5,0,5,0,1,0,1,0,5,0,1,2]","action_history":"[1,0,1,0,0,0,1,1,1,1,0,0,1,0]","mutagen_history":"[1,0,1,0,0,0,1,1,1,1,0,0,1,0]","location_rts":"[595,510,764,477,351,903,419,841,770,831,457,820,599,615]","trial_type":"fractal-mutation","trial_index":98,"time_elapsed":2582876,"internal_node_id":"0.0-5.0-44.0"},{"group":"hexagon_bi","fractal_assignment":["../images/org_blu.png","../images/cyn_red.png","../images/ylw_slt.png","../images/blu_wht.png","../images/gry_blk.png","../images/pnk_blu.png"],"mutagen_generator_assignment":[0,1],"goal":4,"start":2,"action_noise":0.15,"location_history":"[2,3,4]","action_history":"[1,0]","mutagen_history":"[1,0]","location_rts":"[677,337]","trial_type":"fractal-mutation","trial_index":99,"time_elapsed":2589562,"internal_node_id":"0.0-5.0-45.0"},{"group":"hexagon_bi","fractal_assignment":["../images/org_blu.png","../images/cyn_red.png","../images/ylw_slt.png","../images/blu_wht.png","../images/gry_blk.png","../images/pnk_blu.png"],"mutagen_generator_assignment":[0,1],"goal":1,"start":4,"action_noise":0.15,"location_history":"[4,5,0,1]","action_history":"[1,0,1]","mutagen_history":"[1,0,1]","location_rts":"[877,70,787]","trial_type":"fractal-mutation","trial_index":100,"time_elapsed":2598053,"internal_node_id":"0.0-5.0-46.0"},{"group":"hexagon_bi","fractal_assignment":["../images/org_blu.png","../images/cyn_red.png","../images/ylw_slt.png","../images/blu_wht.png","../images/gry_blk.png","../images/pnk_blu.png"],"mutagen_generator_assignment":[0,1],"goal":4,"start":1,"action_noise":0.15,"location_history":"[1,2,3,4]","action_history":"[0,1,1]","mutagen_history":"[0,1,1]","location_rts":"[758,825,636]","trial_type":"fractal-mutation","trial_index":101,"time_elapsed":2607021,"internal_node_id":"0.0-5.0-47.0"},{"group":"hexagon_bi","fractal_assignment":["../images/org_blu.png","../images/cyn_red.png","../images/ylw_slt.png","../images/blu_wht.png","../images/gry_blk.png","../images/pnk_blu.png"],"mutagen_generator_assignment":[0,1],"goal":3,"start":4,"action_noise":0.15,"location_history":"[4,5,0,1,0,5,0,1,2,1,2,3]","action_history":"[1,0,1,1,0,0,1,0,0,0,1]","mutagen_history":"[1,0,1,1,0,0,1,0,0,0,1]","location_rts":"[779,429,529,609,596,465,592,472,932,723,859]","trial_type":"fractal-mutation","trial_index":102,"time_elapsed":2629377,"internal_node_id":"0.0-5.0-48.0"},{"group":"hexagon_bi","fractal_assignment":["../images/org_blu.png","../images/cyn_red.png","../images/ylw_slt.png","../images/blu_wht.png","../images/gry_blk.png","../images/pnk_blu.png"],"mutagen_generator_assignment":[0,1],"goal":5,"start":3,"action_noise":0.15,"location_history":"[3,4,5]","action_history":"[0,1]","mutagen_history":"[0,1]","location_rts":"[810,443]","trial_type":"fractal-mutation","trial_index":103,"time_elapsed":2636296,"internal_node_id":"0.0-5.0-49.0"},{"view_history":"[{\"page_index\":0,\"viewing_time\":5742}]","rt":5742,"trial_type":"instructions","trial_index":104,"time_elapsed":2643041,"internal_node_id":"0.0-6.0"},{"rt":9336,"responses":"{\"Q0\":\"This was MUCH longer than half an hour to complete. \"}","trial_type":"survey-text","trial_index":105,"time_elapsed":2653381,"internal_node_id":"0.0-7.0"}]