[{"view_history":"[{\"page_index\":0,\"viewing_time\":1059528},{\"page_index\":1,\"viewing_time\":15650},{\"page_index\":2,\"viewing_time\":42389},{\"page_index\":3,\"viewing_time\":11935}]","rt":1129503,"trial_type":"instructions","trial_index":0,"time_elapsed":1129505,"internal_node_id":"0.0-0.0"},{"view_history":"[{\"page_index\":0,\"viewing_time\":7862},{\"page_index\":1,\"viewing_time\":63280}]","rt":71142,"trial_type":"instructions","trial_index":1,"time_elapsed":1201650,"internal_node_id":"0.0-1.0"},{"group":"hexagon_tri","room_assignment":["grey","green","purple","red","blue","yellow"],"door_color_assignment":["black","white"],"door_generator_assignment":[0,1],"goal":4,"start":0,"action_noise":0.15,"location_history":"[0,5,4]","action_history":"[0,0]","door_history":"[0,0]","location_rts":"[4460,2107]","trial_type":"two-door-navigation","trial_index":2,"time_elapsed":1213774,"internal_node_id":"0.0-2.0-0.0"},{"group":"hexagon_tri","room_assignment":["grey","green","purple","red","blue","yellow"],"door_color_assignment":["black","white"],"door_generator_assignment":[0,1],"goal":3,"start":4,"action_noise":0.15,"location_history":"[4,0,1,3]","action_history":"[0,0,0]","door_history":"[0,0,0]","location_rts":"[3361,637,1521]","trial_type":"two-door-navigation","trial_index":3,"time_elapsed":1225864,"internal_node_id":"0.0-2.0-1.0"},{"group":"hexagon_tri","room_assignment":["grey","green","purple","red","blue","yellow"],"door_color_assignment":["black","white"],"door_generator_assignment":[0,1],"goal":5,"start":3,"action_noise":0.15,"location_history":"[3,2,1,3,2,3,4,0,1,3,2,1,3,4,2,3,4,0,1,5]","action_history":"[0,0,0,0,1,1,1,1,1,0,0,1,1,1,1,1,0,1,0]","door_history":"[0,0,0,0,1,1,1,1,1,0,0,1,1,1,1,1,0,1,0]","location_rts":"[1828,404,539,509,713,547,458,623,1152,918,1350,488,2176,942,1154,1848,580,794,1825]","trial_type":"two-door-navigation","trial_index":4,"time_elapsed":1267637,"internal_node_id":"0.0-2.0-2.0"},{"group":"hexagon_tri","room_assignment":["grey","green","purple","red","blue","yellow"],"door_color_assignment":["black","white"],"door_generator_assignment":[0,1],"goal":2,"start":5,"action_noise":0.15,"location_history":"[5,0,5,4,0,1,5,4,0,5,4,0,1,5,0,1,3,2]","action_history":"[1,0,0,0,1,1,1,0,0,0,1,1,1,1,1,0,0]","door_history":"[1,0,0,0,1,1,1,0,0,0,1,1,1,1,1,0,0]","location_rts":"[2825,1082,386,379,709,757,1049,1721,318,292,710,532,1467,501,744,1563,1675]","trial_type":"two-door-navigation","trial_index":5,"time_elapsed":1305211,"internal_node_id":"0.0-2.0-3.0"},{"group":"hexagon_tri","room_assignment":["grey","green","purple","red","blue","yellow"],"door_color_assignment":["black","white"],"door_generator_assignment":[0,1],"goal":1,"start":2,"action_noise":0.15,"location_history":"[2,3,4,0,5,4,0,5,0,1]","action_history":"[1,1,0,0,0,0,0,1,1]","door_history":"[1,1,0,0,0,0,0,1,1]","location_rts":"[3118,404,595,731,370,414,430,458,395]","trial_type":"two-door-navigation","trial_index":6,"time_elapsed":1324818,"internal_node_id":"0.0-2.0-4.0"},{"group":"hexagon_tri","room_assignment":["grey","green","purple","red","blue","yellow"],"door_color_assignment":["black","white"],"door_generator_assignment":[0,1],"goal":4,"start":1,"action_noise":0.15,"location_history":"[1,5,4]","action_history":"[1,0]","door_history":"[1,0]","location_rts":"[2182,588]","trial_type":"two-door-navigation","trial_index":7,"time_elapsed":1333133,"internal_node_id":"0.0-2.0-5.0"},{"group":"hexagon_tri","room_assignment":["grey","green","purple","red","blue","yellow"],"door_color_assignment":["black","white"],"door_generator_assignment":[0,1],"goal":1,"start":4,"action_noise":0.15,"location_history":"[4,2,1]","action_history":"[1,0]","door_history":"[1,0]","location_rts":"[1834,506]","trial_type":"two-door-navigation","trial_index":8,"time_elapsed":1341021,"internal_node_id":"0.0-2.0-6.0"},{"group":"hexagon_tri","room_assignment":["grey","green","purple","red","blue","yellow"],"door_color_assignment":["black","white"],"door_generator_assignment":[0,1],"goal":5,"start":1,"action_noise":0.15,"location_history":"[1,5]","action_history":"[1]","door_history":"[1]","location_rts":"[2311]","trial_type":"two-door-navigation","trial_index":9,"time_elapsed":1347858,"internal_node_id":"0.0-2.0-7.0"},{"group":"hexagon_tri","room_assignment":["grey","green","purple","red","blue","yellow"],"door_color_assignment":["black","white"],"door_generator_assignment":[0,1],"goal":0,"start":5,"action_noise":0.15,"location_history":"[5,0]","action_history":"[0]","door_history":"[0]","location_rts":"[1945]","trial_type":"two-door-navigation","trial_index":10,"time_elapsed":1354327,"internal_node_id":"0.0-2.0-8.0"},{"group":"hexagon_tri","room_assignment":["grey","green","purple","red","blue","yellow"],"door_color_assignment":["black","white"],"door_generator_assignment":[0,1],"goal":2,"start":0,"action_noise":0.15,"location_history":"[0,5,4,0,5,0,1,3,2]","action_history":"[0,0,0,0,1,1,0,0]","door_history":"[0,0,0,0,1,1,0,0]","location_rts":"[2973,348,325,333,572,675,1043,508]","trial_type":"two-door-navigation","trial_index":11,"time_elapsed":1372805,"internal_node_id":"0.0-2.0-9.0"},{"group":"hexagon_tri","room_assignment":["grey","green","purple","red","blue","yellow"],"door_color_assignment":["black","white"],"door_generator_assignment":[0,1],"goal":3,"start":2,"action_noise":0.15,"location_history":"[2,3]","action_history":"[0]","door_history":"[0]","location_rts":"[2863]","trial_type":"two-door-navigation","trial_index":12,"time_elapsed":1380195,"internal_node_id":"0.0-2.0-10.0"},{"group":"hexagon_tri","room_assignment":["grey","green","purple","red","blue","yellow"],"door_color_assignment":["black","white"],"door_generator_assignment":[0,1],"goal":0,"start":3,"action_noise":0.15,"location_history":"[3,4,0]","action_history":"[0,0]","door_history":"[0,0]","location_rts":"[1740,695]","trial_type":"two-door-navigation","trial_index":13,"time_elapsed":1388175,"internal_node_id":"0.0-2.0-11.0"},{"group":"hexagon_tri","room_assignment":["grey","green","purple","red","blue","yellow"],"door_color_assignment":["black","white"],"door_generator_assignment":[0,1],"goal":2,"start":0,"action_noise":0.15,"location_history":"[0,5,4,2]","action_history":"[0,0,1]","door_history":"[0,0,1]","location_rts":"[2102,319,231]","trial_type":"two-door-navigation","trial_index":14,"time_elapsed":1397394,"internal_node_id":"0.0-2.0-12.0"},{"group":"hexagon_tri","room_assignment":["grey","green","purple","red","blue","yellow"],"door_color_assignment":["black","white"],"door_generator_assignment":[0,1],"goal":5,"start":2,"action_noise":0.15,"location_history":"[2,3,2,3,4,2,1,5]","action_history":"[1,1,1,1,1,0,1]","door_history":"[1,1,1,1,1,0,1]","location_rts":"[2317,418,333,353,421,813,503]","trial_type":"two-door-navigation","trial_index":15,"time_elapsed":1413204,"internal_node_id":"0.0-2.0-13.0"},{"group":"hexagon_tri","room_assignment":["grey","green","purple","red","blue","yellow"],"door_color_assignment":["black","white"],"door_generator_assignment":[0,1],"goal":4,"start":5,"action_noise":0.15,"location_history":"[5,4]","action_history":"[0]","door_history":"[0]","location_rts":"[2464]","trial_type":"two-door-navigation","trial_index":16,"time_elapsed":1420196,"internal_node_id":"0.0-2.0-14.0"},{"group":"hexagon_tri","room_assignment":["grey","green","purple","red","blue","yellow"],"door_color_assignment":["black","white"],"door_generator_assignment":[0,1],"goal":3,"start":4,"action_noise":0.15,"location_history":"[4,0,5,4,0,5,4,2,3]","action_history":"[0,0,0,0,0,0,1,1]","door_history":"[0,0,0,0,0,0,1,1]","location_rts":"[2999,365,297,358,516,364,243,832]","trial_type":"two-door-navigation","trial_index":17,"time_elapsed":1437841,"internal_node_id":"0.0-2.0-15.0"},{"group":"hexagon_tri","room_assignment":["grey","green","purple","red","blue","yellow"],"door_color_assignment":["black","white"],"door_generator_assignment":[0,1],"goal":1,"start":3,"action_noise":0.15,"location_history":"[3,2,1]","action_history":"[0,0]","door_history":"[0,0]","location_rts":"[1426,284]","trial_type":"two-door-navigation","trial_index":18,"time_elapsed":1445096,"internal_node_id":"0.0-2.0-16.0"},{"group":"hexagon_tri","room_assignment":["grey","green","purple","red","blue","yellow"],"door_color_assignment":["black","white"],"door_generator_assignment":[0,1],"goal":5,"start":1,"action_noise":0.15,"location_history":"[1,5]","action_history":"[1]","door_history":"[1]","location_rts":"[1330]","trial_type":"two-door-navigation","trial_index":19,"time_elapsed":1450950,"internal_node_id":"0.0-2.0-17.0"},{"group":"hexagon_tri","room_assignment":["grey","green","purple","red","blue","yellow"],"door_color_assignment":["black","white"],"door_generator_assignment":[0,1],"goal":4,"start":5,"action_noise":0.15,"location_history":"[5,4]","action_history":"[0]","door_history":"[0]","location_rts":"[2613]","trial_type":"two-door-navigation","trial_index":20,"time_elapsed":1458088,"internal_node_id":"0.0-2.0-18.0"},{"group":"hexagon_tri","room_assignment":["grey","green","purple","red","blue","yellow"],"door_color_assignment":["black","white"],"door_generator_assignment":[0,1],"goal":0,"start":4,"action_noise":0.15,"location_history":"[4,0]","action_history":"[0]","door_history":"[0]","location_rts":"[1675]","trial_type":"two-door-navigation","trial_index":21,"time_elapsed":1464285,"internal_node_id":"0.0-2.0-19.0"},{"group":"hexagon_tri","room_assignment":["grey","green","purple","red","blue","yellow"],"door_color_assignment":["black","white"],"door_generator_assignment":[0,1],"goal":1,"start":0,"action_noise":0.15,"location_history":"[0,5,0,1]","action_history":"[0,1,1]","door_history":"[0,1,1]","location_rts":"[2557,339,461]","trial_type":"two-door-navigation","trial_index":22,"time_elapsed":1474207,"internal_node_id":"0.0-2.0-20.0"},{"group":"hexagon_tri","room_assignment":["grey","green","purple","red","blue","yellow"],"door_color_assignment":["black","white"],"door_generator_assignment":[0,1],"goal":3,"start":1,"action_noise":0.15,"location_history":"[1,3]","action_history":"[1]","door_history":"[1]","location_rts":"[2423]","trial_type":"two-door-navigation","trial_index":23,"time_elapsed":1481153,"internal_node_id":"0.0-2.0-21.0"},{"group":"hexagon_tri","room_assignment":["grey","green","purple","red","blue","yellow"],"door_color_assignment":["black","white"],"door_generator_assignment":[0,1],"goal":2,"start":3,"action_noise":0.15,"location_history":"[3,4,0,5,4,2]","action_history":"[1,0,0,0,1]","door_history":"[1,0,0,0,1]","location_rts":"[2649,821,484,353,337]","trial_type":"two-door-navigation","trial_index":24,"time_elapsed":1494408,"internal_node_id":"0.0-2.0-22.0"},{"group":"hexagon_tri","room_assignment":["grey","green","purple","red","blue","yellow"],"door_color_assignment":["black","white"],"door_generator_assignment":[0,1],"goal":0,"start":2,"action_noise":0.15,"location_history":"[2,1,5,4,2,1,3,2,1,5,0]","action_history":"[0,1,0,1,0,0,0,0,1,1]","door_history":"[0,1,0,1,0,0,0,0,1,1]","location_rts":"[3079,694,774,665,575,284,363,460,530,1110]","trial_type":"two-door-navigation","trial_index":25,"time_elapsed":1516655,"internal_node_id":"0.0-2.0-23.0"},{"group":"hexagon_tri","room_assignment":["grey","green","purple","red","blue","yellow"],"door_color_assignment":["black","white"],"door_generator_assignment":[0,1],"goal":3,"start":0,"action_noise":0.15,"location_history":"[0,5,0,5,0,1,5,0,1,3]","action_history":"[0,1,0,1,1,1,1,1,0]","door_history":"[0,1,0,1,1,1,1,1,0]","location_rts":"[1523,516,1325,673,466,1366,892,763,570]","trial_type":"two-door-navigation","trial_index":26,"time_elapsed":1537437,"internal_node_id":"0.0-2.0-24.0"},{"group":"hexagon_tri","room_assignment":["grey","green","purple","red","blue","yellow"],"door_color_assignment":["black","white"],"door_generator_assignment":[0,1],"goal":1,"start":3,"action_noise":0.15,"location_history":"[3,2,3,2,1]","action_history":"[0,1,0,0]","door_history":"[0,1,0,0]","location_rts":"[1374,876,753,361]","trial_type":"two-door-navigation","trial_index":27,"time_elapsed":1548385,"internal_node_id":"0.0-2.0-25.0"},{"group":"hexagon_tri","room_assignment":["grey","green","purple","red","blue","yellow"],"door_color_assignment":["black","white"],"door_generator_assignment":[0,1],"goal":2,"start":1,"action_noise":0.15,"location_history":"[1,3,2]","action_history":"[0,0]","door_history":"[0,0]","location_rts":"[1693,443]","trial_type":"two-door-navigation","trial_index":28,"time_elapsed":1556071,"internal_node_id":"0.0-2.0-26.0"},{"group":"hexagon_tri","room_assignment":["grey","green","purple","red","blue","yellow"],"door_color_assignment":["black","white"],"door_generator_assignment":[0,1],"goal":5,"start":2,"action_noise":0.15,"location_history":"[2,3,4,2,3,4,2,3,2,3,2,1,5]","action_history":"[1,1,0,1,1,1,1,0,1,0,0,1]","door_history":"[1,1,0,1,1,1,1,0,1,0,0,1]","location_rts":"[2027,422,884,634,364,337,977,982,564,209,320,363]","trial_type":"two-door-navigation","trial_index":29,"time_elapsed":1579913,"internal_node_id":"0.0-2.0-27.0"},{"group":"hexagon_tri","room_assignment":["grey","green","purple","red","blue","yellow"],"door_color_assignment":["black","white"],"door_generator_assignment":[0,1],"goal":4,"start":5,"action_noise":0.15,"location_history":"[5,4]","action_history":"[0]","door_history":"[0]","location_rts":"[2073]","trial_type":"two-door-navigation","trial_index":30,"time_elapsed":1586507,"internal_node_id":"0.0-2.0-28.0"},{"group":"hexagon_tri","room_assignment":["grey","green","purple","red","blue","yellow"],"door_color_assignment":["black","white"],"door_generator_assignment":[0,1],"goal":5,"start":4,"action_noise":0.15,"location_history":"[4,0,1,5]","action_history":"[0,1,1]","door_history":"[0,1,1]","location_rts":"[4362,1059,1141]","trial_type":"two-door-navigation","trial_index":31,"time_elapsed":1599640,"internal_node_id":"0.0-2.0-29.0"},{"group":"hexagon_tri","room_assignment":["grey","green","purple","red","blue","yellow"],"door_color_assignment":["black","white"],"door_generator_assignment":[0,1],"goal":3,"start":5,"action_noise":0.15,"location_history":"[5,0,5,0,1,3]","action_history":"[1,0,0,1,0]","door_history":"[1,0,0,1,0]","location_rts":"[2390,923,883,1025,796]","trial_type":"two-door-navigation","trial_index":32,"time_elapsed":1614265,"internal_node_id":"0.0-2.0-30.0"},{"group":"hexagon_tri","room_assignment":["grey","green","purple","red","blue","yellow"],"door_color_assignment":["black","white"],"door_generator_assignment":[0,1],"goal":0,"start":3,"action_noise":0.15,"location_history":"[3,2,3,4,0]","action_history":"[0,1,1,0]","door_history":"[0,1,1,0]","location_rts":"[2651,631,454,1338]","trial_type":"two-door-navigation","trial_index":33,"time_elapsed":1626927,"internal_node_id":"0.0-2.0-31.0"},{"group":"hexagon_tri","room_assignment":["grey","green","purple","red","blue","yellow"],"door_color_assignment":["black","white"],"door_generator_assignment":[0,1],"goal":4,"start":0,"action_noise":0.15,"location_history":"[0,5,0,1,5,4]","action_history":"[0,1,1,1,0]","door_history":"[0,1,1,1,0]","location_rts":"[1495,731,747,642,1007]","trial_type":"two-door-navigation","trial_index":34,"time_elapsed":1640159,"internal_node_id":"0.0-2.0-32.0"},{"group":"hexagon_tri","room_assignment":["grey","green","purple","red","blue","yellow"],"door_color_assignment":["black","white"],"door_generator_assignment":[0,1],"goal":1,"start":4,"action_noise":0.15,"location_history":"[4,2,3,4,0,5,0,1]","action_history":"[0,1,0,1,1,1,1]","door_history":"[0,1,0,1,1,1,1]","location_rts":"[1524,652,1018,672,919,663,814]","trial_type":"two-door-navigation","trial_index":35,"time_elapsed":1657069,"internal_node_id":"0.0-2.0-33.0"},{"group":"hexagon_tri","room_assignment":["grey","green","purple","red","blue","yellow"],"door_color_assignment":["black","white"],"door_generator_assignment":[0,1],"goal":2,"start":1,"action_noise":0.15,"location_history":"[1,3,4,2]","action_history":"[0,1,1]","door_history":"[0,1,1]","location_rts":"[1585,2281,2301]","trial_type":"two-door-navigation","trial_index":36,"time_elapsed":1669800,"internal_node_id":"0.0-2.0-34.0"},{"group":"hexagon_tri","room_assignment":["grey","green","purple","red","blue","yellow"],"door_color_assignment":["black","white"],"door_generator_assignment":[0,1],"goal":0,"start":2,"action_noise":0.15,"location_history":"[2,3,2,1,3,2,1,5,0]","action_history":"[1,0,0,0,0,1,1,0]","door_history":"[1,0,0,0,0,1,1,0]","location_rts":"[1328,1384,2091,858,477,799,818,828]","trial_type":"two-door-navigation","trial_index":37,"time_elapsed":1690053,"internal_node_id":"0.0-2.0-35.0"},{"group":"hexagon_tri","room_assignment":["grey","green","purple","red","blue","yellow"],"door_color_assignment":["black","white"],"door_generator_assignment":[0,1],"goal":5,"start":0,"action_noise":0.15,"location_history":"[0,5]","action_history":"[0]","door_history":"[0]","location_rts":"[2201]","trial_type":"two-door-navigation","trial_index":38,"time_elapsed":1696779,"internal_node_id":"0.0-2.0-36.0"},{"group":"hexagon_tri","room_assignment":["grey","green","purple","red","blue","yellow"],"door_color_assignment":["black","white"],"door_generator_assignment":[0,1],"goal":2,"start":5,"action_noise":0.15,"location_history":"[5,4,2]","action_history":"[0,1]","door_history":"[0,1]","location_rts":"[3586,858]","trial_type":"two-door-navigation","trial_index":39,"time_elapsed":1706766,"internal_node_id":"0.0-2.0-37.0"},{"group":"hexagon_tri","room_assignment":["grey","green","purple","red","blue","yellow"],"door_color_assignment":["black","white"],"door_generator_assignment":[0,1],"goal":1,"start":2,"action_noise":0.15,"location_history":"[2,1]","action_history":"[0]","door_history":"[0]","location_rts":"[1677]","trial_type":"two-door-navigation","trial_index":40,"time_elapsed":1712968,"internal_node_id":"0.0-2.0-38.0"},{"group":"hexagon_tri","room_assignment":["grey","green","purple","red","blue","yellow"],"door_color_assignment":["black","white"],"door_generator_assignment":[0,1],"goal":4,"start":1,"action_noise":0.15,"location_history":"[1,5,0,1,3,4]","action_history":"[1,1,1,0,0]","door_history":"[1,1,1,0,0]","location_rts":"[1325,951,1158,2439,766]","trial_type":"two-door-navigation","trial_index":41,"time_elapsed":1728216,"internal_node_id":"0.0-2.0-39.0"},{"group":"hexagon_tri","room_assignment":["grey","green","purple","red","blue","yellow"],"door_color_assignment":["black","white"],"door_generator_assignment":[0,1],"goal":3,"start":4,"action_noise":0.15,"location_history":"[4,2,3]","action_history":"[1,0]","door_history":"[1,0]","location_rts":"[2666,800]","trial_type":"two-door-navigation","trial_index":42,"time_elapsed":1737229,"internal_node_id":"0.0-2.0-40.0"},{"group":"hexagon_tri","room_assignment":["grey","green","purple","red","blue","yellow"],"door_color_assignment":["black","white"],"door_generator_assignment":[0,1],"goal":5,"start":3,"action_noise":0.15,"location_history":"[3,4,0,5]","action_history":"[1,0,0]","door_history":"[1,0,0]","location_rts":"[1800,860,1608]","trial_type":"two-door-navigation","trial_index":43,"time_elapsed":1748062,"internal_node_id":"0.0-2.0-41.0"},{"group":"hexagon_tri","room_assignment":["grey","green","purple","red","blue","yellow"],"door_color_assignment":["black","white"],"door_generator_assignment":[0,1],"goal":3,"start":5,"action_noise":0.15,"location_history":"[5,0,1,3]","action_history":"[1,1,0]","door_history":"[1,1,0]","location_rts":"[1819,2374,4459]","trial_type":"two-door-navigation","trial_index":44,"time_elapsed":1763277,"internal_node_id":"0.0-2.0-42.0"},{"group":"hexagon_tri","room_assignment":["grey","green","purple","red","blue","yellow"],"door_color_assignment":["black","white"],"door_generator_assignment":[0,1],"goal":0,"start":3,"action_noise":0.15,"location_history":"[3,4,2,1,3,2,1,5,0]","action_history":"[1,1,0,0,0,0,1,1]","door_history":"[1,1,0,0,0,0,1,1]","location_rts":"[1939,2662,1112,1140,553,513,359,371]","trial_type":"two-door-navigation","trial_index":45,"time_elapsed":1783597,"internal_node_id":"0.0-2.0-43.0"},{"group":"hexagon_tri","room_assignment":["grey","green","purple","red","blue","yellow"],"door_color_assignment":["black","white"],"door_generator_assignment":[0,1],"goal":2,"start":0,"action_noise":0.15,"location_history":"[0,5,4,0,5,4,2]","action_history":"[0,0,0,0,0,1]","door_history":"[0,0,0,0,0,1]","location_rts":"[1367,779,1285,648,796,449]","trial_type":"two-door-navigation","trial_index":46,"time_elapsed":1798549,"internal_node_id":"0.0-2.0-44.0"},{"group":"hexagon_tri","room_assignment":["grey","green","purple","red","blue","yellow"],"door_color_assignment":["black","white"],"door_generator_assignment":[0,1],"goal":4,"start":2,"action_noise":0.15,"location_history":"[2,1,5,0,1,3,2,3,2,1,3,2,3,4]","action_history":"[0,1,1,0,0,0,0,0,0,0,0,1,1]","door_history":"[0,1,1,0,0,0,0,0,0,0,0,1,1]","location_rts":"[2415,692,1712,1441,1011,1178,1472,589,737,662,478,1191,989]","trial_type":"two-door-navigation","trial_index":47,"time_elapsed":1829892,"internal_node_id":"0.0-2.0-45.0"},{"group":"hexagon_tri","room_assignment":["grey","green","purple","red","blue","yellow"],"door_color_assignment":["black","white"],"door_generator_assignment":[0,1],"goal":1,"start":4,"action_noise":0.15,"location_history":"[4,2,1]","action_history":"[1,0]","door_history":"[1,0]","location_rts":"[1339,1435]","trial_type":"two-door-navigation","trial_index":48,"time_elapsed":1838214,"internal_node_id":"0.0-2.0-46.0"},{"group":"hexagon_tri","room_assignment":["grey","green","purple","red","blue","yellow"],"door_color_assignment":["black","white"],"door_generator_assignment":[0,1],"goal":4,"start":1,"action_noise":0.15,"location_history":"[1,3,2,3,2,3,2,3,4]","action_history":"[0,1,0,0,1,1,1,1]","door_history":"[0,1,0,0,1,1,1,1]","location_rts":"[632,763,855,651,1318,1118,715,1152]","trial_type":"two-door-navigation","trial_index":49,"time_elapsed":1857089,"internal_node_id":"0.0-2.0-47.0"},{"group":"hexagon_tri","room_assignment":["grey","green","purple","red","blue","yellow"],"door_color_assignment":["black","white"],"door_generator_assignment":[0,1],"goal":3,"start":4,"action_noise":0.15,"location_history":"[4,2,3]","action_history":"[0,1]","door_history":"[0,1]","location_rts":"[833,1601]","trial_type":"two-door-navigation","trial_index":50,"time_elapsed":1865067,"internal_node_id":"0.0-2.0-48.0"},{"group":"hexagon_tri","room_assignment":["grey","green","purple","red","blue","yellow"],"door_color_assignment":["black","white"],"door_generator_assignment":[0,1],"goal":5,"start":3,"action_noise":0.15,"location_history":"[3,2,3,2,1,3,4,2,3,4,0,1,3,4,2,3,2,1,5]","action_history":"[0,1,0,0,0,1,1,1,1,0,0,0,1,1,1,0,0,1]","door_history":"[0,1,0,0,0,1,1,1,1,0,0,0,1,1,1,0,0,1]","location_rts":"[986,1137,775,619,624,664,1130,1098,811,760,660,471,754,838,1216,153,599,1465]","trial_type":"two-door-navigation","trial_index":51,"time_elapsed":1901712,"internal_node_id":"0.0-2.0-49.0"},{"view_history":"[{\"page_index\":0,\"viewing_time\":4376}]","rt":4376,"trial_type":"instructions","trial_index":52,"time_elapsed":1907089,"internal_node_id":"0.0-3.0"},{"view_history":"[{\"page_index\":0,\"viewing_time\":3645},{\"page_index\":1,\"viewing_time\":39623}]","rt":43269,"trial_type":"instructions","trial_index":53,"time_elapsed":1951361,"internal_node_id":"0.0-4.0"},{"group":"hexagon_bi","fractal_assignment":["../images/gry_blk.png","../images/blu_wht.png","../images/cyn_red.png","../images/pnk_blu.png","../images/ylw_slt.png","../images/org_blu.png"],"mutagen_generator_assignment":[0,1],"goal":4,"start":0,"action_noise":0.15,"location_history":"[0,5,4]","action_history":"[0,0]","mutagen_history":"[0,0]","location_rts":"[4399,2169]","trial_type":"fractal-mutation","trial_index":54,"time_elapsed":1963490,"internal_node_id":"0.0-5.0-0.0"},{"group":"hexagon_bi","fractal_assignment":["../images/gry_blk.png","../images/blu_wht.png","../images/cyn_red.png","../images/pnk_blu.png","../images/ylw_slt.png","../images/org_blu.png"],"mutagen_generator_assignment":[0,1],"goal":3,"start":4,"action_noise":0.15,"location_history":"[4,5,4,5,0,5,4,3]","action_history":"[1,1,1,0,0,1,0]","mutagen_history":"[1,1,1,0,0,1,0]","location_rts":"[2381,435,1417,875,798,802,1371]","trial_type":"fractal-mutation","trial_index":55,"time_elapsed":1982323,"internal_node_id":"0.0-5.0-1.0"},{"group":"hexagon_bi","fractal_assignment":["../images/gry_blk.png","../images/blu_wht.png","../images/cyn_red.png","../images/pnk_blu.png","../images/ylw_slt.png","../images/org_blu.png"],"mutagen_generator_assignment":[0,1],"goal":5,"start":3,"action_noise":0.15,"location_history":"[3,2,3,2,3,4,5]","action_history":"[1,1,1,0,0,0]","mutagen_history":"[1,1,1,0,0,0]","location_rts":"[1429,1256,918,892,744,587]","trial_type":"fractal-mutation","trial_index":56,"time_elapsed":1997837,"internal_node_id":"0.0-5.0-2.0"},{"group":"hexagon_bi","fractal_assignment":["../images/gry_blk.png","../images/blu_wht.png","../images/cyn_red.png","../images/pnk_blu.png","../images/ylw_slt.png","../images/org_blu.png"],"mutagen_generator_assignment":[0,1],"goal":2,"start":5,"action_noise":0.15,"location_history":"[5,4,5,4,3,2]","action_history":"[1,1,0,0,1]","mutagen_history":"[1,1,0,0,1]","location_rts":"[1091,570,623,1101,730]","trial_type":"fractal-mutation","trial_index":57,"time_elapsed":2010629,"internal_node_id":"0.0-5.0-3.0"},{"group":"hexagon_bi","fractal_assignment":["../images/gry_blk.png","../images/blu_wht.png","../images/cyn_red.png","../images/pnk_blu.png","../images/ylw_slt.png","../images/org_blu.png"],"mutagen_generator_assignment":[0,1],"goal":1,"start":2,"action_noise":0.15,"location_history":"[2,1]","action_history":"[0]","mutagen_history":"[0]","location_rts":"[1582]","trial_type":"fractal-mutation","trial_index":58,"time_elapsed":2016737,"internal_node_id":"0.0-5.0-4.0"},{"group":"hexagon_bi","fractal_assignment":["../images/gry_blk.png","../images/blu_wht.png","../images/cyn_red.png","../images/pnk_blu.png","../images/ylw_slt.png","../images/org_blu.png"],"mutagen_generator_assignment":[0,1],"goal":4,"start":1,"action_noise":0.15,"location_history":"[1,0,1,0,5,0,1,0,1,0,5,0,1,0,5,4]","action_history":"[1,1,1,0,0,0,1,1,1,1,1,1,1,0,1]","mutagen_history":"[1,1,1,0,0,0,1,1,1,1,1,1,1,0,1]","location_rts":"[1122,1052,893,754,486,696,425,530,480,504,557,540,1062,479,534]","trial_type":"fractal-mutation","trial_index":59,"time_elapsed":2045889,"internal_node_id":"0.0-5.0-5.0"},{"group":"hexagon_bi","fractal_assignment":["../images/gry_blk.png","../images/blu_wht.png","../images/cyn_red.png","../images/pnk_blu.png","../images/ylw_slt.png","../images/org_blu.png"],"mutagen_generator_assignment":[0,1],"goal":1,"start":4,"action_noise":0.15,"location_history":"[4,5,4,3,4,5,4,5,4,3,2,1]","action_history":"[1,0,1,0,1,1,1,1,0,0,0]","mutagen_history":"[1,0,1,0,1,1,1,1,0,0,0]","location_rts":"[1546,721,668,1109,866,530,979,1229,631,629,1072]","trial_type":"fractal-mutation","trial_index":60,"time_elapsed":2070718,"internal_node_id":"0.0-5.0-6.0"},{"group":"hexagon_bi","fractal_assignment":["../images/gry_blk.png","../images/blu_wht.png","../images/cyn_red.png","../images/pnk_blu.png","../images/ylw_slt.png","../images/org_blu.png"],"mutagen_generator_assignment":[0,1],"goal":5,"start":1,"action_noise":0.15,"location_history":"[1,0,5]","action_history":"[1,0]","mutagen_history":"[1,0]","location_rts":"[1344,760]","trial_type":"fractal-mutation","trial_index":61,"time_elapsed":2078390,"internal_node_id":"0.0-5.0-7.0"},{"group":"hexagon_bi","fractal_assignment":["../images/gry_blk.png","../images/blu_wht.png","../images/cyn_red.png","../images/pnk_blu.png","../images/ylw_slt.png","../images/org_blu.png"],"mutagen_generator_assignment":[0,1],"goal":0,"start":5,"action_noise":0.15,"location_history":"[5,4,3,2,3,4,5,0]","action_history":"[1,0,1,1,0,1,0]","mutagen_history":"[1,0,1,1,0,1,0]","location_rts":"[947,592,609,801,703,582,722]","trial_type":"fractal-mutation","trial_index":62,"time_elapsed":2094086,"internal_node_id":"0.0-5.0-8.0"},{"group":"hexagon_bi","fractal_assignment":["../images/gry_blk.png","../images/blu_wht.png","../images/cyn_red.png","../images/pnk_blu.png","../images/ylw_slt.png","../images/org_blu.png"],"mutagen_generator_assignment":[0,1],"goal":2,"start":0,"action_noise":0.15,"location_history":"[0,1,2]","action_history":"[1,0]","mutagen_history":"[1,0]","location_rts":"[1024,900]","trial_type":"fractal-mutation","trial_index":63,"time_elapsed":2101574,"internal_node_id":"0.0-5.0-9.0"},{"group":"hexagon_bi","fractal_assignment":["../images/gry_blk.png","../images/blu_wht.png","../images/cyn_red.png","../images/pnk_blu.png","../images/ylw_slt.png","../images/org_blu.png"],"mutagen_generator_assignment":[0,1],"goal":3,"start":2,"action_noise":0.15,"location_history":"[2,3]","action_history":"[1]","mutagen_history":"[1]","location_rts":"[1195]","trial_type":"fractal-mutation","trial_index":64,"time_elapsed":2107314,"internal_node_id":"0.0-5.0-10.0"},{"group":"hexagon_bi","fractal_assignment":["../images/gry_blk.png","../images/blu_wht.png","../images/cyn_red.png","../images/pnk_blu.png","../images/ylw_slt.png","../images/org_blu.png"],"mutagen_generator_assignment":[0,1],"goal":0,"start":3,"action_noise":0.15,"location_history":"[3,4,5,4,3,4,5,0]","action_history":"[0,0,1,1,0,1,0]","mutagen_history":"[0,0,1,1,0,1,0]","location_rts":"[24254,1915,2160,702,581,510,529]","trial_type":"fractal-mutation","trial_index":65,"time_elapsed":2148678,"internal_node_id":"0.0-5.0-11.0"},{"group":"hexagon_bi","fractal_assignment":["../images/gry_blk.png","../images/blu_wht.png","../images/cyn_red.png","../images/pnk_blu.png","../images/ylw_slt.png","../images/org_blu.png"],"mutagen_generator_assignment":[0,1],"goal":2,"start":0,"action_noise":0.15,"location_history":"[0,5,0,1,0,5,4,3,4,5,4,5,4,3,2]","action_history":"[0,0,1,1,0,1,0,0,1,1,1,1,0,1]","mutagen_history":"[0,0,1,1,0,1,0,0,1,1,1,1,0,1]","location_rts":"[1220,991,701,718,633,1708,574,565,541,1096,773,771,750,1037]","trial_type":"fractal-mutation","trial_index":66,"time_elapsed":2178725,"internal_node_id":"0.0-5.0-12.0"},{"group":"hexagon_bi","fractal_assignment":["../images/gry_blk.png","../images/blu_wht.png","../images/cyn_red.png","../images/pnk_blu.png","../images/ylw_slt.png","../images/org_blu.png"],"mutagen_generator_assignment":[0,1],"goal":5,"start":2,"action_noise":0.15,"location_history":"[2,3,4,3,4,3,4,5]","action_history":"[0,0,1,0,0,0,1]","mutagen_history":"[0,0,1,0,0,0,1]","location_rts":"[2684,720,553,629,625,833,710]","trial_type":"fractal-mutation","trial_index":67,"time_elapsed":2196173,"internal_node_id":"0.0-5.0-13.0"},{"group":"hexagon_bi","fractal_assignment":["../images/gry_blk.png","../images/blu_wht.png","../images/cyn_red.png","../images/pnk_blu.png","../images/ylw_slt.png","../images/org_blu.png"],"mutagen_generator_assignment":[0,1],"goal":4,"start":5,"action_noise":0.15,"location_history":"[5,4]","action_history":"[1]","mutagen_history":"[1]","location_rts":"[752]","trial_type":"fractal-mutation","trial_index":68,"time_elapsed":2201461,"internal_node_id":"0.0-5.0-14.0"},{"group":"hexagon_bi","fractal_assignment":["../images/gry_blk.png","../images/blu_wht.png","../images/cyn_red.png","../images/pnk_blu.png","../images/ylw_slt.png","../images/org_blu.png"],"mutagen_generator_assignment":[0,1],"goal":3,"start":4,"action_noise":0.15,"location_history":"[4,5,4,3]","action_history":"[1,1,0]","mutagen_history":"[1,1,0]","location_rts":"[1320,761,589]","trial_type":"fractal-mutation","trial_index":69,"time_elapsed":2210742,"internal_node_id":"0.0-5.0-15.0"},{"group":"hexagon_bi","fractal_assignment":["../images/gry_blk.png","../images/blu_wht.png","../images/cyn_red.png","../images/pnk_blu.png","../images/ylw_slt.png","../images/org_blu.png"],"mutagen_generator_assignment":[0,1],"goal":1,"start":3,"action_noise":0.15,"location_history":"[3,4,5,4,3,4,3,4,3,2,1]","action_history":"[0,1,1,0,0,0,0,0,1,0]","mutagen_history":"[0,1,1,0,0,0,0,0,1,0]","location_rts":"[1765,704,691,621,743,1102,845,982,427,1193]","trial_type":"fractal-mutation","trial_index":70,"time_elapsed":2233595,"internal_node_id":"0.0-5.0-16.0"},{"group":"hexagon_bi","fractal_assignment":["../images/gry_blk.png","../images/blu_wht.png","../images/cyn_red.png","../images/pnk_blu.png","../images/ylw_slt.png","../images/org_blu.png"],"mutagen_generator_assignment":[0,1],"goal":5,"start":1,"action_noise":0.15,"location_history":"[1,2,1,2,3,4,3,2,3,2,3,4,5]","action_history":"[0,0,1,1,0,0,1,1,1,1,0,1]","mutagen_history":"[0,0,1,1,0,0,1,1,1,1,0,1]","location_rts":"[812,1121,752,712,725,499,1353,932,613,626,1057,1298]","trial_type":"fractal-mutation","trial_index":71,"time_elapsed":2259990,"internal_node_id":"0.0-5.0-17.0"},{"group":"hexagon_bi","fractal_assignment":["../images/gry_blk.png","../images/blu_wht.png","../images/cyn_red.png","../images/pnk_blu.png","../images/ylw_slt.png","../images/org_blu.png"],"mutagen_generator_assignment":[0,1],"goal":4,"start":5,"action_noise":0.15,"location_history":"[5,4]","action_history":"[1]","mutagen_history":"[1]","location_rts":"[878]","trial_type":"fractal-mutation","trial_index":72,"time_elapsed":2265415,"internal_node_id":"0.0-5.0-18.0"},{"group":"hexagon_bi","fractal_assignment":["../images/gry_blk.png","../images/blu_wht.png","../images/cyn_red.png","../images/pnk_blu.png","../images/ylw_slt.png","../images/org_blu.png"],"mutagen_generator_assignment":[0,1],"goal":0,"start":4,"action_noise":0.15,"location_history":"[4,3,2,1,2,3,4,3,2,3,2,1,0]","action_history":"[0,1,0,0,1,0,1,1,1,1,0,1]","mutagen_history":"[0,1,0,0,1,0,1,1,1,1,0,1]","location_rts":"[962,539,846,650,823,902,487,640,639,583,703,1086]","trial_type":"fractal-mutation","trial_index":73,"time_elapsed":2290157,"internal_node_id":"0.0-5.0-19.0"},{"group":"hexagon_bi","fractal_assignment":["../images/gry_blk.png","../images/blu_wht.png","../images/cyn_red.png","../images/pnk_blu.png","../images/ylw_slt.png","../images/org_blu.png"],"mutagen_generator_assignment":[0,1],"goal":1,"start":0,"action_noise":0.15,"location_history":"[0,5,4,5,0,5,4,5,0,1]","action_history":"[0,1,1,0,1,1,1,0,0]","mutagen_history":"[0,1,1,0,1,1,1,0,0]","location_rts":"[2056,1309,1138,768,742,1098,1226,721,651]","trial_type":"fractal-mutation","trial_index":74,"time_elapsed":2312676,"internal_node_id":"0.0-5.0-20.0"},{"group":"hexagon_bi","fractal_assignment":["../images/gry_blk.png","../images/blu_wht.png","../images/cyn_red.png","../images/pnk_blu.png","../images/ylw_slt.png","../images/org_blu.png"],"mutagen_generator_assignment":[0,1],"goal":3,"start":1,"action_noise":0.15,"location_history":"[1,0,5,0,5,0,1,2,1,0,1,0,5,0,5,4,3]","action_history":"[1,0,0,1,1,1,0,1,1,1,1,1,0,0,1,0]","mutagen_history":"[1,0,0,1,1,1,0,1,1,1,1,1,0,0,1,0]","location_rts":"[2216,668,704,612,593,1166,1475,1219,1015,978,876,595,350,796,1478,1077]","trial_type":"fractal-mutation","trial_index":75,"time_elapsed":2348545,"internal_node_id":"0.0-5.0-21.0"},{"group":"hexagon_bi","fractal_assignment":["../images/gry_blk.png","../images/blu_wht.png","../images/cyn_red.png","../images/pnk_blu.png","../images/ylw_slt.png","../images/org_blu.png"],"mutagen_generator_assignment":[0,1],"goal":2,"start":3,"action_noise":0.15,"location_history":"[3,4,5,4,3,2]","action_history":"[0,1,1,0,1]","mutagen_history":"[0,1,1,0,1]","location_rts":"[1063,609,708,586,851]","trial_type":"fractal-mutation","trial_index":76,"time_elapsed":2361036,"internal_node_id":"0.0-5.0-22.0"},{"group":"hexagon_bi","fractal_assignment":["../images/gry_blk.png","../images/blu_wht.png","../images/cyn_red.png","../images/pnk_blu.png","../images/ylw_slt.png","../images/org_blu.png"],"mutagen_generator_assignment":[0,1],"goal":0,"start":2,"action_noise":0.15,"location_history":"[2,1,0]","action_history":"[0,1]","mutagen_history":"[0,1]","location_rts":"[987,524]","trial_type":"fractal-mutation","trial_index":77,"time_elapsed":2368115,"internal_node_id":"0.0-5.0-23.0"},{"group":"hexagon_bi","fractal_assignment":["../images/gry_blk.png","../images/blu_wht.png","../images/cyn_red.png","../images/pnk_blu.png","../images/ylw_slt.png","../images/org_blu.png"],"mutagen_generator_assignment":[0,1],"goal":3,"start":0,"action_noise":0.15,"location_history":"[0,5,4,3]","action_history":"[0,1,0]","mutagen_history":"[0,1,0]","location_rts":"[754,600,528]","trial_type":"fractal-mutation","trial_index":78,"time_elapsed":2376595,"internal_node_id":"0.0-5.0-24.0"},{"group":"hexagon_bi","fractal_assignment":["../images/gry_blk.png","../images/blu_wht.png","../images/cyn_red.png","../images/pnk_blu.png","../images/ylw_slt.png","../images/org_blu.png"],"mutagen_generator_assignment":[0,1],"goal":1,"start":3,"action_noise":0.15,"location_history":"[3,2,3,2,1]","action_history":"[1,1,1,0]","mutagen_history":"[1,1,1,0]","location_rts":"[998,2201,960,528]","trial_type":"fractal-mutation","trial_index":79,"time_elapsed":2388925,"internal_node_id":"0.0-5.0-25.0"},{"group":"hexagon_bi","fractal_assignment":["../images/gry_blk.png","../images/blu_wht.png","../images/cyn_red.png","../images/pnk_blu.png","../images/ylw_slt.png","../images/org_blu.png"],"mutagen_generator_assignment":[0,1],"goal":2,"start":1,"action_noise":0.15,"location_history":"[1,0,1,2]","action_history":"[1,0,0]","mutagen_history":"[1,0,0]","location_rts":"[1442,912,2352]","trial_type":"fractal-mutation","trial_index":80,"time_elapsed":2400223,"internal_node_id":"0.0-5.0-26.0"},{"group":"hexagon_bi","fractal_assignment":["../images/gry_blk.png","../images/blu_wht.png","../images/cyn_red.png","../images/pnk_blu.png","../images/ylw_slt.png","../images/org_blu.png"],"mutagen_generator_assignment":[0,1],"goal":5,"start":2,"action_noise":0.15,"location_history":"[2,3,4,3,2,3,2,3,4,5]","action_history":"[1,0,0,0,1,1,1,0,1]","mutagen_history":"[1,0,0,0,1,1,1,0,1]","location_rts":"[1408,1162,1233,639,181,807,391,340,2854]","trial_type":"fractal-mutation","trial_index":81,"time_elapsed":2422030,"internal_node_id":"0.0-5.0-27.0"},{"group":"hexagon_bi","fractal_assignment":["../images/gry_blk.png","../images/blu_wht.png","../images/cyn_red.png","../images/pnk_blu.png","../images/ylw_slt.png","../images/org_blu.png"],"mutagen_generator_assignment":[0,1],"goal":4,"start":5,"action_noise":0.15,"location_history":"[5,0,5,0,1,2,3,4]","action_history":"[0,1,0,1,0,1,0]","mutagen_history":"[0,1,0,1,0,1,0]","location_rts":"[1059,1219,1349,1150,903,1207,774]","trial_type":"fractal-mutation","trial_index":82,"time_elapsed":2440406,"internal_node_id":"0.0-5.0-28.0"},{"group":"hexagon_bi","fractal_assignment":["../images/gry_blk.png","../images/blu_wht.png","../images/cyn_red.png","../images/pnk_blu.png","../images/ylw_slt.png","../images/org_blu.png"],"mutagen_generator_assignment":[0,1],"goal":5,"start":4,"action_noise":0.15,"location_history":"[4,3,2,3,2,3,2,1,0,1,0,5]","action_history":"[0,1,0,1,1,0,0,1,0,1,0]","mutagen_history":"[0,1,0,1,1,0,0,1,0,1,0]","location_rts":"[2083,2862,1107,236,1620,991,1357,242,1150,959,1286]","trial_type":"fractal-mutation","trial_index":83,"time_elapsed":2469139,"internal_node_id":"0.0-5.0-29.0"},{"group":"hexagon_bi","fractal_assignment":["../images/gry_blk.png","../images/blu_wht.png","../images/cyn_red.png","../images/pnk_blu.png","../images/ylw_slt.png","../images/org_blu.png"],"mutagen_generator_assignment":[0,1],"goal":3,"start":5,"action_noise":0.15,"location_history":"[5,4,3]","action_history":"[1,0]","mutagen_history":"[1,0]","location_rts":"[1357,1122]","trial_type":"fractal-mutation","trial_index":84,"time_elapsed":2477185,"internal_node_id":"0.0-5.0-30.0"},{"group":"hexagon_bi","fractal_assignment":["../images/gry_blk.png","../images/blu_wht.png","../images/cyn_red.png","../images/pnk_blu.png","../images/ylw_slt.png","../images/org_blu.png"],"mutagen_generator_assignment":[0,1],"goal":0,"start":3,"action_noise":0.15,"location_history":"[3,4,5,0]","action_history":"[0,1,1]","mutagen_history":"[0,1,1]","location_rts":"[1876,1111,796]","trial_type":"fractal-mutation","trial_index":85,"time_elapsed":2487578,"internal_node_id":"0.0-5.0-31.0"},{"group":"hexagon_bi","fractal_assignment":["../images/gry_blk.png","../images/blu_wht.png","../images/cyn_red.png","../images/pnk_blu.png","../images/ylw_slt.png","../images/org_blu.png"],"mutagen_generator_assignment":[0,1],"goal":4,"start":0,"action_noise":0.15,"location_history":"[0,1,2,3,2,3,4]","action_history":"[1,1,1,0,1,0]","mutagen_history":"[1,1,1,0,1,0]","location_rts":"[1985,831,1066,1251,816,1415]","trial_type":"fractal-mutation","trial_index":86,"time_elapsed":2504665,"internal_node_id":"0.0-5.0-32.0"},{"group":"hexagon_bi","fractal_assignment":["../images/gry_blk.png","../images/blu_wht.png","../images/cyn_red.png","../images/pnk_blu.png","../images/ylw_slt.png","../images/org_blu.png"],"mutagen_generator_assignment":[0,1],"goal":1,"start":4,"action_noise":0.15,"location_history":"[4,3,2,1]","action_history":"[1,0,0]","mutagen_history":"[1,0,0]","location_rts":"[1088,892,1178]","trial_type":"fractal-mutation","trial_index":87,"time_elapsed":2514415,"internal_node_id":"0.0-5.0-33.0"},{"group":"hexagon_bi","fractal_assignment":["../images/gry_blk.png","../images/blu_wht.png","../images/cyn_red.png","../images/pnk_blu.png","../images/ylw_slt.png","../images/org_blu.png"],"mutagen_generator_assignment":[0,1],"goal":2,"start":1,"action_noise":0.15,"location_history":"[1,2]","action_history":"[0]","mutagen_history":"[0]","location_rts":"[1317]","trial_type":"fractal-mutation","trial_index":88,"time_elapsed":2520256,"internal_node_id":"0.0-5.0-34.0"},{"group":"hexagon_bi","fractal_assignment":["../images/gry_blk.png","../images/blu_wht.png","../images/cyn_red.png","../images/pnk_blu.png","../images/ylw_slt.png","../images/org_blu.png"],"mutagen_generator_assignment":[0,1],"goal":0,"start":2,"action_noise":0.15,"location_history":"[2,3,4,3,4,5,0]","action_history":"[1,0,0,0,1,0]","mutagen_history":"[1,0,0,0,1,0]","location_rts":"[1600,1159,1328,505,281,1316]","trial_type":"fractal-mutation","trial_index":89,"time_elapsed":2536123,"internal_node_id":"0.0-5.0-35.0"},{"group":"hexagon_bi","fractal_assignment":["../images/gry_blk.png","../images/blu_wht.png","../images/cyn_red.png","../images/pnk_blu.png","../images/ylw_slt.png","../images/org_blu.png"],"mutagen_generator_assignment":[0,1],"goal":5,"start":0,"action_noise":0.15,"location_history":"[0,1,0,5]","action_history":"[1,1,0]","mutagen_history":"[1,1,0]","location_rts":"[1928,1441,1349]","trial_type":"fractal-mutation","trial_index":90,"time_elapsed":2547454,"internal_node_id":"0.0-5.0-36.0"},{"group":"hexagon_bi","fractal_assignment":["../images/gry_blk.png","../images/blu_wht.png","../images/cyn_red.png","../images/pnk_blu.png","../images/ylw_slt.png","../images/org_blu.png"],"mutagen_generator_assignment":[0,1],"goal":2,"start":5,"action_noise":0.15,"location_history":"[5,0,5,4,3,4,3,2]","action_history":"[1,0,1,0,0,0,1]","mutagen_history":"[1,0,1,0,0,0,1]","location_rts":"[1500,901,668,838,1809,1011,158]","trial_type":"fractal-mutation","trial_index":91,"time_elapsed":2565057,"internal_node_id":"0.0-5.0-37.0"},{"group":"hexagon_bi","fractal_assignment":["../images/gry_blk.png","../images/blu_wht.png","../images/cyn_red.png","../images/pnk_blu.png","../images/ylw_slt.png","../images/org_blu.png"],"mutagen_generator_assignment":[0,1],"goal":1,"start":2,"action_noise":0.15,"location_history":"[2,1]","action_history":"[0]","mutagen_history":"[0]","location_rts":"[1117]","trial_type":"fractal-mutation","trial_index":92,"time_elapsed":2570701,"internal_node_id":"0.0-5.0-38.0"},{"group":"hexagon_bi","fractal_assignment":["../images/gry_blk.png","../images/blu_wht.png","../images/cyn_red.png","../images/pnk_blu.png","../images/ylw_slt.png","../images/org_blu.png"],"mutagen_generator_assignment":[0,1],"goal":4,"start":1,"action_noise":0.15,"location_history":"[1,0,5,4]","action_history":"[1,0,0]","mutagen_history":"[1,0,0]","location_rts":"[1012,899,1051]","trial_type":"fractal-mutation","trial_index":93,"time_elapsed":2580252,"internal_node_id":"0.0-5.0-39.0"},{"group":"hexagon_bi","fractal_assignment":["../images/gry_blk.png","../images/blu_wht.png","../images/cyn_red.png","../images/pnk_blu.png","../images/ylw_slt.png","../images/org_blu.png"],"mutagen_generator_assignment":[0,1],"goal":3,"start":4,"action_noise":0.15,"location_history":"[4,5,0,1,0,5,0,5,4,3]","action_history":"[1,0,1,1,0,0,0,1,0]","mutagen_history":"[1,0,1,1,0,0,0,1,0]","location_rts":"[2792,683,881,753,1026,705,1084,622,1035]","trial_type":"fractal-mutation","trial_index":94,"time_elapsed":2602608,"internal_node_id":"0.0-5.0-40.0"},{"group":"hexagon_bi","fractal_assignment":["../images/gry_blk.png","../images/blu_wht.png","../images/cyn_red.png","../images/pnk_blu.png","../images/ylw_slt.png","../images/org_blu.png"],"mutagen_generator_assignment":[0,1],"goal":5,"start":3,"action_noise":0.15,"location_history":"[3,4,5]","action_history":"[0,1]","mutagen_history":"[0,1]","location_rts":"[1088,561]","trial_type":"fractal-mutation","trial_index":95,"time_elapsed":2609822,"internal_node_id":"0.0-5.0-41.0"},{"group":"hexagon_bi","fractal_assignment":["../images/gry_blk.png","../images/blu_wht.png","../images/cyn_red.png","../images/pnk_blu.png","../images/ylw_slt.png","../images/org_blu.png"],"mutagen_generator_assignment":[0,1],"goal":3,"start":5,"action_noise":0.15,"location_history":"[5,0,5,4,5,0,5,4,3]","action_history":"[0,0,1,1,1,0,1,0]","mutagen_history":"[0,0,1,1,1,0,1,0]","location_rts":"[985,1205,339,1152,1092,266,682,648]","trial_type":"fractal-mutation","trial_index":96,"time_elapsed":2627946,"internal_node_id":"0.0-5.0-42.0"},{"group":"hexagon_bi","fractal_assignment":["../images/gry_blk.png","../images/blu_wht.png","../images/cyn_red.png","../images/pnk_blu.png","../images/ylw_slt.png","../images/org_blu.png"],"mutagen_generator_assignment":[0,1],"goal":0,"start":3,"action_noise":0.15,"location_history":"[3,4,3,2,3,2,3,4,5,0]","action_history":"[1,0,1,1,1,1,0,0,0]","mutagen_history":"[1,0,1,1,1,1,0,0,0]","location_rts":"[1075,629,1493,1177,1103,543,222,1284,879]","trial_type":"fractal-mutation","trial_index":97,"time_elapsed":2649152,"internal_node_id":"0.0-5.0-43.0"},{"group":"hexagon_bi","fractal_assignment":["../images/gry_blk.png","../images/blu_wht.png","../images/cyn_red.png","../images/pnk_blu.png","../images/ylw_slt.png","../images/org_blu.png"],"mutagen_generator_assignment":[0,1],"goal":2,"start":0,"action_noise":0.15,"location_history":"[0,5,0,1,2]","action_history":"[1,0,1,0]","mutagen_history":"[1,0,1,0]","location_rts":"[1165,1076,550,767]","trial_type":"fractal-mutation","trial_index":98,"time_elapsed":2660337,"internal_node_id":"0.0-5.0-44.0"},{"group":"hexagon_bi","fractal_assignment":["../images/gry_blk.png","../images/blu_wht.png","../images/cyn_red.png","../images/pnk_blu.png","../images/ylw_slt.png","../images/org_blu.png"],"mutagen_generator_assignment":[0,1],"goal":4,"start":2,"action_noise":0.15,"location_history":"[2,3,2,3,4]","action_history":"[1,0,1,1]","mutagen_history":"[1,0,1,1]","location_rts":"[1004,815,994,907]","trial_type":"fractal-mutation","trial_index":99,"time_elapsed":2671703,"internal_node_id":"0.0-5.0-45.0"},{"group":"hexagon_bi","fractal_assignment":["../images/gry_blk.png","../images/blu_wht.png","../images/cyn_red.png","../images/pnk_blu.png","../images/ylw_slt.png","../images/org_blu.png"],"mutagen_generator_assignment":[0,1],"goal":1,"start":4,"action_noise":0.15,"location_history":"[4,5,0,1]","action_history":"[1,0,1]","mutagen_history":"[1,0,1]","location_rts":"[1098,673,613]","trial_type":"fractal-mutation","trial_index":100,"time_elapsed":2680694,"internal_node_id":"0.0-5.0-46.0"},{"group":"hexagon_bi","fractal_assignment":["../images/gry_blk.png","../images/blu_wht.png","../images/cyn_red.png","../images/pnk_blu.png","../images/ylw_slt.png","../images/org_blu.png"],"mutagen_generator_assignment":[0,1],"goal":4,"start":1,"action_noise":0.15,"location_history":"[1,0,1,0,1,0,5,0,1,2,3,4]","action_history":"[1,0,1,1,1,0,0,0,0,1,0]","mutagen_history":"[1,0,1,1,1,0,0,0,0,1,0]","location_rts":"[831,818,757,721,932,291,1919,932,728,162,861]","trial_type":"fractal-mutation","trial_index":101,"time_elapsed":2704487,"internal_node_id":"0.0-5.0-47.0"},{"group":"hexagon_bi","fractal_assignment":["../images/gry_blk.png","../images/blu_wht.png","../images/cyn_red.png","../images/pnk_blu.png","../images/ylw_slt.png","../images/org_blu.png"],"mutagen_generator_assignment":[0,1],"goal":3,"start":4,"action_noise":0.15,"location_history":"[4,5,4,3]","action_history":"[1,1,0]","mutagen_history":"[1,1,0]","location_rts":"[1103,1675,1150]","trial_type":"fractal-mutation","trial_index":102,"time_elapsed":2715020,"internal_node_id":"0.0-5.0-48.0"},{"group":"hexagon_bi","fractal_assignment":["../images/gry_blk.png","../images/blu_wht.png","../images/cyn_red.png","../images/pnk_blu.png","../images/ylw_slt.png","../images/org_blu.png"],"mutagen_generator_assignment":[0,1],"goal":5,"start":3,"action_noise":0.15,"location_history":"[3,2,1,0,1,0,1,0,5]","action_history":"[1,0,1,0,1,0,1,1]","mutagen_history":"[1,0,1,0,1,0,1,1]","location_rts":"[3229,1781,283,755,890,969,750,207]","trial_type":"fractal-mutation","trial_index":103,"time_elapsed":2735662,"internal_node_id":"0.0-5.0-49.0"},{"view_history":"[{\"page_index\":0,\"viewing_time\":11691}]","rt":11691,"trial_type":"instructions","trial_index":104,"time_elapsed":2748354,"internal_node_id":"0.0-6.0"},{"rt":7382,"responses":"{\"Q0\":\"No comments\"}","trial_type":"survey-text","trial_index":105,"time_elapsed":2756745,"internal_node_id":"0.0-7.0"}]