[{"view_history":"[{\"page_index\":0,\"viewing_time\":51834},{\"page_index\":1,\"viewing_time\":21816},{\"page_index\":2,\"viewing_time\":14456},{\"page_index\":3,\"viewing_time\":7424}]","rt":95530,"trial_type":"instructions","trial_index":0,"time_elapsed":95531,"internal_node_id":"0.0-0.0"},{"view_history":"[{\"page_index\":0,\"viewing_time\":60262},{\"page_index\":1,\"viewing_time\":33433}]","rt":93695,"trial_type":"instructions","trial_index":1,"time_elapsed":190227,"internal_node_id":"0.0-1.0"},{"group":"hexagon_tri","room_assignment":["yellow","blue","red","green","grey","purple"],"door_color_assignment":["white","black"],"door_generator_assignment":[0,1],"goal":4,"start":0,"action_noise":0.15,"location_history":"[0,1,3,4]","action_history":"[0,0,0]","door_history":"[0,0,0]","location_rts":"[9462,4239,3309]","trial_type":"two-door-navigation","trial_index":2,"time_elapsed":213821,"internal_node_id":"0.0-2.0-0.0"},{"group":"hexagon_tri","room_assignment":["yellow","blue","red","green","grey","purple"],"door_color_assignment":["white","black"],"door_generator_assignment":[0,1],"goal":3,"start":4,"action_noise":0.15,"location_history":"[4,2,3]","action_history":"[1,1]","door_history":"[1,1]","location_rts":"[6640,1400]","trial_type":"two-door-navigation","trial_index":3,"time_elapsed":227410,"internal_node_id":"0.0-2.0-1.0"},{"group":"hexagon_tri","room_assignment":["yellow","blue","red","green","grey","purple"],"door_color_assignment":["white","black"],"door_generator_assignment":[0,1],"goal":5,"start":3,"action_noise":0.15,"location_history":"[3,2,1,3,2,3,4,2,3,4,0,1,5]","action_history":"[0,0,0,0,1,1,1,1,1,0,0,1]","door_history":"[0,0,0,0,1,1,1,1,1,0,0,1]","location_rts":"[4043,1010,1106,1491,22006,921,823,731,783,1186,862,965]","trial_type":"two-door-navigation","trial_index":4,"time_elapsed":279115,"internal_node_id":"0.0-2.0-2.0"},{"group":"hexagon_tri","room_assignment":["yellow","blue","red","green","grey","purple"],"door_color_assignment":["white","black"],"door_generator_assignment":[0,1],"goal":2,"start":5,"action_noise":0.15,"location_history":"[5,4,2]","action_history":"[0,0]","door_history":"[0,0]","location_rts":"[3842,1058]","trial_type":"two-door-navigation","trial_index":5,"time_elapsed":289569,"internal_node_id":"0.0-2.0-3.0"},{"group":"hexagon_tri","room_assignment":["yellow","blue","red","green","grey","purple"],"door_color_assignment":["white","black"],"door_generator_assignment":[0,1],"goal":1,"start":2,"action_noise":0.15,"location_history":"[2,3,2,1]","action_history":"[0,0,0]","door_history":"[0,0,0]","location_rts":"[1795,473,489]","trial_type":"two-door-navigation","trial_index":6,"time_elapsed":298890,"internal_node_id":"0.0-2.0-4.0"},{"group":"hexagon_tri","room_assignment":["yellow","blue","red","green","grey","purple"],"door_color_assignment":["white","black"],"door_generator_assignment":[0,1],"goal":4,"start":1,"action_noise":0.15,"location_history":"[1,3,4]","action_history":"[0,0]","door_history":"[0,0]","location_rts":"[2059,475]","trial_type":"two-door-navigation","trial_index":7,"time_elapsed":306966,"internal_node_id":"0.0-2.0-5.0"},{"group":"hexagon_tri","room_assignment":["yellow","blue","red","green","grey","purple"],"door_color_assignment":["white","black"],"door_generator_assignment":[0,1],"goal":1,"start":4,"action_noise":0.15,"location_history":"[4,0,5,4,2,1]","action_history":"[0,0,0,0,0]","door_history":"[0,0,0,0,0]","location_rts":"[3302,622,672,568,445]","trial_type":"two-door-navigation","trial_index":8,"time_elapsed":321182,"internal_node_id":"0.0-2.0-6.0"},{"group":"hexagon_tri","room_assignment":["yellow","blue","red","green","grey","purple"],"door_color_assignment":["white","black"],"door_generator_assignment":[0,1],"goal":5,"start":1,"action_noise":0.15,"location_history":"[1,5]","action_history":"[1]","door_history":"[1]","location_rts":"[1847]","trial_type":"two-door-navigation","trial_index":9,"time_elapsed":327552,"internal_node_id":"0.0-2.0-7.0"},{"group":"hexagon_tri","room_assignment":["yellow","blue","red","green","grey","purple"],"door_color_assignment":["white","black"],"door_generator_assignment":[0,1],"goal":0,"start":5,"action_noise":0.15,"location_history":"[5,0]","action_history":"[0]","door_history":"[0]","location_rts":"[1992]","trial_type":"two-door-navigation","trial_index":10,"time_elapsed":334072,"internal_node_id":"0.0-2.0-8.0"},{"group":"hexagon_tri","room_assignment":["yellow","blue","red","green","grey","purple"],"door_color_assignment":["white","black"],"door_generator_assignment":[0,1],"goal":2,"start":0,"action_noise":0.15,"location_history":"[0,5,4,0,5,4,0,1,3,2]","action_history":"[0,0,0,0,0,0,0,0,0]","door_history":"[0,0,0,0,0,0,0,0,0]","location_rts":"[1387,514,376,399,447,531,1364,1156,508]","trial_type":"two-door-navigation","trial_index":11,"time_elapsed":353449,"internal_node_id":"0.0-2.0-9.0"},{"group":"hexagon_tri","room_assignment":["yellow","blue","red","green","grey","purple"],"door_color_assignment":["white","black"],"door_generator_assignment":[0,1],"goal":3,"start":2,"action_noise":0.15,"location_history":"[2,1,3]","action_history":"[0,0]","door_history":"[0,0]","location_rts":"[1400,531]","trial_type":"two-door-navigation","trial_index":12,"time_elapsed":360926,"internal_node_id":"0.0-2.0-10.0"},{"group":"hexagon_tri","room_assignment":["yellow","blue","red","green","grey","purple"],"door_color_assignment":["white","black"],"door_generator_assignment":[0,1],"goal":0,"start":3,"action_noise":0.15,"location_history":"[3,2,1,3,2,1,3,2,1,5,0]","action_history":"[0,0,0,0,0,0,0,1,1,1]","door_history":"[0,0,0,0,0,0,0,1,1,1]","location_rts":"[1227,431,393,470,799,437,520,920,525,437]","trial_type":"two-door-navigation","trial_index":13,"time_elapsed":380811,"internal_node_id":"0.0-2.0-11.0"},{"group":"hexagon_tri","room_assignment":["yellow","blue","red","green","grey","purple"],"door_color_assignment":["white","black"],"door_generator_assignment":[0,1],"goal":2,"start":0,"action_noise":0.15,"location_history":"[0,5,4,0,5,0,1,5,0,1,3,4,2]","action_history":"[0,0,0,0,1,1,1,1,1,1,1,1]","door_history":"[0,0,0,0,1,1,1,1,1,1,1,1]","location_rts":"[1553,488,404,386,1048,784,476,454,674,550,616,711]","trial_type":"two-door-navigation","trial_index":14,"time_elapsed":404708,"internal_node_id":"0.0-2.0-12.0"},{"group":"hexagon_tri","room_assignment":["yellow","blue","red","green","grey","purple"],"door_color_assignment":["white","black"],"door_generator_assignment":[0,1],"goal":5,"start":2,"action_noise":0.15,"location_history":"[2,3,2,3,4,2,3,4,2,1,5]","action_history":"[1,0,1,1,1,1,1,1,0,1]","door_history":"[1,0,1,1,1,1,1,1,0,1]","location_rts":"[1631,1386,922,623,603,428,529,754,769,1246]","trial_type":"two-door-navigation","trial_index":15,"time_elapsed":427309,"internal_node_id":"0.0-2.0-13.0"},{"group":"hexagon_tri","room_assignment":["yellow","blue","red","green","grey","purple"],"door_color_assignment":["white","black"],"door_generator_assignment":[0,1],"goal":4,"start":5,"action_noise":0.15,"location_history":"[5,0,1,5,0,1,5,4]","action_history":"[1,1,1,1,1,0,0]","door_history":"[1,1,1,1,1,0,0]","location_rts":"[2120,649,435,608,421,967,454]","trial_type":"two-door-navigation","trial_index":16,"time_elapsed":443618,"internal_node_id":"0.0-2.0-14.0"},{"group":"hexagon_tri","room_assignment":["yellow","blue","red","green","grey","purple"],"door_color_assignment":["white","black"],"door_generator_assignment":[0,1],"goal":3,"start":4,"action_noise":0.15,"location_history":"[4,0,5,4,0,5,0,1,5,0,1,5,0,5,4,0,5,4,0,5,4,2,3]","action_history":"[0,0,0,0,0,1,1,1,1,1,1,1,0,0,0,0,0,0,0,0,0,1]","door_history":"[0,0,0,0,0,1,1,1,1,1,1,1,0,0,0,0,0,0,0,0,0,1]","location_rts":"[2026,470,397,463,512,713,404,400,425,391,415,1043,829,406,489,362,504,446,403,421,1403,959]","trial_type":"two-door-navigation","trial_index":17,"time_elapsed":483451,"internal_node_id":"0.0-2.0-15.0"},{"group":"hexagon_tri","room_assignment":["yellow","blue","red","green","grey","purple"],"door_color_assignment":["white","black"],"door_generator_assignment":[0,1],"goal":1,"start":3,"action_noise":0.15,"location_history":"[3,4,2,3,4,2,1]","action_history":"[1,1,1,1,1,0]","door_history":"[1,1,1,1,1,0]","location_rts":"[2399,612,435,394,471,772]","trial_type":"two-door-navigation","trial_index":18,"time_elapsed":498161,"internal_node_id":"0.0-2.0-16.0"},{"group":"hexagon_tri","room_assignment":["yellow","blue","red","green","grey","purple"],"door_color_assignment":["white","black"],"door_generator_assignment":[0,1],"goal":5,"start":1,"action_noise":0.15,"location_history":"[1,5]","action_history":"[1]","door_history":"[1]","location_rts":"[2082]","trial_type":"two-door-navigation","trial_index":19,"time_elapsed":504771,"internal_node_id":"0.0-2.0-17.0"},{"group":"hexagon_tri","room_assignment":["yellow","blue","red","green","grey","purple"],"door_color_assignment":["white","black"],"door_generator_assignment":[0,1],"goal":4,"start":5,"action_noise":0.15,"location_history":"[5,0,5,4]","action_history":"[1,1,1]","door_history":"[1,1,1]","location_rts":"[2136,436,441]","trial_type":"two-door-navigation","trial_index":20,"time_elapsed":514349,"internal_node_id":"0.0-2.0-18.0"},{"group":"hexagon_tri","room_assignment":["yellow","blue","red","green","grey","purple"],"door_color_assignment":["white","black"],"door_generator_assignment":[0,1],"goal":0,"start":4,"action_noise":0.15,"location_history":"[4,0]","action_history":"[0]","door_history":"[0]","location_rts":"[2406]","trial_type":"two-door-navigation","trial_index":21,"time_elapsed":521282,"internal_node_id":"0.0-2.0-19.0"},{"group":"hexagon_tri","room_assignment":["yellow","blue","red","green","grey","purple"],"door_color_assignment":["white","black"],"door_generator_assignment":[0,1],"goal":1,"start":0,"action_noise":0.15,"location_history":"[0,5,4,0,5,0,1]","action_history":"[0,0,0,1,1,1]","door_history":"[0,0,0,1,1,1]","location_rts":"[2635,655,981,819,792,567]","trial_type":"two-door-navigation","trial_index":22,"time_elapsed":537370,"internal_node_id":"0.0-2.0-20.0"},{"group":"hexagon_tri","room_assignment":["yellow","blue","red","green","grey","purple"],"door_color_assignment":["white","black"],"door_generator_assignment":[0,1],"goal":3,"start":1,"action_noise":0.15,"location_history":"[1,3]","action_history":"[0]","door_history":"[0]","location_rts":"[2465]","trial_type":"two-door-navigation","trial_index":23,"time_elapsed":544366,"internal_node_id":"0.0-2.0-21.0"},{"group":"hexagon_tri","room_assignment":["yellow","blue","red","green","grey","purple"],"door_color_assignment":["white","black"],"door_generator_assignment":[0,1],"goal":2,"start":3,"action_noise":0.15,"location_history":"[3,4,0,5,4,0,1,5,0,5,0,5,4,0,1,5,4,0,5,4,2]","action_history":"[0,0,0,0,0,1,1,1,1,1,0,0,0,1,0,0,0,0,0,1]","door_history":"[0,0,0,0,0,1,1,1,1,1,0,0,0,1,0,0,0,0,0,1]","location_rts":"[1576,523,403,754,595,377,583,469,558,431,1287,617,381,1259,1193,707,357,462,443,1852]","trial_type":"two-door-navigation","trial_index":24,"time_elapsed":583127,"internal_node_id":"0.0-2.0-22.0"},{"group":"hexagon_tri","room_assignment":["yellow","blue","red","green","grey","purple"],"door_color_assignment":["white","black"],"door_generator_assignment":[0,1],"goal":0,"start":2,"action_noise":0.15,"location_history":"[2,3,4,0]","action_history":"[0,0,0]","door_history":"[0,0,0]","location_rts":"[2107,522,985]","trial_type":"two-door-navigation","trial_index":25,"time_elapsed":593309,"internal_node_id":"0.0-2.0-23.0"},{"group":"hexagon_tri","room_assignment":["yellow","blue","red","green","grey","purple"],"door_color_assignment":["white","black"],"door_generator_assignment":[0,1],"goal":3,"start":0,"action_noise":0.15,"location_history":"[0,5,4,0,5,0,1,5,4,2,3]","action_history":"[0,0,0,0,1,1,1,0,0,1]","door_history":"[0,0,0,0,1,1,1,0,0,1]","location_rts":"[3015,531,492,815,1139,453,543,746,450,988]","trial_type":"two-door-navigation","trial_index":26,"time_elapsed":616198,"internal_node_id":"0.0-2.0-24.0"},{"group":"hexagon_tri","room_assignment":["yellow","blue","red","green","grey","purple"],"door_color_assignment":["white","black"],"door_generator_assignment":[0,1],"goal":1,"start":3,"action_noise":0.15,"location_history":"[3,4,2,1]","action_history":"[1,1,0]","door_history":"[1,1,0]","location_rts":"[5544,497,839]","trial_type":"two-door-navigation","trial_index":27,"time_elapsed":629640,"internal_node_id":"0.0-2.0-25.0"},{"group":"hexagon_tri","room_assignment":["yellow","blue","red","green","grey","purple"],"door_color_assignment":["white","black"],"door_generator_assignment":[0,1],"goal":2,"start":1,"action_noise":0.15,"location_history":"[1,5,0,1,3,2]","action_history":"[1,1,1,0,0]","door_history":"[1,1,1,0,0]","location_rts":"[1858,1120,590,825,932]","trial_type":"two-door-navigation","trial_index":28,"time_elapsed":643567,"internal_node_id":"0.0-2.0-26.0"},{"group":"hexagon_tri","room_assignment":["yellow","blue","red","green","grey","purple"],"door_color_assignment":["white","black"],"door_generator_assignment":[0,1],"goal":5,"start":2,"action_noise":0.15,"location_history":"[2,1,5]","action_history":"[0,1]","door_history":"[0,1]","location_rts":"[4463,1149]","trial_type":"two-door-navigation","trial_index":29,"time_elapsed":654727,"internal_node_id":"0.0-2.0-27.0"},{"group":"hexagon_tri","room_assignment":["yellow","blue","red","green","grey","purple"],"door_color_assignment":["white","black"],"door_generator_assignment":[0,1],"goal":4,"start":5,"action_noise":0.15,"location_history":"[5,0,1,5,0,5,4]","action_history":"[1,1,1,1,0,0]","door_history":"[1,1,1,1,0,0]","location_rts":"[1740,507,460,956,664,1391]","trial_type":"two-door-navigation","trial_index":30,"time_elapsed":670073,"internal_node_id":"0.0-2.0-28.0"},{"group":"hexagon_tri","room_assignment":["yellow","blue","red","green","grey","purple"],"door_color_assignment":["white","black"],"door_generator_assignment":[0,1],"goal":5,"start":4,"action_noise":0.15,"location_history":"[4,0,5]","action_history":"[0,0]","door_history":"[0,0]","location_rts":"[2585,903]","trial_type":"two-door-navigation","trial_index":31,"time_elapsed":679104,"internal_node_id":"0.0-2.0-29.0"},{"group":"hexagon_tri","room_assignment":["yellow","blue","red","green","grey","purple"],"door_color_assignment":["white","black"],"door_generator_assignment":[0,1],"goal":3,"start":5,"action_noise":0.15,"location_history":"[5,0,1,3]","action_history":"[0,1,0]","door_history":"[0,1,0]","location_rts":"[2052,1256,1763]","trial_type":"two-door-navigation","trial_index":32,"time_elapsed":690743,"internal_node_id":"0.0-2.0-30.0"},{"group":"hexagon_tri","room_assignment":["yellow","blue","red","green","grey","purple"],"door_color_assignment":["white","black"],"door_generator_assignment":[0,1],"goal":0,"start":3,"action_noise":0.15,"location_history":"[3,2,3,2,3,2,3,4,0]","action_history":"[0,0,0,0,1,1,1,0]","door_history":"[0,0,0,0,1,1,1,0]","location_rts":"[4497,426,338,412,1112,773,402,1373]","trial_type":"two-door-navigation","trial_index":33,"time_elapsed":711727,"internal_node_id":"0.0-2.0-31.0"},{"group":"hexagon_tri","room_assignment":["yellow","blue","red","green","grey","purple"],"door_color_assignment":["white","black"],"door_generator_assignment":[0,1],"goal":4,"start":0,"action_noise":0.15,"location_history":"[0,1,3,4]","action_history":"[1,0,0]","door_history":"[1,0,0]","location_rts":"[2147,1296,870]","trial_type":"two-door-navigation","trial_index":34,"time_elapsed":722617,"internal_node_id":"0.0-2.0-32.0"},{"group":"hexagon_tri","room_assignment":["yellow","blue","red","green","grey","purple"],"door_color_assignment":["white","black"],"door_generator_assignment":[0,1],"goal":1,"start":4,"action_noise":0.15,"location_history":"[4,0,5,0,1]","action_history":"[0,0,1,1]","door_history":"[0,0,1,1]","location_rts":"[3722,565,1306,903]","trial_type":"two-door-navigation","trial_index":35,"time_elapsed":736705,"internal_node_id":"0.0-2.0-33.0"},{"group":"hexagon_tri","room_assignment":["yellow","blue","red","green","grey","purple"],"door_color_assignment":["white","black"],"door_generator_assignment":[0,1],"goal":2,"start":1,"action_noise":0.15,"location_history":"[1,3,2]","action_history":"[0,0]","door_history":"[0,0]","location_rts":"[1602,499]","trial_type":"two-door-navigation","trial_index":36,"time_elapsed":744354,"internal_node_id":"0.0-2.0-34.0"},{"group":"hexagon_tri","room_assignment":["yellow","blue","red","green","grey","purple"],"door_color_assignment":["white","black"],"door_generator_assignment":[0,1],"goal":0,"start":2,"action_noise":0.15,"location_history":"[2,1,5,0]","action_history":"[0,1,0]","door_history":"[0,1,0]","location_rts":"[1740,1599,607]","trial_type":"two-door-navigation","trial_index":37,"time_elapsed":754866,"internal_node_id":"0.0-2.0-35.0"},{"group":"hexagon_tri","room_assignment":["yellow","blue","red","green","grey","purple"],"door_color_assignment":["white","black"],"door_generator_assignment":[0,1],"goal":5,"start":0,"action_noise":0.15,"location_history":"[0,1,5]","action_history":"[1,1]","door_history":"[1,1]","location_rts":"[4052,1891]","trial_type":"two-door-navigation","trial_index":38,"time_elapsed":766354,"internal_node_id":"0.0-2.0-36.0"},{"group":"hexagon_tri","room_assignment":["yellow","blue","red","green","grey","purple"],"door_color_assignment":["white","black"],"door_generator_assignment":[0,1],"goal":2,"start":5,"action_noise":0.15,"location_history":"[5,4,0,5,4,0,1,3,2]","action_history":"[0,0,0,0,0,1,0,0]","door_history":"[0,0,0,0,0,1,0,0]","location_rts":"[2596,904,1176,475,676,708,887,437]","trial_type":"two-door-navigation","trial_index":39,"time_elapsed":785879,"internal_node_id":"0.0-2.0-37.0"},{"group":"hexagon_tri","room_assignment":["yellow","blue","red","green","grey","purple"],"door_color_assignment":["white","black"],"door_generator_assignment":[0,1],"goal":1,"start":2,"action_noise":0.15,"location_history":"[2,1]","action_history":"[0]","door_history":"[0]","location_rts":"[10323]","trial_type":"two-door-navigation","trial_index":40,"time_elapsed":800728,"internal_node_id":"0.0-2.0-38.0"},{"group":"hexagon_tri","room_assignment":["yellow","blue","red","green","grey","purple"],"door_color_assignment":["white","black"],"door_generator_assignment":[0,1],"goal":4,"start":1,"action_noise":0.15,"location_history":"[1,3,4]","action_history":"[0,0]","door_history":"[0,0]","location_rts":"[23555,720]","trial_type":"two-door-navigation","trial_index":41,"time_elapsed":830550,"internal_node_id":"0.0-2.0-39.0"},{"group":"hexagon_tri","room_assignment":["yellow","blue","red","green","grey","purple"],"door_color_assignment":["white","black"],"door_generator_assignment":[0,1],"goal":3,"start":4,"action_noise":0.15,"location_history":"[4,0,5,4,0,5,0,5,4,2,3]","action_history":"[0,0,0,1,0,0,0,1,1,0]","door_history":"[0,0,0,1,0,0,0,1,1,0]","location_rts":"[1821,383,413,1061,647,357,406,846,840,577]","trial_type":"two-door-navigation","trial_index":42,"time_elapsed":851618,"internal_node_id":"0.0-2.0-40.0"},{"group":"hexagon_tri","room_assignment":["yellow","blue","red","green","grey","purple"],"door_color_assignment":["white","black"],"door_generator_assignment":[0,1],"goal":5,"start":3,"action_noise":0.15,"location_history":"[3,2,1,5]","action_history":"[1,1,1]","door_history":"[1,1,1]","location_rts":"[2739,1151,901]","trial_type":"two-door-navigation","trial_index":43,"time_elapsed":862974,"internal_node_id":"0.0-2.0-41.0"},{"group":"hexagon_tri","room_assignment":["yellow","blue","red","green","grey","purple"],"door_color_assignment":["white","black"],"door_generator_assignment":[0,1],"goal":3,"start":5,"action_noise":0.15,"location_history":"[5,4,2,1,3]","action_history":"[0,0,1,1]","door_history":"[0,0,1,1]","location_rts":"[3060,468,1692,644]","trial_type":"two-door-navigation","trial_index":44,"time_elapsed":876423,"internal_node_id":"0.0-2.0-42.0"},{"group":"hexagon_tri","room_assignment":["yellow","blue","red","green","grey","purple"],"door_color_assignment":["white","black"],"door_generator_assignment":[0,1],"goal":0,"start":3,"action_noise":0.15,"location_history":"[3,2,1,3,4,0]","action_history":"[0,0,0,1,0]","door_history":"[0,0,0,1,0]","location_rts":"[1502,421,471,1046,838]","trial_type":"two-door-navigation","trial_index":45,"time_elapsed":889314,"internal_node_id":"0.0-2.0-43.0"},{"group":"hexagon_tri","room_assignment":["yellow","blue","red","green","grey","purple"],"door_color_assignment":["white","black"],"door_generator_assignment":[0,1],"goal":2,"start":0,"action_noise":0.15,"location_history":"[0,5,4,2]","action_history":"[0,0,1]","door_history":"[0,0,1]","location_rts":"[7051,830,2814]","trial_type":"two-door-navigation","trial_index":46,"time_elapsed":906573,"internal_node_id":"0.0-2.0-44.0"},{"group":"hexagon_tri","room_assignment":["yellow","blue","red","green","grey","purple"],"door_color_assignment":["white","black"],"door_generator_assignment":[0,1],"goal":4,"start":2,"action_noise":0.15,"location_history":"[2,3,2,1,5,0,5,4]","action_history":"[1,0,0,0,1,0,0]","door_history":"[1,0,0,0,1,0,0]","location_rts":"[4897,2614,833,2012,1770,914,645]","trial_type":"two-door-navigation","trial_index":47,"time_elapsed":930899,"internal_node_id":"0.0-2.0-45.0"},{"group":"hexagon_tri","room_assignment":["yellow","blue","red","green","grey","purple"],"door_color_assignment":["white","black"],"door_generator_assignment":[0,1],"goal":1,"start":4,"action_noise":0.15,"location_history":"[4,0,5,4,0,1]","action_history":"[0,0,0,0,1]","door_history":"[0,0,0,0,1]","location_rts":"[2369,666,549,1354,616]","trial_type":"two-door-navigation","trial_index":48,"time_elapsed":945073,"internal_node_id":"0.0-2.0-46.0"},{"group":"hexagon_tri","room_assignment":["yellow","blue","red","green","grey","purple"],"door_color_assignment":["white","black"],"door_generator_assignment":[0,1],"goal":4,"start":1,"action_noise":0.15,"location_history":"[1,3,2,1,5,0,1,3,4]","action_history":"[0,0,0,1,1,1,0,0]","door_history":"[0,0,0,1,1,1,0,0]","location_rts":"[19886,719,17983,2348,819,502,803,368]","trial_type":"two-door-navigation","trial_index":49,"time_elapsed":1000170,"internal_node_id":"0.0-2.0-47.0"},{"group":"hexagon_tri","room_assignment":["yellow","blue","red","green","grey","purple"],"door_color_assignment":["white","black"],"door_generator_assignment":[0,1],"goal":3,"start":4,"action_noise":0.15,"location_history":"[4,0,5,0,1,3]","action_history":"[0,0,0,1,0]","door_history":"[0,0,0,1,0]","location_rts":"[2978,401,586,1268,636]","trial_type":"two-door-navigation","trial_index":50,"time_elapsed":1014646,"internal_node_id":"0.0-2.0-48.0"},{"group":"hexagon_tri","room_assignment":["yellow","blue","red","green","grey","purple"],"door_color_assignment":["white","black"],"door_generator_assignment":[0,1],"goal":5,"start":3,"action_noise":0.15,"location_history":"[3,2,1,5]","action_history":"[0,0,1]","door_history":"[0,0,1]","location_rts":"[12113,370,894]","trial_type":"two-door-navigation","trial_index":51,"time_elapsed":1034585,"internal_node_id":"0.0-2.0-49.0"},{"view_history":"[{\"page_index\":0,\"viewing_time\":5378}]","rt":5378,"trial_type":"instructions","trial_index":52,"time_elapsed":1040964,"internal_node_id":"0.0-3.0"},{"view_history":"[{\"page_index\":0,\"viewing_time\":4063},{\"page_index\":1,\"viewing_time\":84672}]","rt":88735,"trial_type":"instructions","trial_index":53,"time_elapsed":1130700,"internal_node_id":"0.0-4.0"},{"group":"hexagon_tri","fractal_assignment":["../images/gry_blk.png","../images/ylw_slt.png","../images/pnk_blu.png","../images/cyn_red.png","../images/blu_wht.png","../images/org_blu.png"],"mutagen_generator_assignment":[1,0],"goal":4,"start":0,"action_noise":0.15,"location_history":"[0,1,3,2,1,5,0,1,3,4]","action_history":"[1,0,0,0,1,1,1,1,1]","mutagen_history":"[0,1,1,1,0,0,0,0,0]","location_rts":"[6295,4177,3054,1695,1455,1641,1240,1204,1014]","trial_type":"fractal-mutation","trial_index":54,"time_elapsed":1165161,"internal_node_id":"0.0-5.0-0.0"},{"group":"hexagon_tri","fractal_assignment":["../images/gry_blk.png","../images/ylw_slt.png","../images/pnk_blu.png","../images/cyn_red.png","../images/blu_wht.png","../images/org_blu.png"],"mutagen_generator_assignment":[1,0],"goal":3,"start":4,"action_noise":0.15,"location_history":"[4,2,3]","action_history":"[1,1]","mutagen_history":"[0,0]","location_rts":"[20300,1436]","trial_type":"fractal-mutation","trial_index":55,"time_elapsed":1192457,"internal_node_id":"0.0-5.0-1.0"},{"group":"hexagon_tri","fractal_assignment":["../images/gry_blk.png","../images/ylw_slt.png","../images/pnk_blu.png","../images/cyn_red.png","../images/blu_wht.png","../images/org_blu.png"],"mutagen_generator_assignment":[1,0],"goal":5,"start":3,"action_noise":0.15,"location_history":"[3,2,1,3,4,2,1,5]","action_history":"[0,0,0,0,1,1,1]","mutagen_history":"[1,1,1,1,0,0,0]","location_rts":"[2041,516,560,879,1249,731,1030]","trial_type":"fractal-mutation","trial_index":56,"time_elapsed":1210214,"internal_node_id":"0.0-5.0-2.0"},{"group":"hexagon_tri","fractal_assignment":["../images/gry_blk.png","../images/ylw_slt.png","../images/pnk_blu.png","../images/cyn_red.png","../images/blu_wht.png","../images/org_blu.png"],"mutagen_generator_assignment":[1,0],"goal":2,"start":5,"action_noise":0.15,"location_history":"[5,4,2]","action_history":"[0,0]","mutagen_history":"[1,1]","location_rts":"[1711,558]","trial_type":"fractal-mutation","trial_index":57,"time_elapsed":1218055,"internal_node_id":"0.0-5.0-3.0"},{"group":"hexagon_tri","fractal_assignment":["../images/gry_blk.png","../images/ylw_slt.png","../images/pnk_blu.png","../images/cyn_red.png","../images/blu_wht.png","../images/org_blu.png"],"mutagen_generator_assignment":[1,0],"goal":1,"start":2,"action_noise":0.15,"location_history":"[2,3,4,2,1]","action_history":"[1,1,1,0]","mutagen_history":"[0,0,0,1]","location_rts":"[2570,721,600,1625]","trial_type":"fractal-mutation","trial_index":58,"time_elapsed":1231202,"internal_node_id":"0.0-5.0-4.0"},{"group":"hexagon_tri","fractal_assignment":["../images/gry_blk.png","../images/ylw_slt.png","../images/pnk_blu.png","../images/cyn_red.png","../images/blu_wht.png","../images/org_blu.png"],"mutagen_generator_assignment":[1,0],"goal":4,"start":1,"action_noise":0.15,"location_history":"[1,3,4]","action_history":"[0,1]","mutagen_history":"[1,0]","location_rts":"[10227,818]","trial_type":"fractal-mutation","trial_index":59,"time_elapsed":1247825,"internal_node_id":"0.0-5.0-5.0"},{"group":"hexagon_tri","fractal_assignment":["../images/gry_blk.png","../images/ylw_slt.png","../images/pnk_blu.png","../images/cyn_red.png","../images/blu_wht.png","../images/org_blu.png"],"mutagen_generator_assignment":[1,0],"goal":1,"start":4,"action_noise":0.15,"location_history":"[4,0,5,4,2,1]","action_history":"[0,0,0,1,1]","mutagen_history":"[1,1,1,0,0]","location_rts":"[1555,576,434,936,1070]","trial_type":"fractal-mutation","trial_index":60,"time_elapsed":1261066,"internal_node_id":"0.0-5.0-6.0"},{"group":"hexagon_tri","fractal_assignment":["../images/gry_blk.png","../images/ylw_slt.png","../images/pnk_blu.png","../images/cyn_red.png","../images/blu_wht.png","../images/org_blu.png"],"mutagen_generator_assignment":[1,0],"goal":5,"start":1,"action_noise":0.15,"location_history":"[1,5]","action_history":"[1]","mutagen_history":"[0]","location_rts":"[807]","trial_type":"fractal-mutation","trial_index":61,"time_elapsed":1266411,"internal_node_id":"0.0-5.0-7.0"},{"group":"hexagon_tri","fractal_assignment":["../images/gry_blk.png","../images/ylw_slt.png","../images/pnk_blu.png","../images/cyn_red.png","../images/blu_wht.png","../images/org_blu.png"],"mutagen_generator_assignment":[1,0],"goal":0,"start":5,"action_noise":0.15,"location_history":"[5,4,0]","action_history":"[0,0]","mutagen_history":"[1,1]","location_rts":"[1259,414]","trial_type":"fractal-mutation","trial_index":62,"time_elapsed":1273662,"internal_node_id":"0.0-5.0-8.0"},{"group":"hexagon_tri","fractal_assignment":["../images/gry_blk.png","../images/ylw_slt.png","../images/pnk_blu.png","../images/cyn_red.png","../images/blu_wht.png","../images/org_blu.png"],"mutagen_generator_assignment":[1,0],"goal":2,"start":0,"action_noise":0.15,"location_history":"[0,5,4,0,1,3,2]","action_history":"[0,0,0,1,0,0]","mutagen_history":"[1,1,1,0,1,1]","location_rts":"[1620,442,452,745,459,629]","trial_type":"fractal-mutation","trial_index":63,"time_elapsed":1287707,"internal_node_id":"0.0-5.0-9.0"},{"group":"hexagon_tri","fractal_assignment":["../images/gry_blk.png","../images/ylw_slt.png","../images/pnk_blu.png","../images/cyn_red.png","../images/blu_wht.png","../images/org_blu.png"],"mutagen_generator_assignment":[1,0],"goal":3,"start":2,"action_noise":0.15,"location_history":"[2,3]","action_history":"[1]","mutagen_history":"[0]","location_rts":"[9560]","trial_type":"fractal-mutation","trial_index":64,"time_elapsed":1301802,"internal_node_id":"0.0-5.0-10.0"},{"group":"hexagon_tri","fractal_assignment":["../images/gry_blk.png","../images/ylw_slt.png","../images/pnk_blu.png","../images/cyn_red.png","../images/blu_wht.png","../images/org_blu.png"],"mutagen_generator_assignment":[1,0],"goal":0,"start":3,"action_noise":0.15,"location_history":"[3,2,1,3,2,3,4,2,3,2,3,2,1,5,0]","action_history":"[0,0,0,0,1,1,1,1,0,0,0,0,1,0]","mutagen_history":"[1,1,1,1,0,0,0,0,1,1,1,1,0,1]","location_rts":"[1479,539,463,549,769,826,913,968,506,1246,530,469,506,820]","trial_type":"fractal-mutation","trial_index":65,"time_elapsed":1330349,"internal_node_id":"0.0-5.0-11.0"},{"group":"hexagon_tri","fractal_assignment":["../images/gry_blk.png","../images/ylw_slt.png","../images/pnk_blu.png","../images/cyn_red.png","../images/blu_wht.png","../images/org_blu.png"],"mutagen_generator_assignment":[1,0],"goal":2,"start":0,"action_noise":0.15,"location_history":"[0,5,4,0,1,3,2]","action_history":"[0,0,0,1,0,0]","mutagen_history":"[1,1,1,0,1,1]","location_rts":"[2375,548,485,762,474,517]","trial_type":"fractal-mutation","trial_index":66,"time_elapsed":1345214,"internal_node_id":"0.0-5.0-12.0"},{"group":"hexagon_tri","fractal_assignment":["../images/gry_blk.png","../images/ylw_slt.png","../images/pnk_blu.png","../images/cyn_red.png","../images/blu_wht.png","../images/org_blu.png"],"mutagen_generator_assignment":[1,0],"goal":5,"start":2,"action_noise":0.15,"location_history":"[2,1,5]","action_history":"[0,1]","mutagen_history":"[1,0]","location_rts":"[2980,561]","trial_type":"fractal-mutation","trial_index":67,"time_elapsed":1354312,"internal_node_id":"0.0-5.0-13.0"},{"group":"hexagon_tri","fractal_assignment":["../images/gry_blk.png","../images/ylw_slt.png","../images/pnk_blu.png","../images/cyn_red.png","../images/blu_wht.png","../images/org_blu.png"],"mutagen_generator_assignment":[1,0],"goal":4,"start":5,"action_noise":0.15,"location_history":"[5,0,1,3,2,1,5,0,1,5,4]","action_history":"[1,1,0,0,0,1,1,1,1,0]","mutagen_history":"[0,0,1,1,1,0,0,0,0,1]","location_rts":"[1402,889,1101,5425,716,1240,814,1033,1003,831]","trial_type":"fractal-mutation","trial_index":68,"time_elapsed":1382577,"internal_node_id":"0.0-5.0-14.0"},{"group":"hexagon_tri","fractal_assignment":["../images/gry_blk.png","../images/ylw_slt.png","../images/pnk_blu.png","../images/cyn_red.png","../images/blu_wht.png","../images/org_blu.png"],"mutagen_generator_assignment":[1,0],"goal":3,"start":4,"action_noise":0.15,"location_history":"[4,2,3]","action_history":"[0,1]","mutagen_history":"[1,0]","location_rts":"[14802,724]","trial_type":"fractal-mutation","trial_index":69,"time_elapsed":1403672,"internal_node_id":"0.0-5.0-15.0"},{"group":"hexagon_tri","fractal_assignment":["../images/gry_blk.png","../images/ylw_slt.png","../images/pnk_blu.png","../images/cyn_red.png","../images/blu_wht.png","../images/org_blu.png"],"mutagen_generator_assignment":[1,0],"goal":1,"start":3,"action_noise":0.15,"location_history":"[3,4,0,5,4,0,5,4,2,3,4,0,5,0,1]","action_history":"[1,0,0,0,0,0,1,1,1,0,0,0,0,1]","mutagen_history":"[0,1,1,1,1,1,0,0,0,1,1,1,1,0]","location_rts":"[8012,1433,597,496,681,596,921,1210,5374,507,500,375,423,454]","trial_type":"fractal-mutation","trial_index":70,"time_elapsed":1443214,"internal_node_id":"0.0-5.0-16.0"},{"group":"hexagon_tri","fractal_assignment":["../images/gry_blk.png","../images/ylw_slt.png","../images/pnk_blu.png","../images/cyn_red.png","../images/blu_wht.png","../images/org_blu.png"],"mutagen_generator_assignment":[1,0],"goal":5,"start":1,"action_noise":0.15,"location_history":"[1,5]","action_history":"[1]","mutagen_history":"[0]","location_rts":"[6294]","trial_type":"fractal-mutation","trial_index":71,"time_elapsed":1454039,"internal_node_id":"0.0-5.0-17.0"},{"group":"hexagon_tri","fractal_assignment":["../images/gry_blk.png","../images/ylw_slt.png","../images/pnk_blu.png","../images/cyn_red.png","../images/blu_wht.png","../images/org_blu.png"],"mutagen_generator_assignment":[1,0],"goal":4,"start":5,"action_noise":0.15,"location_history":"[5,0,1,3,2,1,3,4]","action_history":"[1,1,0,0,0,0,1]","mutagen_history":"[0,0,1,1,1,1,0]","location_rts":"[2766,937,560,1253,463,482,1034]","trial_type":"fractal-mutation","trial_index":72,"time_elapsed":1472268,"internal_node_id":"0.0-5.0-18.0"},{"group":"hexagon_tri","fractal_assignment":["../images/gry_blk.png","../images/ylw_slt.png","../images/pnk_blu.png","../images/cyn_red.png","../images/blu_wht.png","../images/org_blu.png"],"mutagen_generator_assignment":[1,0],"goal":0,"start":4,"action_noise":0.15,"location_history":"[4,0]","action_history":"[0]","mutagen_history":"[1]","location_rts":"[20776]","trial_type":"fractal-mutation","trial_index":73,"time_elapsed":1497586,"internal_node_id":"0.0-5.0-19.0"},{"group":"hexagon_tri","fractal_assignment":["../images/gry_blk.png","../images/ylw_slt.png","../images/pnk_blu.png","../images/cyn_red.png","../images/blu_wht.png","../images/org_blu.png"],"mutagen_generator_assignment":[1,0],"goal":1,"start":0,"action_noise":0.15,"location_history":"[0,1]","action_history":"[1]","mutagen_history":"[0]","location_rts":"[8642]","trial_type":"fractal-mutation","trial_index":74,"time_elapsed":1510759,"internal_node_id":"0.0-5.0-20.0"},{"group":"hexagon_tri","fractal_assignment":["../images/gry_blk.png","../images/ylw_slt.png","../images/pnk_blu.png","../images/cyn_red.png","../images/blu_wht.png","../images/org_blu.png"],"mutagen_generator_assignment":[1,0],"goal":3,"start":1,"action_noise":0.15,"location_history":"[1,3]","action_history":"[0]","mutagen_history":"[1]","location_rts":"[1951]","trial_type":"fractal-mutation","trial_index":75,"time_elapsed":1517255,"internal_node_id":"0.0-5.0-21.0"},{"group":"hexagon_tri","fractal_assignment":["../images/gry_blk.png","../images/ylw_slt.png","../images/pnk_blu.png","../images/cyn_red.png","../images/blu_wht.png","../images/org_blu.png"],"mutagen_generator_assignment":[1,0],"goal":2,"start":3,"action_noise":0.15,"location_history":"[3,2]","action_history":"[0]","mutagen_history":"[1]","location_rts":"[19119]","trial_type":"fractal-mutation","trial_index":76,"time_elapsed":1540923,"internal_node_id":"0.0-5.0-22.0"},{"group":"hexagon_tri","fractal_assignment":["../images/gry_blk.png","../images/ylw_slt.png","../images/pnk_blu.png","../images/cyn_red.png","../images/blu_wht.png","../images/org_blu.png"],"mutagen_generator_assignment":[1,0],"goal":0,"start":2,"action_noise":0.15,"location_history":"[2,3,2,3,4,2,3,2,3,4,2,3,4,0]","action_history":"[0,0,1,1,0,0,0,1,1,1,0,0,0]","mutagen_history":"[1,1,0,0,1,1,1,0,0,0,1,1,1]","location_rts":"[3209,850,945,1239,6902,1149,896,616,679,540,464,449,388]","trial_type":"fractal-mutation","trial_index":77,"time_elapsed":1576213,"internal_node_id":"0.0-5.0-23.0"},{"group":"hexagon_tri","fractal_assignment":["../images/gry_blk.png","../images/ylw_slt.png","../images/pnk_blu.png","../images/cyn_red.png","../images/blu_wht.png","../images/org_blu.png"],"mutagen_generator_assignment":[1,0],"goal":3,"start":0,"action_noise":0.15,"location_history":"[0,5,0,1,5,4,2,1,3]","action_history":"[0,1,1,1,0,0,0,0]","mutagen_history":"[1,0,0,0,1,1,1,1]","location_rts":"[5391,1104,723,407,445,469,406,1168]","trial_type":"fractal-mutation","trial_index":78,"time_elapsed":1598101,"internal_node_id":"0.0-5.0-24.0"},{"group":"hexagon_tri","fractal_assignment":["../images/gry_blk.png","../images/ylw_slt.png","../images/pnk_blu.png","../images/cyn_red.png","../images/blu_wht.png","../images/org_blu.png"],"mutagen_generator_assignment":[1,0],"goal":1,"start":3,"action_noise":0.15,"location_history":"[3,4,2,3,2,1]","action_history":"[1,1,0,0,0]","mutagen_history":"[0,0,1,1,1]","location_rts":"[910,744,1055,522,590]","trial_type":"fractal-mutation","trial_index":79,"time_elapsed":1610584,"internal_node_id":"0.0-5.0-25.0"},{"group":"hexagon_tri","fractal_assignment":["../images/gry_blk.png","../images/ylw_slt.png","../images/pnk_blu.png","../images/cyn_red.png","../images/blu_wht.png","../images/org_blu.png"],"mutagen_generator_assignment":[1,0],"goal":2,"start":1,"action_noise":0.15,"location_history":"[1,5,0,1,3,4,2]","action_history":"[1,1,1,0,0,0]","mutagen_history":"[0,0,0,1,1,1]","location_rts":"[634,519,519,612,543,777]","trial_type":"fractal-mutation","trial_index":80,"time_elapsed":1623901,"internal_node_id":"0.0-5.0-26.0"},{"group":"hexagon_tri","fractal_assignment":["../images/gry_blk.png","../images/ylw_slt.png","../images/pnk_blu.png","../images/cyn_red.png","../images/blu_wht.png","../images/org_blu.png"],"mutagen_generator_assignment":[1,0],"goal":5,"start":2,"action_noise":0.15,"location_history":"[2,3,4,2,1,3,4,2,1,3,2,3,2,1,5]","action_history":"[1,1,1,0,0,1,1,0,0,0,1,0,1,1]","mutagen_history":"[0,0,0,1,1,0,0,1,1,1,0,1,0,0]","location_rts":"[709,572,488,489,613,452,474,712,455,660,584,586,657,603]","trial_type":"fractal-mutation","trial_index":81,"time_elapsed":1649916,"internal_node_id":"0.0-5.0-27.0"},{"group":"hexagon_tri","fractal_assignment":["../images/gry_blk.png","../images/ylw_slt.png","../images/pnk_blu.png","../images/cyn_red.png","../images/blu_wht.png","../images/org_blu.png"],"mutagen_generator_assignment":[1,0],"goal":4,"start":5,"action_noise":0.15,"location_history":"[5,4]","action_history":"[0]","mutagen_history":"[1]","location_rts":"[985]","trial_type":"fractal-mutation","trial_index":82,"time_elapsed":1655441,"internal_node_id":"0.0-5.0-28.0"},{"group":"hexagon_tri","fractal_assignment":["../images/gry_blk.png","../images/ylw_slt.png","../images/pnk_blu.png","../images/cyn_red.png","../images/blu_wht.png","../images/org_blu.png"],"mutagen_generator_assignment":[1,0],"goal":5,"start":4,"action_noise":0.15,"location_history":"[4,2,1,3,2,3,2,1,3,4,2,1,3,2,3,2,1,3,2,1,5]","action_history":"[1,0,0,0,1,0,0,0,1,1,0,0,0,1,0,0,1,0,0,0]","mutagen_history":"[0,1,1,1,0,1,1,1,0,0,1,1,1,0,1,1,0,1,1,1]","location_rts":"[1970,922,409,421,822,699,402,674,1095,760,1059,399,656,693,699,471,726,966,436,536]","trial_type":"fractal-mutation","trial_index":83,"time_elapsed":1694413,"internal_node_id":"0.0-5.0-29.0"},{"group":"hexagon_tri","fractal_assignment":["../images/gry_blk.png","../images/ylw_slt.png","../images/pnk_blu.png","../images/cyn_red.png","../images/blu_wht.png","../images/org_blu.png"],"mutagen_generator_assignment":[1,0],"goal":3,"start":5,"action_noise":0.15,"location_history":"[5,4,0,1,5,0,5,4,2,3]","action_history":"[0,0,1,1,0,0,1,1,1]","mutagen_history":"[1,1,0,0,1,1,0,0,0]","location_rts":"[1000,427,390,715,937,1110,529,514,573]","trial_type":"fractal-mutation","trial_index":84,"time_elapsed":1713421,"internal_node_id":"0.0-5.0-30.0"},{"group":"hexagon_tri","fractal_assignment":["../images/gry_blk.png","../images/ylw_slt.png","../images/pnk_blu.png","../images/cyn_red.png","../images/blu_wht.png","../images/org_blu.png"],"mutagen_generator_assignment":[1,0],"goal":0,"start":3,"action_noise":0.15,"location_history":"[3,2,1,3,4,0]","action_history":"[0,0,0,1,1]","mutagen_history":"[1,1,1,0,0]","location_rts":"[5258,418,402,468,402]","trial_type":"fractal-mutation","trial_index":85,"time_elapsed":1729030,"internal_node_id":"0.0-5.0-31.0"},{"group":"hexagon_tri","fractal_assignment":["../images/gry_blk.png","../images/ylw_slt.png","../images/pnk_blu.png","../images/cyn_red.png","../images/blu_wht.png","../images/org_blu.png"],"mutagen_generator_assignment":[1,0],"goal":4,"start":0,"action_noise":0.15,"location_history":"[0,1,3,4]","action_history":"[0,0,1]","mutagen_history":"[1,1,0]","location_rts":"[764,7201,15972]","trial_type":"fractal-mutation","trial_index":86,"time_elapsed":1759575,"internal_node_id":"0.0-5.0-32.0"},{"group":"hexagon_tri","fractal_assignment":["../images/gry_blk.png","../images/ylw_slt.png","../images/pnk_blu.png","../images/cyn_red.png","../images/blu_wht.png","../images/org_blu.png"],"mutagen_generator_assignment":[1,0],"goal":1,"start":4,"action_noise":0.15,"location_history":"[4,2,1]","action_history":"[0,0]","mutagen_history":"[1,1]","location_rts":"[4781,646]","trial_type":"fractal-mutation","trial_index":87,"time_elapsed":1770577,"internal_node_id":"0.0-5.0-33.0"},{"group":"hexagon_tri","fractal_assignment":["../images/gry_blk.png","../images/ylw_slt.png","../images/pnk_blu.png","../images/cyn_red.png","../images/blu_wht.png","../images/org_blu.png"],"mutagen_generator_assignment":[1,0],"goal":2,"start":1,"action_noise":0.15,"location_history":"[1,3,2]","action_history":"[1,0]","mutagen_history":"[0,1]","location_rts":"[1602,476]","trial_type":"fractal-mutation","trial_index":88,"time_elapsed":1778218,"internal_node_id":"0.0-5.0-34.0"},{"group":"hexagon_tri","fractal_assignment":["../images/gry_blk.png","../images/ylw_slt.png","../images/pnk_blu.png","../images/cyn_red.png","../images/blu_wht.png","../images/org_blu.png"],"mutagen_generator_assignment":[1,0],"goal":0,"start":2,"action_noise":0.15,"location_history":"[2,3,2,1,5,4,0]","action_history":"[0,0,0,1,0,0]","mutagen_history":"[1,1,1,0,1,1]","location_rts":"[1241,499,865,609,666,448]","trial_type":"fractal-mutation","trial_index":89,"time_elapsed":1792270,"internal_node_id":"0.0-5.0-35.0"},{"group":"hexagon_tri","fractal_assignment":["../images/gry_blk.png","../images/ylw_slt.png","../images/pnk_blu.png","../images/cyn_red.png","../images/blu_wht.png","../images/org_blu.png"],"mutagen_generator_assignment":[1,0],"goal":5,"start":0,"action_noise":0.15,"location_history":"[0,1,3,2,1,3,4,0,5]","action_history":"[1,0,0,0,0,1,0,0]","mutagen_history":"[0,1,1,1,1,0,1,1]","location_rts":"[983,488,376,390,514,623,443,426]","trial_type":"fractal-mutation","trial_index":90,"time_elapsed":1808292,"internal_node_id":"0.0-5.0-36.0"},{"group":"hexagon_tri","fractal_assignment":["../images/gry_blk.png","../images/ylw_slt.png","../images/pnk_blu.png","../images/cyn_red.png","../images/blu_wht.png","../images/org_blu.png"],"mutagen_generator_assignment":[1,0],"goal":2,"start":5,"action_noise":0.15,"location_history":"[5,4,2]","action_history":"[0,1]","mutagen_history":"[1,0]","location_rts":"[928,890]","trial_type":"fractal-mutation","trial_index":91,"time_elapsed":1815679,"internal_node_id":"0.0-5.0-37.0"},{"group":"hexagon_tri","fractal_assignment":["../images/gry_blk.png","../images/ylw_slt.png","../images/pnk_blu.png","../images/cyn_red.png","../images/blu_wht.png","../images/org_blu.png"],"mutagen_generator_assignment":[1,0],"goal":1,"start":2,"action_noise":0.15,"location_history":"[2,3,4,2,3,4,0,1]","action_history":"[0,1,1,1,1,0,0]","mutagen_history":"[1,0,0,0,0,1,1]","location_rts":"[3255,641,3828,624,797,581,750]","trial_type":"fractal-mutation","trial_index":92,"time_elapsed":1836890,"internal_node_id":"0.0-5.0-38.0"},{"group":"hexagon_tri","fractal_assignment":["../images/gry_blk.png","../images/ylw_slt.png","../images/pnk_blu.png","../images/cyn_red.png","../images/blu_wht.png","../images/org_blu.png"],"mutagen_generator_assignment":[1,0],"goal":4,"start":1,"action_noise":0.15,"location_history":"[1,5,0,1,5,4]","action_history":"[0,1,1,1,0]","mutagen_history":"[1,0,0,0,1]","location_rts":"[18126,500,510,583,519]","trial_type":"fractal-mutation","trial_index":93,"time_elapsed":1865783,"internal_node_id":"0.0-5.0-39.0"},{"group":"hexagon_tri","fractal_assignment":["../images/gry_blk.png","../images/ylw_slt.png","../images/pnk_blu.png","../images/cyn_red.png","../images/blu_wht.png","../images/org_blu.png"],"mutagen_generator_assignment":[1,0],"goal":3,"start":4,"action_noise":0.15,"location_history":"[4,2,3]","action_history":"[1,0]","mutagen_history":"[0,1]","location_rts":"[812,685]","trial_type":"fractal-mutation","trial_index":94,"time_elapsed":1872846,"internal_node_id":"0.0-5.0-40.0"},{"group":"hexagon_tri","fractal_assignment":["../images/gry_blk.png","../images/ylw_slt.png","../images/pnk_blu.png","../images/cyn_red.png","../images/blu_wht.png","../images/org_blu.png"],"mutagen_generator_assignment":[1,0],"goal":5,"start":3,"action_noise":0.15,"location_history":"[3,4,2,3,2,1,5]","action_history":"[1,1,0,0,0,1]","mutagen_history":"[0,0,1,1,1,0]","location_rts":"[1092,507,586,949,526,678]","trial_type":"fractal-mutation","trial_index":95,"time_elapsed":1886893,"internal_node_id":"0.0-5.0-41.0"},{"group":"hexagon_tri","fractal_assignment":["../images/gry_blk.png","../images/ylw_slt.png","../images/pnk_blu.png","../images/cyn_red.png","../images/blu_wht.png","../images/org_blu.png"],"mutagen_generator_assignment":[1,0],"goal":3,"start":5,"action_noise":0.15,"location_history":"[5,0,5,4,0,1,3]","action_history":"[1,0,0,0,1,0]","mutagen_history":"[0,1,1,1,0,1]","location_rts":"[11286,684,790,474,579,442]","trial_type":"fractal-mutation","trial_index":96,"time_elapsed":1910866,"internal_node_id":"0.0-5.0-42.0"},{"group":"hexagon_tri","fractal_assignment":["../images/gry_blk.png","../images/ylw_slt.png","../images/pnk_blu.png","../images/cyn_red.png","../images/blu_wht.png","../images/org_blu.png"],"mutagen_generator_assignment":[1,0],"goal":0,"start":3,"action_noise":0.15,"location_history":"[3,2,1,5,0]","action_history":"[0,1,1,1]","mutagen_history":"[1,0,0,0]","location_rts":"[1075,783,776,890]","trial_type":"fractal-mutation","trial_index":97,"time_elapsed":1922022,"internal_node_id":"0.0-5.0-43.0"},{"group":"hexagon_tri","fractal_assignment":["../images/gry_blk.png","../images/ylw_slt.png","../images/pnk_blu.png","../images/cyn_red.png","../images/blu_wht.png","../images/org_blu.png"],"mutagen_generator_assignment":[1,0],"goal":2,"start":0,"action_noise":0.15,"location_history":"[0,1,3,4,2]","action_history":"[0,0,0,1]","mutagen_history":"[1,1,1,0]","location_rts":"[1791,529,583,518]","trial_type":"fractal-mutation","trial_index":98,"time_elapsed":1933078,"internal_node_id":"0.0-5.0-44.0"},{"group":"hexagon_tri","fractal_assignment":["../images/gry_blk.png","../images/ylw_slt.png","../images/pnk_blu.png","../images/cyn_red.png","../images/blu_wht.png","../images/org_blu.png"],"mutagen_generator_assignment":[1,0],"goal":4,"start":2,"action_noise":0.15,"location_history":"[2,1,3,2,1,3,2,1,5,4]","action_history":"[1,0,0,0,1,0,0,0,1]","mutagen_history":"[0,1,1,1,0,1,1,1,0]","location_rts":"[16448,506,609,804,871,406,600,344,960]","trial_type":"fractal-mutation","trial_index":99,"time_elapsed":1967433,"internal_node_id":"0.0-5.0-45.0"},{"group":"hexagon_tri","fractal_assignment":["../images/gry_blk.png","../images/ylw_slt.png","../images/pnk_blu.png","../images/cyn_red.png","../images/blu_wht.png","../images/org_blu.png"],"mutagen_generator_assignment":[1,0],"goal":1,"start":4,"action_noise":0.15,"location_history":"[4,0,5,0,1]","action_history":"[0,0,1,1]","mutagen_history":"[1,1,0,0]","location_rts":"[764,756,1270,794]","trial_type":"fractal-mutation","trial_index":100,"time_elapsed":1978647,"internal_node_id":"0.0-5.0-46.0"},{"group":"hexagon_tri","fractal_assignment":["../images/gry_blk.png","../images/ylw_slt.png","../images/pnk_blu.png","../images/cyn_red.png","../images/blu_wht.png","../images/org_blu.png"],"mutagen_generator_assignment":[1,0],"goal":4,"start":1,"action_noise":0.15,"location_history":"[1,5,4]","action_history":"[1,0]","mutagen_history":"[0,1]","location_rts":"[4592,842]","trial_type":"fractal-mutation","trial_index":101,"time_elapsed":1989651,"internal_node_id":"0.0-5.0-47.0"},{"group":"hexagon_tri","fractal_assignment":["../images/gry_blk.png","../images/ylw_slt.png","../images/pnk_blu.png","../images/cyn_red.png","../images/blu_wht.png","../images/org_blu.png"],"mutagen_generator_assignment":[1,0],"goal":3,"start":4,"action_noise":0.15,"location_history":"[4,0,5,4,2,1,3]","action_history":"[0,0,0,1,0,0]","mutagen_history":"[1,1,1,0,1,1]","location_rts":"[975,7655,448,811,460,653]","trial_type":"fractal-mutation","trial_index":102,"time_elapsed":2010384,"internal_node_id":"0.0-5.0-48.0"},{"group":"hexagon_tri","fractal_assignment":["../images/gry_blk.png","../images/ylw_slt.png","../images/pnk_blu.png","../images/cyn_red.png","../images/blu_wht.png","../images/org_blu.png"],"mutagen_generator_assignment":[1,0],"goal":5,"start":3,"action_noise":0.15,"location_history":"[3,4,0,5]","action_history":"[1,0,0]","mutagen_history":"[0,1,1]","location_rts":"[4196,394,274]","trial_type":"fractal-mutation","trial_index":103,"time_elapsed":2021863,"internal_node_id":"0.0-5.0-49.0"},{"view_history":"[{\"page_index\":0,\"viewing_time\":15533}]","rt":15533,"trial_type":"instructions","trial_index":104,"time_elapsed":2038397,"internal_node_id":"0.0-6.0"},{"rt":5363,"responses":"{\"Q0\":\"no problems\"}","trial_type":"survey-text","trial_index":105,"time_elapsed":2044766,"internal_node_id":"0.0-7.0"}]