[{"view_history":"[{\"page_index\":0,\"viewing_time\":423167},{\"page_index\":1,\"viewing_time\":23219},{\"page_index\":2,\"viewing_time\":25520},{\"page_index\":3,\"viewing_time\":11364}]","rt":483270,"trial_type":"instructions","trial_index":0,"time_elapsed":483270,"internal_node_id":"0.0-0.0"},{"view_history":"[{\"page_index\":0,\"viewing_time\":3400},{\"page_index\":1,\"viewing_time\":47783}]","rt":51183,"trial_type":"instructions","trial_index":1,"time_elapsed":535456,"internal_node_id":"0.0-1.0"},{"group":"hexagon_tri","room_assignment":["yellow","green","red","purple","blue","grey"],"door_color_assignment":["white","black"],"door_generator_assignment":[0,1],"goal":4,"start":0,"action_noise":0.15,"location_history":"[0,5,4]","action_history":"[0,0]","door_history":"[0,0]","location_rts":"[9094,5435]","trial_type":"two-door-navigation","trial_index":2,"time_elapsed":555557,"internal_node_id":"0.0-2.0-0.0"},{"group":"hexagon_tri","room_assignment":["yellow","green","red","purple","blue","grey"],"door_color_assignment":["white","black"],"door_generator_assignment":[0,1],"goal":3,"start":4,"action_noise":0.15,"location_history":"[4,0,5,4,0,5,4,2,3]","action_history":"[0,0,0,0,0,0,1,0]","door_history":"[0,0,0,0,0,0,1,0]","location_rts":"[3705,2402,3228,1360,1662,1214,2391,4490]","trial_type":"two-door-navigation","trial_index":3,"time_elapsed":587712,"internal_node_id":"0.0-2.0-1.0"},{"group":"hexagon_tri","room_assignment":["yellow","green","red","purple","blue","grey"],"door_color_assignment":["white","black"],"door_generator_assignment":[0,1],"goal":5,"start":3,"action_noise":0.15,"location_history":"[3,2,1,5]","action_history":"[0,1,1]","door_history":"[0,1,1]","location_rts":"[3358,4160,1303]","trial_type":"two-door-navigation","trial_index":4,"time_elapsed":603108,"internal_node_id":"0.0-2.0-2.0"},{"group":"hexagon_tri","room_assignment":["yellow","green","red","purple","blue","grey"],"door_color_assignment":["white","black"],"door_generator_assignment":[0,1],"goal":2,"start":5,"action_noise":0.15,"location_history":"[5,4,0,1,5,4,2]","action_history":"[0,1,1,1,1,1]","door_history":"[0,1,1,1,1,1]","location_rts":"[4073,1044,1280,1618,1093,1025]","trial_type":"two-door-navigation","trial_index":5,"time_elapsed":622885,"internal_node_id":"0.0-2.0-3.0"},{"group":"hexagon_tri","room_assignment":["yellow","green","red","purple","blue","grey"],"door_color_assignment":["white","black"],"door_generator_assignment":[0,1],"goal":1,"start":2,"action_noise":0.15,"location_history":"[2,1]","action_history":"[0]","door_history":"[0]","location_rts":"[2900]","trial_type":"two-door-navigation","trial_index":6,"time_elapsed":630315,"internal_node_id":"0.0-2.0-4.0"},{"group":"hexagon_tri","room_assignment":["yellow","green","red","purple","blue","grey"],"door_color_assignment":["white","black"],"door_generator_assignment":[0,1],"goal":4,"start":1,"action_noise":0.15,"location_history":"[1,3,2,1,3,4]","action_history":"[0,0,0,0,0]","door_history":"[0,0,0,0,0]","location_rts":"[2131,1745,1250,1426,1320]","trial_type":"two-door-navigation","trial_index":7,"time_elapsed":646798,"internal_node_id":"0.0-2.0-5.0"},{"group":"hexagon_tri","room_assignment":["yellow","green","red","purple","blue","grey"],"door_color_assignment":["white","black"],"door_generator_assignment":[0,1],"goal":1,"start":4,"action_noise":0.15,"location_history":"[4,0,1]","action_history":"[0,0]","door_history":"[0,0]","location_rts":"[2171,1136]","trial_type":"two-door-navigation","trial_index":8,"time_elapsed":655653,"internal_node_id":"0.0-2.0-6.0"},{"group":"hexagon_tri","room_assignment":["yellow","green","red","purple","blue","grey"],"door_color_assignment":["white","black"],"door_generator_assignment":[0,1],"goal":5,"start":1,"action_noise":0.15,"location_history":"[1,3,2,1,3,2,1,3,2,1,3,4,2,3,4,2,1,5]","action_history":"[0,0,0,0,0,0,0,1,1,1,1,1,1,1,1,1,0]","door_history":"[0,0,0,0,0,0,0,1,1,1,1,1,1,1,1,1,0]","location_rts":"[1954,1628,2065,1166,811,862,903,1115,1046,987,876,847,810,927,748,852,959]","trial_type":"two-door-navigation","trial_index":9,"time_elapsed":695097,"internal_node_id":"0.0-2.0-7.0"},{"group":"hexagon_tri","room_assignment":["yellow","green","red","purple","blue","grey"],"door_color_assignment":["white","black"],"door_generator_assignment":[0,1],"goal":0,"start":5,"action_noise":0.15,"location_history":"[5,4,0]","action_history":"[0,0]","door_history":"[0,0]","location_rts":"[1969,1106]","trial_type":"two-door-navigation","trial_index":10,"time_elapsed":703719,"internal_node_id":"0.0-2.0-8.0"},{"group":"hexagon_tri","room_assignment":["yellow","green","red","purple","blue","grey"],"door_color_assignment":["white","black"],"door_generator_assignment":[0,1],"goal":2,"start":0,"action_noise":0.15,"location_history":"[0,5,0,1,5,4,0,5,0,1,5,0,1,5,4,0,5,4,0,5,0,5,4,2]","action_history":"[0,1,1,1,0,0,0,0,1,1,1,1,1,0,0,0,0,0,0,1,0,0,1]","door_history":"[0,1,1,1,0,0,0,0,1,1,1,1,1,0,0,0,0,0,0,1,0,0,1]","location_rts":"[2779,940,874,1255,860,700,909,20173,1291,587,528,562,493,852,744,759,672,718,758,665,1157,681,583]","trial_type":"two-door-navigation","trial_index":11,"time_elapsed":770266,"internal_node_id":"0.0-2.0-9.0"},{"group":"hexagon_tri","room_assignment":["yellow","green","red","purple","blue","grey"],"door_color_assignment":["white","black"],"door_generator_assignment":[0,1],"goal":3,"start":2,"action_noise":0.15,"location_history":"[2,1,3]","action_history":"[0,0]","door_history":"[0,0]","location_rts":"[2605,1031]","trial_type":"two-door-navigation","trial_index":12,"time_elapsed":779448,"internal_node_id":"0.0-2.0-10.0"},{"group":"hexagon_tri","room_assignment":["yellow","green","red","purple","blue","grey"],"door_color_assignment":["white","black"],"door_generator_assignment":[0,1],"goal":0,"start":3,"action_noise":0.15,"location_history":"[3,2,1,3,2,3,2,1,3,2,1,3,2,1,5,0]","action_history":"[0,0,0,0,1,1,0,0,0,0,0,0,0,1,1]","door_history":"[0,0,0,0,1,1,0,0,0,0,0,0,0,1,1]","location_rts":"[1671,944,989,814,983,719,802,627,655,820,725,545,576,485,587]","trial_type":"two-door-navigation","trial_index":13,"time_elapsed":810229,"internal_node_id":"0.0-2.0-11.0"},{"group":"hexagon_tri","room_assignment":["yellow","green","red","purple","blue","grey"],"door_color_assignment":["white","black"],"door_generator_assignment":[0,1],"goal":2,"start":0,"action_noise":0.15,"location_history":"[0,5,4,2]","action_history":"[0,0,1]","door_history":"[0,0,1]","location_rts":"[4230,1381,868]","trial_type":"two-door-navigation","trial_index":14,"time_elapsed":823281,"internal_node_id":"0.0-2.0-12.0"},{"group":"hexagon_tri","room_assignment":["yellow","green","red","purple","blue","grey"],"door_color_assignment":["white","black"],"door_generator_assignment":[0,1],"goal":5,"start":2,"action_noise":0.15,"location_history":"[2,1,3,2,1,5]","action_history":"[0,1,1,0,1]","door_history":"[0,1,1,0,1]","location_rts":"[2015,973,655,834,602]","trial_type":"two-door-navigation","trial_index":15,"time_elapsed":836970,"internal_node_id":"0.0-2.0-13.0"},{"group":"hexagon_tri","room_assignment":["yellow","green","red","purple","blue","grey"],"door_color_assignment":["white","black"],"door_generator_assignment":[0,1],"goal":4,"start":5,"action_noise":0.15,"location_history":"[5,4]","action_history":"[0]","door_history":"[0]","location_rts":"[2847]","trial_type":"two-door-navigation","trial_index":16,"time_elapsed":844339,"internal_node_id":"0.0-2.0-14.0"},{"group":"hexagon_tri","room_assignment":["yellow","green","red","purple","blue","grey"],"door_color_assignment":["white","black"],"door_generator_assignment":[0,1],"goal":3,"start":4,"action_noise":0.15,"location_history":"[4,0,5,4,0,5,0,1,3]","action_history":"[0,0,0,0,0,1,1,1]","door_history":"[0,0,0,0,0,1,1,1]","location_rts":"[2018,1617,1137,1022,999,711,719,663]","trial_type":"two-door-navigation","trial_index":17,"time_elapsed":864904,"internal_node_id":"0.0-2.0-15.0"},{"group":"hexagon_tri","room_assignment":["yellow","green","red","purple","blue","grey"],"door_color_assignment":["white","black"],"door_generator_assignment":[0,1],"goal":1,"start":3,"action_noise":0.15,"location_history":"[3,2,1]","action_history":"[0,0]","door_history":"[0,0]","location_rts":"[2930,875]","trial_type":"two-door-navigation","trial_index":18,"time_elapsed":874255,"internal_node_id":"0.0-2.0-16.0"},{"group":"hexagon_tri","room_assignment":["yellow","green","red","purple","blue","grey"],"door_color_assignment":["white","black"],"door_generator_assignment":[0,1],"goal":5,"start":1,"action_noise":0.15,"location_history":"[1,3,2,1,3,2,3,4,0,1,3,2,1,3,2,3,4,2,3,4,2,3,2,3,2,3,2,3,4,2,3,4,2,1,5]","action_history":"[0,0,0,0,0,1,1,1,1,0,0,0,0,0,1,1,1,1,1,1,0,0,1,0,1,1,1,1,1,1,1,1,0,0]","door_history":"[0,0,0,0,0,1,1,1,1,0,0,0,0,0,1,1,1,1,1,1,0,0,1,0,1,1,1,1,1,1,1,1,0,0]","location_rts":"[1924,964,876,1102,822,945,754,710,788,805,647,641,953,651,632,889,650,508,514,567,500,577,407,499,973,1114,1244,773,836,521,829,623,637,428]","trial_type":"two-door-navigation","trial_index":19,"time_elapsed":938809,"internal_node_id":"0.0-2.0-17.0"},{"group":"hexagon_tri","room_assignment":["yellow","green","red","purple","blue","grey"],"door_color_assignment":["white","black"],"door_generator_assignment":[0,1],"goal":4,"start":5,"action_noise":0.15,"location_history":"[5,4]","action_history":"[0]","door_history":"[0]","location_rts":"[2366]","trial_type":"two-door-navigation","trial_index":20,"time_elapsed":945700,"internal_node_id":"0.0-2.0-18.0"},{"group":"hexagon_tri","room_assignment":["yellow","green","red","purple","blue","grey"],"door_color_assignment":["white","black"],"door_generator_assignment":[0,1],"goal":0,"start":4,"action_noise":0.15,"location_history":"[4,0]","action_history":"[0]","door_history":"[0]","location_rts":"[1817]","trial_type":"two-door-navigation","trial_index":21,"time_elapsed":952043,"internal_node_id":"0.0-2.0-19.0"},{"group":"hexagon_tri","room_assignment":["yellow","green","red","purple","blue","grey"],"door_color_assignment":["white","black"],"door_generator_assignment":[0,1],"goal":1,"start":0,"action_noise":0.15,"location_history":"[0,5,4,0,1]","action_history":"[0,0,0,1]","door_history":"[0,0,0,1]","location_rts":"[2068,861,853,1559]","trial_type":"two-door-navigation","trial_index":22,"time_elapsed":964969,"internal_node_id":"0.0-2.0-20.0"},{"group":"hexagon_tri","room_assignment":["yellow","green","red","purple","blue","grey"],"door_color_assignment":["white","black"],"door_generator_assignment":[0,1],"goal":3,"start":1,"action_noise":0.15,"location_history":"[1,3]","action_history":"[0]","door_history":"[0]","location_rts":"[1758]","trial_type":"two-door-navigation","trial_index":23,"time_elapsed":971252,"internal_node_id":"0.0-2.0-21.0"},{"group":"hexagon_tri","room_assignment":["yellow","green","red","purple","blue","grey"],"door_color_assignment":["white","black"],"door_generator_assignment":[0,1],"goal":2,"start":3,"action_noise":0.15,"location_history":"[3,2]","action_history":"[0]","door_history":"[0]","location_rts":"[1415]","trial_type":"two-door-navigation","trial_index":24,"time_elapsed":977198,"internal_node_id":"0.0-2.0-22.0"},{"group":"hexagon_tri","room_assignment":["yellow","green","red","purple","blue","grey"],"door_color_assignment":["white","black"],"door_generator_assignment":[0,1],"goal":0,"start":2,"action_noise":0.15,"location_history":"[2,1,3,2,3,4,2,3,4,2,3,4,2,1,3,2,1,3,2,3,2,1,3,2,1,3,2,3,2,1,3,2,3,4,0]","action_history":"[0,0,0,1,1,1,1,1,1,1,1,1,0,0,0,0,0,0,1,1,0,0,0,0,0,0,0,0,0,0,0,1,1,0]","door_history":"[0,0,0,1,1,1,1,1,1,1,1,1,0,0,0,0,0,0,1,1,0,0,0,0,0,0,0,0,0,0,0,1,1,0]","location_rts":"[1315,1305,3686,878,491,472,470,387,400,486,481,403,453,468,660,488,606,413,435,966,299,459,393,373,445,297,285,342,350,780,534,450,402,880]","trial_type":"two-door-navigation","trial_index":25,"time_elapsed":1036968,"internal_node_id":"0.0-2.0-23.0"},{"group":"hexagon_tri","room_assignment":["yellow","green","red","purple","blue","grey"],"door_color_assignment":["white","black"],"door_generator_assignment":[0,1],"goal":3,"start":0,"action_noise":0.15,"location_history":"[0,5,4,0,5,4,0,1,3]","action_history":"[0,0,0,0,0,0,0,0]","door_history":"[0,0,0,0,0,0,0,0]","location_rts":"[1615,1026,809,1233,1043,902,614,728]","trial_type":"two-door-navigation","trial_index":26,"time_elapsed":1056636,"internal_node_id":"0.0-2.0-24.0"},{"group":"hexagon_tri","room_assignment":["yellow","green","red","purple","blue","grey"],"door_color_assignment":["white","black"],"door_generator_assignment":[0,1],"goal":1,"start":3,"action_noise":0.15,"location_history":"[3,2,3,2,3,4,2,3,4,2,3,4,0,1]","action_history":"[0,0,0,0,1,1,1,1,1,1,0,0,1]","door_history":"[0,0,0,0,1,1,1,1,1,1,0,0,1]","location_rts":"[7476,1762,2629,983,1226,2260,1702,1406,884,787,1187,962,1007]","trial_type":"two-door-navigation","trial_index":27,"time_elapsed":1097707,"internal_node_id":"0.0-2.0-25.0"},{"group":"hexagon_tri","room_assignment":["yellow","green","red","purple","blue","grey"],"door_color_assignment":["white","black"],"door_generator_assignment":[0,1],"goal":2,"start":1,"action_noise":0.15,"location_history":"[1,5,4,0,5,4,2]","action_history":"[0,0,0,0,1,1]","door_history":"[0,0,0,0,1,1]","location_rts":"[2968,851,1788,1288,1300,767]","trial_type":"two-door-navigation","trial_index":28,"time_elapsed":1116302,"internal_node_id":"0.0-2.0-26.0"},{"group":"hexagon_tri","room_assignment":["yellow","green","red","purple","blue","grey"],"door_color_assignment":["white","black"],"door_generator_assignment":[0,1],"goal":5,"start":2,"action_noise":0.15,"location_history":"[2,1,3,2,1,3,2,3,4,2,1,5]","action_history":"[0,0,0,0,0,0,1,1,1,1,0]","door_history":"[0,0,0,0,0,0,1,1,1,1,0]","location_rts":"[1304,1070,735,690,1919,484,926,1208,939,1513,2423]","trial_type":"two-door-navigation","trial_index":29,"time_elapsed":1144268,"internal_node_id":"0.0-2.0-27.0"},{"group":"hexagon_tri","room_assignment":["yellow","green","red","purple","blue","grey"],"door_color_assignment":["white","black"],"door_generator_assignment":[0,1],"goal":4,"start":5,"action_noise":0.15,"location_history":"[5,4]","action_history":"[0]","door_history":"[0]","location_rts":"[689]","trial_type":"two-door-navigation","trial_index":30,"time_elapsed":1149485,"internal_node_id":"0.0-2.0-28.0"},{"group":"hexagon_tri","room_assignment":["yellow","green","red","purple","blue","grey"],"door_color_assignment":["white","black"],"door_generator_assignment":[0,1],"goal":5,"start":4,"action_noise":0.15,"location_history":"[4,2,3,4,2,1,3,2,1,5]","action_history":"[0,0,1,1,0,0,0,0,0]","door_history":"[0,0,1,1,0,0,0,0,0]","location_rts":"[1464,953,2335,576,1500,506,1836,572,535]","trial_type":"two-door-navigation","trial_index":31,"time_elapsed":1172466,"internal_node_id":"0.0-2.0-29.0"},{"group":"hexagon_tri","room_assignment":["yellow","green","red","purple","blue","grey"],"door_color_assignment":["white","black"],"door_generator_assignment":[0,1],"goal":3,"start":5,"action_noise":0.15,"location_history":"[5,4,0,5,4,2,3]","action_history":"[0,0,0,1,1,1]","door_history":"[0,0,0,1,1,1]","location_rts":"[890,519,1109,1777,494,538]","trial_type":"two-door-navigation","trial_index":32,"time_elapsed":1187434,"internal_node_id":"0.0-2.0-30.0"},{"group":"hexagon_tri","room_assignment":["yellow","green","red","purple","blue","grey"],"door_color_assignment":["white","black"],"door_generator_assignment":[0,1],"goal":0,"start":3,"action_noise":0.15,"location_history":"[3,4,0]","action_history":"[0,0]","door_history":"[0,0]","location_rts":"[1497,1067]","trial_type":"two-door-navigation","trial_index":33,"time_elapsed":1195549,"internal_node_id":"0.0-2.0-31.0"},{"group":"hexagon_tri","room_assignment":["yellow","green","red","purple","blue","grey"],"door_color_assignment":["white","black"],"door_generator_assignment":[0,1],"goal":4,"start":0,"action_noise":0.15,"location_history":"[0,5,0,5,0,1,5,0,1,3,2,1,3,2,1,5,0,5,4]","action_history":"[0,0,0,1,1,1,1,0,0,0,0,0,0,1,1,1,1,0]","door_history":"[0,0,0,1,1,1,1,0,0,0,0,0,0,1,1,1,1,0]","location_rts":"[1023,624,765,1013,875,1133,726,595,660,603,567,698,2401,745,580,616,506,361]","trial_type":"two-door-navigation","trial_index":34,"time_elapsed":1231925,"internal_node_id":"0.0-2.0-32.0"},{"group":"hexagon_tri","room_assignment":["yellow","green","red","purple","blue","grey"],"door_color_assignment":["white","black"],"door_generator_assignment":[0,1],"goal":1,"start":4,"action_noise":0.15,"location_history":"[4,0,5,4,0,1]","action_history":"[0,0,0,1,1]","door_history":"[0,0,0,1,1]","location_rts":"[21358,602,360,1481,474]","trial_type":"two-door-navigation","trial_index":35,"time_elapsed":1264819,"internal_node_id":"0.0-2.0-33.0"},{"group":"hexagon_tri","room_assignment":["yellow","green","red","purple","blue","grey"],"door_color_assignment":["white","black"],"door_generator_assignment":[0,1],"goal":2,"start":1,"action_noise":0.15,"location_history":"[1,3,2]","action_history":"[0,0]","door_history":"[0,0]","location_rts":"[1292,741]","trial_type":"two-door-navigation","trial_index":36,"time_elapsed":1272398,"internal_node_id":"0.0-2.0-34.0"},{"group":"hexagon_tri","room_assignment":["yellow","green","red","purple","blue","grey"],"door_color_assignment":["white","black"],"door_generator_assignment":[0,1],"goal":0,"start":2,"action_noise":0.15,"location_history":"[2,1,3,2,3,4,2,1,3,4,0]","action_history":"[0,0,0,1,1,1,0,0,0,0]","door_history":"[0,0,0,1,1,1,0,0,0,0]","location_rts":"[1352,909,619,678,577,589,564,532,540,521]","trial_type":"two-door-navigation","trial_index":37,"time_elapsed":1293008,"internal_node_id":"0.0-2.0-35.0"},{"group":"hexagon_tri","room_assignment":["yellow","green","red","purple","blue","grey"],"door_color_assignment":["white","black"],"door_generator_assignment":[0,1],"goal":5,"start":0,"action_noise":0.15,"location_history":"[0,5]","action_history":"[0]","door_history":"[0]","location_rts":"[64935]","trial_type":"two-door-navigation","trial_index":38,"time_elapsed":1362467,"internal_node_id":"0.0-2.0-36.0"},{"group":"hexagon_tri","room_assignment":["yellow","green","red","purple","blue","grey"],"door_color_assignment":["white","black"],"door_generator_assignment":[0,1],"goal":2,"start":5,"action_noise":0.15,"location_history":"[5,4,0,5,0,1,3,4,2]","action_history":"[0,0,0,1,1,1,1,1]","door_history":"[0,0,0,1,1,1,1,1]","location_rts":"[713,616,916,2229,718,761,798,674]","trial_type":"two-door-navigation","trial_index":39,"time_elapsed":1381571,"internal_node_id":"0.0-2.0-37.0"},{"group":"hexagon_tri","room_assignment":["yellow","green","red","purple","blue","grey"],"door_color_assignment":["white","black"],"door_generator_assignment":[0,1],"goal":1,"start":2,"action_noise":0.15,"location_history":"[2,1]","action_history":"[0]","door_history":"[0]","location_rts":"[1366]","trial_type":"two-door-navigation","trial_index":40,"time_elapsed":1387465,"internal_node_id":"0.0-2.0-38.0"},{"group":"hexagon_tri","room_assignment":["yellow","green","red","purple","blue","grey"],"door_color_assignment":["white","black"],"door_generator_assignment":[0,1],"goal":4,"start":1,"action_noise":0.15,"location_history":"[1,3,2,1,5,4]","action_history":"[0,0,0,0,0]","door_history":"[0,0,0,0,0]","location_rts":"[1607,1107,1260,1423,1191]","trial_type":"two-door-navigation","trial_index":41,"time_elapsed":1402671,"internal_node_id":"0.0-2.0-39.0"},{"group":"hexagon_tri","room_assignment":["yellow","green","red","purple","blue","grey"],"door_color_assignment":["white","black"],"door_generator_assignment":[0,1],"goal":3,"start":4,"action_noise":0.15,"location_history":"[4,0,5,4,2,3]","action_history":"[0,0,0,1,1]","door_history":"[0,0,0,1,1]","location_rts":"[781,1350,1235,1337,721]","trial_type":"two-door-navigation","trial_index":42,"time_elapsed":1416707,"internal_node_id":"0.0-2.0-40.0"},{"group":"hexagon_tri","room_assignment":["yellow","green","red","purple","blue","grey"],"door_color_assignment":["white","black"],"door_generator_assignment":[0,1],"goal":5,"start":3,"action_noise":0.15,"location_history":"[3,2,3,4,0,5]","action_history":"[0,0,0,0,0]","door_history":"[0,0,0,0,0]","location_rts":"[1287,863,991,1008,862]","trial_type":"two-door-navigation","trial_index":43,"time_elapsed":1430331,"internal_node_id":"0.0-2.0-41.0"},{"group":"hexagon_tri","room_assignment":["yellow","green","red","purple","blue","grey"],"door_color_assignment":["white","black"],"door_generator_assignment":[0,1],"goal":3,"start":5,"action_noise":0.15,"location_history":"[5,4,0,5,0,5,0,1,5,0,5,0,5,4,0,5,0,5,0,5,4,0,5,4,0,1,5,0,5,4,0,5,0,1,5,0,1,5,4,0,1,5,0,5,4,2,3]","action_history":"[0,0,0,0,0,0,1,1,1,1,1,0,0,0,0,1,1,0,0,0,0,0,0,0,1,1,1,0,0,0,0,1,1,1,1,1,1,0,0,0,1,1,0,0,1,1]","door_history":"[0,0,0,0,0,0,1,1,1,1,1,0,0,0,0,1,1,0,0,0,0,0,0,0,1,1,1,0,0,0,0,1,1,1,1,1,1,0,0,0,1,1,0,0,1,1]","location_rts":"[893,903,519,618,790,1094,752,506,626,680,791,966,627,851,561,876,456,531,453,487,609,1110,1926,1030,764,513,741,823,420,507,519,774,1312,814,622,405,509,1101,554,485,1596,1472,928,833,2280,1046]","trial_type":"two-door-navigation","trial_index":44,"time_elapsed":1518555,"internal_node_id":"0.0-2.0-42.0"},{"group":"hexagon_tri","room_assignment":["yellow","green","red","purple","blue","grey"],"door_color_assignment":["white","black"],"door_generator_assignment":[0,1],"goal":0,"start":3,"action_noise":0.15,"location_history":"[3,2,1,5,4,0]","action_history":"[0,0,0,0,0]","door_history":"[0,0,0,0,0]","location_rts":"[1591,661,664,944,1399]","trial_type":"two-door-navigation","trial_index":45,"time_elapsed":1532436,"internal_node_id":"0.0-2.0-43.0"},{"group":"hexagon_tri","room_assignment":["yellow","green","red","purple","blue","grey"],"door_color_assignment":["white","black"],"door_generator_assignment":[0,1],"goal":2,"start":0,"action_noise":0.15,"location_history":"[0,1,3,2]","action_history":"[0,0,0]","door_history":"[0,0,0]","location_rts":"[1792,1282,1065]","trial_type":"two-door-navigation","trial_index":46,"time_elapsed":1543145,"internal_node_id":"0.0-2.0-44.0"},{"group":"hexagon_tri","room_assignment":["yellow","green","red","purple","blue","grey"],"door_color_assignment":["white","black"],"door_generator_assignment":[0,1],"goal":4,"start":2,"action_noise":0.15,"location_history":"[2,1,3,4]","action_history":"[0,0,0]","door_history":"[0,0,0]","location_rts":"[1412,833,712]","trial_type":"two-door-navigation","trial_index":47,"time_elapsed":1552688,"internal_node_id":"0.0-2.0-45.0"},{"group":"hexagon_tri","room_assignment":["yellow","green","red","purple","blue","grey"],"door_color_assignment":["white","black"],"door_generator_assignment":[0,1],"goal":1,"start":4,"action_noise":0.15,"location_history":"[4,2,1]","action_history":"[0,0]","door_history":"[0,0]","location_rts":"[1312,1285]","trial_type":"two-door-navigation","trial_index":48,"time_elapsed":1560842,"internal_node_id":"0.0-2.0-46.0"},{"group":"hexagon_tri","room_assignment":["yellow","green","red","purple","blue","grey"],"door_color_assignment":["white","black"],"door_generator_assignment":[0,1],"goal":4,"start":1,"action_noise":0.15,"location_history":"[1,3,2,1,3,2,3,2,3,4]","action_history":"[0,0,0,0,0,1,1,1,1]","door_history":"[0,0,0,0,0,1,1,1,1]","location_rts":"[2060,1234,1135,1091,1052,819,734,1142,1149]","trial_type":"two-door-navigation","trial_index":49,"time_elapsed":1583962,"internal_node_id":"0.0-2.0-47.0"},{"group":"hexagon_tri","room_assignment":["yellow","green","red","purple","blue","grey"],"door_color_assignment":["white","black"],"door_generator_assignment":[0,1],"goal":3,"start":4,"action_noise":0.15,"location_history":"[4,0,5,4,0,5,4,0,1,5,4,0,5,4,2,3]","action_history":"[0,0,0,0,0,0,0,1,1,1,1,0,0,1,1]","door_history":"[0,0,0,0,0,0,0,1,1,1,1,0,0,1,1]","location_rts":"[1078,841,930,1107,795,1027,1336,1011,711,567,612,427,577,1175,526]","trial_type":"two-door-navigation","trial_index":50,"time_elapsed":1615504,"internal_node_id":"0.0-2.0-48.0"},{"group":"hexagon_tri","room_assignment":["yellow","green","red","purple","blue","grey"],"door_color_assignment":["white","black"],"door_generator_assignment":[0,1],"goal":5,"start":3,"action_noise":0.15,"location_history":"[3,2,1,3,2,1,3,4,0,5]","action_history":"[0,0,0,0,0,0,1,1,1]","door_history":"[0,0,0,0,0,0,1,1,1]","location_rts":"[10347,1244,828,743,690,598,706,568,601]","trial_type":"two-door-navigation","trial_index":51,"time_elapsed":1644534,"internal_node_id":"0.0-2.0-49.0"},{"view_history":"[{\"page_index\":0,\"viewing_time\":8596}]","rt":8596,"trial_type":"instructions","trial_index":52,"time_elapsed":1654132,"internal_node_id":"0.0-3.0"},{"view_history":"[{\"page_index\":0,\"viewing_time\":6726},{\"page_index\":1,\"viewing_time\":92546}]","rt":99272,"trial_type":"instructions","trial_index":53,"time_elapsed":1754406,"internal_node_id":"0.0-4.0"},{"group":"hexagon_tri","fractal_assignment":["../images/cyn_red.png","../images/org_blu.png","../images/blu_wht.png","../images/pnk_blu.png","../images/gry_blk.png","../images/ylw_slt.png"],"mutagen_generator_assignment":[0,1],"goal":4,"start":0,"action_noise":0.15,"location_history":"[0,5,0,1,3,4]","action_history":"[0,1,1,0,1]","mutagen_history":"[0,1,1,0,1]","location_rts":"[12373,11038,7417,5964,10074]","trial_type":"fractal-mutation","trial_index":54,"time_elapsed":1810659,"internal_node_id":"0.0-5.0-0.0"},{"group":"hexagon_tri","fractal_assignment":["../images/cyn_red.png","../images/org_blu.png","../images/blu_wht.png","../images/pnk_blu.png","../images/gry_blk.png","../images/ylw_slt.png"],"mutagen_generator_assignment":[0,1],"goal":3,"start":4,"action_noise":0.15,"location_history":"[4,2,1,3]","action_history":"[1,1,0]","mutagen_history":"[1,1,0]","location_rts":"[3958,2057,1775]","trial_type":"fractal-mutation","trial_index":55,"time_elapsed":1825542,"internal_node_id":"0.0-5.0-1.0"},{"group":"hexagon_tri","fractal_assignment":["../images/cyn_red.png","../images/org_blu.png","../images/blu_wht.png","../images/pnk_blu.png","../images/gry_blk.png","../images/ylw_slt.png"],"mutagen_generator_assignment":[0,1],"goal":5,"start":3,"action_noise":0.15,"location_history":"[3,4,2,3,4,0,1,5]","action_history":"[1,0,1,0,0,1,1]","mutagen_history":"[1,0,1,0,0,1,1]","location_rts":"[4136,1591,950,1330,1284,1493,1167]","trial_type":"fractal-mutation","trial_index":56,"time_elapsed":1849103,"internal_node_id":"0.0-5.0-2.0"},{"group":"hexagon_tri","fractal_assignment":["../images/cyn_red.png","../images/org_blu.png","../images/blu_wht.png","../images/pnk_blu.png","../images/gry_blk.png","../images/ylw_slt.png"],"mutagen_generator_assignment":[0,1],"goal":2,"start":5,"action_noise":0.15,"location_history":"[5,0,5,4,2]","action_history":"[1,0,0,1]","mutagen_history":"[1,0,0,1]","location_rts":"[1370,1067,1550,891]","trial_type":"fractal-mutation","trial_index":57,"time_elapsed":1862143,"internal_node_id":"0.0-5.0-3.0"},{"group":"hexagon_tri","fractal_assignment":["../images/cyn_red.png","../images/org_blu.png","../images/blu_wht.png","../images/pnk_blu.png","../images/gry_blk.png","../images/ylw_slt.png"],"mutagen_generator_assignment":[0,1],"goal":1,"start":2,"action_noise":0.15,"location_history":"[2,3,2,3,4,0,5,0,5,4,0,1]","action_history":"[1,0,1,1,0,1,1,0,0,0,1]","mutagen_history":"[1,0,1,1,0,1,1,0,0,0,1]","location_rts":"[4756,874,1071,765,973,3848,933,420,611,508,980]","trial_type":"fractal-mutation","trial_index":58,"time_elapsed":1894035,"internal_node_id":"0.0-5.0-4.0"},{"group":"hexagon_tri","fractal_assignment":["../images/cyn_red.png","../images/org_blu.png","../images/blu_wht.png","../images/pnk_blu.png","../images/gry_blk.png","../images/ylw_slt.png"],"mutagen_generator_assignment":[0,1],"goal":4,"start":1,"action_noise":0.15,"location_history":"[1,5,4]","action_history":"[1,0]","mutagen_history":"[1,0]","location_rts":"[564,459]","trial_type":"fractal-mutation","trial_index":59,"time_elapsed":1900890,"internal_node_id":"0.0-5.0-5.0"},{"group":"hexagon_tri","fractal_assignment":["../images/cyn_red.png","../images/org_blu.png","../images/blu_wht.png","../images/pnk_blu.png","../images/gry_blk.png","../images/ylw_slt.png"],"mutagen_generator_assignment":[0,1],"goal":1,"start":4,"action_noise":0.15,"location_history":"[4,2,3,4,0,5,0,5,4,2,1]","action_history":"[0,1,0,0,0,1,1,0,1,0]","mutagen_history":"[0,1,0,0,0,1,1,0,1,0]","location_rts":"[1047,1353,821,1134,392,453,604,1132,730,588]","trial_type":"fractal-mutation","trial_index":60,"time_elapsed":1924148,"internal_node_id":"0.0-5.0-6.0"},{"group":"hexagon_tri","fractal_assignment":["../images/cyn_red.png","../images/org_blu.png","../images/blu_wht.png","../images/pnk_blu.png","../images/gry_blk.png","../images/ylw_slt.png"],"mutagen_generator_assignment":[0,1],"goal":5,"start":1,"action_noise":0.15,"location_history":"[1,3,2,1,3,4,2,3,4,2,1,3,4,2,3,4,0,1,5]","action_history":"[1,0,0,0,1,1,1,1,0,0,0,0,1,1,1,1,1,0]","mutagen_history":"[1,0,0,0,1,1,1,1,0,0,0,0,1,1,1,1,1,0]","location_rts":"[2648,1134,637,1312,699,818,890,591,680,482,393,501,540,982,1593,966,586,417]","trial_type":"fractal-mutation","trial_index":61,"time_elapsed":1964485,"internal_node_id":"0.0-5.0-7.0"},{"group":"hexagon_tri","fractal_assignment":["../images/cyn_red.png","../images/org_blu.png","../images/blu_wht.png","../images/pnk_blu.png","../images/gry_blk.png","../images/ylw_slt.png"],"mutagen_generator_assignment":[0,1],"goal":0,"start":5,"action_noise":0.15,"location_history":"[5,4,0]","action_history":"[0,1]","mutagen_history":"[0,1]","location_rts":"[852,1323]","trial_type":"fractal-mutation","trial_index":62,"time_elapsed":1972482,"internal_node_id":"0.0-5.0-8.0"},{"group":"hexagon_tri","fractal_assignment":["../images/cyn_red.png","../images/org_blu.png","../images/blu_wht.png","../images/pnk_blu.png","../images/gry_blk.png","../images/ylw_slt.png"],"mutagen_generator_assignment":[0,1],"goal":2,"start":0,"action_noise":0.15,"location_history":"[0,5,4,2]","action_history":"[0,0,1]","mutagen_history":"[0,0,1]","location_rts":"[1013,1038,683]","trial_type":"fractal-mutation","trial_index":63,"time_elapsed":1982177,"internal_node_id":"0.0-5.0-9.0"},{"group":"hexagon_tri","fractal_assignment":["../images/cyn_red.png","../images/org_blu.png","../images/blu_wht.png","../images/pnk_blu.png","../images/gry_blk.png","../images/ylw_slt.png"],"mutagen_generator_assignment":[0,1],"goal":3,"start":2,"action_noise":0.15,"location_history":"[2,3]","action_history":"[1]","mutagen_history":"[1]","location_rts":"[2684]","trial_type":"fractal-mutation","trial_index":64,"time_elapsed":1989549,"internal_node_id":"0.0-5.0-10.0"},{"group":"hexagon_tri","fractal_assignment":["../images/cyn_red.png","../images/org_blu.png","../images/blu_wht.png","../images/pnk_blu.png","../images/gry_blk.png","../images/ylw_slt.png"],"mutagen_generator_assignment":[0,1],"goal":0,"start":3,"action_noise":0.15,"location_history":"[3,4,2,3,2,3,4,2,1,5,4,2,3,2,1,5,4,0]","action_history":"[1,1,1,0,1,1,1,0,1,0,1,1,0,0,1,0,0]","mutagen_history":"[1,1,1,0,1,1,1,0,1,0,1,1,0,0,1,0,0]","location_rts":"[1390,1100,1099,978,1401,1025,753,931,859,721,783,511,576,949,871,1072,822]","trial_type":"fractal-mutation","trial_index":65,"time_elapsed":2028802,"internal_node_id":"0.0-5.0-11.0"},{"group":"hexagon_tri","fractal_assignment":["../images/cyn_red.png","../images/org_blu.png","../images/blu_wht.png","../images/pnk_blu.png","../images/gry_blk.png","../images/ylw_slt.png"],"mutagen_generator_assignment":[0,1],"goal":2,"start":0,"action_noise":0.15,"location_history":"[0,1,5,4,2]","action_history":"[1,1,0,1]","mutagen_history":"[1,1,0,1]","location_rts":"[725,435,482,947]","trial_type":"fractal-mutation","trial_index":66,"time_elapsed":2039627,"internal_node_id":"0.0-5.0-12.0"},{"group":"hexagon_tri","fractal_assignment":["../images/cyn_red.png","../images/org_blu.png","../images/blu_wht.png","../images/pnk_blu.png","../images/gry_blk.png","../images/ylw_slt.png"],"mutagen_generator_assignment":[0,1],"goal":5,"start":2,"action_noise":0.15,"location_history":"[2,1,5]","action_history":"[0,1]","mutagen_history":"[0,1]","location_rts":"[4140,1227]","trial_type":"fractal-mutation","trial_index":67,"time_elapsed":2050846,"internal_node_id":"0.0-5.0-13.0"},{"group":"hexagon_tri","fractal_assignment":["../images/cyn_red.png","../images/org_blu.png","../images/blu_wht.png","../images/pnk_blu.png","../images/gry_blk.png","../images/ylw_slt.png"],"mutagen_generator_assignment":[0,1],"goal":4,"start":5,"action_noise":0.15,"location_history":"[5,4]","action_history":"[0]","mutagen_history":"[0]","location_rts":"[2956]","trial_type":"fractal-mutation","trial_index":68,"time_elapsed":2058434,"internal_node_id":"0.0-5.0-14.0"},{"group":"hexagon_tri","fractal_assignment":["../images/cyn_red.png","../images/org_blu.png","../images/blu_wht.png","../images/pnk_blu.png","../images/gry_blk.png","../images/ylw_slt.png"],"mutagen_generator_assignment":[0,1],"goal":3,"start":4,"action_noise":0.15,"location_history":"[4,0,5,4,2,1,5,0,5,0,5,0,1,3]","action_history":"[1,0,0,1,0,1,1,0,1,0,0,1,0]","mutagen_history":"[1,0,0,1,0,1,1,0,1,0,0,1,0]","location_rts":"[1742,1167,2912,636,3285,1113,712,581,733,852,573,863,802]","trial_type":"fractal-mutation","trial_index":69,"time_elapsed":2092926,"internal_node_id":"0.0-5.0-15.0"},{"group":"hexagon_tri","fractal_assignment":["../images/cyn_red.png","../images/org_blu.png","../images/blu_wht.png","../images/pnk_blu.png","../images/gry_blk.png","../images/ylw_slt.png"],"mutagen_generator_assignment":[0,1],"goal":1,"start":3,"action_noise":0.15,"location_history":"[3,2,1]","action_history":"[0,0]","mutagen_history":"[0,0]","location_rts":"[3890,1386]","trial_type":"fractal-mutation","trial_index":70,"time_elapsed":2103947,"internal_node_id":"0.0-5.0-16.0"},{"group":"hexagon_tri","fractal_assignment":["../images/cyn_red.png","../images/org_blu.png","../images/blu_wht.png","../images/pnk_blu.png","../images/gry_blk.png","../images/ylw_slt.png"],"mutagen_generator_assignment":[0,1],"goal":5,"start":1,"action_noise":0.15,"location_history":"[1,3,2,1,5]","action_history":"[0,0,1,1]","mutagen_history":"[0,0,1,1]","location_rts":"[563,1186,562,483]","trial_type":"fractal-mutation","trial_index":71,"time_elapsed":2114913,"internal_node_id":"0.0-5.0-17.0"},{"group":"hexagon_tri","fractal_assignment":["../images/cyn_red.png","../images/org_blu.png","../images/blu_wht.png","../images/pnk_blu.png","../images/gry_blk.png","../images/ylw_slt.png"],"mutagen_generator_assignment":[0,1],"goal":4,"start":5,"action_noise":0.15,"location_history":"[5,0,1,3,2,1,5,0,5,4]","action_history":"[1,1,0,0,0,0,1,0,1]","mutagen_history":"[1,1,0,0,0,0,1,0,1]","location_rts":"[520,496,407,955,598,1126,1749,1259,932]","trial_type":"fractal-mutation","trial_index":72,"time_elapsed":2136896,"internal_node_id":"0.0-5.0-18.0"},{"group":"hexagon_tri","fractal_assignment":["../images/cyn_red.png","../images/org_blu.png","../images/blu_wht.png","../images/pnk_blu.png","../images/gry_blk.png","../images/ylw_slt.png"],"mutagen_generator_assignment":[0,1],"goal":0,"start":4,"action_noise":0.15,"location_history":"[4,2,1,3,4,2,1,3,2,3,2,1,3,4,2,1,3,4,0]","action_history":"[1,0,0,1,1,0,1,0,0,0,1,0,1,1,0,1,1,0]","mutagen_history":"[1,0,0,1,1,0,1,0,0,0,1,0,1,1,0,1,1,0]","location_rts":"[1772,1213,894,1237,741,1024,855,549,1764,894,697,906,1224,698,1637,766,422,480]","trial_type":"fractal-mutation","trial_index":73,"time_elapsed":2179094,"internal_node_id":"0.0-5.0-19.0"},{"group":"hexagon_tri","fractal_assignment":["../images/cyn_red.png","../images/org_blu.png","../images/blu_wht.png","../images/pnk_blu.png","../images/gry_blk.png","../images/ylw_slt.png"],"mutagen_generator_assignment":[0,1],"goal":1,"start":0,"action_noise":0.15,"location_history":"[0,5,0,5,4,2,1]","action_history":"[0,1,0,0,1,0]","mutagen_history":"[0,1,0,0,1,0]","location_rts":"[2726,684,915,2905,858,1403]","trial_type":"fractal-mutation","trial_index":74,"time_elapsed":2198926,"internal_node_id":"0.0-5.0-20.0"},{"group":"hexagon_tri","fractal_assignment":["../images/cyn_red.png","../images/org_blu.png","../images/blu_wht.png","../images/pnk_blu.png","../images/gry_blk.png","../images/ylw_slt.png"],"mutagen_generator_assignment":[0,1],"goal":3,"start":1,"action_noise":0.15,"location_history":"[1,3]","action_history":"[0]","mutagen_history":"[0]","location_rts":"[1027]","trial_type":"fractal-mutation","trial_index":75,"time_elapsed":2204588,"internal_node_id":"0.0-5.0-21.0"},{"group":"hexagon_tri","fractal_assignment":["../images/cyn_red.png","../images/org_blu.png","../images/blu_wht.png","../images/pnk_blu.png","../images/gry_blk.png","../images/ylw_slt.png"],"mutagen_generator_assignment":[0,1],"goal":2,"start":3,"action_noise":0.15,"location_history":"[3,2]","action_history":"[0]","mutagen_history":"[0]","location_rts":"[1099]","trial_type":"fractal-mutation","trial_index":76,"time_elapsed":2210327,"internal_node_id":"0.0-5.0-22.0"},{"group":"hexagon_tri","fractal_assignment":["../images/cyn_red.png","../images/org_blu.png","../images/blu_wht.png","../images/pnk_blu.png","../images/gry_blk.png","../images/ylw_slt.png"],"mutagen_generator_assignment":[0,1],"goal":0,"start":2,"action_noise":0.15,"location_history":"[2,1,3,4,0]","action_history":"[0,0,0,1]","mutagen_history":"[0,0,0,1]","location_rts":"[1115,1559,1877,610]","trial_type":"fractal-mutation","trial_index":77,"time_elapsed":2223523,"internal_node_id":"0.0-5.0-23.0"},{"group":"hexagon_tri","fractal_assignment":["../images/cyn_red.png","../images/org_blu.png","../images/blu_wht.png","../images/pnk_blu.png","../images/gry_blk.png","../images/ylw_slt.png"],"mutagen_generator_assignment":[0,1],"goal":3,"start":0,"action_noise":0.15,"location_history":"[0,5,4,2,1,3]","action_history":"[0,0,1,0,0]","mutagen_history":"[0,0,1,0,0]","location_rts":"[825,915,726,1325,1028]","trial_type":"fractal-mutation","trial_index":78,"time_elapsed":2237517,"internal_node_id":"0.0-5.0-24.0"},{"group":"hexagon_tri","fractal_assignment":["../images/cyn_red.png","../images/org_blu.png","../images/blu_wht.png","../images/pnk_blu.png","../images/gry_blk.png","../images/ylw_slt.png"],"mutagen_generator_assignment":[0,1],"goal":1,"start":3,"action_noise":0.15,"location_history":"[3,2,1]","action_history":"[0,0]","mutagen_history":"[0,0]","location_rts":"[866,908]","trial_type":"fractal-mutation","trial_index":79,"time_elapsed":2245051,"internal_node_id":"0.0-5.0-25.0"},{"group":"hexagon_tri","fractal_assignment":["../images/cyn_red.png","../images/org_blu.png","../images/blu_wht.png","../images/pnk_blu.png","../images/gry_blk.png","../images/ylw_slt.png"],"mutagen_generator_assignment":[0,1],"goal":2,"start":1,"action_noise":0.15,"location_history":"[1,3,2]","action_history":"[0,0]","mutagen_history":"[0,0]","location_rts":"[1185,641]","trial_type":"fractal-mutation","trial_index":80,"time_elapsed":2252637,"internal_node_id":"0.0-5.0-26.0"},{"group":"hexagon_tri","fractal_assignment":["../images/cyn_red.png","../images/org_blu.png","../images/blu_wht.png","../images/pnk_blu.png","../images/gry_blk.png","../images/ylw_slt.png"],"mutagen_generator_assignment":[0,1],"goal":5,"start":2,"action_noise":0.15,"location_history":"[2,1,3,2,1,5]","action_history":"[0,0,0,0,0]","mutagen_history":"[0,0,0,0,0]","location_rts":"[908,1593,1089,944,876]","trial_type":"fractal-mutation","trial_index":81,"time_elapsed":2267225,"internal_node_id":"0.0-5.0-27.0"},{"group":"hexagon_tri","fractal_assignment":["../images/cyn_red.png","../images/org_blu.png","../images/blu_wht.png","../images/pnk_blu.png","../images/gry_blk.png","../images/ylw_slt.png"],"mutagen_generator_assignment":[0,1],"goal":4,"start":5,"action_noise":0.15,"location_history":"[5,4]","action_history":"[0]","mutagen_history":"[0]","location_rts":"[664]","trial_type":"fractal-mutation","trial_index":82,"time_elapsed":2272531,"internal_node_id":"0.0-5.0-28.0"},{"group":"hexagon_tri","fractal_assignment":["../images/cyn_red.png","../images/org_blu.png","../images/blu_wht.png","../images/pnk_blu.png","../images/gry_blk.png","../images/ylw_slt.png"],"mutagen_generator_assignment":[0,1],"goal":5,"start":4,"action_noise":0.15,"location_history":"[4,2,1,3,2,1,3,2,3,2,3,2,1,3,4,2,3,2,1,3,4,2,1,3,2,3,4,0,5]","action_history":"[1,0,0,0,0,0,0,0,0,1,0,0,0,1,1,1,0,0,0,1,1,0,0,0,1,1,0,1]","mutagen_history":"[1,0,0,0,0,0,0,0,0,1,0,0,0,1,1,1,0,0,0,1,1,0,0,0,1,1,0,1]","location_rts":"[768,1008,1140,1484,913,1325,853,896,1510,486,854,856,841,728,657,2073,764,486,459,407,704,1310,890,1170,667,467,466,901]","trial_type":"fractal-mutation","trial_index":83,"time_elapsed":2333261,"internal_node_id":"0.0-5.0-29.0"},{"group":"hexagon_tri","fractal_assignment":["../images/cyn_red.png","../images/org_blu.png","../images/blu_wht.png","../images/pnk_blu.png","../images/gry_blk.png","../images/ylw_slt.png"],"mutagen_generator_assignment":[0,1],"goal":3,"start":5,"action_noise":0.15,"location_history":"[5,4,2,1,5,4,2,3]","action_history":"[0,1,0,0,0,1,0]","mutagen_history":"[0,1,0,0,0,1,0]","location_rts":"[895,632,1291,1393,914,654,1014]","trial_type":"fractal-mutation","trial_index":84,"time_elapsed":2351618,"internal_node_id":"0.0-5.0-30.0"},{"group":"hexagon_tri","fractal_assignment":["../images/cyn_red.png","../images/org_blu.png","../images/blu_wht.png","../images/pnk_blu.png","../images/gry_blk.png","../images/ylw_slt.png"],"mutagen_generator_assignment":[0,1],"goal":0,"start":3,"action_noise":0.15,"location_history":"[3,2,3,2,1,3,2,3,2,1,3,2,3,2,1,3,2,1,5,4,0]","action_history":"[0,1,0,0,0,0,1,0,0,0,1,0,1,0,0,0,0,0,0,1]","mutagen_history":"[0,1,0,0,0,0,1,0,0,0,1,0,1,0,0,0,0,0,0,1]","location_rts":"[55333,709,532,744,794,799,343,479,1252,1276,655,646,440,726,1127,983,522,779,933,463]","trial_type":"fractal-mutation","trial_index":85,"time_elapsed":2447501,"internal_node_id":"0.0-5.0-31.0"},{"group":"hexagon_tri","fractal_assignment":["../images/cyn_red.png","../images/org_blu.png","../images/blu_wht.png","../images/pnk_blu.png","../images/gry_blk.png","../images/ylw_slt.png"],"mutagen_generator_assignment":[0,1],"goal":4,"start":0,"action_noise":0.15,"location_history":"[0,1,3,2,1,3,2,3,2,3,2,1,3,4]","action_history":"[0,0,0,1,0,0,1,0,1,0,0,0,0]","mutagen_history":"[0,0,0,1,0,0,1,0,1,0,0,0,0]","location_rts":"[843,1139,1253,933,505,949,404,522,446,472,461,732,1011]","trial_type":"fractal-mutation","trial_index":86,"time_elapsed":2475537,"internal_node_id":"0.0-5.0-32.0"},{"group":"hexagon_tri","fractal_assignment":["../images/cyn_red.png","../images/org_blu.png","../images/blu_wht.png","../images/pnk_blu.png","../images/gry_blk.png","../images/ylw_slt.png"],"mutagen_generator_assignment":[0,1],"goal":1,"start":4,"action_noise":0.15,"location_history":"[4,2,1]","action_history":"[1,0]","mutagen_history":"[1,0]","location_rts":"[882,836]","trial_type":"fractal-mutation","trial_index":87,"time_elapsed":2483095,"internal_node_id":"0.0-5.0-33.0"},{"group":"hexagon_tri","fractal_assignment":["../images/cyn_red.png","../images/org_blu.png","../images/blu_wht.png","../images/pnk_blu.png","../images/gry_blk.png","../images/ylw_slt.png"],"mutagen_generator_assignment":[0,1],"goal":2,"start":1,"action_noise":0.15,"location_history":"[1,5,4,2]","action_history":"[0,0,1]","mutagen_history":"[0,0,1]","location_rts":"[1445,849,728]","trial_type":"fractal-mutation","trial_index":88,"time_elapsed":2493055,"internal_node_id":"0.0-5.0-34.0"},{"group":"hexagon_tri","fractal_assignment":["../images/cyn_red.png","../images/org_blu.png","../images/blu_wht.png","../images/pnk_blu.png","../images/gry_blk.png","../images/ylw_slt.png"],"mutagen_generator_assignment":[0,1],"goal":0,"start":2,"action_noise":0.15,"location_history":"[2,1,3,4,2,1,3,4,2,1,3,2,1,3,4,2,1,5,4,2,1,3,2,3,4,2,3,2,1,3,2,1,3,4,2,1,3,4,2,1,5,4,2,1,5,4,0]","action_history":"[0,0,0,1,0,0,1,1,0,0,0,1,0,1,1,0,1,0,1,0,0,0,0,1,1,0,1,0,0,0,0,0,1,1,0,0,0,1,0,1,0,1,0,0,0,0]","mutagen_history":"[0,0,0,1,0,0,1,1,0,0,0,1,0,1,1,0,1,0,1,0,0,0,0,1,1,0,1,0,0,0,0,0,1,1,0,0,0,1,0,1,0,1,0,0,0,0]","location_rts":"[2254,868,991,396,1354,751,1195,724,986,654,595,566,551,419,814,1300,541,11873,1008,1015,749,1075,701,559,606,722,439,469,690,488,1404,1179,831,1010,496,726,783,442,923,930,820,1025,1012,656,494,887]","trial_type":"fractal-mutation","trial_index":89,"time_elapsed":2598214,"internal_node_id":"0.0-5.0-35.0"},{"group":"hexagon_tri","fractal_assignment":["../images/cyn_red.png","../images/org_blu.png","../images/blu_wht.png","../images/pnk_blu.png","../images/gry_blk.png","../images/ylw_slt.png"],"mutagen_generator_assignment":[0,1],"goal":5,"start":0,"action_noise":0.15,"location_history":"[0,5]","action_history":"[0]","mutagen_history":"[0]","location_rts":"[2965]","trial_type":"fractal-mutation","trial_index":90,"time_elapsed":2605742,"internal_node_id":"0.0-5.0-36.0"},{"group":"hexagon_tri","fractal_assignment":["../images/cyn_red.png","../images/org_blu.png","../images/blu_wht.png","../images/pnk_blu.png","../images/gry_blk.png","../images/ylw_slt.png"],"mutagen_generator_assignment":[0,1],"goal":2,"start":5,"action_noise":0.15,"location_history":"[5,4,2]","action_history":"[0,1]","mutagen_history":"[0,1]","location_rts":"[1075,1832]","trial_type":"fractal-mutation","trial_index":91,"time_elapsed":2614418,"internal_node_id":"0.0-5.0-37.0"},{"group":"hexagon_tri","fractal_assignment":["../images/cyn_red.png","../images/org_blu.png","../images/blu_wht.png","../images/pnk_blu.png","../images/gry_blk.png","../images/ylw_slt.png"],"mutagen_generator_assignment":[0,1],"goal":1,"start":2,"action_noise":0.15,"location_history":"[2,3,2,1]","action_history":"[1,0,0]","mutagen_history":"[1,0,0]","location_rts":"[2158,1823,1282]","trial_type":"fractal-mutation","trial_index":92,"time_elapsed":2626588,"internal_node_id":"0.0-5.0-38.0"},{"group":"hexagon_tri","fractal_assignment":["../images/cyn_red.png","../images/org_blu.png","../images/blu_wht.png","../images/pnk_blu.png","../images/gry_blk.png","../images/ylw_slt.png"],"mutagen_generator_assignment":[0,1],"goal":4,"start":1,"action_noise":0.15,"location_history":"[1,3,2,1,3,2,3,2,1,3,4]","action_history":"[0,0,0,0,0,1,0,0,0,1]","mutagen_history":"[0,0,0,0,0,1,0,0,0,1]","location_rts":"[528,397,1469,974,786,854,816,714,3692,2025]","trial_type":"fractal-mutation","trial_index":93,"time_elapsed":2653646,"internal_node_id":"0.0-5.0-39.0"},{"group":"hexagon_tri","fractal_assignment":["../images/cyn_red.png","../images/org_blu.png","../images/blu_wht.png","../images/pnk_blu.png","../images/gry_blk.png","../images/ylw_slt.png"],"mutagen_generator_assignment":[0,1],"goal":3,"start":4,"action_noise":0.15,"location_history":"[4,0,1,3]","action_history":"[0,1,0]","mutagen_history":"[0,1,0]","location_rts":"[5026,4163,2108]","trial_type":"fractal-mutation","trial_index":94,"time_elapsed":2671883,"internal_node_id":"0.0-5.0-40.0"},{"group":"hexagon_tri","fractal_assignment":["../images/cyn_red.png","../images/org_blu.png","../images/blu_wht.png","../images/pnk_blu.png","../images/gry_blk.png","../images/ylw_slt.png"],"mutagen_generator_assignment":[0,1],"goal":5,"start":3,"action_noise":0.15,"location_history":"[3,2,3,2,1,3,4,0,5]","action_history":"[0,0,0,0,0,1,1,0]","mutagen_history":"[0,0,0,0,0,1,1,0]","location_rts":"[4026,7685,2064,1821,1083,1062,966,1930]","trial_type":"fractal-mutation","trial_index":95,"time_elapsed":2705223,"internal_node_id":"0.0-5.0-41.0"},{"group":"hexagon_tri","fractal_assignment":["../images/cyn_red.png","../images/org_blu.png","../images/blu_wht.png","../images/pnk_blu.png","../images/gry_blk.png","../images/ylw_slt.png"],"mutagen_generator_assignment":[0,1],"goal":3,"start":5,"action_noise":0.15,"location_history":"[5,4,2,1,5,4,0,5,4,0,5,4,0,5,0,5,4,0,5,4,2,3]","action_history":"[0,1,0,0,0,1,0,0,1,0,0,0,0,1,0,0,0,0,0,1,1]","mutagen_history":"[0,1,0,0,0,1,0,0,1,0,0,0,0,1,0,0,0,0,0,1,1]","location_rts":"[3424,1778,1669,10609,1002,733,960,897,909,3553,3003,1364,1069,1187,1144,1405,2639,1359,990,1046,3555]","trial_type":"fractal-mutation","trial_index":96,"time_elapsed":2776976,"internal_node_id":"0.0-5.0-42.0"},{"group":"hexagon_tri","fractal_assignment":["../images/cyn_red.png","../images/org_blu.png","../images/blu_wht.png","../images/pnk_blu.png","../images/gry_blk.png","../images/ylw_slt.png"],"mutagen_generator_assignment":[0,1],"goal":0,"start":3,"action_noise":0.15,"location_history":"[3,2,3,2,3,4,2,3,2,1,3,4,2,1,5,4,2,1,3,2,1,3,4,0]","action_history":"[0,1,0,0,1,1,1,0,0,0,1,1,0,1,0,1,0,0,0,0,0,1,1]","mutagen_history":"[0,1,0,0,1,1,1,0,0,0,1,1,0,1,0,1,0,0,0,0,0,1,1]","location_rts":"[2923,2331,1572,1203,1851,1571,2341,936,765,1942,1256,800,890,935,970,656,621,711,633,16331,2540,1101,865]","trial_type":"fractal-mutation","trial_index":97,"time_elapsed":2852750,"internal_node_id":"0.0-5.0-43.0"},{"group":"hexagon_tri","fractal_assignment":["../images/cyn_red.png","../images/org_blu.png","../images/blu_wht.png","../images/pnk_blu.png","../images/gry_blk.png","../images/ylw_slt.png"],"mutagen_generator_assignment":[0,1],"goal":2,"start":0,"action_noise":0.15,"location_history":"[0,1,3,2]","action_history":"[1,0,0]","mutagen_history":"[1,0,0]","location_rts":"[6531,1170,943]","trial_type":"fractal-mutation","trial_index":98,"time_elapsed":2868308,"internal_node_id":"0.0-5.0-44.0"},{"group":"hexagon_tri","fractal_assignment":["../images/cyn_red.png","../images/org_blu.png","../images/blu_wht.png","../images/pnk_blu.png","../images/gry_blk.png","../images/ylw_slt.png"],"mutagen_generator_assignment":[0,1],"goal":4,"start":2,"action_noise":0.15,"location_history":"[2,3,2,1,3,2,3,2,3,2,1,5,4]","action_history":"[1,0,0,0,0,1,0,1,0,0,1,0]","mutagen_history":"[1,0,0,0,0,1,0,1,0,0,1,0]","location_rts":"[2448,1020,1410,1093,852,999,1278,890,1125,1292,2282,841]","trial_type":"fractal-mutation","trial_index":99,"time_elapsed":2900966,"internal_node_id":"0.0-5.0-45.0"},{"group":"hexagon_tri","fractal_assignment":["../images/cyn_red.png","../images/org_blu.png","../images/blu_wht.png","../images/pnk_blu.png","../images/gry_blk.png","../images/ylw_slt.png"],"mutagen_generator_assignment":[0,1],"goal":1,"start":4,"action_noise":0.15,"location_history":"[4,2,1]","action_history":"[1,0]","mutagen_history":"[1,0]","location_rts":"[4651,804]","trial_type":"fractal-mutation","trial_index":100,"time_elapsed":2912257,"internal_node_id":"0.0-5.0-46.0"},{"group":"hexagon_tri","fractal_assignment":["../images/cyn_red.png","../images/org_blu.png","../images/blu_wht.png","../images/pnk_blu.png","../images/gry_blk.png","../images/ylw_slt.png"],"mutagen_generator_assignment":[0,1],"goal":4,"start":1,"action_noise":0.15,"location_history":"[1,3,2,3,2,3,4]","action_history":"[0,0,1,0,1,1]","mutagen_history":"[0,0,1,0,1,1]","location_rts":"[4336,1210,703,793,2126,1929]","trial_type":"fractal-mutation","trial_index":101,"time_elapsed":2933804,"internal_node_id":"0.0-5.0-47.0"},{"group":"hexagon_tri","fractal_assignment":["../images/cyn_red.png","../images/org_blu.png","../images/blu_wht.png","../images/pnk_blu.png","../images/gry_blk.png","../images/ylw_slt.png"],"mutagen_generator_assignment":[0,1],"goal":3,"start":4,"action_noise":0.15,"location_history":"[4,2,1,3]","action_history":"[1,0,0]","mutagen_history":"[1,0,0]","location_rts":"[2754,1012,1295]","trial_type":"fractal-mutation","trial_index":102,"time_elapsed":2945792,"internal_node_id":"0.0-5.0-48.0"},{"group":"hexagon_tri","fractal_assignment":["../images/cyn_red.png","../images/org_blu.png","../images/blu_wht.png","../images/pnk_blu.png","../images/gry_blk.png","../images/ylw_slt.png"],"mutagen_generator_assignment":[0,1],"goal":5,"start":3,"action_noise":0.15,"location_history":"[3,4,0,5]","action_history":"[1,1,0]","mutagen_history":"[1,1,0]","location_rts":"[4835,1560,1913]","trial_type":"fractal-mutation","trial_index":103,"time_elapsed":2961070,"internal_node_id":"0.0-5.0-49.0"},{"view_history":"[{\"page_index\":0,\"viewing_time\":25162}]","rt":25162,"trial_type":"instructions","trial_index":104,"time_elapsed":2987234,"internal_node_id":"0.0-6.0"},{"rt":10739,"responses":"{\"Q0\":\"No\"}","trial_type":"survey-text","trial_index":105,"time_elapsed":2998979,"internal_node_id":"0.0-7.0"}]