[{"view_history":"[{\"page_index\":0,\"viewing_time\":6249},{\"page_index\":1,\"viewing_time\":9062},{\"page_index\":2,\"viewing_time\":23514},{\"page_index\":3,\"viewing_time\":5196}]","rt":44022,"trial_type":"instructions","trial_index":0,"time_elapsed":44023,"internal_node_id":"0.0-0.0"},{"view_history":"[{\"page_index\":0,\"viewing_time\":2421},{\"page_index\":1,\"viewing_time\":20257}]","rt":22678,"trial_type":"instructions","trial_index":1,"time_elapsed":67702,"internal_node_id":"0.0-1.0"},{"group":"hexagon_bi","room_assignment":["green","red","yellow","blue","grey","purple"],"door_color_assignment":["white","black"],"door_generator_assignment":[0,1],"goal":4,"start":0,"action_noise":0.15,"location_history":"[0,5,0,1,0,1,2,1,0,1,0,5,4]","action_history":"[0,0,1,1,0,1,0,1,1,0,0,1]","door_history":"[0,0,1,1,0,1,0,1,1,0,0,1]","location_rts":"[3461,2733,2732,1351,4221,4245,2987,1798,3197,1199,1605,1583]","trial_type":"two-door-navigation","trial_index":2,"time_elapsed":114675,"internal_node_id":"0.0-2.0-0.0"},{"group":"hexagon_bi","room_assignment":["green","red","yellow","blue","grey","purple"],"door_color_assignment":["white","black"],"door_generator_assignment":[0,1],"goal":3,"start":4,"action_noise":0.15,"location_history":"[4,5,0,1,0,1,2,3]","action_history":"[1,0,0,1,1,0,1]","door_history":"[1,0,0,1,1,0,1]","location_rts":"[5761,1988,2420,1058,2891,2711,1293]","trial_type":"two-door-navigation","trial_index":3,"time_elapsed":143556,"internal_node_id":"0.0-2.0-1.0"},{"group":"hexagon_bi","room_assignment":["green","red","yellow","blue","grey","purple"],"door_color_assignment":["white","black"],"door_generator_assignment":[0,1],"goal":5,"start":3,"action_noise":0.15,"location_history":"[3,4,3,2,3,2,1,0,5]","action_history":"[0,0,1,1,1,0,0,1]","door_history":"[0,0,1,1,1,0,0,1]","location_rts":"[1856,1273,1142,1525,1507,445,2404,1654]","trial_type":"two-door-navigation","trial_index":4,"time_elapsed":167133,"internal_node_id":"0.0-2.0-2.0"},{"group":"hexagon_bi","room_assignment":["green","red","yellow","blue","grey","purple"],"door_color_assignment":["white","black"],"door_generator_assignment":[0,1],"goal":2,"start":5,"action_noise":0.15,"location_history":"[5,4,3,2]","action_history":"[0,0,1]","door_history":"[0,0,1]","location_rts":"[1443,631,944]","trial_type":"two-door-navigation","trial_index":5,"time_elapsed":176737,"internal_node_id":"0.0-2.0-3.0"},{"group":"hexagon_bi","room_assignment":["green","red","yellow","blue","grey","purple"],"door_color_assignment":["white","black"],"door_generator_assignment":[0,1],"goal":1,"start":2,"action_noise":0.15,"location_history":"[2,1]","action_history":"[0]","door_history":"[0]","location_rts":"[1722]","trial_type":"two-door-navigation","trial_index":6,"time_elapsed":183029,"internal_node_id":"0.0-2.0-4.0"},{"group":"hexagon_bi","room_assignment":["green","red","yellow","blue","grey","purple"],"door_color_assignment":["white","black"],"door_generator_assignment":[0,1],"goal":4,"start":1,"action_noise":0.15,"location_history":"[1,2,3,4]","action_history":"[0,0,0]","door_history":"[0,0,0]","location_rts":"[2679,1467,2772]","trial_type":"two-door-navigation","trial_index":7,"time_elapsed":196546,"internal_node_id":"0.0-2.0-5.0"},{"group":"hexagon_bi","room_assignment":["green","red","yellow","blue","grey","purple"],"door_color_assignment":["white","black"],"door_generator_assignment":[0,1],"goal":1,"start":4,"action_noise":0.15,"location_history":"[4,5,4,5,0,5,0,1]","action_history":"[1,1,1,0,1,0,0]","door_history":"[1,1,1,0,1,0,0]","location_rts":"[1931,4016,899,988,1440,735,436]","trial_type":"two-door-navigation","trial_index":8,"time_elapsed":217691,"internal_node_id":"0.0-2.0-6.0"},{"group":"hexagon_bi","room_assignment":["green","red","yellow","blue","grey","purple"],"door_color_assignment":["white","black"],"door_generator_assignment":[0,1],"goal":5,"start":1,"action_noise":0.15,"location_history":"[1,0,1,2,1,0,5]","action_history":"[1,1,1,0,0,0]","door_history":"[1,1,1,0,0,0]","location_rts":"[1670,1115,2743,390,1265,685]","trial_type":"two-door-navigation","trial_index":9,"time_elapsed":235218,"internal_node_id":"0.0-2.0-7.0"},{"group":"hexagon_bi","room_assignment":["green","red","yellow","blue","grey","purple"],"door_color_assignment":["white","black"],"door_generator_assignment":[0,1],"goal":0,"start":5,"action_noise":0.15,"location_history":"[5,4,5,0]","action_history":"[1,1,1]","door_history":"[1,1,1]","location_rts":"[2924,463,398]","trial_type":"two-door-navigation","trial_index":10,"time_elapsed":245616,"internal_node_id":"0.0-2.0-8.0"},{"group":"hexagon_bi","room_assignment":["green","red","yellow","blue","grey","purple"],"door_color_assignment":["white","black"],"door_generator_assignment":[0,1],"goal":2,"start":0,"action_noise":0.15,"location_history":"[0,5,0,5,0,1,2]","action_history":"[0,0,0,0,1,0]","door_history":"[0,0,0,0,1,0]","location_rts":"[1521,413,354,404,1227,1273]","trial_type":"two-door-navigation","trial_index":11,"time_elapsed":260462,"internal_node_id":"0.0-2.0-9.0"},{"group":"hexagon_bi","room_assignment":["green","red","yellow","blue","grey","purple"],"door_color_assignment":["white","black"],"door_generator_assignment":[0,1],"goal":3,"start":2,"action_noise":0.15,"location_history":"[2,1,2,3]","action_history":"[0,0,1]","door_history":"[0,0,1]","location_rts":"[1869,521,1137]","trial_type":"two-door-navigation","trial_index":12,"time_elapsed":270562,"internal_node_id":"0.0-2.0-10.0"},{"group":"hexagon_bi","room_assignment":["green","red","yellow","blue","grey","purple"],"door_color_assignment":["white","black"],"door_generator_assignment":[0,1],"goal":0,"start":3,"action_noise":0.15,"location_history":"[3,2,3,4,5,0]","action_history":"[1,1,1,0,0]","door_history":"[1,1,1,0,0]","location_rts":"[3275,873,509,157,925]","trial_type":"two-door-navigation","trial_index":13,"time_elapsed":284983,"internal_node_id":"0.0-2.0-11.0"},{"group":"hexagon_bi","room_assignment":["green","red","yellow","blue","grey","purple"],"door_color_assignment":["white","black"],"door_generator_assignment":[0,1],"goal":2,"start":0,"action_noise":0.15,"location_history":"[0,1,0,5,0,5,4,5,4,3,4,3,2]","action_history":"[1,1,0,1,1,1,1,1,0,0,0,1]","door_history":"[1,1,0,1,1,1,1,1,0,0,0,1]","location_rts":"[1523,449,1091,554,989,474,664,391,910,1368,982,392]","trial_type":"two-door-navigation","trial_index":14,"time_elapsed":310617,"internal_node_id":"0.0-2.0-12.0"},{"group":"hexagon_bi","room_assignment":["green","red","yellow","blue","grey","purple"],"door_color_assignment":["white","black"],"door_generator_assignment":[0,1],"goal":5,"start":2,"action_noise":0.15,"location_history":"[2,3,4,3,2,3,4,3,4,5]","action_history":"[0,0,0,0,1,0,0,1,1]","door_history":"[0,0,0,0,1,0,0,1,1]","location_rts":"[1812,807,1394,645,369,903,632,1378,438]","trial_type":"two-door-navigation","trial_index":15,"time_elapsed":331728,"internal_node_id":"0.0-2.0-13.0"},{"group":"hexagon_bi","room_assignment":["green","red","yellow","blue","grey","purple"],"door_color_assignment":["white","black"],"door_generator_assignment":[0,1],"goal":4,"start":5,"action_noise":0.15,"location_history":"[5,0,1,2,3,4]","action_history":"[0,0,0,0,0]","door_history":"[0,0,0,0,0]","location_rts":"[1375,799,882,378,333]","trial_type":"two-door-navigation","trial_index":16,"time_elapsed":344133,"internal_node_id":"0.0-2.0-14.0"},{"group":"hexagon_bi","room_assignment":["green","red","yellow","blue","grey","purple"],"door_color_assignment":["white","black"],"door_generator_assignment":[0,1],"goal":3,"start":4,"action_noise":0.15,"location_history":"[4,5,4,3]","action_history":"[1,1,1]","door_history":"[1,1,1]","location_rts":"[1319,590,414]","trial_type":"two-door-navigation","trial_index":17,"time_elapsed":353049,"internal_node_id":"0.0-2.0-15.0"},{"group":"hexagon_bi","room_assignment":["green","red","yellow","blue","grey","purple"],"door_color_assignment":["white","black"],"door_generator_assignment":[0,1],"goal":1,"start":3,"action_noise":0.15,"location_history":"[3,4,3,4,5,0,5,0,5,0,5,0,5,0,5,4,3,2,3,2,3,4,3,2,1]","action_history":"[0,0,0,0,0,0,0,0,0,1,1,0,0,0,1,1,1,1,1,1,0,0,1,0]","door_history":"[0,0,0,0,0,0,0,0,0,1,1,0,0,0,1,1,1,1,1,1,0,0,1,0]","location_rts":"[2070,354,380,417,473,411,399,443,547,705,1824,757,398,414,1276,1127,839,543,486,395,769,1901,744,790]","trial_type":"two-door-navigation","trial_index":18,"time_elapsed":399731,"internal_node_id":"0.0-2.0-16.0"},{"group":"hexagon_bi","room_assignment":["green","red","yellow","blue","grey","purple"],"door_color_assignment":["white","black"],"door_generator_assignment":[0,1],"goal":5,"start":1,"action_noise":0.15,"location_history":"[1,2,1,2,3,2,3,2,3,2,1,0,5]","action_history":"[0,0,0,1,0,1,1,1,1,0,1,0]","door_history":"[0,0,0,1,0,1,1,1,1,0,1,0]","location_rts":"[2076,469,426,1127,848,914,500,891,439,1073,1219,898]","trial_type":"two-door-navigation","trial_index":19,"time_elapsed":426463,"internal_node_id":"0.0-2.0-17.0"},{"group":"hexagon_bi","room_assignment":["green","red","yellow","blue","grey","purple"],"door_color_assignment":["white","black"],"door_generator_assignment":[0,1],"goal":4,"start":5,"action_noise":0.15,"location_history":"[5,0,5,0,5,0,1,0,1,2,3,2,3,2,1,0,5,0,1,2,1,2,1,2,1,0,5,4]","action_history":"[0,0,0,0,0,1,1,1,0,1,0,1,1,0,1,0,0,1,0,0,0,0,0,0,1,0,1]","door_history":"[0,0,0,0,0,1,1,1,0,1,0,1,1,0,1,0,0,1,0,0,0,0,0,0,1,0,1]","location_rts":"[1837,370,386,341,808,285,1170,692,339,671,646,723,443,969,818,905,398,823,724,308,687,435,467,846,347,1516,913]","trial_type":"two-door-navigation","trial_index":20,"time_elapsed":476605,"internal_node_id":"0.0-2.0-18.0"},{"group":"hexagon_bi","room_assignment":["green","red","yellow","blue","grey","purple"],"door_color_assignment":["white","black"],"door_generator_assignment":[0,1],"goal":0,"start":4,"action_noise":0.15,"location_history":"[4,5,4,3,4,3,4,3,4,3,4,5,4,3,4,3,4,3,4,3,4,5,4,3,2,3,2,1,0]","action_history":"[1,1,0,0,1,0,0,0,0,0,0,0,0,0,0,0,0,0,0,1,1,1,0,1,1,1,0,0]","door_history":"[1,1,0,0,1,0,0,0,0,0,0,0,0,0,0,0,0,0,0,1,1,1,0,1,1,1,0,0]","location_rts":"[2638,395,468,600,638,645,297,285,292,304,347,622,338,322,358,356,363,357,411,384,1221,1043,1159,723,386,1077,927,2608]","trial_type":"two-door-navigation","trial_index":21,"time_elapsed":528492,"internal_node_id":"0.0-2.0-19.0"},{"group":"hexagon_bi","room_assignment":["green","red","yellow","blue","grey","purple"],"door_color_assignment":["white","black"],"door_generator_assignment":[0,1],"goal":1,"start":0,"action_noise":0.15,"location_history":"[0,1]","action_history":"[1]","door_history":"[1]","location_rts":"[1612]","trial_type":"two-door-navigation","trial_index":22,"time_elapsed":534632,"internal_node_id":"0.0-2.0-20.0"},{"group":"hexagon_bi","room_assignment":["green","red","yellow","blue","grey","purple"],"door_color_assignment":["white","black"],"door_generator_assignment":[0,1],"goal":3,"start":1,"action_noise":0.15,"location_history":"[1,0,5,4,3]","action_history":"[1,0,1,0]","door_history":"[1,0,1,0]","location_rts":"[1506,1150,929,1757]","trial_type":"two-door-navigation","trial_index":23,"time_elapsed":547568,"internal_node_id":"0.0-2.0-21.0"},{"group":"hexagon_bi","room_assignment":["green","red","yellow","blue","grey","purple"],"door_color_assignment":["white","black"],"door_generator_assignment":[0,1],"goal":2,"start":3,"action_noise":0.15,"location_history":"[3,2]","action_history":"[1]","door_history":"[1]","location_rts":"[1650]","trial_type":"two-door-navigation","trial_index":24,"time_elapsed":553744,"internal_node_id":"0.0-2.0-22.0"},{"group":"hexagon_bi","room_assignment":["green","red","yellow","blue","grey","purple"],"door_color_assignment":["white","black"],"door_generator_assignment":[0,1],"goal":0,"start":2,"action_noise":0.15,"location_history":"[2,1,0]","action_history":"[0,1]","door_history":"[0,1]","location_rts":"[3722,582]","trial_type":"two-door-navigation","trial_index":25,"time_elapsed":563627,"internal_node_id":"0.0-2.0-23.0"},{"group":"hexagon_bi","room_assignment":["green","red","yellow","blue","grey","purple"],"door_color_assignment":["white","black"],"door_generator_assignment":[0,1],"goal":3,"start":0,"action_noise":0.15,"location_history":"[0,1,2,1,0,1,0,5,4,3]","action_history":"[1,0,0,1,1,0,0,1,0]","door_history":"[1,0,0,1,1,0,0,1,0]","location_rts":"[1868,1013,726,1333,980,1226,1639,785,1587]","trial_type":"two-door-navigation","trial_index":26,"time_elapsed":587570,"internal_node_id":"0.0-2.0-24.0"},{"group":"hexagon_bi","room_assignment":["green","red","yellow","blue","grey","purple"],"door_color_assignment":["white","black"],"door_generator_assignment":[0,1],"goal":1,"start":3,"action_noise":0.15,"location_history":"[3,2,3,2,1]","action_history":"[1,1,1,0]","door_history":"[1,1,1,0]","location_rts":"[1825,879,1209,456]","trial_type":"two-door-navigation","trial_index":27,"time_elapsed":599591,"internal_node_id":"0.0-2.0-25.0"},{"group":"hexagon_bi","room_assignment":["green","red","yellow","blue","grey","purple"],"door_color_assignment":["white","black"],"door_generator_assignment":[0,1],"goal":2,"start":1,"action_noise":0.15,"location_history":"[1,2]","action_history":"[0]","door_history":"[0]","location_rts":"[1652]","trial_type":"two-door-navigation","trial_index":28,"time_elapsed":605800,"internal_node_id":"0.0-2.0-26.0"},{"group":"hexagon_bi","room_assignment":["green","red","yellow","blue","grey","purple"],"door_color_assignment":["white","black"],"door_generator_assignment":[0,1],"goal":5,"start":2,"action_noise":0.15,"location_history":"[2,1,2,3,4,3,2,1,2,3,4,3,2,3,4,5]","action_history":"[1,0,1,1,0,1,0,0,0,0,0,1,1,0,1]","door_history":"[1,0,1,1,0,1,0,0,0,0,0,1,1,0,1]","location_rts":"[1401,2064,668,303,816,1082,1347,2707,771,803,610,632,583,930,746]","trial_type":"two-door-navigation","trial_index":29,"time_elapsed":640340,"internal_node_id":"0.0-2.0-27.0"},{"group":"hexagon_bi","room_assignment":["green","red","yellow","blue","grey","purple"],"door_color_assignment":["white","black"],"door_generator_assignment":[0,1],"goal":4,"start":5,"action_noise":0.15,"location_history":"[5,0,1,2,1,0,1,2,3,2,3,4]","action_history":"[0,0,1,1,1,1,0,1,1,0,0]","door_history":"[0,0,1,1,1,1,0,1,1,0,0]","location_rts":"[2327,743,875,435,451,768,1062,562,1026,607,997]","trial_type":"two-door-navigation","trial_index":30,"time_elapsed":664992,"internal_node_id":"0.0-2.0-28.0"},{"group":"hexagon_bi","room_assignment":["green","red","yellow","blue","grey","purple"],"door_color_assignment":["white","black"],"door_generator_assignment":[0,1],"goal":5,"start":4,"action_noise":0.15,"location_history":"[4,5]","action_history":"[1]","door_history":"[1]","location_rts":"[2065]","trial_type":"two-door-navigation","trial_index":31,"time_elapsed":671593,"internal_node_id":"0.0-2.0-29.0"},{"group":"hexagon_bi","room_assignment":["green","red","yellow","blue","grey","purple"],"door_color_assignment":["white","black"],"door_generator_assignment":[0,1],"goal":3,"start":5,"action_noise":0.15,"location_history":"[5,0,5,0,5,0,1,2,1,0,1,2,3]","action_history":"[0,0,0,1,0,1,1,0,1,0,0,0]","door_history":"[0,0,0,1,0,1,1,0,1,0,0,0]","location_rts":"[1730,411,365,719,825,1053,369,1297,905,1116,355,396]","trial_type":"two-door-navigation","trial_index":32,"time_elapsed":696966,"internal_node_id":"0.0-2.0-30.0"},{"group":"hexagon_bi","room_assignment":["green","red","yellow","blue","grey","purple"],"door_color_assignment":["white","black"],"door_generator_assignment":[0,1],"goal":0,"start":3,"action_noise":0.15,"location_history":"[3,2,3,2,1,0]","action_history":"[1,1,1,1,1]","door_history":"[1,1,1,1,1]","location_rts":"[1864,482,336,427,662]","trial_type":"two-door-navigation","trial_index":33,"time_elapsed":709394,"internal_node_id":"0.0-2.0-31.0"},{"group":"hexagon_bi","room_assignment":["green","red","yellow","blue","grey","purple"],"door_color_assignment":["white","black"],"door_generator_assignment":[0,1],"goal":4,"start":0,"action_noise":0.15,"location_history":"[0,1,2,3,4]","action_history":"[0,0,0,0]","door_history":"[0,0,0,0]","location_rts":"[1247,345,405,355]","trial_type":"two-door-navigation","trial_index":34,"time_elapsed":719399,"internal_node_id":"0.0-2.0-32.0"},{"group":"hexagon_bi","room_assignment":["green","red","yellow","blue","grey","purple"],"door_color_assignment":["white","black"],"door_generator_assignment":[0,1],"goal":1,"start":4,"action_noise":0.15,"location_history":"[4,5,4,5,4,3,4,3,2,1]","action_history":"[1,0,1,1,0,0,0,1,0]","door_history":"[1,0,1,1,0,0,0,1,0]","location_rts":"[1428,1314,1059,440,759,686,439,856,1036]","trial_type":"two-door-navigation","trial_index":35,"time_elapsed":740176,"internal_node_id":"0.0-2.0-33.0"},{"group":"hexagon_bi","room_assignment":["green","red","yellow","blue","grey","purple"],"door_color_assignment":["white","black"],"door_generator_assignment":[0,1],"goal":2,"start":1,"action_noise":0.15,"location_history":"[1,0,1,0,5,0,5,0,1,2]","action_history":"[0,1,1,0,0,0,0,1,1]","door_history":"[0,1,1,0,0,0,0,1,1]","location_rts":"[2511,1286,513,751,598,629,1223,265,2064]","trial_type":"two-door-navigation","trial_index":36,"time_elapsed":762779,"internal_node_id":"0.0-2.0-34.0"},{"group":"hexagon_bi","room_assignment":["green","red","yellow","blue","grey","purple"],"door_color_assignment":["white","black"],"door_generator_assignment":[0,1],"goal":0,"start":2,"action_noise":0.15,"location_history":"[2,3,2,3,4,3,4,5,0]","action_history":"[0,1,1,0,0,0,1,0]","door_history":"[0,1,1,0,0,0,1,0]","location_rts":"[1476,785,551,1011,606,410,412,952]","trial_type":"two-door-navigation","trial_index":37,"time_elapsed":780679,"internal_node_id":"0.0-2.0-35.0"},{"group":"hexagon_bi","room_assignment":["green","red","yellow","blue","grey","purple"],"door_color_assignment":["white","black"],"door_generator_assignment":[0,1],"goal":5,"start":0,"action_noise":0.15,"location_history":"[0,1,2,3,2,3,4,3,2,3,2,1,2,1,2,3,4,3,4,3,2,3,4,3,4,3,2,3,2,3,4,5]","action_history":"[1,0,1,1,1,1,1,1,1,1,1,0,0,0,0,0,0,0,0,1,1,0,1,0,0,1,1,1,1,1,1]","door_history":"[1,0,1,1,1,1,1,1,1,1,1,0,0,0,0,0,0,0,0,1,1,0,1,0,0,1,1,1,1,1,1]","location_rts":"[1073,1091,1452,533,464,502,636,424,426,430,394,395,506,407,308,431,400,379,399,908,1095,455,757,825,975,880,1477,390,333,381,351]","trial_type":"two-door-navigation","trial_index":38,"time_elapsed":835725,"internal_node_id":"0.0-2.0-36.0"},{"group":"hexagon_bi","room_assignment":["green","red","yellow","blue","grey","purple"],"door_color_assignment":["white","black"],"door_generator_assignment":[0,1],"goal":2,"start":5,"action_noise":0.15,"location_history":"[5,0,5,4,5,4,5,4,5,0,5,0,5,0,1,0,5,4,5,4,3,2]","action_history":"[0,0,1,1,1,1,1,0,0,0,0,0,0,1,1,0,1,1,1,0,1]","door_history":"[0,0,1,1,1,1,1,0,0,0,0,0,0,1,1,0,1,1,1,0,1]","location_rts":"[2749,784,1127,511,918,389,498,333,1011,600,390,414,296,440,1197,533,784,564,2440,296,1005]","trial_type":"two-door-navigation","trial_index":39,"time_elapsed":878066,"internal_node_id":"0.0-2.0-37.0"},{"group":"hexagon_bi","room_assignment":["green","red","yellow","blue","grey","purple"],"door_color_assignment":["white","black"],"door_generator_assignment":[0,1],"goal":1,"start":2,"action_noise":0.15,"location_history":"[2,3,4,3,4,3,2,3,2,1]","action_history":"[1,0,0,0,0,1,1,1,0]","door_history":"[1,0,0,0,0,1,1,1,0]","location_rts":"[181017,1284,507,457,375,946,492,416,1047]","trial_type":"two-door-navigation","trial_index":40,"time_elapsed":1077506,"internal_node_id":"0.0-2.0-38.0"},{"group":"hexagon_bi","room_assignment":["green","red","yellow","blue","grey","purple"],"door_color_assignment":["white","black"],"door_generator_assignment":[0,1],"goal":4,"start":1,"action_noise":0.15,"location_history":"[1,2,3,2,1,0,1,2,3,2,3,4]","action_history":"[0,1,1,0,1,1,0,1,1,1,0]","door_history":"[0,1,1,0,1,1,0,1,1,1,0]","location_rts":"[1716,652,496,682,784,708,941,387,1911,1110,785]","trial_type":"two-door-navigation","trial_index":41,"time_elapsed":1102482,"internal_node_id":"0.0-2.0-39.0"},{"group":"hexagon_bi","room_assignment":["green","red","yellow","blue","grey","purple"],"door_color_assignment":["white","black"],"door_generator_assignment":[0,1],"goal":3,"start":4,"action_noise":0.15,"location_history":"[4,5,0,1,0,1,0,1,0,5,0,5,0,1,2,3]","action_history":"[1,0,0,1,1,1,1,1,0,1,0,0,1,0,1]","door_history":"[1,0,0,1,1,1,1,1,0,1,0,0,1,0,1]","location_rts":"[2959,1148,566,328,328,280,245,313,545,999,1699,767,1481,791,766]","trial_type":"two-door-navigation","trial_index":42,"time_elapsed":1134644,"internal_node_id":"0.0-2.0-40.0"},{"group":"hexagon_bi","room_assignment":["green","red","yellow","blue","grey","purple"],"door_color_assignment":["white","black"],"door_generator_assignment":[0,1],"goal":5,"start":3,"action_noise":0.15,"location_history":"[3,4,5]","action_history":"[0,1]","door_history":"[0,1]","location_rts":"[1298,541]","trial_type":"two-door-navigation","trial_index":43,"time_elapsed":1142038,"internal_node_id":"0.0-2.0-41.0"},{"group":"hexagon_bi","room_assignment":["green","red","yellow","blue","grey","purple"],"door_color_assignment":["white","black"],"door_generator_assignment":[0,1],"goal":3,"start":5,"action_noise":0.15,"location_history":"[5,0,5,0,1,2,3]","action_history":"[0,0,0,1,0,1]","door_history":"[0,0,0,1,0,1]","location_rts":"[1059,578,1394,285,2157,922]","trial_type":"two-door-navigation","trial_index":44,"time_elapsed":1158102,"internal_node_id":"0.0-2.0-42.0"},{"group":"hexagon_bi","room_assignment":["green","red","yellow","blue","grey","purple"],"door_color_assignment":["white","black"],"door_generator_assignment":[0,1],"goal":0,"start":3,"action_noise":0.15,"location_history":"[3,2,1,2,1,2,3,2,3,4,5,0]","action_history":"[1,0,1,0,0,1,1,1,0,1,0]","door_history":"[1,0,1,0,0,1,1,1,0,1,0]","location_rts":"[3927,516,1013,1520,608,1687,1261,618,279,1017,1093]","trial_type":"two-door-navigation","trial_index":45,"time_elapsed":1186453,"internal_node_id":"0.0-2.0-43.0"},{"group":"hexagon_bi","room_assignment":["green","red","yellow","blue","grey","purple"],"door_color_assignment":["white","black"],"door_generator_assignment":[0,1],"goal":2,"start":0,"action_noise":0.15,"location_history":"[0,1,0,1,2]","action_history":"[1,1,1,0]","door_history":"[1,1,1,0]","location_rts":"[1486,880,805,312]","trial_type":"two-door-navigation","trial_index":46,"time_elapsed":1197570,"internal_node_id":"0.0-2.0-44.0"},{"group":"hexagon_bi","room_assignment":["green","red","yellow","blue","grey","purple"],"door_color_assignment":["white","black"],"door_generator_assignment":[0,1],"goal":4,"start":2,"action_noise":0.15,"location_history":"[2,1,0,1,2,3,2,3,4]","action_history":"[1,1,0,1,1,1,1,0]","door_history":"[1,1,0,1,1,1,1,0]","location_rts":"[1906,2677,1015,747,727,403,429,317]","trial_type":"two-door-navigation","trial_index":47,"time_elapsed":1217516,"internal_node_id":"0.0-2.0-45.0"},{"group":"hexagon_bi","room_assignment":["green","red","yellow","blue","grey","purple"],"door_color_assignment":["white","black"],"door_generator_assignment":[0,1],"goal":1,"start":4,"action_noise":0.15,"location_history":"[4,3,4,5,0,1]","action_history":"[1,1,1,0,1]","door_history":"[1,1,1,0,1]","location_rts":"[1561,1900,796,647,922]","trial_type":"two-door-navigation","trial_index":48,"time_elapsed":1232007,"internal_node_id":"0.0-2.0-46.0"},{"group":"hexagon_bi","room_assignment":["green","red","yellow","blue","grey","purple"],"door_color_assignment":["white","black"],"door_generator_assignment":[0,1],"goal":4,"start":1,"action_noise":0.15,"location_history":"[1,2,1,2,3,4]","action_history":"[0,0,0,1,0]","door_history":"[0,0,0,1,0]","location_rts":"[1551,416,769,267,1389]","trial_type":"two-door-navigation","trial_index":49,"time_elapsed":1245034,"internal_node_id":"0.0-2.0-47.0"},{"group":"hexagon_bi","room_assignment":["green","red","yellow","blue","grey","purple"],"door_color_assignment":["white","black"],"door_generator_assignment":[0,1],"goal":3,"start":4,"action_noise":0.15,"location_history":"[4,5,0,5,0,5,4,3]","action_history":"[1,0,0,0,0,1,0]","door_history":"[1,0,0,0,0,1,0]","location_rts":"[1271,960,600,485,458,1505,676]","trial_type":"two-door-navigation","trial_index":50,"time_elapsed":1261704,"internal_node_id":"0.0-2.0-48.0"},{"group":"hexagon_bi","room_assignment":["green","red","yellow","blue","grey","purple"],"door_color_assignment":["white","black"],"door_generator_assignment":[0,1],"goal":5,"start":3,"action_noise":0.15,"location_history":"[3,2,3,4,5]","action_history":"[1,1,0,1]","door_history":"[1,1,0,1]","location_rts":"[1655,1369,604,690]","trial_type":"two-door-navigation","trial_index":51,"time_elapsed":1273623,"internal_node_id":"0.0-2.0-49.0"},{"view_history":"[{\"page_index\":0,\"viewing_time\":3152}]","rt":3153,"trial_type":"instructions","trial_index":52,"time_elapsed":1277777,"internal_node_id":"0.0-3.0"},{"view_history":"[{\"page_index\":0,\"viewing_time\":3583},{\"page_index\":1,\"viewing_time\":28616}]","rt":32200,"trial_type":"instructions","trial_index":53,"time_elapsed":1310977,"internal_node_id":"0.0-4.0"},{"group":"hexagon_bi","fractal_assignment":["../images/cyn_red.png","../images/ylw_slt.png","../images/org_blu.png","../images/pnk_blu.png","../images/blu_wht.png","../images/gry_blk.png"],"mutagen_generator_assignment":[0,1],"goal":4,"start":0,"action_noise":0.15,"location_history":"[0,1,0,5,0,1,0,1,2,3,4]","action_history":"[1,0,0,0,1,1,1,0,1,0]","mutagen_history":"[1,0,0,0,1,1,1,0,1,0]","location_rts":"[6929,2100,1194,2765,1365,1221,2026,581,1757,1948]","trial_type":"fractal-mutation","trial_index":54,"time_elapsed":1346837,"internal_node_id":"0.0-5.0-0.0"},{"group":"hexagon_bi","fractal_assignment":["../images/cyn_red.png","../images/ylw_slt.png","../images/org_blu.png","../images/pnk_blu.png","../images/blu_wht.png","../images/gry_blk.png"],"mutagen_generator_assignment":[0,1],"goal":3,"start":4,"action_noise":0.15,"location_history":"[4,5,0,1,2,1,0,5,4,3]","action_history":"[1,0,1,0,1,1,0,1,0]","mutagen_history":"[1,0,1,0,1,1,0,1,0]","location_rts":"[3905,1153,944,1340,1382,1714,938,1022,1902]","trial_type":"fractal-mutation","trial_index":55,"time_elapsed":1374094,"internal_node_id":"0.0-5.0-1.0"},{"group":"hexagon_bi","fractal_assignment":["../images/cyn_red.png","../images/ylw_slt.png","../images/org_blu.png","../images/pnk_blu.png","../images/blu_wht.png","../images/gry_blk.png"],"mutagen_generator_assignment":[0,1],"goal":5,"start":3,"action_noise":0.15,"location_history":"[3,2,1,2,3,4,3,2,3,2,1,0,1,2,3,4,5]","action_history":"[1,0,0,1,1,0,1,1,1,0,1,1,0,1,0,1]","mutagen_history":"[1,0,0,1,1,0,1,1,1,0,1,1,0,1,0,1]","location_rts":"[3010,1495,2189,1429,790,1253,804,1264,1102,418,951,2057,363,1286,2011,1469]","trial_type":"fractal-mutation","trial_index":56,"time_elapsed":1416127,"internal_node_id":"0.0-5.0-2.0"},{"group":"hexagon_bi","fractal_assignment":["../images/cyn_red.png","../images/ylw_slt.png","../images/org_blu.png","../images/pnk_blu.png","../images/blu_wht.png","../images/gry_blk.png"],"mutagen_generator_assignment":[0,1],"goal":2,"start":5,"action_noise":0.15,"location_history":"[5,0,5,4,5,4,3,2]","action_history":"[0,1,1,1,1,0,1]","mutagen_history":"[0,1,1,1,1,0,1]","location_rts":"[2136,1003,2425,1197,807,621,1098]","trial_type":"fractal-mutation","trial_index":57,"time_elapsed":1436211,"internal_node_id":"0.0-5.0-3.0"},{"group":"hexagon_bi","fractal_assignment":["../images/cyn_red.png","../images/ylw_slt.png","../images/org_blu.png","../images/pnk_blu.png","../images/blu_wht.png","../images/gry_blk.png"],"mutagen_generator_assignment":[0,1],"goal":1,"start":2,"action_noise":0.15,"location_history":"[2,3,4,5,4,3,4,3,4,5,0,1]","action_history":"[1,0,1,1,0,0,0,1,1,0,1]","mutagen_history":"[1,0,1,1,0,0,0,1,1,0,1]","location_rts":"[2012,907,1024,920,445,1236,1425,382,1005,1047,1457]","trial_type":"fractal-mutation","trial_index":58,"time_elapsed":1463109,"internal_node_id":"0.0-5.0-4.0"},{"group":"hexagon_bi","fractal_assignment":["../images/cyn_red.png","../images/ylw_slt.png","../images/org_blu.png","../images/pnk_blu.png","../images/blu_wht.png","../images/gry_blk.png"],"mutagen_generator_assignment":[0,1],"goal":4,"start":1,"action_noise":0.15,"location_history":"[1,0,5,4]","action_history":"[1,0,1]","mutagen_history":"[1,0,1]","location_rts":"[2858,511,680]","trial_type":"fractal-mutation","trial_index":59,"time_elapsed":1473786,"internal_node_id":"0.0-5.0-5.0"},{"group":"hexagon_bi","fractal_assignment":["../images/cyn_red.png","../images/ylw_slt.png","../images/org_blu.png","../images/pnk_blu.png","../images/blu_wht.png","../images/gry_blk.png"],"mutagen_generator_assignment":[0,1],"goal":1,"start":4,"action_noise":0.15,"location_history":"[4,3,2,1]","action_history":"[0,1,0]","mutagen_history":"[0,1,0]","location_rts":"[881,974,802]","trial_type":"fractal-mutation","trial_index":60,"time_elapsed":1483058,"internal_node_id":"0.0-5.0-6.0"},{"group":"hexagon_bi","fractal_assignment":["../images/cyn_red.png","../images/ylw_slt.png","../images/org_blu.png","../images/pnk_blu.png","../images/blu_wht.png","../images/gry_blk.png"],"mutagen_generator_assignment":[0,1],"goal":5,"start":1,"action_noise":0.15,"location_history":"[1,2,3,4,5]","action_history":"[0,1,0,1]","mutagen_history":"[0,1,0,1]","location_rts":"[2139,877,1824,834]","trial_type":"fractal-mutation","trial_index":61,"time_elapsed":1496381,"internal_node_id":"0.0-5.0-7.0"},{"group":"hexagon_bi","fractal_assignment":["../images/cyn_red.png","../images/ylw_slt.png","../images/org_blu.png","../images/pnk_blu.png","../images/blu_wht.png","../images/gry_blk.png"],"mutagen_generator_assignment":[0,1],"goal":0,"start":5,"action_noise":0.15,"location_history":"[5,0]","action_history":"[0]","mutagen_history":"[0]","location_rts":"[1719]","trial_type":"fractal-mutation","trial_index":62,"time_elapsed":1502650,"internal_node_id":"0.0-5.0-8.0"},{"group":"hexagon_bi","fractal_assignment":["../images/cyn_red.png","../images/ylw_slt.png","../images/org_blu.png","../images/pnk_blu.png","../images/blu_wht.png","../images/gry_blk.png"],"mutagen_generator_assignment":[0,1],"goal":2,"start":0,"action_noise":0.15,"location_history":"[0,5,4,5,4,3,4,5,0,5,4,3,4,5,0,1,0,1,0,5,4,5,0,1,2]","action_history":"[0,1,1,0,0,1,0,0,0,1,1,1,1,0,1,1,0,1,0,1,0,0,1,1]","mutagen_history":"[0,1,1,0,0,1,0,0,0,1,1,1,1,0,1,1,0,1,0,1,0,0,1,1]","location_rts":"[1892,1156,372,1208,1782,788,882,410,710,817,852,1073,980,3155,807,1414,628,1537,2115,996,1000,757,831,2174]","trial_type":"fractal-mutation","trial_index":63,"time_elapsed":1559476,"internal_node_id":"0.0-5.0-9.0"},{"group":"hexagon_bi","fractal_assignment":["../images/cyn_red.png","../images/ylw_slt.png","../images/org_blu.png","../images/pnk_blu.png","../images/blu_wht.png","../images/gry_blk.png"],"mutagen_generator_assignment":[0,1],"goal":3,"start":2,"action_noise":0.15,"location_history":"[2,1,0,5,4,5,4,3]","action_history":"[0,1,0,1,1,1,0]","mutagen_history":"[0,1,0,1,1,1,0]","location_rts":"[1512,806,1371,757,733,1047,429]","trial_type":"fractal-mutation","trial_index":64,"time_elapsed":1576954,"internal_node_id":"0.0-5.0-10.0"},{"group":"hexagon_bi","fractal_assignment":["../images/cyn_red.png","../images/ylw_slt.png","../images/org_blu.png","../images/pnk_blu.png","../images/blu_wht.png","../images/gry_blk.png"],"mutagen_generator_assignment":[0,1],"goal":0,"start":3,"action_noise":0.15,"location_history":"[3,2,3,4,5,0]","action_history":"[1,0,0,1,1]","mutagen_history":"[1,0,0,1,1]","location_rts":"[1430,735,989,1573,676]","trial_type":"fractal-mutation","trial_index":65,"time_elapsed":1591035,"internal_node_id":"0.0-5.0-11.0"},{"group":"hexagon_bi","fractal_assignment":["../images/cyn_red.png","../images/ylw_slt.png","../images/org_blu.png","../images/pnk_blu.png","../images/blu_wht.png","../images/gry_blk.png"],"mutagen_generator_assignment":[0,1],"goal":2,"start":0,"action_noise":0.15,"location_history":"[0,1,2]","action_history":"[1,0]","mutagen_history":"[1,0]","location_rts":"[2057,696]","trial_type":"fractal-mutation","trial_index":66,"time_elapsed":1599362,"internal_node_id":"0.0-5.0-12.0"},{"group":"hexagon_bi","fractal_assignment":["../images/cyn_red.png","../images/ylw_slt.png","../images/org_blu.png","../images/pnk_blu.png","../images/blu_wht.png","../images/gry_blk.png"],"mutagen_generator_assignment":[0,1],"goal":5,"start":2,"action_noise":0.15,"location_history":"[2,1,2,1,2,3,4,5]","action_history":"[1,1,0,0,1,0,1]","mutagen_history":"[1,1,0,0,1,0,1]","location_rts":"[1394,964,814,1215,856,1515,742]","trial_type":"fractal-mutation","trial_index":67,"time_elapsed":1617720,"internal_node_id":"0.0-5.0-13.0"},{"group":"hexagon_bi","fractal_assignment":["../images/cyn_red.png","../images/ylw_slt.png","../images/org_blu.png","../images/pnk_blu.png","../images/blu_wht.png","../images/gry_blk.png"],"mutagen_generator_assignment":[0,1],"goal":4,"start":5,"action_noise":0.15,"location_history":"[5,4]","action_history":"[1]","mutagen_history":"[1]","location_rts":"[1967]","trial_type":"fractal-mutation","trial_index":68,"time_elapsed":1624228,"internal_node_id":"0.0-5.0-14.0"},{"group":"hexagon_bi","fractal_assignment":["../images/cyn_red.png","../images/ylw_slt.png","../images/org_blu.png","../images/pnk_blu.png","../images/blu_wht.png","../images/gry_blk.png"],"mutagen_generator_assignment":[0,1],"goal":3,"start":4,"action_noise":0.15,"location_history":"[4,3]","action_history":"[0]","mutagen_history":"[0]","location_rts":"[1335]","trial_type":"fractal-mutation","trial_index":69,"time_elapsed":1630096,"internal_node_id":"0.0-5.0-15.0"},{"group":"hexagon_bi","fractal_assignment":["../images/cyn_red.png","../images/ylw_slt.png","../images/org_blu.png","../images/pnk_blu.png","../images/blu_wht.png","../images/gry_blk.png"],"mutagen_generator_assignment":[0,1],"goal":1,"start":3,"action_noise":0.15,"location_history":"[3,4,5,0,1]","action_history":"[1,1,0,1]","mutagen_history":"[1,1,0,1]","location_rts":"[1669,1432,1203,2612]","trial_type":"fractal-mutation","trial_index":70,"time_elapsed":1644661,"internal_node_id":"0.0-5.0-16.0"},{"group":"hexagon_bi","fractal_assignment":["../images/cyn_red.png","../images/ylw_slt.png","../images/org_blu.png","../images/pnk_blu.png","../images/blu_wht.png","../images/gry_blk.png"],"mutagen_generator_assignment":[0,1],"goal":5,"start":1,"action_noise":0.15,"location_history":"[1,2,3,4,5]","action_history":"[0,1,0,1]","mutagen_history":"[0,1,0,1]","location_rts":"[1389,920,1337,985]","trial_type":"fractal-mutation","trial_index":71,"time_elapsed":1656930,"internal_node_id":"0.0-5.0-17.0"},{"group":"hexagon_bi","fractal_assignment":["../images/cyn_red.png","../images/ylw_slt.png","../images/org_blu.png","../images/pnk_blu.png","../images/blu_wht.png","../images/gry_blk.png"],"mutagen_generator_assignment":[0,1],"goal":4,"start":5,"action_noise":0.15,"location_history":"[5,0,1,0,1,0,5,0,5,4]","action_history":"[0,1,0,1,1,0,0,0,1]","mutagen_history":"[0,1,0,1,1,0,0,0,1]","location_rts":"[1716,1740,1019,1716,1078,1058,792,610,353]","trial_type":"fractal-mutation","trial_index":72,"time_elapsed":1679860,"internal_node_id":"0.0-5.0-18.0"},{"group":"hexagon_bi","fractal_assignment":["../images/cyn_red.png","../images/ylw_slt.png","../images/org_blu.png","../images/pnk_blu.png","../images/blu_wht.png","../images/gry_blk.png"],"mutagen_generator_assignment":[0,1],"goal":0,"start":4,"action_noise":0.15,"location_history":"[4,5,0]","action_history":"[1,0]","mutagen_history":"[1,0]","location_rts":"[2643,1230]","trial_type":"fractal-mutation","trial_index":73,"time_elapsed":1689341,"internal_node_id":"0.0-5.0-19.0"},{"group":"hexagon_bi","fractal_assignment":["../images/cyn_red.png","../images/ylw_slt.png","../images/org_blu.png","../images/pnk_blu.png","../images/blu_wht.png","../images/gry_blk.png"],"mutagen_generator_assignment":[0,1],"goal":1,"start":0,"action_noise":0.15,"location_history":"[0,1]","action_history":"[1]","mutagen_history":"[1]","location_rts":"[2109]","trial_type":"fractal-mutation","trial_index":74,"time_elapsed":1695987,"internal_node_id":"0.0-5.0-20.0"},{"group":"hexagon_bi","fractal_assignment":["../images/cyn_red.png","../images/ylw_slt.png","../images/org_blu.png","../images/pnk_blu.png","../images/blu_wht.png","../images/gry_blk.png"],"mutagen_generator_assignment":[0,1],"goal":3,"start":1,"action_noise":0.15,"location_history":"[1,2,3]","action_history":"[0,1]","mutagen_history":"[0,1]","location_rts":"[1609,988]","trial_type":"fractal-mutation","trial_index":75,"time_elapsed":1704154,"internal_node_id":"0.0-5.0-21.0"},{"group":"hexagon_bi","fractal_assignment":["../images/cyn_red.png","../images/ylw_slt.png","../images/org_blu.png","../images/pnk_blu.png","../images/blu_wht.png","../images/gry_blk.png"],"mutagen_generator_assignment":[0,1],"goal":2,"start":3,"action_noise":0.15,"location_history":"[3,4,3,4,5,0,5,4,3,2]","action_history":"[1,0,0,1,0,1,1,0,1]","mutagen_history":"[1,0,0,1,0,1,1,0,1]","location_rts":"[2071,1148,999,883,1182,892,763,968,1227]","trial_type":"fractal-mutation","trial_index":76,"time_elapsed":1727191,"internal_node_id":"0.0-5.0-22.0"},{"group":"hexagon_bi","fractal_assignment":["../images/cyn_red.png","../images/ylw_slt.png","../images/org_blu.png","../images/pnk_blu.png","../images/blu_wht.png","../images/gry_blk.png"],"mutagen_generator_assignment":[0,1],"goal":0,"start":2,"action_noise":0.15,"location_history":"[2,3,4,3,4,5,0]","action_history":"[1,0,0,0,1,0]","mutagen_history":"[1,0,0,0,1,0]","location_rts":"[1804,702,1166,524,272,797]","trial_type":"fractal-mutation","trial_index":77,"time_elapsed":1742183,"internal_node_id":"0.0-5.0-23.0"},{"group":"hexagon_bi","fractal_assignment":["../images/cyn_red.png","../images/ylw_slt.png","../images/org_blu.png","../images/pnk_blu.png","../images/blu_wht.png","../images/gry_blk.png"],"mutagen_generator_assignment":[0,1],"goal":3,"start":0,"action_noise":0.15,"location_history":"[0,1,2,3]","action_history":"[1,0,0]","mutagen_history":"[1,0,0]","location_rts":"[1244,835,574]","trial_type":"fractal-mutation","trial_index":78,"time_elapsed":1751459,"internal_node_id":"0.0-5.0-24.0"},{"group":"hexagon_bi","fractal_assignment":["../images/cyn_red.png","../images/ylw_slt.png","../images/org_blu.png","../images/pnk_blu.png","../images/blu_wht.png","../images/gry_blk.png"],"mutagen_generator_assignment":[0,1],"goal":1,"start":3,"action_noise":0.15,"location_history":"[3,4,5,0,5,4,3,2,3,2,1]","action_history":"[0,1,0,1,1,0,1,1,0,0]","mutagen_history":"[0,1,0,1,1,0,1,1,0,0]","location_rts":"[846,570,571,505,501,449,733,555,790,1508]","trial_type":"fractal-mutation","trial_index":79,"time_elapsed":1772350,"internal_node_id":"0.0-5.0-25.0"},{"group":"hexagon_bi","fractal_assignment":["../images/cyn_red.png","../images/ylw_slt.png","../images/org_blu.png","../images/pnk_blu.png","../images/blu_wht.png","../images/gry_blk.png"],"mutagen_generator_assignment":[0,1],"goal":2,"start":1,"action_noise":0.15,"location_history":"[1,0,5,4,5,0,1,2]","action_history":"[1,0,1,1,0,1,0]","mutagen_history":"[1,0,1,1,0,1,0]","location_rts":"[1667,849,853,810,706,1085,1531]","trial_type":"fractal-mutation","trial_index":80,"time_elapsed":1790634,"internal_node_id":"0.0-5.0-26.0"},{"group":"hexagon_bi","fractal_assignment":["../images/cyn_red.png","../images/ylw_slt.png","../images/org_blu.png","../images/pnk_blu.png","../images/blu_wht.png","../images/gry_blk.png"],"mutagen_generator_assignment":[0,1],"goal":5,"start":2,"action_noise":0.15,"location_history":"[2,1,2,1,0,5]","action_history":"[1,0,0,1,0]","mutagen_history":"[1,0,0,1,0]","location_rts":"[1616,652,496,708,1235]","trial_type":"fractal-mutation","trial_index":81,"time_elapsed":1804008,"internal_node_id":"0.0-5.0-27.0"},{"group":"hexagon_bi","fractal_assignment":["../images/cyn_red.png","../images/ylw_slt.png","../images/org_blu.png","../images/pnk_blu.png","../images/blu_wht.png","../images/gry_blk.png"],"mutagen_generator_assignment":[0,1],"goal":4,"start":5,"action_noise":0.15,"location_history":"[5,4]","action_history":"[1]","mutagen_history":"[1]","location_rts":"[1041]","trial_type":"fractal-mutation","trial_index":82,"time_elapsed":1809609,"internal_node_id":"0.0-5.0-28.0"},{"group":"hexagon_bi","fractal_assignment":["../images/cyn_red.png","../images/ylw_slt.png","../images/org_blu.png","../images/pnk_blu.png","../images/blu_wht.png","../images/gry_blk.png"],"mutagen_generator_assignment":[0,1],"goal":5,"start":4,"action_noise":0.15,"location_history":"[4,3,4,5]","action_history":"[0,1,1]","mutagen_history":"[0,1,1]","location_rts":"[1862,836,1929]","trial_type":"fractal-mutation","trial_index":83,"time_elapsed":1820871,"internal_node_id":"0.0-5.0-29.0"},{"group":"hexagon_bi","fractal_assignment":["../images/cyn_red.png","../images/ylw_slt.png","../images/org_blu.png","../images/pnk_blu.png","../images/blu_wht.png","../images/gry_blk.png"],"mutagen_generator_assignment":[0,1],"goal":3,"start":5,"action_noise":0.15,"location_history":"[5,0,5,0,1,2,3]","action_history":"[0,0,0,1,0,1]","mutagen_history":"[0,0,0,1,0,1]","location_rts":"[1234,1127,1229,477,1159,828]","trial_type":"fractal-mutation","trial_index":84,"time_elapsed":1836687,"internal_node_id":"0.0-5.0-30.0"},{"group":"hexagon_bi","fractal_assignment":["../images/cyn_red.png","../images/ylw_slt.png","../images/org_blu.png","../images/pnk_blu.png","../images/blu_wht.png","../images/gry_blk.png"],"mutagen_generator_assignment":[0,1],"goal":0,"start":3,"action_noise":0.15,"location_history":"[3,4,5,4,3,2,3,2,1,0]","action_history":"[0,1,1,1,0,1,1,0,1]","mutagen_history":"[0,1,1,1,0,1,1,0,1]","location_rts":"[1288,744,703,550,931,880,1737,1270,1903]","trial_type":"fractal-mutation","trial_index":85,"time_elapsed":1859582,"internal_node_id":"0.0-5.0-31.0"},{"group":"hexagon_bi","fractal_assignment":["../images/cyn_red.png","../images/ylw_slt.png","../images/org_blu.png","../images/pnk_blu.png","../images/blu_wht.png","../images/gry_blk.png"],"mutagen_generator_assignment":[0,1],"goal":4,"start":0,"action_noise":0.15,"location_history":"[0,5,4]","action_history":"[0,1]","mutagen_history":"[0,1]","location_rts":"[2403,718]","trial_type":"fractal-mutation","trial_index":86,"time_elapsed":1868291,"internal_node_id":"0.0-5.0-32.0"},{"group":"hexagon_bi","fractal_assignment":["../images/cyn_red.png","../images/ylw_slt.png","../images/org_blu.png","../images/pnk_blu.png","../images/blu_wht.png","../images/gry_blk.png"],"mutagen_generator_assignment":[0,1],"goal":1,"start":4,"action_noise":0.15,"location_history":"[4,5,0,5,0,1]","action_history":"[1,0,0,1,1]","mutagen_history":"[1,0,0,1,1]","location_rts":"[2117,1562,637,884,2007]","trial_type":"fractal-mutation","trial_index":87,"time_elapsed":1884182,"internal_node_id":"0.0-5.0-33.0"},{"group":"hexagon_bi","fractal_assignment":["../images/cyn_red.png","../images/ylw_slt.png","../images/org_blu.png","../images/pnk_blu.png","../images/blu_wht.png","../images/gry_blk.png"],"mutagen_generator_assignment":[0,1],"goal":2,"start":1,"action_noise":0.15,"location_history":"[1,2]","action_history":"[0]","mutagen_history":"[0]","location_rts":"[1386]","trial_type":"fractal-mutation","trial_index":88,"time_elapsed":1890105,"internal_node_id":"0.0-5.0-34.0"},{"group":"hexagon_bi","fractal_assignment":["../images/cyn_red.png","../images/ylw_slt.png","../images/org_blu.png","../images/pnk_blu.png","../images/blu_wht.png","../images/gry_blk.png"],"mutagen_generator_assignment":[0,1],"goal":0,"start":2,"action_noise":0.15,"location_history":"[2,1,0]","action_history":"[0,0]","mutagen_history":"[0,0]","location_rts":"[1526,884]","trial_type":"fractal-mutation","trial_index":89,"time_elapsed":1898100,"internal_node_id":"0.0-5.0-35.0"},{"group":"hexagon_bi","fractal_assignment":["../images/cyn_red.png","../images/ylw_slt.png","../images/org_blu.png","../images/pnk_blu.png","../images/blu_wht.png","../images/gry_blk.png"],"mutagen_generator_assignment":[0,1],"goal":5,"start":0,"action_noise":0.15,"location_history":"[0,1,0,5]","action_history":"[1,1,0]","mutagen_history":"[1,1,0]","location_rts":"[997,1436,478]","trial_type":"fractal-mutation","trial_index":90,"time_elapsed":1907635,"internal_node_id":"0.0-5.0-36.0"},{"group":"hexagon_bi","fractal_assignment":["../images/cyn_red.png","../images/ylw_slt.png","../images/org_blu.png","../images/pnk_blu.png","../images/blu_wht.png","../images/gry_blk.png"],"mutagen_generator_assignment":[0,1],"goal":2,"start":5,"action_noise":0.15,"location_history":"[5,4,3,2]","action_history":"[1,0,1]","mutagen_history":"[1,0,1]","location_rts":"[1284,921,688]","trial_type":"fractal-mutation","trial_index":91,"time_elapsed":1917146,"internal_node_id":"0.0-5.0-37.0"},{"group":"hexagon_bi","fractal_assignment":["../images/cyn_red.png","../images/ylw_slt.png","../images/org_blu.png","../images/pnk_blu.png","../images/blu_wht.png","../images/gry_blk.png"],"mutagen_generator_assignment":[0,1],"goal":1,"start":2,"action_noise":0.15,"location_history":"[2,1]","action_history":"[0]","mutagen_history":"[0]","location_rts":"[1558]","trial_type":"fractal-mutation","trial_index":92,"time_elapsed":1923250,"internal_node_id":"0.0-5.0-38.0"},{"group":"hexagon_bi","fractal_assignment":["../images/cyn_red.png","../images/ylw_slt.png","../images/org_blu.png","../images/pnk_blu.png","../images/blu_wht.png","../images/gry_blk.png"],"mutagen_generator_assignment":[0,1],"goal":4,"start":1,"action_noise":0.15,"location_history":"[1,0,1,2,3,4]","action_history":"[1,0,0,1,0]","mutagen_history":"[1,0,0,1,0]","location_rts":"[1130,1197,887,772,1429]","trial_type":"fractal-mutation","trial_index":93,"time_elapsed":1937380,"internal_node_id":"0.0-5.0-39.0"},{"group":"hexagon_bi","fractal_assignment":["../images/cyn_red.png","../images/ylw_slt.png","../images/org_blu.png","../images/pnk_blu.png","../images/blu_wht.png","../images/gry_blk.png"],"mutagen_generator_assignment":[0,1],"goal":3,"start":4,"action_noise":0.15,"location_history":"[4,5,4,3]","action_history":"[1,0,0]","mutagen_history":"[1,0,0]","location_rts":"[22247,859,798]","trial_type":"fractal-mutation","trial_index":94,"time_elapsed":1967930,"internal_node_id":"0.0-5.0-40.0"},{"group":"hexagon_bi","fractal_assignment":["../images/cyn_red.png","../images/ylw_slt.png","../images/org_blu.png","../images/pnk_blu.png","../images/blu_wht.png","../images/gry_blk.png"],"mutagen_generator_assignment":[0,1],"goal":5,"start":3,"action_noise":0.15,"location_history":"[3,2,1,2,3,4,3,2,3,2,3,2,1,2,1,0,5]","action_history":"[1,0,0,1,0,1,1,1,1,0,0,0,0,0,1,0]","mutagen_history":"[1,0,0,1,0,1,1,1,1,0,0,0,0,0,1,0]","location_rts":"[1821,1204,930,927,1153,740,798,964,694,372,1100,640,1077,1001,462,1125]","trial_type":"fractal-mutation","trial_index":95,"time_elapsed":2003146,"internal_node_id":"0.0-5.0-41.0"},{"group":"hexagon_bi","fractal_assignment":["../images/cyn_red.png","../images/ylw_slt.png","../images/org_blu.png","../images/pnk_blu.png","../images/blu_wht.png","../images/gry_blk.png"],"mutagen_generator_assignment":[0,1],"goal":3,"start":5,"action_noise":0.15,"location_history":"[5,0,5,0,1,2,1,2,3]","action_history":"[1,0,0,1,1,0,0,1]","mutagen_history":"[1,0,0,1,1,0,0,1]","location_rts":"[2325,884,903,942,861,854,769,616]","trial_type":"fractal-mutation","trial_index":96,"time_elapsed":2023081,"internal_node_id":"0.0-5.0-42.0"},{"group":"hexagon_bi","fractal_assignment":["../images/cyn_red.png","../images/ylw_slt.png","../images/org_blu.png","../images/pnk_blu.png","../images/blu_wht.png","../images/gry_blk.png"],"mutagen_generator_assignment":[0,1],"goal":0,"start":3,"action_noise":0.15,"location_history":"[3,2,1,0]","action_history":"[1,0,1]","mutagen_history":"[1,0,1]","location_rts":"[1628,726,940]","trial_type":"fractal-mutation","trial_index":97,"time_elapsed":2032981,"internal_node_id":"0.0-5.0-43.0"},{"group":"hexagon_bi","fractal_assignment":["../images/cyn_red.png","../images/ylw_slt.png","../images/org_blu.png","../images/pnk_blu.png","../images/blu_wht.png","../images/gry_blk.png"],"mutagen_generator_assignment":[0,1],"goal":2,"start":0,"action_noise":0.15,"location_history":"[0,1,2]","action_history":"[1,0]","mutagen_history":"[1,0]","location_rts":"[1699,513]","trial_type":"fractal-mutation","trial_index":98,"time_elapsed":2040781,"internal_node_id":"0.0-5.0-44.0"},{"group":"hexagon_bi","fractal_assignment":["../images/cyn_red.png","../images/ylw_slt.png","../images/org_blu.png","../images/pnk_blu.png","../images/blu_wht.png","../images/gry_blk.png"],"mutagen_generator_assignment":[0,1],"goal":4,"start":2,"action_noise":0.15,"location_history":"[2,1,0,5,4]","action_history":"[0,1,0,1]","mutagen_history":"[0,1,0,1]","location_rts":"[1761,694,944,696]","trial_type":"fractal-mutation","trial_index":99,"time_elapsed":2052567,"internal_node_id":"0.0-5.0-45.0"},{"group":"hexagon_bi","fractal_assignment":["../images/cyn_red.png","../images/ylw_slt.png","../images/org_blu.png","../images/pnk_blu.png","../images/blu_wht.png","../images/gry_blk.png"],"mutagen_generator_assignment":[0,1],"goal":1,"start":4,"action_noise":0.15,"location_history":"[4,3,4,5,0,1]","action_history":"[0,0,1,0,1]","mutagen_history":"[0,0,1,0,1]","location_rts":"[1656,1034,527,1067,592]","trial_type":"fractal-mutation","trial_index":100,"time_elapsed":2066133,"internal_node_id":"0.0-5.0-46.0"},{"group":"hexagon_bi","fractal_assignment":["../images/cyn_red.png","../images/ylw_slt.png","../images/org_blu.png","../images/pnk_blu.png","../images/blu_wht.png","../images/gry_blk.png"],"mutagen_generator_assignment":[0,1],"goal":4,"start":1,"action_noise":0.15,"location_history":"[1,0,5,4]","action_history":"[1,0,1]","mutagen_history":"[1,0,1]","location_rts":"[2554,466,532]","trial_type":"fractal-mutation","trial_index":101,"time_elapsed":2076304,"internal_node_id":"0.0-5.0-47.0"},{"group":"hexagon_bi","fractal_assignment":["../images/cyn_red.png","../images/ylw_slt.png","../images/org_blu.png","../images/pnk_blu.png","../images/blu_wht.png","../images/gry_blk.png"],"mutagen_generator_assignment":[0,1],"goal":3,"start":4,"action_noise":0.15,"location_history":"[4,3]","action_history":"[0]","mutagen_history":"[0]","location_rts":"[1374]","trial_type":"fractal-mutation","trial_index":102,"time_elapsed":2082229,"internal_node_id":"0.0-5.0-48.0"},{"group":"hexagon_bi","fractal_assignment":["../images/cyn_red.png","../images/ylw_slt.png","../images/org_blu.png","../images/pnk_blu.png","../images/blu_wht.png","../images/gry_blk.png"],"mutagen_generator_assignment":[0,1],"goal":5,"start":3,"action_noise":0.15,"location_history":"[3,2,1,0,5]","action_history":"[1,0,1,0]","mutagen_history":"[1,0,1,0]","location_rts":"[1150,634,644,1585]","trial_type":"fractal-mutation","trial_index":103,"time_elapsed":2093939,"internal_node_id":"0.0-5.0-49.0"},{"view_history":"[{\"page_index\":0,\"viewing_time\":9586}]","rt":9586,"trial_type":"instructions","trial_index":104,"time_elapsed":2104526,"internal_node_id":"0.0-6.0"},{"rt":2496,"responses":"{\"Q0\":\"\"}","trial_type":"survey-text","trial_index":105,"time_elapsed":2108028,"internal_node_id":"0.0-7.0"}]