[{"view_history":"[{\"page_index\":0,\"viewing_time\":436865},{\"page_index\":1,\"viewing_time\":8146},{\"page_index\":2,\"viewing_time\":12480},{\"page_index\":3,\"viewing_time\":5555}]","rt":463048,"trial_type":"instructions","trial_index":0,"time_elapsed":463048,"internal_node_id":"0.0-0.0"},{"view_history":"[{\"page_index\":0,\"viewing_time\":2567},{\"page_index\":1,\"viewing_time\":48032}]","rt":50600,"trial_type":"instructions","trial_index":1,"time_elapsed":514653,"internal_node_id":"0.0-1.0"},{"group":"hexagon_bi","room_assignment":["green","purple","blue","yellow","grey","red"],"door_color_assignment":["white","black"],"door_generator_assignment":[0,1],"goal":4,"start":0,"action_noise":0.15,"location_history":"[0,5,4]","action_history":"[0,0]","door_history":"[0,0]","location_rts":"[3254,1367]","trial_type":"two-door-navigation","trial_index":2,"time_elapsed":524914,"internal_node_id":"0.0-2.0-0.0"},{"group":"hexagon_bi","room_assignment":["green","purple","blue","yellow","grey","red"],"door_color_assignment":["white","black"],"door_generator_assignment":[0,1],"goal":3,"start":4,"action_noise":0.15,"location_history":"[4,3]","action_history":"[1]","door_history":"[1]","location_rts":"[1769]","trial_type":"two-door-navigation","trial_index":3,"time_elapsed":531255,"internal_node_id":"0.0-2.0-1.0"},{"group":"hexagon_bi","room_assignment":["green","purple","blue","yellow","grey","red"],"door_color_assignment":["white","black"],"door_generator_assignment":[0,1],"goal":5,"start":3,"action_noise":0.15,"location_history":"[3,2,3,2,1,2,3,2,3,2,1,2,1,0,5]","action_history":"[1,1,0,0,0,1,1,1,1,0,0,0,0,0]","door_history":"[1,1,0,0,0,1,1,1,1,0,0,0,0,0]","location_rts":"[846,694,395,433,612,707,718,392,390,356,469,347,308,504]","trial_type":"two-door-navigation","trial_index":4,"time_elapsed":556823,"internal_node_id":"0.0-2.0-2.0"},{"group":"hexagon_bi","room_assignment":["green","purple","blue","yellow","grey","red"],"door_color_assignment":["white","black"],"door_generator_assignment":[0,1],"goal":2,"start":5,"action_noise":0.15,"location_history":"[5,4,5,4,5,0,5,0,5,0,5,0,1,0,1,2]","action_history":"[1,1,1,0,0,0,0,0,0,0,0,1,1,1,0]","door_history":"[1,1,1,0,0,0,0,0,0,0,0,1,1,1,0]","location_rts":"[2910,567,445,441,480,446,401,372,408,334,482,358,501,375,311]","trial_type":"two-door-navigation","trial_index":5,"time_elapsed":585060,"internal_node_id":"0.0-2.0-3.0"},{"group":"hexagon_bi","room_assignment":["green","purple","blue","yellow","grey","red"],"door_color_assignment":["white","black"],"door_generator_assignment":[0,1],"goal":1,"start":2,"action_noise":0.15,"location_history":"[2,1]","action_history":"[0]","door_history":"[0]","location_rts":"[1983]","trial_type":"two-door-navigation","trial_index":6,"time_elapsed":591607,"internal_node_id":"0.0-2.0-4.0"},{"group":"hexagon_bi","room_assignment":["green","purple","blue","yellow","grey","red"],"door_color_assignment":["white","black"],"door_generator_assignment":[0,1],"goal":4,"start":1,"action_noise":0.15,"location_history":"[1,2,1,2,3,2,3,2,1,2,3,4]","action_history":"[0,0,0,1,1,1,0,0,0,1,0]","door_history":"[0,0,0,1,1,1,0,0,0,1,0]","location_rts":"[1704,764,15398,1244,488,427,960,403,405,833,392]","trial_type":"two-door-navigation","trial_index":7,"time_elapsed":629734,"internal_node_id":"0.0-2.0-5.0"},{"group":"hexagon_bi","room_assignment":["green","purple","blue","yellow","grey","red"],"door_color_assignment":["white","black"],"door_generator_assignment":[0,1],"goal":1,"start":4,"action_noise":0.15,"location_history":"[4,3,2,1]","action_history":"[0,0,0]","door_history":"[0,0,0]","location_rts":"[1556,710,1275]","trial_type":"two-door-navigation","trial_index":8,"time_elapsed":639969,"internal_node_id":"0.0-2.0-6.0"},{"group":"hexagon_bi","room_assignment":["green","purple","blue","yellow","grey","red"],"door_color_assignment":["white","black"],"door_generator_assignment":[0,1],"goal":5,"start":1,"action_noise":0.15,"location_history":"[1,2,1,2,1,0,1,2,1,0,1,0,1,2,1,0,5]","action_history":"[0,0,0,0,1,0,0,0,1,1,1,0,0,0,0,0]","door_history":"[0,0,0,0,1,0,0,0,1,1,1,0,0,0,0,0]","location_rts":"[1786,297,501,303,291,514,439,354,396,608,344,365,274,344,353,654]","trial_type":"two-door-navigation","trial_index":9,"time_elapsed":668259,"internal_node_id":"0.0-2.0-7.0"},{"group":"hexagon_bi","room_assignment":["green","purple","blue","yellow","grey","red"],"door_color_assignment":["white","black"],"door_generator_assignment":[0,1],"goal":0,"start":5,"action_noise":0.15,"location_history":"[5,0]","action_history":"[0]","door_history":"[0]","location_rts":"[1704]","trial_type":"two-door-navigation","trial_index":10,"time_elapsed":674532,"internal_node_id":"0.0-2.0-8.0"},{"group":"hexagon_bi","room_assignment":["green","purple","blue","yellow","grey","red"],"door_color_assignment":["white","black"],"door_generator_assignment":[0,1],"goal":2,"start":0,"action_noise":0.15,"location_history":"[0,1,2]","action_history":"[1,0]","door_history":"[1,0]","location_rts":"[1030,844]","trial_type":"two-door-navigation","trial_index":11,"time_elapsed":682025,"internal_node_id":"0.0-2.0-9.0"},{"group":"hexagon_bi","room_assignment":["green","purple","blue","yellow","grey","red"],"door_color_assignment":["white","black"],"door_generator_assignment":[0,1],"goal":3,"start":2,"action_noise":0.15,"location_history":"[2,3]","action_history":"[1]","door_history":"[1]","location_rts":"[1528]","trial_type":"two-door-navigation","trial_index":12,"time_elapsed":688119,"internal_node_id":"0.0-2.0-10.0"},{"group":"hexagon_bi","room_assignment":["green","purple","blue","yellow","grey","red"],"door_color_assignment":["white","black"],"door_generator_assignment":[0,1],"goal":0,"start":3,"action_noise":0.15,"location_history":"[3,4,3,2,1,2,1,0]","action_history":"[0,0,0,0,0,1,1]","door_history":"[0,0,0,0,0,1,1]","location_rts":"[2454,380,587,1209,455,966,519]","trial_type":"two-door-navigation","trial_index":13,"time_elapsed":705567,"internal_node_id":"0.0-2.0-11.0"},{"group":"hexagon_bi","room_assignment":["green","purple","blue","yellow","grey","red"],"door_color_assignment":["white","black"],"door_generator_assignment":[0,1],"goal":2,"start":0,"action_noise":0.15,"location_history":"[0,1,2]","action_history":"[0,0]","door_history":"[0,0]","location_rts":"[2849,474]","trial_type":"two-door-navigation","trial_index":14,"time_elapsed":714505,"internal_node_id":"0.0-2.0-12.0"},{"group":"hexagon_bi","room_assignment":["green","purple","blue","yellow","grey","red"],"door_color_assignment":["white","black"],"door_generator_assignment":[0,1],"goal":5,"start":2,"action_noise":0.15,"location_history":"[2,1,0,5]","action_history":"[0,0,0]","door_history":"[0,0,0]","location_rts":"[1330,243,393]","trial_type":"two-door-navigation","trial_index":15,"time_elapsed":723188,"internal_node_id":"0.0-2.0-13.0"},{"group":"hexagon_bi","room_assignment":["green","purple","blue","yellow","grey","red"],"door_color_assignment":["white","black"],"door_generator_assignment":[0,1],"goal":4,"start":5,"action_noise":0.15,"location_history":"[5,4]","action_history":"[1]","door_history":"[1]","location_rts":"[1890]","trial_type":"two-door-navigation","trial_index":16,"time_elapsed":729643,"internal_node_id":"0.0-2.0-14.0"},{"group":"hexagon_bi","room_assignment":["green","purple","blue","yellow","grey","red"],"door_color_assignment":["white","black"],"door_generator_assignment":[0,1],"goal":3,"start":4,"action_noise":0.15,"location_history":"[4,5,4,5,0,5,0,5,4,5,4,5,4,5,4,5,0,5,0,1,2,1,2,3]","action_history":"[1,1,1,0,0,0,0,1,1,0,1,1,1,1,0,0,0,0,1,0,0,0,1]","door_history":"[1,1,1,0,0,0,0,1,1,0,1,1,1,1,0,0,0,0,1,0,0,0,1]","location_rts":"[1473,559,419,1699,776,650,455,923,1872,1865,428,527,488,388,140,636,373,383,371,943,415,480,419]","trial_type":"two-door-navigation","trial_index":17,"time_elapsed":774207,"internal_node_id":"0.0-2.0-15.0"},{"group":"hexagon_bi","room_assignment":["green","purple","blue","yellow","grey","red"],"door_color_assignment":["white","black"],"door_generator_assignment":[0,1],"goal":1,"start":3,"action_noise":0.15,"location_history":"[3,2,1]","action_history":"[1,0]","door_history":"[1,0]","location_rts":"[2424,744]","trial_type":"two-door-navigation","trial_index":18,"time_elapsed":783017,"internal_node_id":"0.0-2.0-16.0"},{"group":"hexagon_bi","room_assignment":["green","purple","blue","yellow","grey","red"],"door_color_assignment":["white","black"],"door_generator_assignment":[0,1],"goal":5,"start":1,"action_noise":0.15,"location_history":"[1,0,1,2,3,4,3,2,3,2,1,2,3,2,3,4,5]","action_history":"[0,0,0,0,0,0,0,0,1,0,0,0,0,1,0,0]","door_history":"[0,0,0,0,0,0,0,0,1,0,0,0,0,1,0,0]","location_rts":"[1378,300,591,410,401,446,383,292,1739,933,455,378,299,843,577,379]","trial_type":"two-door-navigation","trial_index":19,"time_elapsed":813231,"internal_node_id":"0.0-2.0-17.0"},{"group":"hexagon_bi","room_assignment":["green","purple","blue","yellow","grey","red"],"door_color_assignment":["white","black"],"door_generator_assignment":[0,1],"goal":4,"start":5,"action_noise":0.15,"location_history":"[5,0,1,0,5,0,1,0,1,0,5,0,1,0,1,2,3,2,3,4]","action_history":"[1,1,1,0,0,0,1,1,1,0,0,0,1,1,0,1,1,1,0]","door_history":"[1,1,1,0,0,0,1,1,1,0,0,0,1,1,0,1,1,1,0]","location_rts":"[2854,510,470,834,420,1054,863,449,431,671,417,252,2253,671,298,813,446,548,287]","trial_type":"two-door-navigation","trial_index":20,"time_elapsed":851304,"internal_node_id":"0.0-2.0-18.0"},{"group":"hexagon_bi","room_assignment":["green","purple","blue","yellow","grey","red"],"door_color_assignment":["white","black"],"door_generator_assignment":[0,1],"goal":0,"start":4,"action_noise":0.15,"location_history":"[4,3,4,3,2,1,2,1,0]","action_history":"[0,0,0,1,0,0,0,1]","door_history":"[0,0,0,1,0,0,0,1]","location_rts":"[1567,534,445,693,981,295,429,352]","trial_type":"two-door-navigation","trial_index":21,"time_elapsed":868554,"internal_node_id":"0.0-2.0-19.0"},{"group":"hexagon_bi","room_assignment":["green","purple","blue","yellow","grey","red"],"door_color_assignment":["white","black"],"door_generator_assignment":[0,1],"goal":1,"start":0,"action_noise":0.15,"location_history":"[0,1]","action_history":"[1]","door_history":"[1]","location_rts":"[2401]","trial_type":"two-door-navigation","trial_index":22,"time_elapsed":875536,"internal_node_id":"0.0-2.0-20.0"},{"group":"hexagon_bi","room_assignment":["green","purple","blue","yellow","grey","red"],"door_color_assignment":["white","black"],"door_generator_assignment":[0,1],"goal":3,"start":1,"action_noise":0.15,"location_history":"[1,0,5,4,5,0,1,2,1,0,1,2,3]","action_history":"[1,0,1,1,0,1,0,1,1,0,0,1]","door_history":"[1,0,1,1,0,1,0,1,1,0,0,1]","location_rts":"[1772,814,1044,708,693,920,1078,3419,585,1320,456,920]","trial_type":"two-door-navigation","trial_index":23,"time_elapsed":905380,"internal_node_id":"0.0-2.0-21.0"},{"group":"hexagon_bi","room_assignment":["green","purple","blue","yellow","grey","red"],"door_color_assignment":["white","black"],"door_generator_assignment":[0,1],"goal":2,"start":3,"action_noise":0.15,"location_history":"[3,2]","action_history":"[1]","door_history":"[1]","location_rts":"[2023]","trial_type":"two-door-navigation","trial_index":24,"time_elapsed":911976,"internal_node_id":"0.0-2.0-22.0"},{"group":"hexagon_bi","room_assignment":["green","purple","blue","yellow","grey","red"],"door_color_assignment":["white","black"],"door_generator_assignment":[0,1],"goal":0,"start":2,"action_noise":0.15,"location_history":"[2,1,0]","action_history":"[0,1]","door_history":"[0,1]","location_rts":"[1586,953]","trial_type":"two-door-navigation","trial_index":25,"time_elapsed":920139,"internal_node_id":"0.0-2.0-23.0"},{"group":"hexagon_bi","room_assignment":["green","purple","blue","yellow","grey","red"],"door_color_assignment":["white","black"],"door_generator_assignment":[0,1],"goal":3,"start":0,"action_noise":0.15,"location_history":"[0,1,2,3]","action_history":"[1,0,1]","door_history":"[1,0,1]","location_rts":"[2184,889,643]","trial_type":"two-door-navigation","trial_index":26,"time_elapsed":930497,"internal_node_id":"0.0-2.0-24.0"},{"group":"hexagon_bi","room_assignment":["green","purple","blue","yellow","grey","red"],"door_color_assignment":["white","black"],"door_generator_assignment":[0,1],"goal":1,"start":3,"action_noise":0.15,"location_history":"[3,2,1]","action_history":"[1,0]","door_history":"[1,0]","location_rts":"[2036,860]","trial_type":"two-door-navigation","trial_index":27,"time_elapsed":939012,"internal_node_id":"0.0-2.0-25.0"},{"group":"hexagon_bi","room_assignment":["green","purple","blue","yellow","grey","red"],"door_color_assignment":["white","black"],"door_generator_assignment":[0,1],"goal":2,"start":1,"action_noise":0.15,"location_history":"[1,0,5,0,1,2]","action_history":"[1,0,0,1,0]","door_history":"[1,0,0,1,0]","location_rts":"[2355,563,412,1017,425]","trial_type":"two-door-navigation","trial_index":28,"time_elapsed":952552,"internal_node_id":"0.0-2.0-26.0"},{"group":"hexagon_bi","room_assignment":["green","purple","blue","yellow","grey","red"],"door_color_assignment":["white","black"],"door_generator_assignment":[0,1],"goal":5,"start":2,"action_noise":0.15,"location_history":"[2,1,0,1,2,1,0,5]","action_history":"[0,1,0,0,1,1,0]","door_history":"[0,1,0,0,1,1,0]","location_rts":"[2137,804,565,696,1429,711,943]","trial_type":"two-door-navigation","trial_index":29,"time_elapsed":970745,"internal_node_id":"0.0-2.0-27.0"},{"group":"hexagon_bi","room_assignment":["green","purple","blue","yellow","grey","red"],"door_color_assignment":["white","black"],"door_generator_assignment":[0,1],"goal":4,"start":5,"action_noise":0.15,"location_history":"[5,4]","action_history":"[1]","door_history":"[1]","location_rts":"[2501]","trial_type":"two-door-navigation","trial_index":30,"time_elapsed":977828,"internal_node_id":"0.0-2.0-28.0"},{"group":"hexagon_bi","room_assignment":["green","purple","blue","yellow","grey","red"],"door_color_assignment":["white","black"],"door_generator_assignment":[0,1],"goal":5,"start":4,"action_noise":0.15,"location_history":"[4,5]","action_history":"[1]","door_history":"[1]","location_rts":"[1728]","trial_type":"two-door-navigation","trial_index":31,"time_elapsed":984128,"internal_node_id":"0.0-2.0-29.0"},{"group":"hexagon_bi","room_assignment":["green","purple","blue","yellow","grey","red"],"door_color_assignment":["white","black"],"door_generator_assignment":[0,1],"goal":3,"start":5,"action_noise":0.15,"location_history":"[5,0,1,0,5,0,1,2,3]","action_history":"[0,1,1,0,1,1,0,1]","door_history":"[0,1,1,0,1,1,0,1]","location_rts":"[1493,392,790,758,820,485,722,1791]","trial_type":"two-door-navigation","trial_index":32,"time_elapsed":1003385,"internal_node_id":"0.0-2.0-30.0"},{"group":"hexagon_bi","room_assignment":["green","purple","blue","yellow","grey","red"],"door_color_assignment":["white","black"],"door_generator_assignment":[0,1],"goal":0,"start":3,"action_noise":0.15,"location_history":"[3,4,5,0]","action_history":"[0,1,0]","door_history":"[0,1,0]","location_rts":"[1407,2024,1574]","trial_type":"two-door-navigation","trial_index":33,"time_elapsed":1015057,"internal_node_id":"0.0-2.0-31.0"},{"group":"hexagon_bi","room_assignment":["green","purple","blue","yellow","grey","red"],"door_color_assignment":["white","black"],"door_generator_assignment":[0,1],"goal":4,"start":0,"action_noise":0.15,"location_history":"[0,5,4]","action_history":"[0,1]","door_history":"[0,1]","location_rts":"[2639,322]","trial_type":"two-door-navigation","trial_index":34,"time_elapsed":1023683,"internal_node_id":"0.0-2.0-32.0"},{"group":"hexagon_bi","room_assignment":["green","purple","blue","yellow","grey","red"],"door_color_assignment":["white","black"],"door_generator_assignment":[0,1],"goal":1,"start":4,"action_noise":0.15,"location_history":"[4,5,0,1]","action_history":"[1,0,1]","door_history":"[1,0,1]","location_rts":"[1593,538,399]","trial_type":"two-door-navigation","trial_index":35,"time_elapsed":1032870,"internal_node_id":"0.0-2.0-33.0"},{"group":"hexagon_bi","room_assignment":["green","purple","blue","yellow","grey","red"],"door_color_assignment":["white","black"],"door_generator_assignment":[0,1],"goal":2,"start":1,"action_noise":0.15,"location_history":"[1,2]","action_history":"[0]","door_history":"[0]","location_rts":"[1272]","trial_type":"two-door-navigation","trial_index":36,"time_elapsed":1038698,"internal_node_id":"0.0-2.0-34.0"},{"group":"hexagon_bi","room_assignment":["green","purple","blue","yellow","grey","red"],"door_color_assignment":["white","black"],"door_generator_assignment":[0,1],"goal":0,"start":2,"action_noise":0.15,"location_history":"[2,1,0]","action_history":"[0,1]","door_history":"[0,1]","location_rts":"[1598,935]","trial_type":"two-door-navigation","trial_index":37,"time_elapsed":1046858,"internal_node_id":"0.0-2.0-35.0"},{"group":"hexagon_bi","room_assignment":["green","purple","blue","yellow","grey","red"],"door_color_assignment":["white","black"],"door_generator_assignment":[0,1],"goal":5,"start":0,"action_noise":0.15,"location_history":"[0,5]","action_history":"[0]","door_history":"[0]","location_rts":"[1579]","trial_type":"two-door-navigation","trial_index":38,"time_elapsed":1052999,"internal_node_id":"0.0-2.0-36.0"},{"group":"hexagon_bi","room_assignment":["green","purple","blue","yellow","grey","red"],"door_color_assignment":["white","black"],"door_generator_assignment":[0,1],"goal":2,"start":5,"action_noise":0.15,"location_history":"[5,4,3,2]","action_history":"[1,0,0]","door_history":"[1,0,0]","location_rts":"[3733,605,472]","trial_type":"two-door-navigation","trial_index":39,"time_elapsed":1064513,"internal_node_id":"0.0-2.0-37.0"},{"group":"hexagon_bi","room_assignment":["green","purple","blue","yellow","grey","red"],"door_color_assignment":["white","black"],"door_generator_assignment":[0,1],"goal":1,"start":2,"action_noise":0.15,"location_history":"[2,1]","action_history":"[0]","door_history":"[0]","location_rts":"[2471]","trial_type":"two-door-navigation","trial_index":40,"time_elapsed":1071561,"internal_node_id":"0.0-2.0-38.0"},{"group":"hexagon_bi","room_assignment":["green","purple","blue","yellow","grey","red"],"door_color_assignment":["white","black"],"door_generator_assignment":[0,1],"goal":4,"start":1,"action_noise":0.15,"location_history":"[1,0,5,0,1,2,3,4]","action_history":"[1,0,1,1,1,1,0]","door_history":"[1,0,1,1,1,1,0]","location_rts":"[2160,2243,344,512,517,660,658]","trial_type":"two-door-navigation","trial_index":41,"time_elapsed":1089669,"internal_node_id":"0.0-2.0-39.0"},{"group":"hexagon_bi","room_assignment":["green","purple","blue","yellow","grey","red"],"door_color_assignment":["white","black"],"door_generator_assignment":[0,1],"goal":3,"start":4,"action_noise":0.15,"location_history":"[4,3]","action_history":"[0]","door_history":"[0]","location_rts":"[1729]","trial_type":"two-door-navigation","trial_index":42,"time_elapsed":1095962,"internal_node_id":"0.0-2.0-40.0"},{"group":"hexagon_bi","room_assignment":["green","purple","blue","yellow","grey","red"],"door_color_assignment":["white","black"],"door_generator_assignment":[0,1],"goal":5,"start":3,"action_noise":0.15,"location_history":"[3,2,3,4,3,4,3,2,1,2,1,2,1,0,5]","action_history":"[0,1,0,0,0,1,1,0,0,1,0,0,1,0]","door_history":"[0,1,0,0,0,1,1,0,0,1,0,0,1,0]","location_rts":"[3086,450,542,797,471,398,918,671,296,714,719,981,288,903]","trial_type":"two-door-navigation","trial_index":43,"time_elapsed":1125348,"internal_node_id":"0.0-2.0-41.0"},{"group":"hexagon_bi","room_assignment":["green","purple","blue","yellow","grey","red"],"door_color_assignment":["white","black"],"door_generator_assignment":[0,1],"goal":3,"start":5,"action_noise":0.15,"location_history":"[5,4,3]","action_history":"[1,0]","door_history":"[1,0]","location_rts":"[1895,471]","trial_type":"two-door-navigation","trial_index":44,"time_elapsed":1133324,"internal_node_id":"0.0-2.0-42.0"},{"group":"hexagon_bi","room_assignment":["green","purple","blue","yellow","grey","red"],"door_color_assignment":["white","black"],"door_generator_assignment":[0,1],"goal":0,"start":3,"action_noise":0.15,"location_history":"[3,4,3,2,1,0]","action_history":"[0,0,1,0,1]","door_history":"[0,0,1,0,1]","location_rts":"[2389,715,467,666,644]","trial_type":"two-door-navigation","trial_index":45,"time_elapsed":1146994,"internal_node_id":"0.0-2.0-43.0"},{"group":"hexagon_bi","room_assignment":["green","purple","blue","yellow","grey","red"],"door_color_assignment":["white","black"],"door_generator_assignment":[0,1],"goal":2,"start":0,"action_noise":0.15,"location_history":"[0,1,2]","action_history":"[1,0]","door_history":"[1,0]","location_rts":"[2402,319]","trial_type":"two-door-navigation","trial_index":46,"time_elapsed":1155336,"internal_node_id":"0.0-2.0-44.0"},{"group":"hexagon_bi","room_assignment":["green","purple","blue","yellow","grey","red"],"door_color_assignment":["white","black"],"door_generator_assignment":[0,1],"goal":4,"start":2,"action_noise":0.15,"location_history":"[2,1,2,3,2,1,2,1,0,1,2,3,4]","action_history":"[1,0,0,1,0,0,0,1,1,1,1,0]","door_history":"[1,0,0,1,0,0,0,1,1,1,1,0]","location_rts":"[2161,777,663,875,1999,392,728,270,627,675,981,638]","trial_type":"two-door-navigation","trial_index":47,"time_elapsed":1182377,"internal_node_id":"0.0-2.0-45.0"},{"group":"hexagon_bi","room_assignment":["green","purple","blue","yellow","grey","red"],"door_color_assignment":["white","black"],"door_generator_assignment":[0,1],"goal":1,"start":4,"action_noise":0.15,"location_history":"[4,5,0,5,4,5,0,1]","action_history":"[1,0,0,1,1,0,1]","door_history":"[1,0,0,1,1,0,1]","location_rts":"[2689,633,381,502,1161,731,383]","trial_type":"two-door-navigation","trial_index":48,"time_elapsed":1199718,"internal_node_id":"0.0-2.0-46.0"},{"group":"hexagon_bi","room_assignment":["green","purple","blue","yellow","grey","red"],"door_color_assignment":["white","black"],"door_generator_assignment":[0,1],"goal":4,"start":1,"action_noise":0.15,"location_history":"[1,0,5,0,5,0,5,4]","action_history":"[1,0,1,0,0,0,1]","door_history":"[1,0,1,0,0,0,1]","location_rts":"[1711,897,392,1022,228,501,525]","trial_type":"two-door-navigation","trial_index":49,"time_elapsed":1215915,"internal_node_id":"0.0-2.0-47.0"},{"group":"hexagon_bi","room_assignment":["green","purple","blue","yellow","grey","red"],"door_color_assignment":["white","black"],"door_generator_assignment":[0,1],"goal":3,"start":4,"action_noise":0.15,"location_history":"[4,5,4,3]","action_history":"[1,1,0]","door_history":"[1,1,0]","location_rts":"[2139,1299,369]","trial_type":"two-door-navigation","trial_index":50,"time_elapsed":1226376,"internal_node_id":"0.0-2.0-48.0"},{"group":"hexagon_bi","room_assignment":["green","purple","blue","yellow","grey","red"],"door_color_assignment":["white","black"],"door_generator_assignment":[0,1],"goal":5,"start":3,"action_noise":0.15,"location_history":"[3,2,1,0,1,2,1,2,1,0,5]","action_history":"[1,0,0,1,0,0,0,0,1,0]","door_history":"[1,0,0,1,0,0,0,0,1,0]","location_rts":"[2144,624,392,590,754,391,231,566,660,722]","trial_type":"two-door-navigation","trial_index":51,"time_elapsed":1247482,"internal_node_id":"0.0-2.0-49.0"},{"view_history":"[{\"page_index\":0,\"viewing_time\":2667}]","rt":2667,"trial_type":"instructions","trial_index":52,"time_elapsed":1251151,"internal_node_id":"0.0-3.0"},{"view_history":"[{\"page_index\":0,\"viewing_time\":1096},{\"page_index\":1,\"viewing_time\":2497}]","rt":3593,"trial_type":"instructions","trial_index":53,"time_elapsed":1255745,"internal_node_id":"0.0-4.0"},{"group":"hexagon_tri","fractal_assignment":["../images/cyn_red.png","../images/gry_blk.png","../images/pnk_blu.png","../images/org_blu.png","../images/blu_wht.png","../images/ylw_slt.png"],"mutagen_generator_assignment":[1,0],"goal":4,"start":0,"action_noise":0.15,"location_history":"[0,1,3,4]","action_history":"[1,0,1]","mutagen_history":"[0,1,0]","location_rts":"[6994,3308,568]","trial_type":"fractal-mutation","trial_index":54,"time_elapsed":1273604,"internal_node_id":"0.0-5.0-0.0"},{"group":"hexagon_tri","fractal_assignment":["../images/cyn_red.png","../images/gry_blk.png","../images/pnk_blu.png","../images/org_blu.png","../images/blu_wht.png","../images/ylw_slt.png"],"mutagen_generator_assignment":[1,0],"goal":3,"start":4,"action_noise":0.15,"location_history":"[4,0,5,4,2,3]","action_history":"[0,0,1,1,1]","mutagen_history":"[1,1,0,0,0]","location_rts":"[819,892,730,698,516]","trial_type":"fractal-mutation","trial_index":55,"time_elapsed":1286662,"internal_node_id":"0.0-5.0-1.0"},{"group":"hexagon_tri","fractal_assignment":["../images/cyn_red.png","../images/gry_blk.png","../images/pnk_blu.png","../images/org_blu.png","../images/blu_wht.png","../images/ylw_slt.png"],"mutagen_generator_assignment":[1,0],"goal":5,"start":3,"action_noise":0.15,"location_history":"[3,2,1,3,4,2,3,4,0,1,5]","action_history":"[0,0,0,1,1,1,1,1,1,1]","mutagen_history":"[1,1,1,0,0,0,0,0,0,0]","location_rts":"[808,453,468,593,535,465,574,458,458,582]","trial_type":"fractal-mutation","trial_index":56,"time_elapsed":1307182,"internal_node_id":"0.0-5.0-2.0"},{"group":"hexagon_tri","fractal_assignment":["../images/cyn_red.png","../images/gry_blk.png","../images/pnk_blu.png","../images/org_blu.png","../images/blu_wht.png","../images/ylw_slt.png"],"mutagen_generator_assignment":[1,0],"goal":2,"start":5,"action_noise":0.15,"location_history":"[5,0,5,4,0,1,5,0,1,5,0,1,5,4,0,1,3,2]","action_history":"[0,0,0,0,1,1,1,1,1,1,1,0,0,1,0,0,0]","mutagen_history":"[1,1,1,1,0,0,0,0,0,0,0,1,1,0,1,1,1]","location_rts":"[1346,412,576,457,592,556,695,463,602,460,436,604,697,499,669,449,413]","trial_type":"fractal-mutation","trial_index":57,"time_elapsed":1340397,"internal_node_id":"0.0-5.0-3.0"},{"group":"hexagon_tri","fractal_assignment":["../images/cyn_red.png","../images/gry_blk.png","../images/pnk_blu.png","../images/org_blu.png","../images/blu_wht.png","../images/ylw_slt.png"],"mutagen_generator_assignment":[1,0],"goal":1,"start":2,"action_noise":0.15,"location_history":"[2,3,2,3,4,2,3,4,0,5,4,0,5,4,2,3,4,2,3,2,1]","action_history":"[0,1,1,1,1,1,0,0,0,0,0,0,0,1,1,1,0,1,0,0]","mutagen_history":"[1,0,0,0,0,0,1,1,1,1,1,1,1,0,0,0,1,0,1,1]","location_rts":"[939,808,655,1137,690,483,253,974,469,401,416,440,430,523,667,1148,862,433,302,493]","trial_type":"fractal-mutation","trial_index":58,"time_elapsed":1379790,"internal_node_id":"0.0-5.0-4.0"},{"group":"hexagon_tri","fractal_assignment":["../images/cyn_red.png","../images/gry_blk.png","../images/pnk_blu.png","../images/org_blu.png","../images/blu_wht.png","../images/ylw_slt.png"],"mutagen_generator_assignment":[1,0],"goal":4,"start":1,"action_noise":0.15,"location_history":"[1,5,0,1,5,0,5,4]","action_history":"[1,1,1,1,1,0,0]","mutagen_history":"[0,0,0,0,0,1,1]","location_rts":"[1709,356,443,475,836,777,456]","trial_type":"fractal-mutation","trial_index":59,"time_elapsed":1396437,"internal_node_id":"0.0-5.0-5.0"},{"group":"hexagon_tri","fractal_assignment":["../images/cyn_red.png","../images/gry_blk.png","../images/pnk_blu.png","../images/org_blu.png","../images/blu_wht.png","../images/ylw_slt.png"],"mutagen_generator_assignment":[1,0],"goal":1,"start":4,"action_noise":0.15,"location_history":"[4,0,1]","action_history":"[0,0]","mutagen_history":"[1,1]","location_rts":"[1535,446]","trial_type":"fractal-mutation","trial_index":60,"time_elapsed":1404296,"internal_node_id":"0.0-5.0-6.0"},{"group":"hexagon_tri","fractal_assignment":["../images/cyn_red.png","../images/gry_blk.png","../images/pnk_blu.png","../images/org_blu.png","../images/blu_wht.png","../images/ylw_slt.png"],"mutagen_generator_assignment":[1,0],"goal":5,"start":1,"action_noise":0.15,"location_history":"[1,5]","action_history":"[1]","mutagen_history":"[0]","location_rts":"[2146]","trial_type":"fractal-mutation","trial_index":61,"time_elapsed":1411082,"internal_node_id":"0.0-5.0-7.0"},{"group":"hexagon_tri","fractal_assignment":["../images/cyn_red.png","../images/gry_blk.png","../images/pnk_blu.png","../images/org_blu.png","../images/blu_wht.png","../images/ylw_slt.png"],"mutagen_generator_assignment":[1,0],"goal":0,"start":5,"action_noise":0.15,"location_history":"[5,4,0]","action_history":"[0,0]","mutagen_history":"[1,1]","location_rts":"[1326,466]","trial_type":"fractal-mutation","trial_index":62,"time_elapsed":1418760,"internal_node_id":"0.0-5.0-8.0"},{"group":"hexagon_tri","fractal_assignment":["../images/cyn_red.png","../images/gry_blk.png","../images/pnk_blu.png","../images/org_blu.png","../images/blu_wht.png","../images/ylw_slt.png"],"mutagen_generator_assignment":[1,0],"goal":2,"start":0,"action_noise":0.15,"location_history":"[0,1,5,0,5,0,1,3,2]","action_history":"[1,1,1,1,1,0,0,0]","mutagen_history":"[0,0,0,0,0,1,1,1]","location_rts":"[1835,545,512,657,633,1023,611,500]","trial_type":"fractal-mutation","trial_index":63,"time_elapsed":1437851,"internal_node_id":"0.0-5.0-9.0"},{"group":"hexagon_tri","fractal_assignment":["../images/cyn_red.png","../images/gry_blk.png","../images/pnk_blu.png","../images/org_blu.png","../images/blu_wht.png","../images/ylw_slt.png"],"mutagen_generator_assignment":[1,0],"goal":3,"start":2,"action_noise":0.15,"location_history":"[2,3]","action_history":"[1]","mutagen_history":"[0]","location_rts":"[1751]","trial_type":"fractal-mutation","trial_index":64,"time_elapsed":1444236,"internal_node_id":"0.0-5.0-10.0"},{"group":"hexagon_tri","fractal_assignment":["../images/cyn_red.png","../images/gry_blk.png","../images/pnk_blu.png","../images/org_blu.png","../images/blu_wht.png","../images/ylw_slt.png"],"mutagen_generator_assignment":[1,0],"goal":0,"start":3,"action_noise":0.15,"location_history":"[3,2,1,3,2,3,2,3,2,1,3,2,3,2,3,4,2,3,4,0]","action_history":"[0,0,0,0,1,1,1,0,0,0,0,1,0,1,1,1,1,1,0]","mutagen_history":"[1,1,1,1,0,0,0,1,1,1,1,0,1,0,0,0,0,0,1]","location_rts":"[3273,568,635,532,842,422,808,472,261,489,456,785,232,1122,309,1147,1408,719,235]","trial_type":"fractal-mutation","trial_index":65,"time_elapsed":1484669,"internal_node_id":"0.0-5.0-11.0"},{"group":"hexagon_tri","fractal_assignment":["../images/cyn_red.png","../images/gry_blk.png","../images/pnk_blu.png","../images/org_blu.png","../images/blu_wht.png","../images/ylw_slt.png"],"mutagen_generator_assignment":[1,0],"goal":2,"start":0,"action_noise":0.15,"location_history":"[0,5,4,2]","action_history":"[1,1,1]","mutagen_history":"[0,0,0]","location_rts":"[2348,1107,1236]","trial_type":"fractal-mutation","trial_index":66,"time_elapsed":1496242,"internal_node_id":"0.0-5.0-12.0"},{"group":"hexagon_tri","fractal_assignment":["../images/cyn_red.png","../images/gry_blk.png","../images/pnk_blu.png","../images/org_blu.png","../images/blu_wht.png","../images/ylw_slt.png"],"mutagen_generator_assignment":[1,0],"goal":5,"start":2,"action_noise":0.15,"location_history":"[2,1,3,2,1,3,4,0,1,5]","action_history":"[0,0,0,0,1,1,1,1,1]","mutagen_history":"[1,1,1,1,0,0,0,0,0]","location_rts":"[1522,8549,830,759,1473,848,1582,400,385]","trial_type":"fractal-mutation","trial_index":67,"time_elapsed":1526594,"internal_node_id":"0.0-5.0-13.0"},{"group":"hexagon_tri","fractal_assignment":["../images/cyn_red.png","../images/gry_blk.png","../images/pnk_blu.png","../images/org_blu.png","../images/blu_wht.png","../images/ylw_slt.png"],"mutagen_generator_assignment":[1,0],"goal":4,"start":5,"action_noise":0.15,"location_history":"[5,0,1,5,0,5,4]","action_history":"[1,1,1,1,0,0]","mutagen_history":"[0,0,0,0,1,1]","location_rts":"[2087,5829,964,784,1493,859]","trial_type":"fractal-mutation","trial_index":68,"time_elapsed":1548989,"internal_node_id":"0.0-5.0-14.0"},{"group":"hexagon_tri","fractal_assignment":["../images/cyn_red.png","../images/gry_blk.png","../images/pnk_blu.png","../images/org_blu.png","../images/blu_wht.png","../images/ylw_slt.png"],"mutagen_generator_assignment":[1,0],"goal":3,"start":4,"action_noise":0.15,"location_history":"[4,2,3]","action_history":"[1,1]","mutagen_history":"[0,0]","location_rts":"[28948,342]","trial_type":"fractal-mutation","trial_index":69,"time_elapsed":1584047,"internal_node_id":"0.0-5.0-15.0"},{"group":"hexagon_tri","fractal_assignment":["../images/cyn_red.png","../images/gry_blk.png","../images/pnk_blu.png","../images/org_blu.png","../images/blu_wht.png","../images/ylw_slt.png"],"mutagen_generator_assignment":[1,0],"goal":1,"start":3,"action_noise":0.15,"location_history":"[3,2,1]","action_history":"[0,0]","mutagen_history":"[1,1]","location_rts":"[1130,272]","trial_type":"fractal-mutation","trial_index":70,"time_elapsed":1591356,"internal_node_id":"0.0-5.0-16.0"},{"group":"hexagon_tri","fractal_assignment":["../images/cyn_red.png","../images/gry_blk.png","../images/pnk_blu.png","../images/org_blu.png","../images/blu_wht.png","../images/ylw_slt.png"],"mutagen_generator_assignment":[1,0],"goal":5,"start":1,"action_noise":0.15,"location_history":"[1,5]","action_history":"[1]","mutagen_history":"[0]","location_rts":"[1194]","trial_type":"fractal-mutation","trial_index":71,"time_elapsed":1597199,"internal_node_id":"0.0-5.0-17.0"},{"group":"hexagon_tri","fractal_assignment":["../images/cyn_red.png","../images/gry_blk.png","../images/pnk_blu.png","../images/org_blu.png","../images/blu_wht.png","../images/ylw_slt.png"],"mutagen_generator_assignment":[1,0],"goal":4,"start":5,"action_noise":0.15,"location_history":"[5,0,5,0,5,0,1,5,4]","action_history":"[0,0,0,0,1,1,1,0]","mutagen_history":"[1,1,1,1,0,0,0,1]","location_rts":"[1203,378,482,501,446,719,534,623]","trial_type":"fractal-mutation","trial_index":72,"time_elapsed":1615223,"internal_node_id":"0.0-5.0-18.0"},{"group":"hexagon_tri","fractal_assignment":["../images/cyn_red.png","../images/gry_blk.png","../images/pnk_blu.png","../images/org_blu.png","../images/blu_wht.png","../images/ylw_slt.png"],"mutagen_generator_assignment":[1,0],"goal":0,"start":4,"action_noise":0.15,"location_history":"[4,0]","action_history":"[0]","mutagen_history":"[1]","location_rts":"[1760]","trial_type":"fractal-mutation","trial_index":73,"time_elapsed":1621673,"internal_node_id":"0.0-5.0-19.0"},{"group":"hexagon_tri","fractal_assignment":["../images/cyn_red.png","../images/gry_blk.png","../images/pnk_blu.png","../images/org_blu.png","../images/blu_wht.png","../images/ylw_slt.png"],"mutagen_generator_assignment":[1,0],"goal":1,"start":0,"action_noise":0.15,"location_history":"[0,1]","action_history":"[1]","mutagen_history":"[0]","location_rts":"[606]","trial_type":"fractal-mutation","trial_index":74,"time_elapsed":1626911,"internal_node_id":"0.0-5.0-20.0"},{"group":"hexagon_tri","fractal_assignment":["../images/cyn_red.png","../images/gry_blk.png","../images/pnk_blu.png","../images/org_blu.png","../images/blu_wht.png","../images/ylw_slt.png"],"mutagen_generator_assignment":[1,0],"goal":3,"start":1,"action_noise":0.15,"location_history":"[1,3]","action_history":"[0]","mutagen_history":"[1]","location_rts":"[391]","trial_type":"fractal-mutation","trial_index":75,"time_elapsed":1632001,"internal_node_id":"0.0-5.0-21.0"},{"group":"hexagon_tri","fractal_assignment":["../images/cyn_red.png","../images/gry_blk.png","../images/pnk_blu.png","../images/org_blu.png","../images/blu_wht.png","../images/ylw_slt.png"],"mutagen_generator_assignment":[1,0],"goal":2,"start":3,"action_noise":0.15,"location_history":"[3,2]","action_history":"[1]","mutagen_history":"[0]","location_rts":"[1353]","trial_type":"fractal-mutation","trial_index":76,"time_elapsed":1637991,"internal_node_id":"0.0-5.0-22.0"},{"group":"hexagon_tri","fractal_assignment":["../images/cyn_red.png","../images/gry_blk.png","../images/pnk_blu.png","../images/org_blu.png","../images/blu_wht.png","../images/ylw_slt.png"],"mutagen_generator_assignment":[1,0],"goal":0,"start":2,"action_noise":0.15,"location_history":"[2,3,2,3,2,3,4,2,1,5,4,2,3,4,0]","action_history":"[0,0,0,0,1,1,1,1,1,0,0,0,1,0]","mutagen_history":"[1,1,1,1,0,0,0,0,0,1,1,1,0,1]","location_rts":"[1129,494,430,364,361,640,602,450,425,519,391,455,770,494]","trial_type":"fractal-mutation","trial_index":77,"time_elapsed":1665267,"internal_node_id":"0.0-5.0-23.0"},{"group":"hexagon_tri","fractal_assignment":["../images/cyn_red.png","../images/gry_blk.png","../images/pnk_blu.png","../images/org_blu.png","../images/blu_wht.png","../images/ylw_slt.png"],"mutagen_generator_assignment":[1,0],"goal":3,"start":0,"action_noise":0.15,"location_history":"[0,1,3]","action_history":"[1,1]","mutagen_history":"[0,0]","location_rts":"[4872,871]","trial_type":"fractal-mutation","trial_index":78,"time_elapsed":1676775,"internal_node_id":"0.0-5.0-24.0"},{"group":"hexagon_tri","fractal_assignment":["../images/cyn_red.png","../images/gry_blk.png","../images/pnk_blu.png","../images/org_blu.png","../images/blu_wht.png","../images/ylw_slt.png"],"mutagen_generator_assignment":[1,0],"goal":1,"start":3,"action_noise":0.15,"location_history":"[3,2,1]","action_history":"[0,0]","mutagen_history":"[1,1]","location_rts":"[1536,430]","trial_type":"fractal-mutation","trial_index":79,"time_elapsed":1684726,"internal_node_id":"0.0-5.0-25.0"},{"group":"hexagon_tri","fractal_assignment":["../images/cyn_red.png","../images/gry_blk.png","../images/pnk_blu.png","../images/org_blu.png","../images/blu_wht.png","../images/ylw_slt.png"],"mutagen_generator_assignment":[1,0],"goal":2,"start":1,"action_noise":0.15,"location_history":"[1,3,4,2]","action_history":"[1,1,1]","mutagen_history":"[0,0,0]","location_rts":"[1498,456,408]","trial_type":"fractal-mutation","trial_index":80,"time_elapsed":1693984,"internal_node_id":"0.0-5.0-26.0"},{"group":"hexagon_tri","fractal_assignment":["../images/cyn_red.png","../images/gry_blk.png","../images/pnk_blu.png","../images/org_blu.png","../images/blu_wht.png","../images/ylw_slt.png"],"mutagen_generator_assignment":[1,0],"goal":5,"start":2,"action_noise":0.15,"location_history":"[2,1,3,2,1,5]","action_history":"[0,0,0,1,1]","mutagen_history":"[1,1,1,0,0]","location_rts":"[1220,352,656,483,492]","trial_type":"fractal-mutation","trial_index":81,"time_elapsed":1706696,"internal_node_id":"0.0-5.0-27.0"},{"group":"hexagon_tri","fractal_assignment":["../images/cyn_red.png","../images/gry_blk.png","../images/pnk_blu.png","../images/org_blu.png","../images/blu_wht.png","../images/ylw_slt.png"],"mutagen_generator_assignment":[1,0],"goal":4,"start":5,"action_noise":0.15,"location_history":"[5,4]","action_history":"[0]","mutagen_history":"[1]","location_rts":"[1092]","trial_type":"fractal-mutation","trial_index":82,"time_elapsed":1712484,"internal_node_id":"0.0-5.0-28.0"},{"group":"hexagon_tri","fractal_assignment":["../images/cyn_red.png","../images/gry_blk.png","../images/pnk_blu.png","../images/org_blu.png","../images/blu_wht.png","../images/ylw_slt.png"],"mutagen_generator_assignment":[1,0],"goal":5,"start":4,"action_noise":0.15,"location_history":"[4,0,1,3,4,2,3,4,0,5]","action_history":"[0,0,0,1,1,1,1,0,0]","mutagen_history":"[1,1,1,0,0,0,0,1,1]","location_rts":"[1172,459,402,973,440,419,590,693,460]","trial_type":"fractal-mutation","trial_index":83,"time_elapsed":1732060,"internal_node_id":"0.0-5.0-29.0"},{"group":"hexagon_tri","fractal_assignment":["../images/cyn_red.png","../images/gry_blk.png","../images/pnk_blu.png","../images/org_blu.png","../images/blu_wht.png","../images/ylw_slt.png"],"mutagen_generator_assignment":[1,0],"goal":3,"start":5,"action_noise":0.15,"location_history":"[5,4,0,5,4,0,1,5,0,5,4,0,1,3]","action_history":"[0,0,0,0,1,1,1,1,0,0,0,1,0]","mutagen_history":"[1,1,1,1,0,0,0,0,1,1,1,0,1]","location_rts":"[1380,362,699,771,584,479,392,531,825,440,419,228,228]","trial_type":"fractal-mutation","trial_index":84,"time_elapsed":1758091,"internal_node_id":"0.0-5.0-30.0"},{"group":"hexagon_tri","fractal_assignment":["../images/cyn_red.png","../images/gry_blk.png","../images/pnk_blu.png","../images/org_blu.png","../images/blu_wht.png","../images/ylw_slt.png"],"mutagen_generator_assignment":[1,0],"goal":0,"start":3,"action_noise":0.15,"location_history":"[3,2,1,5,4,2,3,4,0]","action_history":"[0,0,1,1,1,1,0,0]","mutagen_history":"[1,1,0,0,0,0,1,1]","location_rts":"[1588,763,438,322,2522,640,1112,336]","trial_type":"fractal-mutation","trial_index":85,"time_elapsed":1778661,"internal_node_id":"0.0-5.0-31.0"},{"group":"hexagon_tri","fractal_assignment":["../images/cyn_red.png","../images/gry_blk.png","../images/pnk_blu.png","../images/org_blu.png","../images/blu_wht.png","../images/ylw_slt.png"],"mutagen_generator_assignment":[1,0],"goal":4,"start":0,"action_noise":0.15,"location_history":"[0,1,3,4]","action_history":"[1,1,1]","mutagen_history":"[0,0,0]","location_rts":"[1807,430,385]","trial_type":"fractal-mutation","trial_index":86,"time_elapsed":1788267,"internal_node_id":"0.0-5.0-32.0"},{"group":"hexagon_tri","fractal_assignment":["../images/cyn_red.png","../images/gry_blk.png","../images/pnk_blu.png","../images/org_blu.png","../images/blu_wht.png","../images/ylw_slt.png"],"mutagen_generator_assignment":[1,0],"goal":1,"start":4,"action_noise":0.15,"location_history":"[4,2,1]","action_history":"[1,1]","mutagen_history":"[0,0]","location_rts":"[1448,521]","trial_type":"fractal-mutation","trial_index":87,"time_elapsed":1795987,"internal_node_id":"0.0-5.0-33.0"},{"group":"hexagon_tri","fractal_assignment":["../images/cyn_red.png","../images/gry_blk.png","../images/pnk_blu.png","../images/org_blu.png","../images/blu_wht.png","../images/ylw_slt.png"],"mutagen_generator_assignment":[1,0],"goal":2,"start":1,"action_noise":0.15,"location_history":"[1,3,2]","action_history":"[0,0]","mutagen_history":"[1,1]","location_rts":"[843,328]","trial_type":"fractal-mutation","trial_index":88,"time_elapsed":1803131,"internal_node_id":"0.0-5.0-34.0"},{"group":"hexagon_tri","fractal_assignment":["../images/cyn_red.png","../images/gry_blk.png","../images/pnk_blu.png","../images/org_blu.png","../images/blu_wht.png","../images/ylw_slt.png"],"mutagen_generator_assignment":[1,0],"goal":0,"start":2,"action_noise":0.15,"location_history":"[2,1,3,2,3,2,3,4,0]","action_history":"[0,0,0,1,0,0,1,0]","mutagen_history":"[1,1,1,0,1,1,0,1]","location_rts":"[1278,280,459,814,509,348,477,2038]","trial_type":"fractal-mutation","trial_index":89,"time_elapsed":1822256,"internal_node_id":"0.0-5.0-35.0"},{"group":"hexagon_tri","fractal_assignment":["../images/cyn_red.png","../images/gry_blk.png","../images/pnk_blu.png","../images/org_blu.png","../images/blu_wht.png","../images/ylw_slt.png"],"mutagen_generator_assignment":[1,0],"goal":5,"start":0,"action_noise":0.15,"location_history":"[0,5]","action_history":"[0]","mutagen_history":"[1]","location_rts":"[795]","trial_type":"fractal-mutation","trial_index":90,"time_elapsed":1827755,"internal_node_id":"0.0-5.0-36.0"},{"group":"hexagon_tri","fractal_assignment":["../images/cyn_red.png","../images/gry_blk.png","../images/pnk_blu.png","../images/org_blu.png","../images/blu_wht.png","../images/ylw_slt.png"],"mutagen_generator_assignment":[1,0],"goal":2,"start":5,"action_noise":0.15,"location_history":"[5,0,1,5,4,0,5,0,5,0,1,3,4,0,5,4,0,5,4,2]","action_history":"[1,1,1,0,0,0,1,1,1,1,0,0,0,0,1,0,0,0,1]","mutagen_history":"[0,0,0,1,1,1,0,0,0,0,1,1,1,1,0,1,1,1,0]","location_rts":"[631,202,390,423,368,477,619,464,152,562,401,358,112,201,104,108,154,927,64]","trial_type":"fractal-mutation","trial_index":91,"time_elapsed":1859995,"internal_node_id":"0.0-5.0-37.0"},{"group":"hexagon_tri","fractal_assignment":["../images/cyn_red.png","../images/gry_blk.png","../images/pnk_blu.png","../images/org_blu.png","../images/blu_wht.png","../images/ylw_slt.png"],"mutagen_generator_assignment":[1,0],"goal":1,"start":2,"action_noise":0.15,"location_history":"[2,3,2,3,2,1]","action_history":"[1,1,1,1,0]","mutagen_history":"[0,0,0,0,1]","location_rts":"[1512,91,74,288,232]","trial_type":"fractal-mutation","trial_index":92,"time_elapsed":1871424,"internal_node_id":"0.0-5.0-38.0"},{"group":"hexagon_tri","fractal_assignment":["../images/cyn_red.png","../images/gry_blk.png","../images/pnk_blu.png","../images/org_blu.png","../images/blu_wht.png","../images/ylw_slt.png"],"mutagen_generator_assignment":[1,0],"goal":4,"start":1,"action_noise":0.15,"location_history":"[1,3,2,1,3,2,3,4]","action_history":"[0,0,0,0,0,1,1]","mutagen_history":"[1,1,1,1,1,0,0]","location_rts":"[475,433,193,416,123,1306,946]","trial_type":"fractal-mutation","trial_index":93,"time_elapsed":1887095,"internal_node_id":"0.0-5.0-39.0"},{"group":"hexagon_tri","fractal_assignment":["../images/cyn_red.png","../images/gry_blk.png","../images/pnk_blu.png","../images/org_blu.png","../images/blu_wht.png","../images/ylw_slt.png"],"mutagen_generator_assignment":[1,0],"goal":3,"start":4,"action_noise":0.15,"location_history":"[4,2,3]","action_history":"[1,1]","mutagen_history":"[0,0]","location_rts":"[1225,715]","trial_type":"fractal-mutation","trial_index":94,"time_elapsed":1894801,"internal_node_id":"0.0-5.0-40.0"},{"group":"hexagon_tri","fractal_assignment":["../images/cyn_red.png","../images/gry_blk.png","../images/pnk_blu.png","../images/org_blu.png","../images/blu_wht.png","../images/ylw_slt.png"],"mutagen_generator_assignment":[1,0],"goal":5,"start":3,"action_noise":0.15,"location_history":"[3,4,0,1,3,2,3,2,3,4,2,3,4,2,1,3,2,1,3,4,2,3,2,1,3,2,1,3,4,2,1,3,4,2,3,2,3,2,1,3,4,0,5]","action_history":"[1,0,0,0,1,1,0,1,1,1,1,1,0,0,0,0,0,0,0,1,1,0,1,0,0,0,1,1,1,0,0,1,1,1,0,0,1,0,0,0,0,0]","mutagen_history":"[0,1,1,1,0,0,1,0,0,0,0,0,1,1,1,1,1,1,1,0,0,1,0,1,1,1,0,0,0,1,1,0,0,0,1,1,0,1,1,1,1,1]","location_rts":"[1423,1702,507,412,794,234,1328,278,367,749,487,233,1225,1091,515,591,88,152,1025,843,585,672,175,1113,411,105,457,476,497,417,249,450,180,536,183,581,778,266,215,290,232,293]","trial_type":"fractal-mutation","trial_index":95,"time_elapsed":1970606,"internal_node_id":"0.0-5.0-41.0"},{"group":"hexagon_tri","fractal_assignment":["../images/cyn_red.png","../images/gry_blk.png","../images/pnk_blu.png","../images/org_blu.png","../images/blu_wht.png","../images/ylw_slt.png"],"mutagen_generator_assignment":[1,0],"goal":3,"start":5,"action_noise":0.15,"location_history":"[5,0,1,5,4,0,5,4,2,3]","action_history":"[1,1,1,0,0,0,0,1,1]","mutagen_history":"[0,0,0,1,1,1,1,0,0]","location_rts":"[1144,451,535,616,377,247,422,462,234]","trial_type":"fractal-mutation","trial_index":96,"time_elapsed":1989039,"internal_node_id":"0.0-5.0-42.0"},{"group":"hexagon_tri","fractal_assignment":["../images/cyn_red.png","../images/gry_blk.png","../images/pnk_blu.png","../images/org_blu.png","../images/blu_wht.png","../images/ylw_slt.png"],"mutagen_generator_assignment":[1,0],"goal":0,"start":3,"action_noise":0.15,"location_history":"[3,4,0]","action_history":"[0,0]","mutagen_history":"[1,1]","location_rts":"[1195,597]","trial_type":"fractal-mutation","trial_index":97,"time_elapsed":1996731,"internal_node_id":"0.0-5.0-43.0"},{"group":"hexagon_tri","fractal_assignment":["../images/cyn_red.png","../images/gry_blk.png","../images/pnk_blu.png","../images/org_blu.png","../images/blu_wht.png","../images/ylw_slt.png"],"mutagen_generator_assignment":[1,0],"goal":2,"start":0,"action_noise":0.15,"location_history":"[0,1,5,4,0,1,5,4,0,1,3,2]","action_history":"[1,1,1,1,1,1,0,0,0,1,0]","mutagen_history":"[0,0,0,0,0,0,1,1,1,0,1]","location_rts":"[1116,370,413,398,476,574,284,292,396,179,368]","trial_type":"fractal-mutation","trial_index":98,"time_elapsed":2017799,"internal_node_id":"0.0-5.0-44.0"},{"group":"hexagon_tri","fractal_assignment":["../images/cyn_red.png","../images/gry_blk.png","../images/pnk_blu.png","../images/org_blu.png","../images/blu_wht.png","../images/ylw_slt.png"],"mutagen_generator_assignment":[1,0],"goal":4,"start":2,"action_noise":0.15,"location_history":"[2,3,4]","action_history":"[1,1]","mutagen_history":"[0,0]","location_rts":"[419,420]","trial_type":"fractal-mutation","trial_index":99,"time_elapsed":2024532,"internal_node_id":"0.0-5.0-45.0"},{"group":"hexagon_tri","fractal_assignment":["../images/cyn_red.png","../images/gry_blk.png","../images/pnk_blu.png","../images/org_blu.png","../images/blu_wht.png","../images/ylw_slt.png"],"mutagen_generator_assignment":[1,0],"goal":1,"start":4,"action_noise":0.15,"location_history":"[4,0,5,0,1]","action_history":"[0,0,1,1]","mutagen_history":"[1,1,0,0]","location_rts":"[747,188,422,107]","trial_type":"fractal-mutation","trial_index":100,"time_elapsed":2034208,"internal_node_id":"0.0-5.0-46.0"},{"group":"hexagon_tri","fractal_assignment":["../images/cyn_red.png","../images/gry_blk.png","../images/pnk_blu.png","../images/org_blu.png","../images/blu_wht.png","../images/ylw_slt.png"],"mutagen_generator_assignment":[1,0],"goal":4,"start":1,"action_noise":0.15,"location_history":"[1,3,2,1,3,2,3,4]","action_history":"[0,0,0,0,1,1,1]","mutagen_history":"[1,1,1,1,0,0,0]","location_rts":"[774,221,255,345,191,278,344]","trial_type":"fractal-mutation","trial_index":101,"time_elapsed":2048440,"internal_node_id":"0.0-5.0-47.0"},{"group":"hexagon_tri","fractal_assignment":["../images/cyn_red.png","../images/gry_blk.png","../images/pnk_blu.png","../images/org_blu.png","../images/blu_wht.png","../images/ylw_slt.png"],"mutagen_generator_assignment":[1,0],"goal":3,"start":4,"action_noise":0.15,"location_history":"[4,2,1,3]","action_history":"[1,1,0]","mutagen_history":"[0,0,1]","location_rts":"[2579,238,159]","trial_type":"fractal-mutation","trial_index":102,"time_elapsed":2058393,"internal_node_id":"0.0-5.0-48.0"},{"group":"hexagon_tri","fractal_assignment":["../images/cyn_red.png","../images/gry_blk.png","../images/pnk_blu.png","../images/org_blu.png","../images/blu_wht.png","../images/ylw_slt.png"],"mutagen_generator_assignment":[1,0],"goal":5,"start":3,"action_noise":0.15,"location_history":"[3,2,3,4,2,3,4,2,3,2,3,2,3,4,0,5]","action_history":"[0,1,1,1,1,1,0,0,0,0,1,1,1,0,0]","mutagen_history":"[1,0,0,0,0,0,1,1,1,1,0,0,0,1,1]","location_rts":"[550,198,179,245,410,106,186,173,1137,597,177,452,1567,374,154]","trial_type":"fractal-mutation","trial_index":103,"time_elapsed":2085975,"internal_node_id":"0.0-5.0-49.0"},{"view_history":"[{\"page_index\":0,\"viewing_time\":6437}]","rt":6439,"trial_type":"instructions","trial_index":104,"time_elapsed":2093418,"internal_node_id":"0.0-6.0"},{"rt":3341,"responses":"{\"Q0\":\"n/a\"}","trial_type":"survey-text","trial_index":105,"time_elapsed":2097767,"internal_node_id":"0.0-7.0"}]