[{"view_history":"[{\"page_index\":0,\"viewing_time\":1892},{\"page_index\":1,\"viewing_time\":15720},{\"page_index\":2,\"viewing_time\":15639},{\"page_index\":3,\"viewing_time\":50640}]","rt":83891,"trial_type":"instructions","trial_index":0,"time_elapsed":83892,"internal_node_id":"0.0-0.0"},{"view_history":"[{\"page_index\":0,\"viewing_time\":1246},{\"page_index\":1,\"viewing_time\":19760}]","rt":21006,"trial_type":"instructions","trial_index":1,"time_elapsed":105899,"internal_node_id":"0.0-1.0"},{"group":"hexagon_tri","room_assignment":["blue","red","purple","grey","green","yellow"],"door_color_assignment":["white","black"],"door_generator_assignment":[1,0],"goal":4,"start":0,"action_noise":0.15,"location_history":"[0,1,3,4]","action_history":"[1,0,1]","door_history":"[0,1,0]","location_rts":"[1995,3284,715]","trial_type":"two-door-navigation","trial_index":2,"time_elapsed":118473,"internal_node_id":"0.0-2.0-0.0"},{"group":"hexagon_tri","room_assignment":["blue","red","purple","grey","green","yellow"],"door_color_assignment":["white","black"],"door_generator_assignment":[1,0],"goal":3,"start":4,"action_noise":0.15,"location_history":"[4,2,1,5,0,1,5,4,2,3]","action_history":"[1,0,1,0,1,1,0,1,1]","door_history":"[0,1,0,1,0,0,1,0,0]","location_rts":"[674,488,973,566,572,555,1152,2633,426]","trial_type":"two-door-navigation","trial_index":3,"time_elapsed":139210,"internal_node_id":"0.0-2.0-1.0"},{"group":"hexagon_tri","room_assignment":["blue","red","purple","grey","green","yellow"],"door_color_assignment":["white","black"],"door_generator_assignment":[1,0],"goal":5,"start":3,"action_noise":0.15,"location_history":"[3,4,0,1,5]","action_history":"[1,0,1,1]","door_history":"[0,1,0,0]","location_rts":"[1107,641,1757,347]","trial_type":"two-door-navigation","trial_index":4,"time_elapsed":150644,"internal_node_id":"0.0-2.0-2.0"},{"group":"hexagon_tri","room_assignment":["blue","red","purple","grey","green","yellow"],"door_color_assignment":["white","black"],"door_generator_assignment":[1,0],"goal":2,"start":5,"action_noise":0.15,"location_history":"[5,0,1,5,0,1,5,4,2]","action_history":"[1,1,1,1,1,1,1,1]","door_history":"[0,0,0,0,0,0,0,0]","location_rts":"[303,408,287,257,698,326,315,362]","trial_type":"two-door-navigation","trial_index":5,"time_elapsed":165277,"internal_node_id":"0.0-2.0-3.0"},{"group":"hexagon_tri","room_assignment":["blue","red","purple","grey","green","yellow"],"door_color_assignment":["white","black"],"door_generator_assignment":[1,0],"goal":1,"start":2,"action_noise":0.15,"location_history":"[2,1]","action_history":"[1]","door_history":"[0]","location_rts":"[268]","trial_type":"two-door-navigation","trial_index":6,"time_elapsed":170070,"internal_node_id":"0.0-2.0-4.0"},{"group":"hexagon_tri","room_assignment":["blue","red","purple","grey","green","yellow"],"door_color_assignment":["white","black"],"door_generator_assignment":[1,0],"goal":4,"start":1,"action_noise":0.15,"location_history":"[1,5,4]","action_history":"[1,0]","door_history":"[0,1]","location_rts":"[339,287]","trial_type":"two-door-navigation","trial_index":7,"time_elapsed":176241,"internal_node_id":"0.0-2.0-5.0"},{"group":"hexagon_tri","room_assignment":["blue","red","purple","grey","green","yellow"],"door_color_assignment":["white","black"],"door_generator_assignment":[1,0],"goal":1,"start":4,"action_noise":0.15,"location_history":"[4,2,1]","action_history":"[1,0]","door_history":"[0,1]","location_rts":"[248,153]","trial_type":"two-door-navigation","trial_index":8,"time_elapsed":182194,"internal_node_id":"0.0-2.0-6.0"},{"group":"hexagon_tri","room_assignment":["blue","red","purple","grey","green","yellow"],"door_color_assignment":["white","black"],"door_generator_assignment":[1,0],"goal":5,"start":1,"action_noise":0.15,"location_history":"[1,5]","action_history":"[1]","door_history":"[0]","location_rts":"[295]","trial_type":"two-door-navigation","trial_index":9,"time_elapsed":187021,"internal_node_id":"0.0-2.0-7.0"},{"group":"hexagon_tri","room_assignment":["blue","red","purple","grey","green","yellow"],"door_color_assignment":["white","black"],"door_generator_assignment":[1,0],"goal":0,"start":5,"action_noise":0.15,"location_history":"[5,4,2,1,3,4,0]","action_history":"[0,1,0,1,1,0]","door_history":"[1,0,1,0,0,1]","location_rts":"[886,291,453,494,330,420]","trial_type":"two-door-navigation","trial_index":10,"time_elapsed":199523,"internal_node_id":"0.0-2.0-8.0"},{"group":"hexagon_tri","room_assignment":["blue","red","purple","grey","green","yellow"],"door_color_assignment":["white","black"],"door_generator_assignment":[1,0],"goal":2,"start":0,"action_noise":0.15,"location_history":"[0,1,3,4,2]","action_history":"[1,0,1,1]","door_history":"[0,1,0,0]","location_rts":"[294,309,211,236]","trial_type":"two-door-navigation","trial_index":11,"time_elapsed":208155,"internal_node_id":"0.0-2.0-9.0"},{"group":"hexagon_tri","room_assignment":["blue","red","purple","grey","green","yellow"],"door_color_assignment":["white","black"],"door_generator_assignment":[1,0],"goal":3,"start":2,"action_noise":0.15,"location_history":"[2,3]","action_history":"[0]","door_history":"[1]","location_rts":"[318]","trial_type":"two-door-navigation","trial_index":12,"time_elapsed":212999,"internal_node_id":"0.0-2.0-10.0"},{"group":"hexagon_tri","room_assignment":["blue","red","purple","grey","green","yellow"],"door_color_assignment":["white","black"],"door_generator_assignment":[1,0],"goal":0,"start":3,"action_noise":0.15,"location_history":"[3,4,0]","action_history":"[1,0]","door_history":"[0,1]","location_rts":"[636,100]","trial_type":"two-door-navigation","trial_index":13,"time_elapsed":219279,"internal_node_id":"0.0-2.0-11.0"},{"group":"hexagon_tri","room_assignment":["blue","red","purple","grey","green","yellow"],"door_color_assignment":["white","black"],"door_generator_assignment":[1,0],"goal":2,"start":0,"action_noise":0.15,"location_history":"[0,5,4,2]","action_history":"[1,0,1]","door_history":"[0,1,0]","location_rts":"[252,79,34]","trial_type":"two-door-navigation","trial_index":14,"time_elapsed":226208,"internal_node_id":"0.0-2.0-12.0"},{"group":"hexagon_tri","room_assignment":["blue","red","purple","grey","green","yellow"],"door_color_assignment":["white","black"],"door_generator_assignment":[1,0],"goal":5,"start":2,"action_noise":0.15,"location_history":"[2,3,2,3,4,0,1,5]","action_history":"[1,0,1,1,0,1,1]","door_history":"[0,1,0,0,1,0,0]","location_rts":"[1713,468,267,229,158,384,281]","trial_type":"two-door-navigation","trial_index":15,"time_elapsed":240362,"internal_node_id":"0.0-2.0-13.0"},{"group":"hexagon_tri","room_assignment":["blue","red","purple","grey","green","yellow"],"door_color_assignment":["white","black"],"door_generator_assignment":[1,0],"goal":4,"start":5,"action_noise":0.15,"location_history":"[5,0,5,0,5,4]","action_history":"[1,0,1,0,1]","door_history":"[0,1,0,1,0]","location_rts":"[337,1199,1054,3157,379]","trial_type":"two-door-navigation","trial_index":16,"time_elapsed":255096,"internal_node_id":"0.0-2.0-14.0"},{"group":"hexagon_tri","room_assignment":["blue","red","purple","grey","green","yellow"],"door_color_assignment":["white","black"],"door_generator_assignment":[1,0],"goal":3,"start":4,"action_noise":0.15,"location_history":"[4,0,1,5,4,0,1,5,4,2,3]","action_history":"[0,1,1,1,0,1,0,0,1,1]","door_history":"[1,0,0,0,1,0,1,1,0,0]","location_rts":"[4574,10533,9525,5764,2349,241,491,362,290,214]","trial_type":"two-door-navigation","trial_index":17,"time_elapsed":303140,"internal_node_id":"0.0-2.0-15.0"},{"group":"hexagon_tri","room_assignment":["blue","red","purple","grey","green","yellow"],"door_color_assignment":["white","black"],"door_generator_assignment":[1,0],"goal":1,"start":3,"action_noise":0.15,"location_history":"[3,4,0,1]","action_history":"[1,0,1]","door_history":"[0,1,0]","location_rts":"[852,422,343]","trial_type":"two-door-navigation","trial_index":18,"time_elapsed":311317,"internal_node_id":"0.0-2.0-16.0"},{"group":"hexagon_tri","room_assignment":["blue","red","purple","grey","green","yellow"],"door_color_assignment":["white","black"],"door_generator_assignment":[1,0],"goal":5,"start":1,"action_noise":0.15,"location_history":"[1,5]","action_history":"[1]","door_history":"[0]","location_rts":"[4909]","trial_type":"two-door-navigation","trial_index":19,"time_elapsed":320750,"internal_node_id":"0.0-2.0-17.0"},{"group":"hexagon_tri","room_assignment":["blue","red","purple","grey","green","yellow"],"door_color_assignment":["white","black"],"door_generator_assignment":[1,0],"goal":4,"start":5,"action_noise":0.15,"location_history":"[5,0,5,0,1,5,0,1,3,4]","action_history":"[1,0,1,1,1,1,1,0,1]","door_history":"[0,1,0,0,0,0,0,1,0]","location_rts":"[7138,473,1453,585,2763,1202,725,815,1996]","trial_type":"two-door-navigation","trial_index":20,"time_elapsed":350587,"internal_node_id":"0.0-2.0-18.0"},{"group":"hexagon_tri","room_assignment":["blue","red","purple","grey","green","yellow"],"door_color_assignment":["white","black"],"door_generator_assignment":[1,0],"goal":0,"start":4,"action_noise":0.15,"location_history":"[4,2,1,3,2,1,3,2,1,3,2,1,3,2,1,3,4,2,3,2,1,5,0]","action_history":"[1,0,0,0,0,0,0,0,0,0,1,0,0,0,0,1,1,1,1,1,1,1]","door_history":"[0,1,1,1,1,1,1,1,1,1,0,1,1,1,1,0,0,0,0,0,0,0]","location_rts":"[15147,641,388,355,362,387,368,355,307,336,323,357,305,306,309,179,227,325,585,7803,673,2292]","trial_type":"two-door-navigation","trial_index":21,"time_elapsed":408879,"internal_node_id":"0.0-2.0-19.0"},{"group":"hexagon_tri","room_assignment":["blue","red","purple","grey","green","yellow"],"door_color_assignment":["white","black"],"door_generator_assignment":[1,0],"goal":1,"start":0,"action_noise":0.15,"location_history":"[0,1]","action_history":"[1]","door_history":"[0]","location_rts":"[33699]","trial_type":"two-door-navigation","trial_index":22,"time_elapsed":447105,"internal_node_id":"0.0-2.0-20.0"},{"group":"hexagon_tri","room_assignment":["blue","red","purple","grey","green","yellow"],"door_color_assignment":["white","black"],"door_generator_assignment":[1,0],"goal":3,"start":1,"action_noise":0.15,"location_history":"[1,3]","action_history":"[1]","door_history":"[0]","location_rts":"[4683]","trial_type":"two-door-navigation","trial_index":23,"time_elapsed":456310,"internal_node_id":"0.0-2.0-21.0"},{"group":"hexagon_tri","room_assignment":["blue","red","purple","grey","green","yellow"],"door_color_assignment":["white","black"],"door_generator_assignment":[1,0],"goal":2,"start":3,"action_noise":0.15,"location_history":"[3,4,2]","action_history":"[1,1]","door_history":"[0,0]","location_rts":"[2556,1359]","trial_type":"two-door-navigation","trial_index":24,"time_elapsed":465777,"internal_node_id":"0.0-2.0-22.0"},{"group":"hexagon_tri","room_assignment":["blue","red","purple","grey","green","yellow"],"door_color_assignment":["white","black"],"door_generator_assignment":[1,0],"goal":0,"start":2,"action_noise":0.15,"location_history":"[2,3,2,1,5,0]","action_history":"[1,0,0,1,1]","door_history":"[0,1,1,0,0]","location_rts":"[10873,1275,9968,618,123]","trial_type":"two-door-navigation","trial_index":25,"time_elapsed":497247,"internal_node_id":"0.0-2.0-23.0"},{"group":"hexagon_tri","room_assignment":["blue","red","purple","grey","green","yellow"],"door_color_assignment":["white","black"],"door_generator_assignment":[1,0],"goal":3,"start":0,"action_noise":0.15,"location_history":"[0,1,5,4,2,3]","action_history":"[1,1,0,1,1]","door_history":"[0,0,1,0,0]","location_rts":"[6018,986,419,642,1641]","trial_type":"two-door-navigation","trial_index":26,"time_elapsed":515565,"internal_node_id":"0.0-2.0-24.0"},{"group":"hexagon_tri","room_assignment":["blue","red","purple","grey","green","yellow"],"door_color_assignment":["white","black"],"door_generator_assignment":[1,0],"goal":1,"start":3,"action_noise":0.15,"location_history":"[3,2,3,2,1]","action_history":"[1,1,0,0]","door_history":"[0,0,1,1]","location_rts":"[2792,1740,422,317]","trial_type":"two-door-navigation","trial_index":27,"time_elapsed":528420,"internal_node_id":"0.0-2.0-25.0"},{"group":"hexagon_tri","room_assignment":["blue","red","purple","grey","green","yellow"],"door_color_assignment":["white","black"],"door_generator_assignment":[1,0],"goal":2,"start":1,"action_noise":0.15,"location_history":"[1,3,4,0,5,4,2]","action_history":"[0,0,0,0,1,1]","door_history":"[1,1,1,1,0,0]","location_rts":"[704,425,424,678,100,205]","trial_type":"two-door-navigation","trial_index":28,"time_elapsed":540576,"internal_node_id":"0.0-2.0-26.0"},{"group":"hexagon_tri","room_assignment":["blue","red","purple","grey","green","yellow"],"door_color_assignment":["white","black"],"door_generator_assignment":[1,0],"goal":5,"start":2,"action_noise":0.15,"location_history":"[2,3,4,0,1,3,4,2,1,3,4,0,5]","action_history":"[1,1,0,1,0,1,1,0,1,1,0,0]","door_history":"[0,0,1,0,1,0,0,1,0,0,1,1]","location_rts":"[340,10631,2391,55,26,61,104,47,299,2397,350,355]","trial_type":"two-door-navigation","trial_index":29,"time_elapsed":573362,"internal_node_id":"0.0-2.0-27.0"},{"group":"hexagon_tri","room_assignment":["blue","red","purple","grey","green","yellow"],"door_color_assignment":["white","black"],"door_generator_assignment":[1,0],"goal":4,"start":5,"action_noise":0.15,"location_history":"[5,4]","action_history":"[0]","door_history":"[1]","location_rts":"[4047]","trial_type":"two-door-navigation","trial_index":30,"time_elapsed":581937,"internal_node_id":"0.0-2.0-28.0"},{"group":"hexagon_tri","room_assignment":["blue","red","purple","grey","green","yellow"],"door_color_assignment":["white","black"],"door_generator_assignment":[1,0],"goal":5,"start":4,"action_noise":0.15,"location_history":"[4,0,1,5]","action_history":"[0,0,1]","door_history":"[1,1,0]","location_rts":"[1985,364,653]","trial_type":"two-door-navigation","trial_index":31,"time_elapsed":591506,"internal_node_id":"0.0-2.0-29.0"},{"group":"hexagon_tri","room_assignment":["blue","red","purple","grey","green","yellow"],"door_color_assignment":["white","black"],"door_generator_assignment":[1,0],"goal":3,"start":5,"action_noise":0.15,"location_history":"[5,0,5,0,1,5,0,5,0,1,5,4,0,1,3]","action_history":"[1,1,1,1,1,1,1,1,1,1,0,0,1,0]","door_history":"[0,0,0,0,0,0,0,0,0,0,1,1,0,1]","location_rts":"[5818,1078,340,267,219,83,290,203,297,333,205,372,305,269]","trial_type":"two-door-navigation","trial_index":32,"time_elapsed":619383,"internal_node_id":"0.0-2.0-30.0"},{"group":"hexagon_tri","room_assignment":["blue","red","purple","grey","green","yellow"],"door_color_assignment":["white","black"],"door_generator_assignment":[1,0],"goal":0,"start":3,"action_noise":0.15,"location_history":"[3,2,1,3,4,0]","action_history":"[0,0,0,0,0]","door_history":"[1,1,1,1,1]","location_rts":"[5370,555,580,963,332]","trial_type":"two-door-navigation","trial_index":33,"time_elapsed":635794,"internal_node_id":"0.0-2.0-31.0"},{"group":"hexagon_tri","room_assignment":["blue","red","purple","grey","green","yellow"],"door_color_assignment":["white","black"],"door_generator_assignment":[1,0],"goal":4,"start":0,"action_noise":0.15,"location_history":"[0,5,4]","action_history":"[0,0]","door_history":"[1,1]","location_rts":"[5704,298]","trial_type":"two-door-navigation","trial_index":34,"time_elapsed":647346,"internal_node_id":"0.0-2.0-32.0"},{"group":"hexagon_tri","room_assignment":["blue","red","purple","grey","green","yellow"],"door_color_assignment":["white","black"],"door_generator_assignment":[1,0],"goal":1,"start":4,"action_noise":0.15,"location_history":"[4,0,1]","action_history":"[0,1]","door_history":"[1,0]","location_rts":"[1984,874]","trial_type":"two-door-navigation","trial_index":35,"time_elapsed":655752,"internal_node_id":"0.0-2.0-33.0"},{"group":"hexagon_tri","room_assignment":["blue","red","purple","grey","green","yellow"],"door_color_assignment":["white","black"],"door_generator_assignment":[1,0],"goal":2,"start":1,"action_noise":0.15,"location_history":"[1,5,4,2]","action_history":"[0,0,1]","door_history":"[1,1,0]","location_rts":"[3673,428,974]","trial_type":"two-door-navigation","trial_index":36,"time_elapsed":667391,"internal_node_id":"0.0-2.0-34.0"},{"group":"hexagon_tri","room_assignment":["blue","red","purple","grey","green","yellow"],"door_color_assignment":["white","black"],"door_generator_assignment":[1,0],"goal":0,"start":2,"action_noise":0.15,"location_history":"[2,3,2,1,3,2,1,3,2,1,3,2,1,3,4,0]","action_history":"[1,0,0,0,0,0,0,0,0,0,0,0,0,1,0]","door_history":"[0,1,1,1,1,1,1,1,1,1,1,1,1,0,1]","location_rts":"[505,10241,1800,465,962,1627,355,1014,2413,420,361,333,445,417,312]","trial_type":"two-door-navigation","trial_index":37,"time_elapsed":707878,"internal_node_id":"0.0-2.0-35.0"},{"group":"hexagon_tri","room_assignment":["blue","red","purple","grey","green","yellow"],"door_color_assignment":["white","black"],"door_generator_assignment":[1,0],"goal":5,"start":0,"action_noise":0.15,"location_history":"[0,5]","action_history":"[0]","door_history":"[1]","location_rts":"[876]","trial_type":"two-door-navigation","trial_index":38,"time_elapsed":713275,"internal_node_id":"0.0-2.0-36.0"},{"group":"hexagon_tri","room_assignment":["blue","red","purple","grey","green","yellow"],"door_color_assignment":["white","black"],"door_generator_assignment":[1,0],"goal":2,"start":5,"action_noise":0.15,"location_history":"[5,4,2]","action_history":"[0,1]","door_history":"[1,0]","location_rts":"[2959,1325]","trial_type":"two-door-navigation","trial_index":39,"time_elapsed":723105,"internal_node_id":"0.0-2.0-37.0"},{"group":"hexagon_tri","room_assignment":["blue","red","purple","grey","green","yellow"],"door_color_assignment":["white","black"],"door_generator_assignment":[1,0],"goal":1,"start":2,"action_noise":0.15,"location_history":"[2,1]","action_history":"[0]","door_history":"[1]","location_rts":"[4195]","trial_type":"two-door-navigation","trial_index":40,"time_elapsed":731826,"internal_node_id":"0.0-2.0-38.0"},{"group":"hexagon_tri","room_assignment":["blue","red","purple","grey","green","yellow"],"door_color_assignment":["white","black"],"door_generator_assignment":[1,0],"goal":4,"start":1,"action_noise":0.15,"location_history":"[1,3,4]","action_history":"[0,1]","door_history":"[1,0]","location_rts":"[318,204]","trial_type":"two-door-navigation","trial_index":41,"time_elapsed":737895,"internal_node_id":"0.0-2.0-39.0"},{"group":"hexagon_tri","room_assignment":["blue","red","purple","grey","green","yellow"],"door_color_assignment":["white","black"],"door_generator_assignment":[1,0],"goal":3,"start":4,"action_noise":0.15,"location_history":"[4,2,1,5,0,5,4,0,5,4,0,5,0,5,0,5,4,2,3]","action_history":"[1,0,1,0,1,0,1,0,1,1,0,1,0,1,0,0,1,1]","door_history":"[0,1,0,1,0,1,0,1,0,0,1,0,1,0,1,1,0,0]","location_rts":"[3105,1006,429,155,191,36,157,277,6,98,29,69,812,384,629,327,630,282]","trial_type":"two-door-navigation","trial_index":42,"time_elapsed":768368,"internal_node_id":"0.0-2.0-40.0"},{"group":"hexagon_tri","room_assignment":["blue","red","purple","grey","green","yellow"],"door_color_assignment":["white","black"],"door_generator_assignment":[1,0],"goal":5,"start":3,"action_noise":0.15,"location_history":"[3,4,2,1,5]","action_history":"[1,1,0,1]","door_history":"[0,0,1,0]","location_rts":"[625,2667,2530,955]","trial_type":"two-door-navigation","trial_index":43,"time_elapsed":782733,"internal_node_id":"0.0-2.0-41.0"},{"group":"hexagon_tri","room_assignment":["blue","red","purple","grey","green","yellow"],"door_color_assignment":["white","black"],"door_generator_assignment":[1,0],"goal":3,"start":5,"action_noise":0.15,"location_history":"[5,4,2,3]","action_history":"[0,1,1]","door_history":"[1,0,0]","location_rts":"[7055,865,279]","trial_type":"two-door-navigation","trial_index":44,"time_elapsed":797493,"internal_node_id":"0.0-2.0-42.0"},{"group":"hexagon_tri","room_assignment":["blue","red","purple","grey","green","yellow"],"door_color_assignment":["white","black"],"door_generator_assignment":[1,0],"goal":0,"start":3,"action_noise":0.15,"location_history":"[3,2,1,5,0]","action_history":"[0,0,1,1]","door_history":"[1,1,0,0]","location_rts":"[19216,368,1215,1132]","trial_type":"two-door-navigation","trial_index":45,"time_elapsed":827007,"internal_node_id":"0.0-2.0-43.0"},{"group":"hexagon_tri","room_assignment":["blue","red","purple","grey","green","yellow"],"door_color_assignment":["white","black"],"door_generator_assignment":[1,0],"goal":2,"start":0,"action_noise":0.15,"location_history":"[0,5,4,2]","action_history":"[0,0,1]","door_history":"[1,1,0]","location_rts":"[8363,1284,2316]","trial_type":"two-door-navigation","trial_index":46,"time_elapsed":845535,"internal_node_id":"0.0-2.0-44.0"},{"group":"hexagon_tri","room_assignment":["blue","red","purple","grey","green","yellow"],"door_color_assignment":["white","black"],"door_generator_assignment":[1,0],"goal":4,"start":2,"action_noise":0.15,"location_history":"[2,3,2,3,2,1,5,0,1,5,4]","action_history":"[1,1,1,1,0,1,1,1,1,0]","door_history":"[0,0,0,0,1,0,0,0,0,1]","location_rts":"[5436,83,17,13,60,142,461,107,37,1135]","trial_type":"two-door-navigation","trial_index":47,"time_elapsed":866714,"internal_node_id":"0.0-2.0-45.0"},{"group":"hexagon_tri","room_assignment":["blue","red","purple","grey","green","yellow"],"door_color_assignment":["white","black"],"door_generator_assignment":[1,0],"goal":1,"start":4,"action_noise":0.15,"location_history":"[4,2,1]","action_history":"[1,0]","door_history":"[0,1]","location_rts":"[367,4158]","trial_type":"two-door-navigation","trial_index":48,"time_elapsed":876780,"internal_node_id":"0.0-2.0-46.0"},{"group":"hexagon_tri","room_assignment":["blue","red","purple","grey","green","yellow"],"door_color_assignment":["white","black"],"door_generator_assignment":[1,0],"goal":4,"start":1,"action_noise":0.15,"location_history":"[1,5,4]","action_history":"[1,0]","door_history":"[0,1]","location_rts":"[3961,213]","trial_type":"two-door-navigation","trial_index":49,"time_elapsed":886497,"internal_node_id":"0.0-2.0-47.0"},{"group":"hexagon_tri","room_assignment":["blue","red","purple","grey","green","yellow"],"door_color_assignment":["white","black"],"door_generator_assignment":[1,0],"goal":3,"start":4,"action_noise":0.15,"location_history":"[4,2,1,3]","action_history":"[1,0,1]","door_history":"[0,1,0]","location_rts":"[337,244,683]","trial_type":"two-door-navigation","trial_index":50,"time_elapsed":894326,"internal_node_id":"0.0-2.0-48.0"},{"group":"hexagon_tri","room_assignment":["blue","red","purple","grey","green","yellow"],"door_color_assignment":["white","black"],"door_generator_assignment":[1,0],"goal":5,"start":3,"action_noise":0.15,"location_history":"[3,2,1,3,2,1,5]","action_history":"[0,1,0,1,0,1]","door_history":"[1,0,1,0,1,0]","location_rts":"[307,141,3,162,85,36]","trial_type":"two-door-navigation","trial_index":51,"time_elapsed":904681,"internal_node_id":"0.0-2.0-49.0"},{"view_history":"[{\"page_index\":0,\"viewing_time\":2265}]","rt":2265,"trial_type":"instructions","trial_index":52,"time_elapsed":907947,"internal_node_id":"0.0-3.0"},{"view_history":"[{\"page_index\":0,\"viewing_time\":3464},{\"page_index\":1,\"viewing_time\":18223}]","rt":21687,"trial_type":"instructions","trial_index":53,"time_elapsed":930634,"internal_node_id":"0.0-4.0"},{"group":"hexagon_tri","fractal_assignment":["../images/org_blu.png","../images/gry_blk.png","../images/ylw_slt.png","../images/cyn_red.png","../images/pnk_blu.png","../images/blu_wht.png"],"mutagen_generator_assignment":[1,0],"goal":4,"start":0,"action_noise":0.15,"location_history":"[0,5,4]","action_history":"[0,0]","mutagen_history":"[1,1]","location_rts":"[4215,1273]","trial_type":"fractal-mutation","trial_index":54,"time_elapsed":941724,"internal_node_id":"0.0-5.0-0.0"},{"group":"hexagon_tri","fractal_assignment":["../images/org_blu.png","../images/gry_blk.png","../images/ylw_slt.png","../images/cyn_red.png","../images/pnk_blu.png","../images/blu_wht.png"],"mutagen_generator_assignment":[1,0],"goal":3,"start":4,"action_noise":0.15,"location_history":"[4,2,3]","action_history":"[1,1]","mutagen_history":"[0,0]","location_rts":"[1347,654]","trial_type":"fractal-mutation","trial_index":55,"time_elapsed":949300,"internal_node_id":"0.0-5.0-1.0"},{"group":"hexagon_tri","fractal_assignment":["../images/org_blu.png","../images/gry_blk.png","../images/ylw_slt.png","../images/cyn_red.png","../images/pnk_blu.png","../images/blu_wht.png"],"mutagen_generator_assignment":[1,0],"goal":5,"start":3,"action_noise":0.15,"location_history":"[3,2,3,2,1,5]","action_history":"[0,1,0,0,1]","mutagen_history":"[1,0,1,1,0]","location_rts":"[531,287,202,235,589]","trial_type":"fractal-mutation","trial_index":56,"time_elapsed":959824,"internal_node_id":"0.0-5.0-2.0"},{"group":"hexagon_tri","fractal_assignment":["../images/org_blu.png","../images/gry_blk.png","../images/ylw_slt.png","../images/cyn_red.png","../images/pnk_blu.png","../images/blu_wht.png"],"mutagen_generator_assignment":[1,0],"goal":2,"start":5,"action_noise":0.15,"location_history":"[5,0,5,0,5,0,1,5,4,2]","action_history":"[1,0,1,0,0,1,1,0,1]","mutagen_history":"[0,1,0,1,1,0,0,1,0]","location_rts":"[468,135,31,121,86,216,15,212,39]","trial_type":"fractal-mutation","trial_index":57,"time_elapsed":973993,"internal_node_id":"0.0-5.0-3.0"},{"group":"hexagon_tri","fractal_assignment":["../images/org_blu.png","../images/gry_blk.png","../images/ylw_slt.png","../images/cyn_red.png","../images/pnk_blu.png","../images/blu_wht.png"],"mutagen_generator_assignment":[1,0],"goal":1,"start":2,"action_noise":0.15,"location_history":"[2,1]","action_history":"[0]","mutagen_history":"[1]","location_rts":"[1679]","trial_type":"fractal-mutation","trial_index":58,"time_elapsed":980228,"internal_node_id":"0.0-5.0-4.0"},{"group":"hexagon_tri","fractal_assignment":["../images/org_blu.png","../images/gry_blk.png","../images/ylw_slt.png","../images/cyn_red.png","../images/pnk_blu.png","../images/blu_wht.png"],"mutagen_generator_assignment":[1,0],"goal":4,"start":1,"action_noise":0.15,"location_history":"[1,3,4]","action_history":"[1,1]","mutagen_history":"[0,0]","location_rts":"[1436,280]","trial_type":"fractal-mutation","trial_index":59,"time_elapsed":987481,"internal_node_id":"0.0-5.0-5.0"},{"group":"hexagon_tri","fractal_assignment":["../images/org_blu.png","../images/gry_blk.png","../images/ylw_slt.png","../images/cyn_red.png","../images/pnk_blu.png","../images/blu_wht.png"],"mutagen_generator_assignment":[1,0],"goal":1,"start":4,"action_noise":0.15,"location_history":"[4,0,5,4,0,5,4,0,5,0,5,0,5,0,5,0,5,0,5,4,2,3,2,3,4,2,3,2,1]","action_history":"[0,0,0,0,0,0,0,1,0,0,0,0,1,0,1,0,1,0,0,1,1,0,1,1,1,1,0,0]","mutagen_history":"[1,1,1,1,1,1,1,0,1,1,1,1,0,1,0,1,0,1,1,0,0,1,0,0,0,0,1,1]","location_rts":"[685,280,107,192,210,233,76,209,429,32,121,188,113,248,257,376,300,112,91,255,251,261,102,206,327,173,83,141]","trial_type":"fractal-mutation","trial_index":60,"time_elapsed":1025944,"internal_node_id":"0.0-5.0-6.0"},{"group":"hexagon_tri","fractal_assignment":["../images/org_blu.png","../images/gry_blk.png","../images/ylw_slt.png","../images/cyn_red.png","../images/pnk_blu.png","../images/blu_wht.png"],"mutagen_generator_assignment":[1,0],"goal":5,"start":1,"action_noise":0.15,"location_history":"[1,5]","action_history":"[0]","mutagen_history":"[1]","location_rts":"[117]","trial_type":"fractal-mutation","trial_index":61,"time_elapsed":1030608,"internal_node_id":"0.0-5.0-7.0"},{"group":"hexagon_tri","fractal_assignment":["../images/org_blu.png","../images/gry_blk.png","../images/ylw_slt.png","../images/cyn_red.png","../images/pnk_blu.png","../images/blu_wht.png"],"mutagen_generator_assignment":[1,0],"goal":0,"start":5,"action_noise":0.15,"location_history":"[5,4,0]","action_history":"[1,0]","mutagen_history":"[0,1]","location_rts":"[353,179]","trial_type":"fractal-mutation","trial_index":62,"time_elapsed":1036718,"internal_node_id":"0.0-5.0-8.0"},{"group":"hexagon_tri","fractal_assignment":["../images/org_blu.png","../images/gry_blk.png","../images/ylw_slt.png","../images/cyn_red.png","../images/pnk_blu.png","../images/blu_wht.png"],"mutagen_generator_assignment":[1,0],"goal":2,"start":0,"action_noise":0.15,"location_history":"[0,5,0,5,0,5,4,2]","action_history":"[0,1,0,1,0,0,1]","mutagen_history":"[1,0,1,0,1,1,0]","location_rts":"[364,537,141,126,138,0,66]","trial_type":"fractal-mutation","trial_index":63,"time_elapsed":1048882,"internal_node_id":"0.0-5.0-9.0"},{"group":"hexagon_tri","fractal_assignment":["../images/org_blu.png","../images/gry_blk.png","../images/ylw_slt.png","../images/cyn_red.png","../images/pnk_blu.png","../images/blu_wht.png"],"mutagen_generator_assignment":[1,0],"goal":3,"start":2,"action_noise":0.15,"location_history":"[2,1,3]","action_history":"[1,0]","mutagen_history":"[0,1]","location_rts":"[364,158]","trial_type":"fractal-mutation","trial_index":64,"time_elapsed":1054973,"internal_node_id":"0.0-5.0-10.0"},{"group":"hexagon_tri","fractal_assignment":["../images/org_blu.png","../images/gry_blk.png","../images/ylw_slt.png","../images/cyn_red.png","../images/pnk_blu.png","../images/blu_wht.png"],"mutagen_generator_assignment":[1,0],"goal":0,"start":3,"action_noise":0.15,"location_history":"[3,4,2,3,2,1,5,4,0]","action_history":"[0,1,1,0,0,1,0,0]","mutagen_history":"[1,0,0,1,1,0,1,1]","location_rts":"[528,67,431,52,164,119,135,57]","trial_type":"fractal-mutation","trial_index":65,"time_elapsed":1068343,"internal_node_id":"0.0-5.0-11.0"},{"group":"hexagon_tri","fractal_assignment":["../images/org_blu.png","../images/gry_blk.png","../images/ylw_slt.png","../images/cyn_red.png","../images/pnk_blu.png","../images/blu_wht.png"],"mutagen_generator_assignment":[1,0],"goal":2,"start":0,"action_noise":0.15,"location_history":"[0,1,3,4,2]","action_history":"[1,0,1,0]","mutagen_history":"[0,1,0,1]","location_rts":"[700,648,278,120]","trial_type":"fractal-mutation","trial_index":66,"time_elapsed":1077758,"internal_node_id":"0.0-5.0-12.0"},{"group":"hexagon_tri","fractal_assignment":["../images/org_blu.png","../images/gry_blk.png","../images/ylw_slt.png","../images/cyn_red.png","../images/pnk_blu.png","../images/blu_wht.png"],"mutagen_generator_assignment":[1,0],"goal":5,"start":2,"action_noise":0.15,"location_history":"[2,1,3,4,2,3,2,3,4,0,5]","action_history":"[0,0,1,1,1,0,0,1,0,0]","mutagen_history":"[1,1,0,0,0,1,1,0,1,1]","location_rts":"[770,1157,375,304,971,194,234,1087,174,441]","trial_type":"fractal-mutation","trial_index":67,"time_elapsed":1097371,"internal_node_id":"0.0-5.0-13.0"},{"group":"hexagon_tri","fractal_assignment":["../images/org_blu.png","../images/gry_blk.png","../images/ylw_slt.png","../images/cyn_red.png","../images/pnk_blu.png","../images/blu_wht.png"],"mutagen_generator_assignment":[1,0],"goal":4,"start":5,"action_noise":0.15,"location_history":"[5,0,5,4]","action_history":"[1,0,0]","mutagen_history":"[0,1,1]","location_rts":"[567,122,71]","trial_type":"fractal-mutation","trial_index":68,"time_elapsed":1104754,"internal_node_id":"0.0-5.0-14.0"},{"group":"hexagon_tri","fractal_assignment":["../images/org_blu.png","../images/gry_blk.png","../images/ylw_slt.png","../images/cyn_red.png","../images/pnk_blu.png","../images/blu_wht.png"],"mutagen_generator_assignment":[1,0],"goal":3,"start":4,"action_noise":0.15,"location_history":"[4,2,3]","action_history":"[1,1]","mutagen_history":"[0,0]","location_rts":"[572,68]","trial_type":"fractal-mutation","trial_index":69,"time_elapsed":1110933,"internal_node_id":"0.0-5.0-15.0"},{"group":"hexagon_tri","fractal_assignment":["../images/org_blu.png","../images/gry_blk.png","../images/ylw_slt.png","../images/cyn_red.png","../images/pnk_blu.png","../images/blu_wht.png"],"mutagen_generator_assignment":[1,0],"goal":1,"start":3,"action_noise":0.15,"location_history":"[3,2,1]","action_history":"[0,0]","mutagen_history":"[1,1]","location_rts":"[1038,286]","trial_type":"fractal-mutation","trial_index":70,"time_elapsed":1117795,"internal_node_id":"0.0-5.0-16.0"},{"group":"hexagon_tri","fractal_assignment":["../images/org_blu.png","../images/gry_blk.png","../images/ylw_slt.png","../images/cyn_red.png","../images/pnk_blu.png","../images/blu_wht.png"],"mutagen_generator_assignment":[1,0],"goal":5,"start":1,"action_noise":0.15,"location_history":"[1,3,4,0,1,5]","action_history":"[1,1,1,1,1]","mutagen_history":"[0,0,0,0,0]","location_rts":"[1121,77,165,60,499]","trial_type":"fractal-mutation","trial_index":71,"time_elapsed":1128397,"internal_node_id":"0.0-5.0-17.0"},{"group":"hexagon_tri","fractal_assignment":["../images/org_blu.png","../images/gry_blk.png","../images/ylw_slt.png","../images/cyn_red.png","../images/pnk_blu.png","../images/blu_wht.png"],"mutagen_generator_assignment":[1,0],"goal":4,"start":5,"action_noise":0.15,"location_history":"[5,0,1,5,0,5,4]","action_history":"[1,1,1,1,1,0]","mutagen_history":"[0,0,0,0,0,1]","location_rts":"[940,52,222,19,131,527]","trial_type":"fractal-mutation","trial_index":72,"time_elapsed":1139995,"internal_node_id":"0.0-5.0-18.0"},{"group":"hexagon_tri","fractal_assignment":["../images/org_blu.png","../images/gry_blk.png","../images/ylw_slt.png","../images/cyn_red.png","../images/pnk_blu.png","../images/blu_wht.png"],"mutagen_generator_assignment":[1,0],"goal":0,"start":4,"action_noise":0.15,"location_history":"[4,2,3,2,3,2,3,4,0]","action_history":"[1,1,1,1,0,1,1,0]","mutagen_history":"[0,0,0,0,1,0,0,1]","location_rts":"[972,197,397,560,12,68,130,213]","trial_type":"fractal-mutation","trial_index":73,"time_elapsed":1154354,"internal_node_id":"0.0-5.0-19.0"},{"group":"hexagon_tri","fractal_assignment":["../images/org_blu.png","../images/gry_blk.png","../images/ylw_slt.png","../images/cyn_red.png","../images/pnk_blu.png","../images/blu_wht.png"],"mutagen_generator_assignment":[1,0],"goal":1,"start":0,"action_noise":0.15,"location_history":"[0,1]","action_history":"[0]","mutagen_history":"[1]","location_rts":"[901]","trial_type":"fractal-mutation","trial_index":74,"time_elapsed":1159792,"internal_node_id":"0.0-5.0-20.0"},{"group":"hexagon_tri","fractal_assignment":["../images/org_blu.png","../images/gry_blk.png","../images/ylw_slt.png","../images/cyn_red.png","../images/pnk_blu.png","../images/blu_wht.png"],"mutagen_generator_assignment":[1,0],"goal":3,"start":1,"action_noise":0.15,"location_history":"[1,3]","action_history":"[0]","mutagen_history":"[1]","location_rts":"[368]","trial_type":"fractal-mutation","trial_index":75,"time_elapsed":1164708,"internal_node_id":"0.0-5.0-21.0"},{"group":"hexagon_tri","fractal_assignment":["../images/org_blu.png","../images/gry_blk.png","../images/ylw_slt.png","../images/cyn_red.png","../images/pnk_blu.png","../images/blu_wht.png"],"mutagen_generator_assignment":[1,0],"goal":2,"start":3,"action_noise":0.15,"location_history":"[3,2]","action_history":"[0]","mutagen_history":"[1]","location_rts":"[365]","trial_type":"fractal-mutation","trial_index":76,"time_elapsed":1169617,"internal_node_id":"0.0-5.0-22.0"},{"group":"hexagon_tri","fractal_assignment":["../images/org_blu.png","../images/gry_blk.png","../images/ylw_slt.png","../images/cyn_red.png","../images/pnk_blu.png","../images/blu_wht.png"],"mutagen_generator_assignment":[1,0],"goal":0,"start":2,"action_noise":0.15,"location_history":"[2,1,5,4,2,1,5,4,0]","action_history":"[0,1,0,1,0,1,0,0]","mutagen_history":"[1,0,1,0,1,0,1,1]","location_rts":"[372,842,448,147,451,811,266,243]","trial_type":"fractal-mutation","trial_index":77,"time_elapsed":1185029,"internal_node_id":"0.0-5.0-23.0"},{"group":"hexagon_tri","fractal_assignment":["../images/org_blu.png","../images/gry_blk.png","../images/ylw_slt.png","../images/cyn_red.png","../images/pnk_blu.png","../images/blu_wht.png"],"mutagen_generator_assignment":[1,0],"goal":3,"start":0,"action_noise":0.15,"location_history":"[0,5,4,0,1,3]","action_history":"[0,0,0,1,0]","mutagen_history":"[1,1,1,0,1]","location_rts":"[899,272,277,456,88]","trial_type":"fractal-mutation","trial_index":78,"time_elapsed":1195731,"internal_node_id":"0.0-5.0-24.0"},{"group":"hexagon_tri","fractal_assignment":["../images/org_blu.png","../images/gry_blk.png","../images/ylw_slt.png","../images/cyn_red.png","../images/pnk_blu.png","../images/blu_wht.png"],"mutagen_generator_assignment":[1,0],"goal":1,"start":3,"action_noise":0.15,"location_history":"[3,2,1]","action_history":"[0,0]","mutagen_history":"[1,1]","location_rts":"[878,290]","trial_type":"fractal-mutation","trial_index":79,"time_elapsed":1202502,"internal_node_id":"0.0-5.0-25.0"},{"group":"hexagon_tri","fractal_assignment":["../images/org_blu.png","../images/gry_blk.png","../images/ylw_slt.png","../images/cyn_red.png","../images/pnk_blu.png","../images/blu_wht.png"],"mutagen_generator_assignment":[1,0],"goal":2,"start":1,"action_noise":0.15,"location_history":"[1,5,4,2]","action_history":"[0,0,1]","mutagen_history":"[1,1,0]","location_rts":"[691,29,73]","trial_type":"fractal-mutation","trial_index":80,"time_elapsed":1209922,"internal_node_id":"0.0-5.0-26.0"},{"group":"hexagon_tri","fractal_assignment":["../images/org_blu.png","../images/gry_blk.png","../images/ylw_slt.png","../images/cyn_red.png","../images/pnk_blu.png","../images/blu_wht.png"],"mutagen_generator_assignment":[1,0],"goal":5,"start":2,"action_noise":0.15,"location_history":"[2,1,3,2,3,2,3,2,3,4,2,3,4,0,5]","action_history":"[0,0,0,1,0,1,0,0,1,1,1,1,0,0]","mutagen_history":"[1,1,1,0,1,0,1,1,0,0,0,0,1,1]","location_rts":"[897,287,322,244,214,176,339,209,146,150,242,285,516,203]","trial_type":"fractal-mutation","trial_index":81,"time_elapsed":1232058,"internal_node_id":"0.0-5.0-27.0"},{"group":"hexagon_tri","fractal_assignment":["../images/org_blu.png","../images/gry_blk.png","../images/ylw_slt.png","../images/cyn_red.png","../images/pnk_blu.png","../images/blu_wht.png"],"mutagen_generator_assignment":[1,0],"goal":4,"start":5,"action_noise":0.15,"location_history":"[5,0,5,4]","action_history":"[1,0,0]","mutagen_history":"[0,1,1]","location_rts":"[683,203,238]","trial_type":"fractal-mutation","trial_index":82,"time_elapsed":1239743,"internal_node_id":"0.0-5.0-28.0"},{"group":"hexagon_tri","fractal_assignment":["../images/org_blu.png","../images/gry_blk.png","../images/ylw_slt.png","../images/cyn_red.png","../images/pnk_blu.png","../images/blu_wht.png"],"mutagen_generator_assignment":[1,0],"goal":5,"start":4,"action_noise":0.15,"location_history":"[4,0,1,3,2,3,2,1,5]","action_history":"[0,0,0,0,1,0,0,1]","mutagen_history":"[1,1,1,1,0,1,1,0]","location_rts":"[970,81,490,215,103,275,11046,835]","trial_type":"fractal-mutation","trial_index":83,"time_elapsed":1265741,"internal_node_id":"0.0-5.0-29.0"},{"group":"hexagon_tri","fractal_assignment":["../images/org_blu.png","../images/gry_blk.png","../images/ylw_slt.png","../images/cyn_red.png","../images/pnk_blu.png","../images/blu_wht.png"],"mutagen_generator_assignment":[1,0],"goal":3,"start":5,"action_noise":0.15,"location_history":"[5,4,0,1,3]","action_history":"[0,0,1,0]","mutagen_history":"[1,1,0,1]","location_rts":"[912,266,436,427]","trial_type":"fractal-mutation","trial_index":84,"time_elapsed":1275468,"internal_node_id":"0.0-5.0-30.0"},{"group":"hexagon_tri","fractal_assignment":["../images/org_blu.png","../images/gry_blk.png","../images/ylw_slt.png","../images/cyn_red.png","../images/pnk_blu.png","../images/blu_wht.png"],"mutagen_generator_assignment":[1,0],"goal":0,"start":3,"action_noise":0.15,"location_history":"[3,4,0]","action_history":"[1,0]","mutagen_history":"[0,1]","location_rts":"[936,128]","trial_type":"fractal-mutation","trial_index":85,"time_elapsed":1282103,"internal_node_id":"0.0-5.0-31.0"},{"group":"hexagon_tri","fractal_assignment":["../images/org_blu.png","../images/gry_blk.png","../images/ylw_slt.png","../images/cyn_red.png","../images/pnk_blu.png","../images/blu_wht.png"],"mutagen_generator_assignment":[1,0],"goal":4,"start":0,"action_noise":0.15,"location_history":"[0,5,0,1,5,4]","action_history":"[0,1,1,1,0]","mutagen_history":"[1,0,0,0,1]","location_rts":"[988,214,90,95,261]","trial_type":"fractal-mutation","trial_index":86,"time_elapsed":1292459,"internal_node_id":"0.0-5.0-32.0"},{"group":"hexagon_tri","fractal_assignment":["../images/org_blu.png","../images/gry_blk.png","../images/ylw_slt.png","../images/cyn_red.png","../images/pnk_blu.png","../images/blu_wht.png"],"mutagen_generator_assignment":[1,0],"goal":1,"start":4,"action_noise":0.15,"location_history":"[4,0,1]","action_history":"[1,1]","mutagen_history":"[0,0]","location_rts":"[344,499]","trial_type":"fractal-mutation","trial_index":87,"time_elapsed":1298885,"internal_node_id":"0.0-5.0-33.0"},{"group":"hexagon_tri","fractal_assignment":["../images/org_blu.png","../images/gry_blk.png","../images/ylw_slt.png","../images/cyn_red.png","../images/pnk_blu.png","../images/blu_wht.png"],"mutagen_generator_assignment":[1,0],"goal":2,"start":1,"action_noise":0.15,"location_history":"[1,5,0,5,0,5,4,2]","action_history":"[1,1,0,1,1,0,1]","mutagen_history":"[0,0,1,0,0,1,0]","location_rts":"[1190,246,391,194,214,310,745]","trial_type":"fractal-mutation","trial_index":88,"time_elapsed":1312962,"internal_node_id":"0.0-5.0-34.0"},{"group":"hexagon_tri","fractal_assignment":["../images/org_blu.png","../images/gry_blk.png","../images/ylw_slt.png","../images/cyn_red.png","../images/pnk_blu.png","../images/blu_wht.png"],"mutagen_generator_assignment":[1,0],"goal":0,"start":2,"action_noise":0.15,"location_history":"[2,1,5,4,2,1,5,4,2,3,2,3,2,3,4,0]","action_history":"[0,1,0,1,1,0,0,1,1,0,1,1,1,1,0]","mutagen_history":"[1,0,1,0,0,1,1,0,0,1,0,0,0,0,1]","location_rts":"[476,241,972,371,280,433,1008,496,341,634,14,69,232,340,447]","trial_type":"fractal-mutation","trial_index":89,"time_elapsed":1339042,"internal_node_id":"0.0-5.0-35.0"},{"group":"hexagon_tri","fractal_assignment":["../images/org_blu.png","../images/gry_blk.png","../images/ylw_slt.png","../images/cyn_red.png","../images/pnk_blu.png","../images/blu_wht.png"],"mutagen_generator_assignment":[1,0],"goal":5,"start":0,"action_noise":0.15,"location_history":"[0,1,3,4,0,5]","action_history":"[0,0,1,0,0]","mutagen_history":"[1,1,0,1,1]","location_rts":"[1030,521,567,539,284]","trial_type":"fractal-mutation","trial_index":90,"time_elapsed":1350593,"internal_node_id":"0.0-5.0-36.0"},{"group":"hexagon_tri","fractal_assignment":["../images/org_blu.png","../images/gry_blk.png","../images/ylw_slt.png","../images/cyn_red.png","../images/pnk_blu.png","../images/blu_wht.png"],"mutagen_generator_assignment":[1,0],"goal":2,"start":5,"action_noise":0.15,"location_history":"[5,0,5,4,2]","action_history":"[1,0,0,0]","mutagen_history":"[0,1,1,1]","location_rts":"[914,255,1018,496]","trial_type":"fractal-mutation","trial_index":91,"time_elapsed":1360853,"internal_node_id":"0.0-5.0-37.0"},{"group":"hexagon_tri","fractal_assignment":["../images/org_blu.png","../images/gry_blk.png","../images/ylw_slt.png","../images/cyn_red.png","../images/pnk_blu.png","../images/blu_wht.png"],"mutagen_generator_assignment":[1,0],"goal":1,"start":2,"action_noise":0.15,"location_history":"[2,3,2,1]","action_history":"[0,0,0]","mutagen_history":"[1,1,1]","location_rts":"[951,385,2560]","trial_type":"fractal-mutation","trial_index":92,"time_elapsed":1371388,"internal_node_id":"0.0-5.0-38.0"},{"group":"hexagon_tri","fractal_assignment":["../images/org_blu.png","../images/gry_blk.png","../images/ylw_slt.png","../images/cyn_red.png","../images/pnk_blu.png","../images/blu_wht.png"],"mutagen_generator_assignment":[1,0],"goal":4,"start":1,"action_noise":0.15,"location_history":"[1,5,0,1,3,2,3,2,3,2,1,5,4]","action_history":"[0,1,1,0,0,1,0,0,0,1,1,0]","mutagen_history":"[1,0,0,1,1,0,1,1,1,0,0,1]","location_rts":"[669,177,196,233,41,310,70,133,307,303,567,254]","trial_type":"fractal-mutation","trial_index":93,"time_elapsed":1390643,"internal_node_id":"0.0-5.0-39.0"},{"group":"hexagon_tri","fractal_assignment":["../images/org_blu.png","../images/gry_blk.png","../images/ylw_slt.png","../images/cyn_red.png","../images/pnk_blu.png","../images/blu_wht.png"],"mutagen_generator_assignment":[1,0],"goal":3,"start":4,"action_noise":0.15,"location_history":"[4,0,1,3]","action_history":"[0,1,0]","mutagen_history":"[1,0,1]","location_rts":"[646,399,176]","trial_type":"fractal-mutation","trial_index":94,"time_elapsed":1398501,"internal_node_id":"0.0-5.0-40.0"},{"group":"hexagon_tri","fractal_assignment":["../images/org_blu.png","../images/gry_blk.png","../images/ylw_slt.png","../images/cyn_red.png","../images/pnk_blu.png","../images/blu_wht.png"],"mutagen_generator_assignment":[1,0],"goal":5,"start":3,"action_noise":0.15,"location_history":"[3,2,1,3,2,3,4,0,1,3,2,3,4,2,1,5]","action_history":"[0,1,0,0,1,1,0,1,0,0,1,1,0,0,1]","mutagen_history":"[1,0,1,1,0,0,1,0,1,1,0,0,1,1,0]","location_rts":"[934,364,146,66,220,187,520,200,243,432,636,473,539,331,676]","trial_type":"fractal-mutation","trial_index":95,"time_elapsed":1423543,"internal_node_id":"0.0-5.0-41.0"},{"group":"hexagon_tri","fractal_assignment":["../images/org_blu.png","../images/gry_blk.png","../images/ylw_slt.png","../images/cyn_red.png","../images/pnk_blu.png","../images/blu_wht.png"],"mutagen_generator_assignment":[1,0],"goal":3,"start":5,"action_noise":0.15,"location_history":"[5,4,2,3]","action_history":"[0,1,1]","mutagen_history":"[1,0,0]","location_rts":"[1123,434,384]","trial_type":"fractal-mutation","trial_index":96,"time_elapsed":1432094,"internal_node_id":"0.0-5.0-42.0"},{"group":"hexagon_tri","fractal_assignment":["../images/org_blu.png","../images/gry_blk.png","../images/ylw_slt.png","../images/cyn_red.png","../images/pnk_blu.png","../images/blu_wht.png"],"mutagen_generator_assignment":[1,0],"goal":0,"start":3,"action_noise":0.15,"location_history":"[3,4,0]","action_history":"[1,0]","mutagen_history":"[0,1]","location_rts":"[1290,228]","trial_type":"fractal-mutation","trial_index":97,"time_elapsed":1439202,"internal_node_id":"0.0-5.0-43.0"},{"group":"hexagon_tri","fractal_assignment":["../images/org_blu.png","../images/gry_blk.png","../images/ylw_slt.png","../images/cyn_red.png","../images/pnk_blu.png","../images/blu_wht.png"],"mutagen_generator_assignment":[1,0],"goal":2,"start":0,"action_noise":0.15,"location_history":"[0,1,3,2]","action_history":"[1,0,0]","mutagen_history":"[0,1,1]","location_rts":"[3572,333,260]","trial_type":"fractal-mutation","trial_index":98,"time_elapsed":1450006,"internal_node_id":"0.0-5.0-44.0"},{"group":"hexagon_tri","fractal_assignment":["../images/org_blu.png","../images/gry_blk.png","../images/ylw_slt.png","../images/cyn_red.png","../images/pnk_blu.png","../images/blu_wht.png"],"mutagen_generator_assignment":[1,0],"goal":4,"start":2,"action_noise":0.15,"location_history":"[2,3,2,1,5,4]","action_history":"[1,1,0,1,0]","mutagen_history":"[0,0,1,0,1]","location_rts":"[375,356,185,182,98]","trial_type":"fractal-mutation","trial_index":99,"time_elapsed":1459884,"internal_node_id":"0.0-5.0-45.0"},{"group":"hexagon_tri","fractal_assignment":["../images/org_blu.png","../images/gry_blk.png","../images/ylw_slt.png","../images/cyn_red.png","../images/pnk_blu.png","../images/blu_wht.png"],"mutagen_generator_assignment":[1,0],"goal":1,"start":4,"action_noise":0.15,"location_history":"[4,0,5,0,5,4,0,5,0,5,4,2,1]","action_history":"[0,0,0,0,1,0,0,1,0,0,1,0]","mutagen_history":"[1,1,1,1,0,1,1,0,1,1,0,1]","location_rts":"[475,310,867,685,454,567,293,356,321,293,234,281]","trial_type":"fractal-mutation","trial_index":100,"time_elapsed":1480771,"internal_node_id":"0.0-5.0-46.0"},{"group":"hexagon_tri","fractal_assignment":["../images/org_blu.png","../images/gry_blk.png","../images/ylw_slt.png","../images/cyn_red.png","../images/pnk_blu.png","../images/blu_wht.png"],"mutagen_generator_assignment":[1,0],"goal":4,"start":1,"action_noise":0.15,"location_history":"[1,5,0,1,3,2,3,2,3,2,3,2,1,5,4]","action_history":"[0,0,1,1,0,1,1,1,0,1,0,0,1,0]","mutagen_history":"[1,1,0,0,1,0,0,0,1,0,1,1,0,1]","location_rts":"[463,228,182,137,164,200,324,250,385,519,517,394,368,224]","trial_type":"fractal-mutation","trial_index":101,"time_elapsed":1503183,"internal_node_id":"0.0-5.0-47.0"},{"group":"hexagon_tri","fractal_assignment":["../images/org_blu.png","../images/gry_blk.png","../images/ylw_slt.png","../images/cyn_red.png","../images/pnk_blu.png","../images/blu_wht.png"],"mutagen_generator_assignment":[1,0],"goal":3,"start":4,"action_noise":0.15,"location_history":"[4,2,1,3]","action_history":"[1,0,0]","mutagen_history":"[0,1,1]","location_rts":"[731,723,388]","trial_type":"fractal-mutation","trial_index":102,"time_elapsed":1511654,"internal_node_id":"0.0-5.0-48.0"},{"group":"hexagon_tri","fractal_assignment":["../images/org_blu.png","../images/gry_blk.png","../images/ylw_slt.png","../images/cyn_red.png","../images/pnk_blu.png","../images/blu_wht.png"],"mutagen_generator_assignment":[1,0],"goal":5,"start":3,"action_noise":0.15,"location_history":"[3,2,1,5]","action_history":"[0,0,1]","mutagen_history":"[1,1,0]","location_rts":"[1404,378,262]","trial_type":"fractal-mutation","trial_index":103,"time_elapsed":1520335,"internal_node_id":"0.0-5.0-49.0"},{"view_history":"[{\"page_index\":0,\"viewing_time\":9106}]","rt":9106,"trial_type":"instructions","trial_index":104,"time_elapsed":1530442,"internal_node_id":"0.0-6.0"},{"rt":16396,"responses":"{\"Q0\":\"It was pretty fun!\"}","trial_type":"survey-text","trial_index":105,"time_elapsed":1547843,"internal_node_id":"0.0-7.0"}]