[{"view_history":"[{\"page_index\":0,\"viewing_time\":89200},{\"page_index\":1,\"viewing_time\":648287},{\"page_index\":2,\"viewing_time\":17367},{\"page_index\":3,\"viewing_time\":6199}]","rt":761055,"trial_type":"instructions","trial_index":0,"time_elapsed":761057,"internal_node_id":"0.0-0.0"},{"view_history":"[{\"page_index\":0,\"viewing_time\":2876},{\"page_index\":1,\"viewing_time\":39249}]","rt":42126,"trial_type":"instructions","trial_index":1,"time_elapsed":804183,"internal_node_id":"0.0-1.0"},{"group":"hexagon_bi","room_assignment":["red","yellow","green","purple","grey","blue"],"door_color_assignment":["black","white"],"door_generator_assignment":[1,0],"goal":4,"start":0,"action_noise":0.15,"location_history":"[0,1,2,1,0,5,0,1,2,1,0,5,0,5,0,5,0,5,4]","action_history":"[1,0,0,1,0,0,1,0,0,0,0,0,0,0,0,0,0,1]","door_history":"[0,1,1,0,1,1,0,1,1,1,1,1,1,1,1,1,1,0]","location_rts":"[12175,7898,2783,2661,1338,534,1343,1214,1095,1286,717,1950,22634,501,638,623,2289,423]","trial_type":"two-door-navigation","trial_index":2,"time_elapsed":887860,"internal_node_id":"0.0-2.0-0.0"},{"group":"hexagon_bi","room_assignment":["red","yellow","green","purple","grey","blue"],"door_color_assignment":["black","white"],"door_generator_assignment":[1,0],"goal":3,"start":4,"action_noise":0.15,"location_history":"[4,5,4,3]","action_history":"[0,0,0]","door_history":"[1,1,1]","location_rts":"[6193,1318,1375]","trial_type":"two-door-navigation","trial_index":3,"time_elapsed":903254,"internal_node_id":"0.0-2.0-1.0"},{"group":"hexagon_bi","room_assignment":["red","yellow","green","purple","grey","blue"],"door_color_assignment":["black","white"],"door_generator_assignment":[1,0],"goal":5,"start":3,"action_noise":0.15,"location_history":"[3,2,1,2,3,2,1,0,1,2,3,2,3,2,1,2,1,2,3,4,5]","action_history":"[1,0,0,1,1,0,0,1,0,1,0,1,1,0,0,0,0,1,0,1]","door_history":"[0,1,1,0,0,1,1,0,1,0,1,0,0,1,1,1,1,0,1,0]","location_rts":"[1872,415,1009,990,1070,159,585,1207,784,335,757,1648,430,446,635,837,903,745,473,1046]","trial_type":"two-door-navigation","trial_index":4,"time_elapsed":943130,"internal_node_id":"0.0-2.0-2.0"},{"group":"hexagon_bi","room_assignment":["red","yellow","green","purple","grey","blue"],"door_color_assignment":["black","white"],"door_generator_assignment":[1,0],"goal":2,"start":5,"action_noise":0.15,"location_history":"[5,0,1,2]","action_history":"[0,0,1]","door_history":"[1,1,0]","location_rts":"[3811,3534,534]","trial_type":"two-door-navigation","trial_index":5,"time_elapsed":957516,"internal_node_id":"0.0-2.0-3.0"},{"group":"hexagon_bi","room_assignment":["red","yellow","green","purple","grey","blue"],"door_color_assignment":["black","white"],"door_generator_assignment":[1,0],"goal":1,"start":2,"action_noise":0.15,"location_history":"[2,3,4,3,4,5,0,5,0,1]","action_history":"[1,0,0,1,1,0,0,0,1]","door_history":"[0,1,1,0,0,1,1,1,0]","location_rts":"[11809,2637,12364,1782,3293,2444,620,543,1864]","trial_type":"two-door-navigation","trial_index":6,"time_elapsed":1007387,"internal_node_id":"0.0-2.0-4.0"},{"group":"hexagon_bi","room_assignment":["red","yellow","green","purple","grey","blue"],"door_color_assignment":["black","white"],"door_generator_assignment":[1,0],"goal":4,"start":1,"action_noise":0.15,"location_history":"[1,2,1,0,1,2,3,4]","action_history":"[0,0,1,1,0,1,0]","door_history":"[1,1,0,0,1,0,1]","location_rts":"[2434,1182,1128,463,367,392,17]","trial_type":"two-door-navigation","trial_index":7,"time_elapsed":1023880,"internal_node_id":"0.0-2.0-5.0"},{"group":"hexagon_bi","room_assignment":["red","yellow","green","purple","grey","blue"],"door_color_assignment":["black","white"],"door_generator_assignment":[1,0],"goal":1,"start":4,"action_noise":0.15,"location_history":"[4,3,4,5,0,1]","action_history":"[0,0,1,0,1]","door_history":"[1,1,0,1,0]","location_rts":"[4844,3105,406,630,312]","trial_type":"two-door-navigation","trial_index":8,"time_elapsed":1041683,"internal_node_id":"0.0-2.0-6.0"},{"group":"hexagon_bi","room_assignment":["red","yellow","green","purple","grey","blue"],"door_color_assignment":["black","white"],"door_generator_assignment":[1,0],"goal":5,"start":1,"action_noise":0.15,"location_history":"[1,2,3,4,3,2,1,0,1,2,3,2,1,0,5]","action_history":"[0,1,0,0,1,0,1,1,0,1,1,0,1,0]","door_history":"[1,0,1,1,0,1,0,0,1,0,0,1,0,1]","location_rts":"[2233,15777,1645,9960,526,536,112,332,669,343,1096,1719,313,422]","trial_type":"two-door-navigation","trial_index":9,"time_elapsed":1094883,"internal_node_id":"0.0-2.0-7.0"},{"group":"hexagon_bi","room_assignment":["red","yellow","green","purple","grey","blue"],"door_color_assignment":["black","white"],"door_generator_assignment":[1,0],"goal":0,"start":5,"action_noise":0.15,"location_history":"[5,0]","action_history":"[0]","door_history":"[1]","location_rts":"[2763]","trial_type":"two-door-navigation","trial_index":10,"time_elapsed":1102146,"internal_node_id":"0.0-2.0-8.0"},{"group":"hexagon_bi","room_assignment":["red","yellow","green","purple","grey","blue"],"door_color_assignment":["black","white"],"door_generator_assignment":[1,0],"goal":2,"start":0,"action_noise":0.15,"location_history":"[0,5,0,5,4,5,4,5,4,5,4,3,4,5,0,5,0,5,0,1,2]","action_history":"[0,0,0,1,0,1,1,1,0,1,0,0,1,0,0,0,0,0,1,0]","door_history":"[1,1,1,0,1,0,0,0,1,0,1,1,0,1,1,1,1,1,0,1]","location_rts":"[3218,1463,1790,959,2703,1321,366,773,1045,1336,464,257,983,926,701,447,423,654,294,1343]","trial_type":"two-door-navigation","trial_index":11,"time_elapsed":1147137,"internal_node_id":"0.0-2.0-9.0"},{"group":"hexagon_bi","room_assignment":["red","yellow","green","purple","grey","blue"],"door_color_assignment":["black","white"],"door_generator_assignment":[1,0],"goal":3,"start":2,"action_noise":0.15,"location_history":"[2,3]","action_history":"[0]","door_history":"[1]","location_rts":"[5019]","trial_type":"two-door-navigation","trial_index":12,"time_elapsed":1156659,"internal_node_id":"0.0-2.0-10.0"},{"group":"hexagon_bi","room_assignment":["red","yellow","green","purple","grey","blue"],"door_color_assignment":["black","white"],"door_generator_assignment":[1,0],"goal":0,"start":3,"action_noise":0.15,"location_history":"[3,2,1,2,3,2,3,4,5,0]","action_history":"[1,0,0,1,1,1,1,0,0]","door_history":"[0,1,1,0,0,0,0,1,1]","location_rts":"[18811,965,721,1288,996,1159,591,1120,600]","trial_type":"two-door-navigation","trial_index":13,"time_elapsed":1195419,"internal_node_id":"0.0-2.0-11.0"},{"group":"hexagon_bi","room_assignment":["red","yellow","green","purple","grey","blue"],"door_color_assignment":["black","white"],"door_generator_assignment":[1,0],"goal":2,"start":0,"action_noise":0.15,"location_history":"[0,5,4,3,4,3,2]","action_history":"[0,1,0,0,0,1]","door_history":"[1,0,1,1,1,0]","location_rts":"[4961,1141,640,494,617,3527]","trial_type":"two-door-navigation","trial_index":14,"time_elapsed":1216308,"internal_node_id":"0.0-2.0-12.0"},{"group":"hexagon_bi","room_assignment":["red","yellow","green","purple","grey","blue"],"door_color_assignment":["black","white"],"door_generator_assignment":[1,0],"goal":5,"start":2,"action_noise":0.15,"location_history":"[2,1,2,3,4,3,2,3,4,3,2,1,0,5]","action_history":"[0,0,1,1,0,1,1,1,0,1,0,1,0]","door_history":"[1,1,0,0,1,0,0,0,1,0,1,0,1]","location_rts":"[2665,424,1351,590,355,479,240,375,551,650,199,1192,923]","trial_type":"two-door-navigation","trial_index":15,"time_elapsed":1242819,"internal_node_id":"0.0-2.0-13.0"},{"group":"hexagon_bi","room_assignment":["red","yellow","green","purple","grey","blue"],"door_color_assignment":["black","white"],"door_generator_assignment":[1,0],"goal":4,"start":5,"action_noise":0.15,"location_history":"[5,0,1,2,3,4]","action_history":"[1,1,0,1,0]","door_history":"[0,0,1,0,1]","location_rts":"[20787,879,432,1208,1146]","trial_type":"two-door-navigation","trial_index":16,"time_elapsed":1275780,"internal_node_id":"0.0-2.0-14.0"},{"group":"hexagon_bi","room_assignment":["red","yellow","green","purple","grey","blue"],"door_color_assignment":["black","white"],"door_generator_assignment":[1,0],"goal":3,"start":4,"action_noise":0.15,"location_history":"[4,5,0,1,2,1,2,1,0,5,4,5,0,5,4,3]","action_history":"[1,0,1,1,0,0,0,1,0,1,0,0,1,1,1]","door_history":"[0,1,0,0,1,1,1,0,1,0,1,1,0,0,0]","location_rts":"[6665,1207,1897,2463,656,782,711,406,967,1048,1249,974,816,1303,914]","trial_type":"two-door-navigation","trial_index":17,"time_elapsed":1316348,"internal_node_id":"0.0-2.0-15.0"},{"group":"hexagon_bi","room_assignment":["red","yellow","green","purple","grey","blue"],"door_color_assignment":["black","white"],"door_generator_assignment":[1,0],"goal":1,"start":3,"action_noise":0.15,"location_history":"[3,4,3,2,3,2,1]","action_history":"[0,0,1,0,1,0]","door_history":"[1,1,0,1,0,1]","location_rts":"[2523,656,800,1167,481,14521]","trial_type":"two-door-navigation","trial_index":18,"time_elapsed":1345994,"internal_node_id":"0.0-2.0-16.0"},{"group":"hexagon_bi","room_assignment":["red","yellow","green","purple","grey","blue"],"door_color_assignment":["black","white"],"door_generator_assignment":[1,0],"goal":5,"start":1,"action_noise":0.15,"location_history":"[1,0,1,0,5]","action_history":"[1,1,1,0]","door_history":"[0,0,0,1]","location_rts":"[10330,1127,1424,1092]","trial_type":"two-door-navigation","trial_index":19,"time_elapsed":1367475,"internal_node_id":"0.0-2.0-17.0"},{"group":"hexagon_bi","room_assignment":["red","yellow","green","purple","grey","blue"],"door_color_assignment":["black","white"],"door_generator_assignment":[1,0],"goal":4,"start":5,"action_noise":0.15,"location_history":"[5,0,1,0,1,2,3,4]","action_history":"[0,1,1,1,0,1,0]","door_history":"[1,0,0,0,1,0,1]","location_rts":"[5954,526,582,583,534,1095,1184]","trial_type":"two-door-navigation","trial_index":20,"time_elapsed":1388444,"internal_node_id":"0.0-2.0-18.0"},{"group":"hexagon_bi","room_assignment":["red","yellow","green","purple","grey","blue"],"door_color_assignment":["black","white"],"door_generator_assignment":[1,0],"goal":0,"start":4,"action_noise":0.15,"location_history":"[4,3,4,3,2,3,4,5,4,3,4,5,0]","action_history":"[0,0,0,1,1,0,1,1,0,0,1,0]","door_history":"[1,1,1,0,0,1,0,0,1,1,0,1]","location_rts":"[8641,630,2680,295,784,1048,614,262,1263,2373,223,1806]","trial_type":"two-door-navigation","trial_index":21,"time_elapsed":1424579,"internal_node_id":"0.0-2.0-19.0"},{"group":"hexagon_bi","room_assignment":["red","yellow","green","purple","grey","blue"],"door_color_assignment":["black","white"],"door_generator_assignment":[1,0],"goal":1,"start":0,"action_noise":0.15,"location_history":"[0,1]","action_history":"[1]","door_history":"[0]","location_rts":"[3497]","trial_type":"two-door-navigation","trial_index":22,"time_elapsed":1432579,"internal_node_id":"0.0-2.0-20.0"},{"group":"hexagon_bi","room_assignment":["red","yellow","green","purple","grey","blue"],"door_color_assignment":["black","white"],"door_generator_assignment":[1,0],"goal":3,"start":1,"action_noise":0.15,"location_history":"[1,2,1,0,1,0,1,2,1,2,1,0,1,0,5,4,3]","action_history":"[0,0,1,1,1,0,0,0,0,0,1,1,1,1,1,0]","door_history":"[1,1,0,0,0,1,1,1,1,1,0,0,0,0,0,1]","location_rts":"[6514,605,768,1430,464,2925,831,805,7050,463,718,448,472,525,2149,3066]","trial_type":"two-door-navigation","trial_index":23,"time_elapsed":1481337,"internal_node_id":"0.0-2.0-21.0"},{"group":"hexagon_bi","room_assignment":["red","yellow","green","purple","grey","blue"],"door_color_assignment":["black","white"],"door_generator_assignment":[1,0],"goal":2,"start":3,"action_noise":0.15,"location_history":"[3,2]","action_history":"[1]","door_history":"[0]","location_rts":"[8581]","trial_type":"two-door-navigation","trial_index":24,"time_elapsed":1494420,"internal_node_id":"0.0-2.0-22.0"},{"group":"hexagon_bi","room_assignment":["red","yellow","green","purple","grey","blue"],"door_color_assignment":["black","white"],"door_generator_assignment":[1,0],"goal":0,"start":2,"action_noise":0.15,"location_history":"[2,3,2,3,4,3,4,5,0]","action_history":"[0,0,1,0,0,0,1,0]","door_history":"[1,1,0,1,1,1,0,1]","location_rts":"[15962,2294,741,736,335,332,200,583]","trial_type":"two-door-navigation","trial_index":25,"time_elapsed":1527121,"internal_node_id":"0.0-2.0-23.0"},{"group":"hexagon_bi","room_assignment":["red","yellow","green","purple","grey","blue"],"door_color_assignment":["black","white"],"door_generator_assignment":[1,0],"goal":3,"start":0,"action_noise":0.15,"location_history":"[0,1,0,1,0,5,0,1,0,1,2,3]","action_history":"[1,1,0,1,0,0,0,1,0,0,1]","door_history":"[0,0,1,0,1,1,1,0,1,1,0]","location_rts":"[10747,5245,5728,5086,887,323,529,215,673,879,737]","trial_type":"two-door-navigation","trial_index":26,"time_elapsed":1572681,"internal_node_id":"0.0-2.0-24.0"},{"group":"hexagon_bi","room_assignment":["red","yellow","green","purple","grey","blue"],"door_color_assignment":["black","white"],"door_generator_assignment":[1,0],"goal":1,"start":3,"action_noise":0.15,"location_history":"[3,4,5,0,5,4,3,4,3,4,3,2,1]","action_history":"[0,1,0,1,1,0,0,0,1,1,1,0]","door_history":"[1,0,1,0,0,1,1,1,0,0,0,1]","location_rts":"[3012,4281,15139,612,1712,1047,359,401,512,493,568,888]","trial_type":"two-door-navigation","trial_index":27,"time_elapsed":1617219,"internal_node_id":"0.0-2.0-25.0"},{"group":"hexagon_bi","room_assignment":["red","yellow","green","purple","grey","blue"],"door_color_assignment":["black","white"],"door_generator_assignment":[1,0],"goal":2,"start":1,"action_noise":0.15,"location_history":"[1,0,1,0,5,4,5,4,5,0,1,0,1,2]","action_history":"[1,1,0,0,1,1,1,0,0,1,1,1,0]","door_history":"[0,0,1,1,0,0,0,1,1,0,0,0,1]","location_rts":"[41136,2702,2760,1588,327,318,479,864,632,22,591,839,864]","trial_type":"two-door-navigation","trial_index":28,"time_elapsed":1686874,"internal_node_id":"0.0-2.0-26.0"},{"group":"hexagon_bi","room_assignment":["red","yellow","green","purple","grey","blue"],"door_color_assignment":["black","white"],"door_generator_assignment":[1,0],"goal":5,"start":2,"action_noise":0.15,"location_history":"[2,3,4,5]","action_history":"[1,0,1]","door_history":"[0,1,0]","location_rts":"[16668,754,1136]","trial_type":"two-door-navigation","trial_index":29,"time_elapsed":1711940,"internal_node_id":"0.0-2.0-27.0"},{"group":"hexagon_bi","room_assignment":["red","yellow","green","purple","grey","blue"],"door_color_assignment":["black","white"],"door_generator_assignment":[1,0],"goal":4,"start":5,"action_noise":0.15,"location_history":"[5,4]","action_history":"[0]","door_history":"[1]","location_rts":"[7783]","trial_type":"two-door-navigation","trial_index":30,"time_elapsed":1724226,"internal_node_id":"0.0-2.0-28.0"},{"group":"hexagon_bi","room_assignment":["red","yellow","green","purple","grey","blue"],"door_color_assignment":["black","white"],"door_generator_assignment":[1,0],"goal":5,"start":4,"action_noise":0.15,"location_history":"[4,3,4,5]","action_history":"[0,0,1]","door_history":"[1,1,0]","location_rts":"[10866,1326,1022]","trial_type":"two-door-navigation","trial_index":31,"time_elapsed":1743945,"internal_node_id":"0.0-2.0-29.0"},{"group":"hexagon_bi","room_assignment":["red","yellow","green","purple","grey","blue"],"door_color_assignment":["black","white"],"door_generator_assignment":[1,0],"goal":3,"start":5,"action_noise":0.15,"location_history":"[5,0,5,4,5,4,5,0,1,2,1,0,1,0,5,4,5,4,5,0,5,0,5,0,1,0,1,0,1,0,5,0,5,0,5,0,5,4,3]","action_history":"[1,0,1,1,1,1,0,0,1,0,1,1,1,0,1,1,1,1,0,0,0,1,0,1,1,1,1,1,1,0,0,0,0,0,0,0,1,0]","door_history":"[0,1,0,0,0,0,1,1,0,1,0,0,0,1,0,0,0,0,1,1,1,0,1,0,0,0,0,0,0,1,1,1,1,1,1,1,0,1]","location_rts":"[2365,1278,1773,966,752,1025,567,353,631,1255,431,318,375,894,783,502,320,814,283,1096,1016,365,2406,863,385,423,487,543,536,970,390,888,776,488,430,358,816,1113]","trial_type":"two-door-navigation","trial_index":32,"time_elapsed":1815530,"internal_node_id":"0.0-2.0-30.0"},{"group":"hexagon_bi","room_assignment":["red","yellow","green","purple","grey","blue"],"door_color_assignment":["black","white"],"door_generator_assignment":[1,0],"goal":0,"start":3,"action_noise":0.15,"location_history":"[3,4,3,2,3,2,1,0]","action_history":"[1,0,1,1,1,0,1]","door_history":"[0,1,0,0,0,1,0]","location_rts":"[11988,1772,1991,327,1316,1416,1185]","trial_type":"two-door-navigation","trial_index":33,"time_elapsed":1846043,"internal_node_id":"0.0-2.0-31.0"},{"group":"hexagon_bi","room_assignment":["red","yellow","green","purple","grey","blue"],"door_color_assignment":["black","white"],"door_generator_assignment":[1,0],"goal":4,"start":0,"action_noise":0.15,"location_history":"[0,5,4]","action_history":"[0,1]","door_history":"[1,0]","location_rts":"[86438,786]","trial_type":"two-door-navigation","trial_index":34,"time_elapsed":1939080,"internal_node_id":"0.0-2.0-32.0"},{"group":"hexagon_bi","room_assignment":["red","yellow","green","purple","grey","blue"],"door_color_assignment":["black","white"],"door_generator_assignment":[1,0],"goal":1,"start":4,"action_noise":0.15,"location_history":"[4,3,2,1]","action_history":"[0,1,0]","door_history":"[1,0,1]","location_rts":"[2045,2165,727]","trial_type":"two-door-navigation","trial_index":35,"time_elapsed":1950522,"internal_node_id":"0.0-2.0-33.0"},{"group":"hexagon_bi","room_assignment":["red","yellow","green","purple","grey","blue"],"door_color_assignment":["black","white"],"door_generator_assignment":[1,0],"goal":2,"start":1,"action_noise":0.15,"location_history":"[1,2]","action_history":"[1]","door_history":"[0]","location_rts":"[1516]","trial_type":"two-door-navigation","trial_index":36,"time_elapsed":1956540,"internal_node_id":"0.0-2.0-34.0"},{"group":"hexagon_bi","room_assignment":["red","yellow","green","purple","grey","blue"],"door_color_assignment":["black","white"],"door_generator_assignment":[1,0],"goal":0,"start":2,"action_noise":0.15,"location_history":"[2,1,2,3,2,3,4,3,2,3,4,3,2,1,2,3,2,1,2,3,2,1,2,1,2,1,0]","action_history":"[0,0,1,1,0,0,1,1,1,0,0,0,1,0,1,1,0,0,1,0,0,0,0,1,0,1]","door_history":"[1,1,0,0,1,1,0,0,0,1,1,1,0,1,0,0,1,1,0,1,1,1,1,0,1,0]","location_rts":"[1393,685,1271,568,631,599,1036,632,565,601,705,480,1030,216,960,415,586,598,1384,398,310,183,614,732,507,750]","trial_type":"two-door-navigation","trial_index":37,"time_elapsed":2003988,"internal_node_id":"0.0-2.0-35.0"},{"group":"hexagon_bi","room_assignment":["red","yellow","green","purple","grey","blue"],"door_color_assignment":["black","white"],"door_generator_assignment":[1,0],"goal":5,"start":0,"action_noise":0.15,"location_history":"[0,1,2,3,2,3,4,3,2,3,2,1,2,1,0,5]","action_history":"[1,0,1,1,1,0,0,1,1,1,0,0,1,0,1]","door_history":"[0,1,0,0,0,1,1,0,0,0,1,1,0,1,0]","location_rts":"[1121,1185,840,166,657,351,278,647,340,261,166,224,983,407,2089]","trial_type":"two-door-navigation","trial_index":38,"time_elapsed":2032236,"internal_node_id":"0.0-2.0-36.0"},{"group":"hexagon_bi","room_assignment":["red","yellow","green","purple","grey","blue"],"door_color_assignment":["black","white"],"door_generator_assignment":[1,0],"goal":2,"start":5,"action_noise":0.15,"location_history":"[5,4,5,0,5,0,1,0,1,2]","action_history":"[1,1,0,0,1,1,1,1,0]","door_history":"[0,0,1,1,0,0,0,0,1]","location_rts":"[729,399,945,159,1151,365,399,528,1121]","trial_type":"two-door-navigation","trial_index":39,"time_elapsed":2050549,"internal_node_id":"0.0-2.0-37.0"},{"group":"hexagon_bi","room_assignment":["red","yellow","green","purple","grey","blue"],"door_color_assignment":["black","white"],"door_generator_assignment":[1,0],"goal":1,"start":2,"action_noise":0.15,"location_history":"[2,1]","action_history":"[0]","door_history":"[1]","location_rts":"[1279]","trial_type":"two-door-navigation","trial_index":40,"time_elapsed":2056333,"internal_node_id":"0.0-2.0-38.0"},{"group":"hexagon_bi","room_assignment":["red","yellow","green","purple","grey","blue"],"door_color_assignment":["black","white"],"door_generator_assignment":[1,0],"goal":4,"start":1,"action_noise":0.15,"location_history":"[1,2,3,4]","action_history":"[1,0,0]","door_history":"[0,1,1]","location_rts":"[1769,841,23]","trial_type":"two-door-navigation","trial_index":41,"time_elapsed":2065470,"internal_node_id":"0.0-2.0-39.0"},{"group":"hexagon_bi","room_assignment":["red","yellow","green","purple","grey","blue"],"door_color_assignment":["black","white"],"door_generator_assignment":[1,0],"goal":3,"start":4,"action_noise":0.15,"location_history":"[4,3]","action_history":"[0]","door_history":"[1]","location_rts":"[3104]","trial_type":"two-door-navigation","trial_index":42,"time_elapsed":2073076,"internal_node_id":"0.0-2.0-40.0"},{"group":"hexagon_bi","room_assignment":["red","yellow","green","purple","grey","blue"],"door_color_assignment":["black","white"],"door_generator_assignment":[1,0],"goal":5,"start":3,"action_noise":0.15,"location_history":"[3,2,1,0,1,0,5]","action_history":"[1,0,1,1,1,0]","door_history":"[0,1,0,0,0,1]","location_rts":"[3074,463,464,343,551,512]","trial_type":"two-door-navigation","trial_index":43,"time_elapsed":2087989,"internal_node_id":"0.0-2.0-41.0"},{"group":"hexagon_bi","room_assignment":["red","yellow","green","purple","grey","blue"],"door_color_assignment":["black","white"],"door_generator_assignment":[1,0],"goal":3,"start":5,"action_noise":0.15,"location_history":"[5,4,3]","action_history":"[1,0]","door_history":"[0,1]","location_rts":"[5740,1397]","trial_type":"two-door-navigation","trial_index":44,"time_elapsed":2100920,"internal_node_id":"0.0-2.0-42.0"},{"group":"hexagon_bi","room_assignment":["red","yellow","green","purple","grey","blue"],"door_color_assignment":["black","white"],"door_generator_assignment":[1,0],"goal":0,"start":3,"action_noise":0.15,"location_history":"[3,4,5,0]","action_history":"[0,1,0]","door_history":"[1,0,1]","location_rts":"[1006,1541,758]","trial_type":"two-door-navigation","trial_index":45,"time_elapsed":2110730,"internal_node_id":"0.0-2.0-43.0"},{"group":"hexagon_bi","room_assignment":["red","yellow","green","purple","grey","blue"],"door_color_assignment":["black","white"],"door_generator_assignment":[1,0],"goal":2,"start":0,"action_noise":0.15,"location_history":"[0,1,2]","action_history":"[1,0]","door_history":"[0,1]","location_rts":"[920,721]","trial_type":"two-door-navigation","trial_index":46,"time_elapsed":2117877,"internal_node_id":"0.0-2.0-44.0"},{"group":"hexagon_bi","room_assignment":["red","yellow","green","purple","grey","blue"],"door_color_assignment":["black","white"],"door_generator_assignment":[1,0],"goal":4,"start":2,"action_noise":0.15,"location_history":"[2,3,4]","action_history":"[1,0]","door_history":"[0,1]","location_rts":"[26752,1211]","trial_type":"two-door-navigation","trial_index":47,"time_elapsed":2151357,"internal_node_id":"0.0-2.0-45.0"},{"group":"hexagon_bi","room_assignment":["red","yellow","green","purple","grey","blue"],"door_color_assignment":["black","white"],"door_generator_assignment":[1,0],"goal":1,"start":4,"action_noise":0.15,"location_history":"[4,5,0,5,4,5,0,1]","action_history":"[1,0,0,1,1,0,1]","door_history":"[0,1,1,0,0,1,0]","location_rts":"[600,662,272,855,414,1183,825]","trial_type":"two-door-navigation","trial_index":48,"time_elapsed":2166673,"internal_node_id":"0.0-2.0-46.0"},{"group":"hexagon_bi","room_assignment":["red","yellow","green","purple","grey","blue"],"door_color_assignment":["black","white"],"door_generator_assignment":[1,0],"goal":4,"start":1,"action_noise":0.15,"location_history":"[1,2,3,4]","action_history":"[0,1,0]","door_history":"[1,0,1]","location_rts":"[2139,1211,1064]","trial_type":"two-door-navigation","trial_index":49,"time_elapsed":2177595,"internal_node_id":"0.0-2.0-47.0"},{"group":"hexagon_bi","room_assignment":["red","yellow","green","purple","grey","blue"],"door_color_assignment":["black","white"],"door_generator_assignment":[1,0],"goal":3,"start":4,"action_noise":0.15,"location_history":"[4,5,0,5,4,3]","action_history":"[1,0,0,1,1]","door_history":"[0,1,1,0,0]","location_rts":"[1218,849,685,374,887]","trial_type":"two-door-navigation","trial_index":50,"time_elapsed":2190115,"internal_node_id":"0.0-2.0-48.0"},{"group":"hexagon_bi","room_assignment":["red","yellow","green","purple","grey","blue"],"door_color_assignment":["black","white"],"door_generator_assignment":[1,0],"goal":5,"start":3,"action_noise":0.15,"location_history":"[3,2,1,2,1,0,5]","action_history":"[1,0,1,0,0,0]","door_history":"[0,1,0,1,1,1]","location_rts":"[1034,375,458,454,217,2545]","trial_type":"two-door-navigation","trial_index":51,"time_elapsed":2204730,"internal_node_id":"0.0-2.0-49.0"},{"view_history":"[{\"page_index\":0,\"viewing_time\":4763}]","rt":4764,"trial_type":"instructions","trial_index":52,"time_elapsed":2210495,"internal_node_id":"0.0-3.0"},{"view_history":"[{\"page_index\":0,\"viewing_time\":5494},{\"page_index\":1,\"viewing_time\":68977}]","rt":74471,"trial_type":"instructions","trial_index":53,"time_elapsed":2285966,"internal_node_id":"0.0-4.0"},{"group":"hexagon_bi","fractal_assignment":["../images/ylw_slt.png","../images/pnk_blu.png","../images/cyn_red.png","../images/blu_wht.png","../images/org_blu.png","../images/gry_blk.png"],"mutagen_generator_assignment":[1,0],"goal":4,"start":0,"action_noise":0.15,"location_history":"[0,5,0,5,0,1,2,3,2,3,2,1,2,3,2,1,2,3,2,3,4]","action_history":"[0,1,0,0,1,0,1,1,0,1,0,0,0,1,0,0,1,1,1,0]","mutagen_history":"[1,0,1,1,0,1,0,0,1,0,1,1,1,0,1,1,0,0,0,1]","location_rts":"[9656,1745,197,1268,1735,1108,1120,10603,909,1226,667,614,535,618,723,639,962,374,511,491]","trial_type":"fractal-mutation","trial_index":54,"time_elapsed":2345590,"internal_node_id":"0.0-5.0-0.0"},{"group":"hexagon_bi","fractal_assignment":["../images/ylw_slt.png","../images/pnk_blu.png","../images/cyn_red.png","../images/blu_wht.png","../images/org_blu.png","../images/gry_blk.png"],"mutagen_generator_assignment":[1,0],"goal":3,"start":4,"action_noise":0.15,"location_history":"[4,3]","action_history":"[1]","mutagen_history":"[0]","location_rts":"[1867]","trial_type":"fractal-mutation","trial_index":55,"time_elapsed":2351987,"internal_node_id":"0.0-5.0-1.0"},{"group":"hexagon_bi","fractal_assignment":["../images/ylw_slt.png","../images/pnk_blu.png","../images/cyn_red.png","../images/blu_wht.png","../images/org_blu.png","../images/gry_blk.png"],"mutagen_generator_assignment":[1,0],"goal":5,"start":3,"action_noise":0.15,"location_history":"[3,4,3,2,1,2,3,2,3,4,5]","action_history":"[0,0,1,0,0,1,1,1,0,1]","mutagen_history":"[1,1,0,1,1,0,0,0,1,0]","location_rts":"[2080,911,642,931,539,636,295,401,771,1055]","trial_type":"fractal-mutation","trial_index":56,"time_elapsed":2373957,"internal_node_id":"0.0-5.0-2.0"},{"group":"hexagon_bi","fractal_assignment":["../images/ylw_slt.png","../images/pnk_blu.png","../images/cyn_red.png","../images/blu_wht.png","../images/org_blu.png","../images/gry_blk.png"],"mutagen_generator_assignment":[1,0],"goal":2,"start":5,"action_noise":0.15,"location_history":"[5,0,5,4,3,4,5,0,5,0,1,0,5,0,1,0,1,2]","action_history":"[0,0,1,0,1,1,1,0,0,1,0,0,0,1,1,1,0]","mutagen_history":"[1,1,0,1,0,0,0,1,1,0,1,1,1,0,0,0,1]","location_rts":"[1477,1158,795,838,555,631,632,446,267,644,246,464,390,352,262,551,227]","trial_type":"fractal-mutation","trial_index":57,"time_elapsed":2404786,"internal_node_id":"0.0-5.0-3.0"},{"group":"hexagon_bi","fractal_assignment":["../images/ylw_slt.png","../images/pnk_blu.png","../images/cyn_red.png","../images/blu_wht.png","../images/org_blu.png","../images/gry_blk.png"],"mutagen_generator_assignment":[1,0],"goal":1,"start":2,"action_noise":0.15,"location_history":"[2,1]","action_history":"[0]","mutagen_history":"[1]","location_rts":"[752]","trial_type":"fractal-mutation","trial_index":58,"time_elapsed":2410067,"internal_node_id":"0.0-5.0-4.0"},{"group":"hexagon_bi","fractal_assignment":["../images/ylw_slt.png","../images/pnk_blu.png","../images/cyn_red.png","../images/blu_wht.png","../images/org_blu.png","../images/gry_blk.png"],"mutagen_generator_assignment":[1,0],"goal":4,"start":1,"action_noise":0.15,"location_history":"[1,0,1,2,3,2,3,2,1,2,1,0,1,2,3,2,3,2,1,2,1,2,1,0,1,2,1,0,1,0,5,0,5,0,5,4]","action_history":"[1,1,0,1,0,1,1,0,0,0,1,1,0,1,1,1,0,0,1,0,0,0,1,1,0,1,1,1,1,0,1,0,0,0,1]","mutagen_history":"[0,0,1,0,1,0,0,1,1,1,0,0,1,0,0,0,1,1,0,1,1,1,0,0,1,0,0,0,0,1,0,1,1,1,0]","location_rts":"[1663,655,365,528,434,1140,542,271,379,555,453,391,683,600,657,729,655,1264,1024,1101,368,681,514,507,917,456,258,565,838,239,1707,1121,400,651,757]","trial_type":"fractal-mutation","trial_index":59,"time_elapsed":2473225,"internal_node_id":"0.0-5.0-5.0"},{"group":"hexagon_bi","fractal_assignment":["../images/ylw_slt.png","../images/pnk_blu.png","../images/cyn_red.png","../images/blu_wht.png","../images/org_blu.png","../images/gry_blk.png"],"mutagen_generator_assignment":[1,0],"goal":1,"start":4,"action_noise":0.15,"location_history":"[4,3,2,1]","action_history":"[0,1,0]","mutagen_history":"[1,0,1]","location_rts":"[2493,755,906]","trial_type":"fractal-mutation","trial_index":60,"time_elapsed":2483936,"internal_node_id":"0.0-5.0-6.0"},{"group":"hexagon_bi","fractal_assignment":["../images/ylw_slt.png","../images/pnk_blu.png","../images/cyn_red.png","../images/blu_wht.png","../images/org_blu.png","../images/gry_blk.png"],"mutagen_generator_assignment":[1,0],"goal":5,"start":1,"action_noise":0.15,"location_history":"[1,0,1,0,5]","action_history":"[1,0,1,0]","mutagen_history":"[0,1,0,1]","location_rts":"[3900,532,597,421]","trial_type":"fractal-mutation","trial_index":61,"time_elapsed":2496953,"internal_node_id":"0.0-5.0-7.0"},{"group":"hexagon_bi","fractal_assignment":["../images/ylw_slt.png","../images/pnk_blu.png","../images/cyn_red.png","../images/blu_wht.png","../images/org_blu.png","../images/gry_blk.png"],"mutagen_generator_assignment":[1,0],"goal":0,"start":5,"action_noise":0.15,"location_history":"[5,4,3,4,3,4,3,2,1,0]","action_history":"[1,1,0,0,1,0,1,0,0]","mutagen_history":"[0,0,1,1,0,1,0,1,1]","location_rts":"[2375,473,3225,563,641,495,603,600,704]","trial_type":"fractal-mutation","trial_index":62,"time_elapsed":2519309,"internal_node_id":"0.0-5.0-8.0"},{"group":"hexagon_bi","fractal_assignment":["../images/ylw_slt.png","../images/pnk_blu.png","../images/cyn_red.png","../images/blu_wht.png","../images/org_blu.png","../images/gry_blk.png"],"mutagen_generator_assignment":[1,0],"goal":2,"start":0,"action_noise":0.15,"location_history":"[0,1,0,1,0,5,0,5,4,3,2]","action_history":"[1,1,0,1,0,0,1,1,1,1]","mutagen_history":"[0,0,1,0,1,1,0,0,0,0]","location_rts":"[1598,464,394,494,587,233,460,389,1229,695]","trial_type":"fractal-mutation","trial_index":63,"time_elapsed":2539553,"internal_node_id":"0.0-5.0-9.0"},{"group":"hexagon_bi","fractal_assignment":["../images/ylw_slt.png","../images/pnk_blu.png","../images/cyn_red.png","../images/blu_wht.png","../images/org_blu.png","../images/gry_blk.png"],"mutagen_generator_assignment":[1,0],"goal":3,"start":2,"action_noise":0.15,"location_history":"[2,1,2,3]","action_history":"[0,0,1]","mutagen_history":"[1,1,0]","location_rts":"[1327,631,310]","trial_type":"fractal-mutation","trial_index":64,"time_elapsed":2548388,"internal_node_id":"0.0-5.0-10.0"},{"group":"hexagon_bi","fractal_assignment":["../images/ylw_slt.png","../images/pnk_blu.png","../images/cyn_red.png","../images/blu_wht.png","../images/org_blu.png","../images/gry_blk.png"],"mutagen_generator_assignment":[1,0],"goal":0,"start":3,"action_noise":0.15,"location_history":"[3,4,5,0]","action_history":"[0,1,0]","mutagen_history":"[1,0,1]","location_rts":"[1381,395,218]","trial_type":"fractal-mutation","trial_index":65,"time_elapsed":2556979,"internal_node_id":"0.0-5.0-11.0"},{"group":"hexagon_bi","fractal_assignment":["../images/ylw_slt.png","../images/pnk_blu.png","../images/cyn_red.png","../images/blu_wht.png","../images/org_blu.png","../images/gry_blk.png"],"mutagen_generator_assignment":[1,0],"goal":2,"start":0,"action_noise":0.15,"location_history":"[0,1,0,5,0,1,2]","action_history":"[1,1,0,0,0,1]","mutagen_history":"[0,0,1,1,1,0]","location_rts":"[948,475,442,409,542,318]","trial_type":"fractal-mutation","trial_index":66,"time_elapsed":2569721,"internal_node_id":"0.0-5.0-12.0"},{"group":"hexagon_bi","fractal_assignment":["../images/ylw_slt.png","../images/pnk_blu.png","../images/cyn_red.png","../images/blu_wht.png","../images/org_blu.png","../images/gry_blk.png"],"mutagen_generator_assignment":[1,0],"goal":5,"start":2,"action_noise":0.15,"location_history":"[2,1,2,1,0,5]","action_history":"[0,0,1,1,0]","mutagen_history":"[1,1,0,0,1]","location_rts":"[741,482,336,409,693]","trial_type":"fractal-mutation","trial_index":67,"time_elapsed":2580992,"internal_node_id":"0.0-5.0-13.0"},{"group":"hexagon_bi","fractal_assignment":["../images/ylw_slt.png","../images/pnk_blu.png","../images/cyn_red.png","../images/blu_wht.png","../images/org_blu.png","../images/gry_blk.png"],"mutagen_generator_assignment":[1,0],"goal":4,"start":5,"action_noise":0.15,"location_history":"[5,4]","action_history":"[1]","mutagen_history":"[0]","location_rts":"[842]","trial_type":"fractal-mutation","trial_index":68,"time_elapsed":2586350,"internal_node_id":"0.0-5.0-14.0"},{"group":"hexagon_bi","fractal_assignment":["../images/ylw_slt.png","../images/pnk_blu.png","../images/cyn_red.png","../images/blu_wht.png","../images/org_blu.png","../images/gry_blk.png"],"mutagen_generator_assignment":[1,0],"goal":3,"start":4,"action_noise":0.15,"location_history":"[4,3]","action_history":"[0]","mutagen_history":"[1]","location_rts":"[3671]","trial_type":"fractal-mutation","trial_index":69,"time_elapsed":2594572,"internal_node_id":"0.0-5.0-15.0"},{"group":"hexagon_bi","fractal_assignment":["../images/ylw_slt.png","../images/pnk_blu.png","../images/cyn_red.png","../images/blu_wht.png","../images/org_blu.png","../images/gry_blk.png"],"mutagen_generator_assignment":[1,0],"goal":1,"start":3,"action_noise":0.15,"location_history":"[3,2,1]","action_history":"[1,0]","mutagen_history":"[0,1]","location_rts":"[977,388]","trial_type":"fractal-mutation","trial_index":70,"time_elapsed":2601490,"internal_node_id":"0.0-5.0-16.0"},{"group":"hexagon_bi","fractal_assignment":["../images/ylw_slt.png","../images/pnk_blu.png","../images/cyn_red.png","../images/blu_wht.png","../images/org_blu.png","../images/gry_blk.png"],"mutagen_generator_assignment":[1,0],"goal":5,"start":1,"action_noise":0.15,"location_history":"[1,0,1,2,1,2,3,4,3,4,5]","action_history":"[1,1,0,0,0,1,1,0,0,0]","mutagen_history":"[0,0,1,1,1,0,0,1,1,1]","location_rts":"[5814,2052,794,1617,769,414,1374,420,556,462]","trial_type":"fractal-mutation","trial_index":71,"time_elapsed":2629436,"internal_node_id":"0.0-5.0-17.0"},{"group":"hexagon_bi","fractal_assignment":["../images/ylw_slt.png","../images/pnk_blu.png","../images/cyn_red.png","../images/blu_wht.png","../images/org_blu.png","../images/gry_blk.png"],"mutagen_generator_assignment":[1,0],"goal":4,"start":5,"action_noise":0.15,"location_history":"[5,4]","action_history":"[1]","mutagen_history":"[0]","location_rts":"[700]","trial_type":"fractal-mutation","trial_index":72,"time_elapsed":2634645,"internal_node_id":"0.0-5.0-18.0"},{"group":"hexagon_bi","fractal_assignment":["../images/ylw_slt.png","../images/pnk_blu.png","../images/cyn_red.png","../images/blu_wht.png","../images/org_blu.png","../images/gry_blk.png"],"mutagen_generator_assignment":[1,0],"goal":0,"start":4,"action_noise":0.15,"location_history":"[4,3,2,3,4,3,2,3,4,3,4,5,0]","action_history":"[0,1,1,0,0,1,1,0,0,0,1,0]","mutagen_history":"[1,0,0,1,1,0,0,1,1,1,0,1]","location_rts":"[742,965,406,838,409,663,439,606,419,601,506,942]","trial_type":"fractal-mutation","trial_index":73,"time_elapsed":2658001,"internal_node_id":"0.0-5.0-19.0"},{"group":"hexagon_bi","fractal_assignment":["../images/ylw_slt.png","../images/pnk_blu.png","../images/cyn_red.png","../images/blu_wht.png","../images/org_blu.png","../images/gry_blk.png"],"mutagen_generator_assignment":[1,0],"goal":1,"start":0,"action_noise":0.15,"location_history":"[0,1]","action_history":"[1]","mutagen_history":"[0]","location_rts":"[1683]","trial_type":"fractal-mutation","trial_index":74,"time_elapsed":2664192,"internal_node_id":"0.0-5.0-20.0"},{"group":"hexagon_bi","fractal_assignment":["../images/ylw_slt.png","../images/pnk_blu.png","../images/cyn_red.png","../images/blu_wht.png","../images/org_blu.png","../images/gry_blk.png"],"mutagen_generator_assignment":[1,0],"goal":3,"start":1,"action_noise":0.15,"location_history":"[1,2,1,0,5,4,3]","action_history":"[0,0,1,0,1,0]","mutagen_history":"[1,1,0,1,0,1]","location_rts":"[1951,424,621,260,653,496]","trial_type":"fractal-mutation","trial_index":75,"time_elapsed":2678224,"internal_node_id":"0.0-5.0-21.0"},{"group":"hexagon_bi","fractal_assignment":["../images/ylw_slt.png","../images/pnk_blu.png","../images/cyn_red.png","../images/blu_wht.png","../images/org_blu.png","../images/gry_blk.png"],"mutagen_generator_assignment":[1,0],"goal":2,"start":3,"action_noise":0.15,"location_history":"[3,2]","action_history":"[1]","mutagen_history":"[0]","location_rts":"[845]","trial_type":"fractal-mutation","trial_index":76,"time_elapsed":2683578,"internal_node_id":"0.0-5.0-22.0"},{"group":"hexagon_bi","fractal_assignment":["../images/ylw_slt.png","../images/pnk_blu.png","../images/cyn_red.png","../images/blu_wht.png","../images/org_blu.png","../images/gry_blk.png"],"mutagen_generator_assignment":[1,0],"goal":0,"start":2,"action_noise":0.15,"location_history":"[2,1,2,1,2,1,2,1,2,1,2,3,2,1,0]","action_history":"[0,0,0,1,1,0,0,0,0,1,1,0,1,1]","mutagen_history":"[1,1,1,0,0,1,1,1,1,0,0,1,0,0]","location_rts":"[1326,646,813,219,397,656,362,1181,604,23,403,809,885,402]","trial_type":"fractal-mutation","trial_index":77,"time_elapsed":2710116,"internal_node_id":"0.0-5.0-23.0"},{"group":"hexagon_bi","fractal_assignment":["../images/ylw_slt.png","../images/pnk_blu.png","../images/cyn_red.png","../images/blu_wht.png","../images/org_blu.png","../images/gry_blk.png"],"mutagen_generator_assignment":[1,0],"goal":3,"start":0,"action_noise":0.15,"location_history":"[0,5,0,1,0,1,2,1,0,1,0,5,0,1,2,3]","action_history":"[0,0,1,1,0,0,0,1,1,1,0,0,1,0,0]","mutagen_history":"[1,1,0,0,1,1,1,0,0,0,1,1,0,1,1]","location_rts":"[1588,499,810,524,503,579,476,560,259,508,233,249,901,649,311]","trial_type":"fractal-mutation","trial_index":78,"time_elapsed":2737539,"internal_node_id":"0.0-5.0-24.0"},{"group":"hexagon_bi","fractal_assignment":["../images/ylw_slt.png","../images/pnk_blu.png","../images/cyn_red.png","../images/blu_wht.png","../images/org_blu.png","../images/gry_blk.png"],"mutagen_generator_assignment":[1,0],"goal":1,"start":3,"action_noise":0.15,"location_history":"[3,2,1]","action_history":"[1,0]","mutagen_history":"[0,1]","location_rts":"[1905,2116]","trial_type":"fractal-mutation","trial_index":79,"time_elapsed":2747099,"internal_node_id":"0.0-5.0-25.0"},{"group":"hexagon_bi","fractal_assignment":["../images/ylw_slt.png","../images/pnk_blu.png","../images/cyn_red.png","../images/blu_wht.png","../images/org_blu.png","../images/gry_blk.png"],"mutagen_generator_assignment":[1,0],"goal":2,"start":1,"action_noise":0.15,"location_history":"[1,2]","action_history":"[1]","mutagen_history":"[0]","location_rts":"[848]","trial_type":"fractal-mutation","trial_index":80,"time_elapsed":2752451,"internal_node_id":"0.0-5.0-26.0"},{"group":"hexagon_bi","fractal_assignment":["../images/ylw_slt.png","../images/pnk_blu.png","../images/cyn_red.png","../images/blu_wht.png","../images/org_blu.png","../images/gry_blk.png"],"mutagen_generator_assignment":[1,0],"goal":5,"start":2,"action_noise":0.15,"location_history":"[2,1,2,1,2,3,2,3,4,3,4,5]","action_history":"[0,0,1,0,0,1,1,1,0,0,0]","mutagen_history":"[1,1,0,1,1,0,0,0,1,1,1]","location_rts":"[4069,540,317,446,316,649,462,776,834,601,403]","trial_type":"fractal-mutation","trial_index":81,"time_elapsed":2776563,"internal_node_id":"0.0-5.0-27.0"},{"group":"hexagon_bi","fractal_assignment":["../images/ylw_slt.png","../images/pnk_blu.png","../images/cyn_red.png","../images/blu_wht.png","../images/org_blu.png","../images/gry_blk.png"],"mutagen_generator_assignment":[1,0],"goal":4,"start":5,"action_noise":0.15,"location_history":"[5,4]","action_history":"[1]","mutagen_history":"[0]","location_rts":"[803]","trial_type":"fractal-mutation","trial_index":82,"time_elapsed":2781879,"internal_node_id":"0.0-5.0-28.0"},{"group":"hexagon_bi","fractal_assignment":["../images/ylw_slt.png","../images/pnk_blu.png","../images/cyn_red.png","../images/blu_wht.png","../images/org_blu.png","../images/gry_blk.png"],"mutagen_generator_assignment":[1,0],"goal":5,"start":4,"action_noise":0.15,"location_history":"[4,5]","action_history":"[0]","mutagen_history":"[1]","location_rts":"[1186]","trial_type":"fractal-mutation","trial_index":83,"time_elapsed":2787594,"internal_node_id":"0.0-5.0-29.0"},{"group":"hexagon_bi","fractal_assignment":["../images/ylw_slt.png","../images/pnk_blu.png","../images/cyn_red.png","../images/blu_wht.png","../images/org_blu.png","../images/gry_blk.png"],"mutagen_generator_assignment":[1,0],"goal":3,"start":5,"action_noise":0.15,"location_history":"[5,0,5,4,5,0,5,4,5,4,3]","action_history":"[0,1,1,1,0,0,1,1,0,0]","mutagen_history":"[1,0,0,0,1,1,0,0,1,1]","location_rts":"[1715,1557,447,463,569,487,777,486,383,288]","trial_type":"fractal-mutation","trial_index":84,"time_elapsed":2808453,"internal_node_id":"0.0-5.0-30.0"},{"group":"hexagon_bi","fractal_assignment":["../images/ylw_slt.png","../images/pnk_blu.png","../images/cyn_red.png","../images/blu_wht.png","../images/org_blu.png","../images/gry_blk.png"],"mutagen_generator_assignment":[1,0],"goal":0,"start":3,"action_noise":0.15,"location_history":"[3,4,3,2,1,2,1,0]","action_history":"[0,0,1,1,0,0,1]","mutagen_history":"[1,1,0,0,1,1,0]","location_rts":"[1203,370,659,432,576,362,514]","trial_type":"fractal-mutation","trial_index":85,"time_elapsed":2823313,"internal_node_id":"0.0-5.0-31.0"},{"group":"hexagon_bi","fractal_assignment":["../images/ylw_slt.png","../images/pnk_blu.png","../images/cyn_red.png","../images/blu_wht.png","../images/org_blu.png","../images/gry_blk.png"],"mutagen_generator_assignment":[1,0],"goal":4,"start":0,"action_noise":0.15,"location_history":"[0,5,0,1,0,5,0,1,2,1,0,1,0,1,2,1,2,3,4]","action_history":"[0,0,1,1,0,0,1,1,0,1,1,1,1,0,0,0,1,1]","mutagen_history":"[1,1,0,0,1,1,0,0,1,0,0,0,0,1,1,1,0,0]","location_rts":"[1080,398,452,491,791,422,488,356,780,832,336,378,418,390,291,394,815,456]","trial_type":"fractal-mutation","trial_index":86,"time_elapsed":2854666,"internal_node_id":"0.0-5.0-32.0"},{"group":"hexagon_bi","fractal_assignment":["../images/ylw_slt.png","../images/pnk_blu.png","../images/cyn_red.png","../images/blu_wht.png","../images/org_blu.png","../images/gry_blk.png"],"mutagen_generator_assignment":[1,0],"goal":1,"start":4,"action_noise":0.15,"location_history":"[4,3,2,1]","action_history":"[1,1,0]","mutagen_history":"[0,0,1]","location_rts":"[1099,1094,2885]","trial_type":"fractal-mutation","trial_index":87,"time_elapsed":2866304,"internal_node_id":"0.0-5.0-33.0"},{"group":"hexagon_bi","fractal_assignment":["../images/ylw_slt.png","../images/pnk_blu.png","../images/cyn_red.png","../images/blu_wht.png","../images/org_blu.png","../images/gry_blk.png"],"mutagen_generator_assignment":[1,0],"goal":2,"start":1,"action_noise":0.15,"location_history":"[1,2]","action_history":"[0]","mutagen_history":"[1]","location_rts":"[1026]","trial_type":"fractal-mutation","trial_index":88,"time_elapsed":2871860,"internal_node_id":"0.0-5.0-34.0"},{"group":"hexagon_bi","fractal_assignment":["../images/ylw_slt.png","../images/pnk_blu.png","../images/cyn_red.png","../images/blu_wht.png","../images/org_blu.png","../images/gry_blk.png"],"mutagen_generator_assignment":[1,0],"goal":0,"start":2,"action_noise":0.15,"location_history":"[2,1,0]","action_history":"[0,1]","mutagen_history":"[1,0]","location_rts":"[1624,506]","trial_type":"fractal-mutation","trial_index":89,"time_elapsed":2879528,"internal_node_id":"0.0-5.0-35.0"},{"group":"hexagon_bi","fractal_assignment":["../images/ylw_slt.png","../images/pnk_blu.png","../images/cyn_red.png","../images/blu_wht.png","../images/org_blu.png","../images/gry_blk.png"],"mutagen_generator_assignment":[1,0],"goal":5,"start":0,"action_noise":0.15,"location_history":"[0,5]","action_history":"[0]","mutagen_history":"[1]","location_rts":"[1868]","trial_type":"fractal-mutation","trial_index":90,"time_elapsed":2885926,"internal_node_id":"0.0-5.0-36.0"},{"group":"hexagon_bi","fractal_assignment":["../images/ylw_slt.png","../images/pnk_blu.png","../images/cyn_red.png","../images/blu_wht.png","../images/org_blu.png","../images/gry_blk.png"],"mutagen_generator_assignment":[1,0],"goal":2,"start":5,"action_noise":0.15,"location_history":"[5,4,5,4,3,2]","action_history":"[1,1,1,0,1]","mutagen_history":"[0,0,0,1,0]","location_rts":"[1205,1113,405,398,487]","trial_type":"fractal-mutation","trial_index":91,"time_elapsed":2898091,"internal_node_id":"0.0-5.0-37.0"},{"group":"hexagon_bi","fractal_assignment":["../images/ylw_slt.png","../images/pnk_blu.png","../images/cyn_red.png","../images/blu_wht.png","../images/org_blu.png","../images/gry_blk.png"],"mutagen_generator_assignment":[1,0],"goal":1,"start":2,"action_noise":0.15,"location_history":"[2,1]","action_history":"[0]","mutagen_history":"[1]","location_rts":"[1043]","trial_type":"fractal-mutation","trial_index":92,"time_elapsed":2903660,"internal_node_id":"0.0-5.0-38.0"},{"group":"hexagon_bi","fractal_assignment":["../images/ylw_slt.png","../images/pnk_blu.png","../images/cyn_red.png","../images/blu_wht.png","../images/org_blu.png","../images/gry_blk.png"],"mutagen_generator_assignment":[1,0],"goal":4,"start":1,"action_noise":0.15,"location_history":"[1,0,1,2,1,2,3,2,1,2,3,2,3,4]","action_history":"[1,1,0,0,0,1,1,0,0,1,1,1,0]","mutagen_history":"[0,0,1,1,1,0,0,1,1,0,0,0,1]","location_rts":"[864,471,377,460,433,477,378,546,239,266,584,785,1170]","trial_type":"fractal-mutation","trial_index":93,"time_elapsed":2927401,"internal_node_id":"0.0-5.0-39.0"},{"group":"hexagon_bi","fractal_assignment":["../images/ylw_slt.png","../images/pnk_blu.png","../images/cyn_red.png","../images/blu_wht.png","../images/org_blu.png","../images/gry_blk.png"],"mutagen_generator_assignment":[1,0],"goal":3,"start":4,"action_noise":0.15,"location_history":"[4,5,0,5,4,5,0,5,0,1,2,1,0,1,2,1,2,3]","action_history":"[1,0,0,1,1,0,0,1,1,0,0,1,1,1,0,0,1]","mutagen_history":"[0,1,1,0,0,1,1,0,0,1,1,0,0,0,1,1,0]","location_rts":"[799,242,74,218,386,442,430,541,509,700,352,695,533,686,605,535,438]","trial_type":"fractal-mutation","trial_index":94,"time_elapsed":2956350,"internal_node_id":"0.0-5.0-40.0"},{"group":"hexagon_bi","fractal_assignment":["../images/ylw_slt.png","../images/pnk_blu.png","../images/cyn_red.png","../images/blu_wht.png","../images/org_blu.png","../images/gry_blk.png"],"mutagen_generator_assignment":[1,0],"goal":5,"start":3,"action_noise":0.15,"location_history":"[3,4,3,2,3,4,3,2,3,4,3,2,3,4,5]","action_history":"[0,0,1,1,0,0,1,1,0,0,1,1,0,1]","mutagen_history":"[1,1,0,0,1,1,0,0,1,1,0,0,1,0]","location_rts":"[1526,435,1002,395,580,528,877,486,529,416,676,580,729,457]","trial_type":"fractal-mutation","trial_index":95,"time_elapsed":2983327,"internal_node_id":"0.0-5.0-41.0"},{"group":"hexagon_bi","fractal_assignment":["../images/ylw_slt.png","../images/pnk_blu.png","../images/cyn_red.png","../images/blu_wht.png","../images/org_blu.png","../images/gry_blk.png"],"mutagen_generator_assignment":[1,0],"goal":3,"start":5,"action_noise":0.15,"location_history":"[5,4,3]","action_history":"[1,0]","mutagen_history":"[0,1]","location_rts":"[1305,437]","trial_type":"fractal-mutation","trial_index":96,"time_elapsed":2990632,"internal_node_id":"0.0-5.0-42.0"},{"group":"hexagon_bi","fractal_assignment":["../images/ylw_slt.png","../images/pnk_blu.png","../images/cyn_red.png","../images/blu_wht.png","../images/org_blu.png","../images/gry_blk.png"],"mutagen_generator_assignment":[1,0],"goal":0,"start":3,"action_noise":0.15,"location_history":"[3,4,3,4,5,4,5,0]","action_history":"[1,0,0,1,0,0,0]","mutagen_history":"[0,1,1,0,1,1,1]","location_rts":"[1094,273,474,446,475,310,579]","trial_type":"fractal-mutation","trial_index":97,"time_elapsed":3004918,"internal_node_id":"0.0-5.0-43.0"},{"group":"hexagon_bi","fractal_assignment":["../images/ylw_slt.png","../images/pnk_blu.png","../images/cyn_red.png","../images/blu_wht.png","../images/org_blu.png","../images/gry_blk.png"],"mutagen_generator_assignment":[1,0],"goal":2,"start":0,"action_noise":0.15,"location_history":"[0,1,2]","action_history":"[1,0]","mutagen_history":"[0,1]","location_rts":"[1661,449]","trial_type":"fractal-mutation","trial_index":98,"time_elapsed":3012566,"internal_node_id":"0.0-5.0-44.0"},{"group":"hexagon_bi","fractal_assignment":["../images/ylw_slt.png","../images/pnk_blu.png","../images/cyn_red.png","../images/blu_wht.png","../images/org_blu.png","../images/gry_blk.png"],"mutagen_generator_assignment":[1,0],"goal":4,"start":2,"action_noise":0.15,"location_history":"[2,3,4]","action_history":"[1,0]","mutagen_history":"[0,1]","location_rts":"[748,354]","trial_type":"fractal-mutation","trial_index":99,"time_elapsed":3019202,"internal_node_id":"0.0-5.0-45.0"},{"group":"hexagon_bi","fractal_assignment":["../images/ylw_slt.png","../images/pnk_blu.png","../images/cyn_red.png","../images/blu_wht.png","../images/org_blu.png","../images/gry_blk.png"],"mutagen_generator_assignment":[1,0],"goal":1,"start":4,"action_noise":0.15,"location_history":"[4,3,2,1]","action_history":"[0,1,0]","mutagen_history":"[1,0,1]","location_rts":"[1368,1093,347]","trial_type":"fractal-mutation","trial_index":100,"time_elapsed":3028574,"internal_node_id":"0.0-5.0-46.0"},{"group":"hexagon_bi","fractal_assignment":["../images/ylw_slt.png","../images/pnk_blu.png","../images/cyn_red.png","../images/blu_wht.png","../images/org_blu.png","../images/gry_blk.png"],"mutagen_generator_assignment":[1,0],"goal":4,"start":1,"action_noise":0.15,"location_history":"[1,0,1,0,1,2,3,2,3,4]","action_history":"[1,0,0,1,0,0,1,1,0]","mutagen_history":"[0,1,1,0,1,1,0,0,1]","location_rts":"[4836,1116,582,394,537,499,311,459,243]","trial_type":"fractal-mutation","trial_index":101,"time_elapsed":3050270,"internal_node_id":"0.0-5.0-47.0"},{"group":"hexagon_bi","fractal_assignment":["../images/ylw_slt.png","../images/pnk_blu.png","../images/cyn_red.png","../images/blu_wht.png","../images/org_blu.png","../images/gry_blk.png"],"mutagen_generator_assignment":[1,0],"goal":3,"start":4,"action_noise":0.15,"location_history":"[4,3]","action_history":"[0]","mutagen_history":"[1]","location_rts":"[1170]","trial_type":"fractal-mutation","trial_index":102,"time_elapsed":3055975,"internal_node_id":"0.0-5.0-48.0"},{"group":"hexagon_bi","fractal_assignment":["../images/ylw_slt.png","../images/pnk_blu.png","../images/cyn_red.png","../images/blu_wht.png","../images/org_blu.png","../images/gry_blk.png"],"mutagen_generator_assignment":[1,0],"goal":5,"start":3,"action_noise":0.15,"location_history":"[3,4,3,4,5]","action_history":"[1,0,0,0]","mutagen_history":"[0,1,1,1]","location_rts":"[1996,545,721,589]","trial_type":"fractal-mutation","trial_index":103,"time_elapsed":3067421,"internal_node_id":"0.0-5.0-49.0"},{"view_history":"[{\"page_index\":0,\"viewing_time\":137744}]","rt":137746,"trial_type":"instructions","trial_index":104,"time_elapsed":3206168,"internal_node_id":"0.0-6.0"},{"rt":9634,"responses":"{\"Q0\":\"nothing wrong\"}","trial_type":"survey-text","trial_index":105,"time_elapsed":3216810,"internal_node_id":"0.0-7.0"}]