[{"view_history":"[{\"page_index\":0,\"viewing_time\":45928},{\"page_index\":1,\"viewing_time\":50422},{\"page_index\":2,\"viewing_time\":43237},{\"page_index\":3,\"viewing_time\":14759}]","rt":154346,"trial_type":"instructions","trial_index":0,"time_elapsed":154348,"internal_node_id":"0.0-0.0"},{"view_history":"[{\"page_index\":0,\"viewing_time\":5387},{\"page_index\":1,\"viewing_time\":45369}]","rt":50758,"trial_type":"instructions","trial_index":1,"time_elapsed":206108,"internal_node_id":"0.0-1.0"},{"group":"hexagon_tri","room_assignment":["blue","purple","red","green","grey","yellow"],"door_color_assignment":["white","black"],"door_generator_assignment":[1,0],"goal":4,"start":0,"action_noise":0.15,"location_history":"[0,1,5,0,1,5,4]","action_history":"[1,1,1,1,1,1]","door_history":"[0,0,0,0,0,0]","location_rts":"[11553,3653,1735,9155,1677,3260]","trial_type":"two-door-navigation","trial_index":2,"time_elapsed":246856,"internal_node_id":"0.0-2.0-0.0"},{"group":"hexagon_tri","room_assignment":["blue","purple","red","green","grey","yellow"],"door_color_assignment":["white","black"],"door_generator_assignment":[1,0],"goal":3,"start":4,"action_noise":0.15,"location_history":"[4,0,5,4,2,3]","action_history":"[0,0,0,1,1]","door_history":"[1,1,1,0,0]","location_rts":"[4535,1234,826,2013,541]","trial_type":"two-door-navigation","trial_index":3,"time_elapsed":264670,"internal_node_id":"0.0-2.0-1.0"},{"group":"hexagon_tri","room_assignment":["blue","purple","red","green","grey","yellow"],"door_color_assignment":["white","black"],"door_generator_assignment":[1,0],"goal":5,"start":3,"action_noise":0.15,"location_history":"[3,4,2,1,3,2,1,5]","action_history":"[0,0,0,0,0,0,1]","door_history":"[1,1,1,1,1,1,0]","location_rts":"[3669,505,467,646,780,567,646]","trial_type":"two-door-navigation","trial_index":4,"time_elapsed":282641,"internal_node_id":"0.0-2.0-2.0"},{"group":"hexagon_tri","room_assignment":["blue","purple","red","green","grey","yellow"],"door_color_assignment":["white","black"],"door_generator_assignment":[1,0],"goal":2,"start":5,"action_noise":0.15,"location_history":"[5,0,1,3,4,2]","action_history":"[0,0,0,1,1]","door_history":"[1,1,1,0,0]","location_rts":"[2446,527,467,522,380]","trial_type":"two-door-navigation","trial_index":5,"time_elapsed":295630,"internal_node_id":"0.0-2.0-3.0"},{"group":"hexagon_tri","room_assignment":["blue","purple","red","green","grey","yellow"],"door_color_assignment":["white","black"],"door_generator_assignment":[1,0],"goal":1,"start":2,"action_noise":0.15,"location_history":"[2,1]","action_history":"[0]","door_history":"[1]","location_rts":"[2552]","trial_type":"two-door-navigation","trial_index":6,"time_elapsed":302715,"internal_node_id":"0.0-2.0-4.0"},{"group":"hexagon_tri","room_assignment":["blue","purple","red","green","grey","yellow"],"door_color_assignment":["white","black"],"door_generator_assignment":[1,0],"goal":4,"start":1,"action_noise":0.15,"location_history":"[1,3,4]","action_history":"[0,1]","door_history":"[1,0]","location_rts":"[2495,695]","trial_type":"two-door-navigation","trial_index":7,"time_elapsed":311471,"internal_node_id":"0.0-2.0-5.0"},{"group":"hexagon_tri","room_assignment":["blue","purple","red","green","grey","yellow"],"door_color_assignment":["white","black"],"door_generator_assignment":[1,0],"goal":1,"start":4,"action_noise":0.15,"location_history":"[4,0,1]","action_history":"[0,1]","door_history":"[1,0]","location_rts":"[2358,734]","trial_type":"two-door-navigation","trial_index":8,"time_elapsed":320126,"internal_node_id":"0.0-2.0-6.0"},{"group":"hexagon_tri","room_assignment":["blue","purple","red","green","grey","yellow"],"door_color_assignment":["white","black"],"door_generator_assignment":[1,0],"goal":5,"start":1,"action_noise":0.15,"location_history":"[1,3,2,1,5]","action_history":"[1,0,0,1]","door_history":"[0,1,1,0]","location_rts":"[858,908,818,441]","trial_type":"two-door-navigation","trial_index":9,"time_elapsed":330774,"internal_node_id":"0.0-2.0-7.0"},{"group":"hexagon_tri","room_assignment":["blue","purple","red","green","grey","yellow"],"door_color_assignment":["white","black"],"door_generator_assignment":[1,0],"goal":0,"start":5,"action_noise":0.15,"location_history":"[5,0]","action_history":"[1]","door_history":"[0]","location_rts":"[1341]","trial_type":"two-door-navigation","trial_index":10,"time_elapsed":336646,"internal_node_id":"0.0-2.0-8.0"},{"group":"hexagon_tri","room_assignment":["blue","purple","red","green","grey","yellow"],"door_color_assignment":["white","black"],"door_generator_assignment":[1,0],"goal":2,"start":0,"action_noise":0.15,"location_history":"[0,1,5,0,5,0,5,0,1,5,0,5,4,0,1,5,0,5,0,1,3,2]","action_history":"[0,1,1,0,0,0,1,1,1,1,0,1,0,1,1,1,0,1,1,0,0]","door_history":"[1,0,0,1,1,1,0,0,0,0,1,0,1,0,0,0,1,0,0,1,1]","location_rts":"[1448,839,267,643,444,1259,836,378,422,698,724,995,797,1011,419,426,1741,385,338,1006,1641]","trial_type":"two-door-navigation","trial_index":11,"time_elapsed":378451,"internal_node_id":"0.0-2.0-9.0"},{"group":"hexagon_tri","room_assignment":["blue","purple","red","green","grey","yellow"],"door_color_assignment":["white","black"],"door_generator_assignment":[1,0],"goal":3,"start":2,"action_noise":0.15,"location_history":"[2,3]","action_history":"[1]","door_history":"[0]","location_rts":"[3003]","trial_type":"two-door-navigation","trial_index":12,"time_elapsed":385982,"internal_node_id":"0.0-2.0-10.0"},{"group":"hexagon_tri","room_assignment":["blue","purple","red","green","grey","yellow"],"door_color_assignment":["white","black"],"door_generator_assignment":[1,0],"goal":0,"start":3,"action_noise":0.15,"location_history":"[3,4,2,1,5,0]","action_history":"[1,1,1,1,1]","door_history":"[0,0,0,0,0]","location_rts":"[1332,2202,1260,1515,1607]","trial_type":"two-door-navigation","trial_index":13,"time_elapsed":402538,"internal_node_id":"0.0-2.0-11.0"},{"group":"hexagon_tri","room_assignment":["blue","purple","red","green","grey","yellow"],"door_color_assignment":["white","black"],"door_generator_assignment":[1,0],"goal":2,"start":0,"action_noise":0.15,"location_history":"[0,1,3,4,2]","action_history":"[1,0,1,1]","door_history":"[0,1,0,0]","location_rts":"[5385,1384,922,824]","trial_type":"two-door-navigation","trial_index":14,"time_elapsed":418656,"internal_node_id":"0.0-2.0-12.0"},{"group":"hexagon_tri","room_assignment":["blue","purple","red","green","grey","yellow"],"door_color_assignment":["white","black"],"door_generator_assignment":[1,0],"goal":5,"start":2,"action_noise":0.15,"location_history":"[2,3,4,2,3,4,0,5]","action_history":"[1,1,1,1,1,0,0]","door_history":"[0,0,0,0,0,1,1]","location_rts":"[22155,1181,909,719,1175,567,1273]","trial_type":"two-door-navigation","trial_index":15,"time_elapsed":457337,"internal_node_id":"0.0-2.0-13.0"},{"group":"hexagon_tri","room_assignment":["blue","purple","red","green","grey","yellow"],"door_color_assignment":["white","black"],"door_generator_assignment":[1,0],"goal":4,"start":5,"action_noise":0.15,"location_history":"[5,4]","action_history":"[0]","door_history":"[1]","location_rts":"[3956]","trial_type":"two-door-navigation","trial_index":16,"time_elapsed":465826,"internal_node_id":"0.0-2.0-14.0"},{"group":"hexagon_tri","room_assignment":["blue","purple","red","green","grey","yellow"],"door_color_assignment":["white","black"],"door_generator_assignment":[1,0],"goal":3,"start":4,"action_noise":0.15,"location_history":"[4,2,3]","action_history":"[1,0]","door_history":"[0,1]","location_rts":"[2718,1287]","trial_type":"two-door-navigation","trial_index":17,"time_elapsed":475390,"internal_node_id":"0.0-2.0-15.0"},{"group":"hexagon_tri","room_assignment":["blue","purple","red","green","grey","yellow"],"door_color_assignment":["white","black"],"door_generator_assignment":[1,0],"goal":1,"start":3,"action_noise":0.15,"location_history":"[3,4,2,3,2,3,4,2,1]","action_history":"[1,1,0,0,1,1,1,1]","door_history":"[0,0,1,1,0,0,0,0]","location_rts":"[3827,3818,1120,1851,437,427,800,487]","trial_type":"two-door-navigation","trial_index":18,"time_elapsed":499867,"internal_node_id":"0.0-2.0-16.0"},{"group":"hexagon_tri","room_assignment":["blue","purple","red","green","grey","yellow"],"door_color_assignment":["white","black"],"door_generator_assignment":[1,0],"goal":5,"start":1,"action_noise":0.15,"location_history":"[1,5]","action_history":"[1]","door_history":"[0]","location_rts":"[11328]","trial_type":"two-door-navigation","trial_index":19,"time_elapsed":515724,"internal_node_id":"0.0-2.0-17.0"},{"group":"hexagon_tri","room_assignment":["blue","purple","red","green","grey","yellow"],"door_color_assignment":["white","black"],"door_generator_assignment":[1,0],"goal":4,"start":5,"action_noise":0.15,"location_history":"[5,0,5,4]","action_history":"[1,0,0]","door_history":"[0,1,1]","location_rts":"[5424,1308,1631]","trial_type":"two-door-navigation","trial_index":20,"time_elapsed":530666,"internal_node_id":"0.0-2.0-18.0"},{"group":"hexagon_tri","room_assignment":["blue","purple","red","green","grey","yellow"],"door_color_assignment":["white","black"],"door_generator_assignment":[1,0],"goal":0,"start":4,"action_noise":0.15,"location_history":"[4,2,3,4,0]","action_history":"[1,1,1,0]","door_history":"[0,0,0,1]","location_rts":"[4703,2045,1236,829]","trial_type":"two-door-navigation","trial_index":21,"time_elapsed":547077,"internal_node_id":"0.0-2.0-19.0"},{"group":"hexagon_tri","room_assignment":["blue","purple","red","green","grey","yellow"],"door_color_assignment":["white","black"],"door_generator_assignment":[1,0],"goal":1,"start":0,"action_noise":0.15,"location_history":"[0,1]","action_history":"[1]","door_history":"[0]","location_rts":"[5190]","trial_type":"two-door-navigation","trial_index":22,"time_elapsed":556796,"internal_node_id":"0.0-2.0-20.0"},{"group":"hexagon_tri","room_assignment":["blue","purple","red","green","grey","yellow"],"door_color_assignment":["white","black"],"door_generator_assignment":[1,0],"goal":3,"start":1,"action_noise":0.15,"location_history":"[1,5,4,2,1,3]","action_history":"[1,0,0,0,0]","door_history":"[0,1,1,1,1]","location_rts":"[4147,1143,1197,1276,888]","trial_type":"two-door-navigation","trial_index":23,"time_elapsed":574091,"internal_node_id":"0.0-2.0-21.0"},{"group":"hexagon_tri","room_assignment":["blue","purple","red","green","grey","yellow"],"door_color_assignment":["white","black"],"door_generator_assignment":[1,0],"goal":2,"start":3,"action_noise":0.15,"location_history":"[3,2]","action_history":"[0]","door_history":"[1]","location_rts":"[25408]","trial_type":"two-door-navigation","trial_index":24,"time_elapsed":604034,"internal_node_id":"0.0-2.0-22.0"},{"group":"hexagon_tri","room_assignment":["blue","purple","red","green","grey","yellow"],"door_color_assignment":["white","black"],"door_generator_assignment":[1,0],"goal":0,"start":2,"action_noise":0.15,"location_history":"[2,1,5,0]","action_history":"[0,1,1]","door_history":"[1,0,0]","location_rts":"[2601,1240,848]","trial_type":"two-door-navigation","trial_index":25,"time_elapsed":615307,"internal_node_id":"0.0-2.0-23.0"},{"group":"hexagon_tri","room_assignment":["blue","purple","red","green","grey","yellow"],"door_color_assignment":["white","black"],"door_generator_assignment":[1,0],"goal":3,"start":0,"action_noise":0.15,"location_history":"[0,1,3]","action_history":"[0,0]","door_history":"[1,1]","location_rts":"[1582,2782]","trial_type":"two-door-navigation","trial_index":26,"time_elapsed":625226,"internal_node_id":"0.0-2.0-24.0"},{"group":"hexagon_tri","room_assignment":["blue","purple","red","green","grey","yellow"],"door_color_assignment":["white","black"],"door_generator_assignment":[1,0],"goal":1,"start":3,"action_noise":0.15,"location_history":"[3,2,3,4,2,1]","action_history":"[0,1,1,1,1]","door_history":"[1,0,0,0,0]","location_rts":"[8462,2602,717,652,750]","trial_type":"two-door-navigation","trial_index":27,"time_elapsed":647054,"internal_node_id":"0.0-2.0-25.0"},{"group":"hexagon_tri","room_assignment":["blue","purple","red","green","grey","yellow"],"door_color_assignment":["white","black"],"door_generator_assignment":[1,0],"goal":2,"start":1,"action_noise":0.15,"location_history":"[1,5,0,5,0,5,4,0,1,5,0,1,5,0,5,4,0,5,4,0,1,5,0,1,5,4,0,5,4,2]","action_history":"[1,1,1,0,0,0,0,1,1,1,1,1,0,0,0,0,0,0,0,1,1,1,1,1,0,0,0,0,1]","door_history":"[0,0,0,1,1,1,1,0,0,0,0,0,1,1,1,1,1,1,1,0,0,0,0,0,1,1,1,1,0]","location_rts":"[5733,1083,895,1203,528,498,459,402,520,591,476,608,900,706,454,545,1250,577,407,2018,1813,700,1184,1146,1296,2171,825,1011,1224]","trial_type":"two-door-navigation","trial_index":28,"time_elapsed":711600,"internal_node_id":"0.0-2.0-26.0"},{"group":"hexagon_tri","room_assignment":["blue","purple","red","green","grey","yellow"],"door_color_assignment":["white","black"],"door_generator_assignment":[1,0],"goal":5,"start":2,"action_noise":0.15,"location_history":"[2,1,5]","action_history":"[1,1]","door_history":"[0,0]","location_rts":"[11135,1161]","trial_type":"two-door-navigation","trial_index":29,"time_elapsed":729492,"internal_node_id":"0.0-2.0-27.0"},{"group":"hexagon_tri","room_assignment":["blue","purple","red","green","grey","yellow"],"door_color_assignment":["white","black"],"door_generator_assignment":[1,0],"goal":4,"start":5,"action_noise":0.15,"location_history":"[5,4]","action_history":"[0]","door_history":"[1]","location_rts":"[4463]","trial_type":"two-door-navigation","trial_index":30,"time_elapsed":738482,"internal_node_id":"0.0-2.0-28.0"},{"group":"hexagon_tri","room_assignment":["blue","purple","red","green","grey","yellow"],"door_color_assignment":["white","black"],"door_generator_assignment":[1,0],"goal":5,"start":4,"action_noise":0.15,"location_history":"[4,2,3,4,0,5]","action_history":"[1,1,1,0,0]","door_history":"[0,0,0,1,1]","location_rts":"[3216,2258,1521,1057,670]","trial_type":"two-door-navigation","trial_index":31,"time_elapsed":755836,"internal_node_id":"0.0-2.0-29.0"},{"group":"hexagon_tri","room_assignment":["blue","purple","red","green","grey","yellow"],"door_color_assignment":["white","black"],"door_generator_assignment":[1,0],"goal":3,"start":5,"action_noise":0.15,"location_history":"[5,4,2,1,3]","action_history":"[0,1,0,0]","door_history":"[1,0,1,1]","location_rts":"[6721,717,2872,1792]","trial_type":"two-door-navigation","trial_index":32,"time_elapsed":775547,"internal_node_id":"0.0-2.0-30.0"},{"group":"hexagon_tri","room_assignment":["blue","purple","red","green","grey","yellow"],"door_color_assignment":["white","black"],"door_generator_assignment":[1,0],"goal":0,"start":3,"action_noise":0.15,"location_history":"[3,2,3,4,2,3,4,0]","action_history":"[0,1,1,1,1,1,0]","door_history":"[1,0,0,0,0,0,1]","location_rts":"[8341,1188,556,537,663,395,409]","trial_type":"two-door-navigation","trial_index":33,"time_elapsed":798340,"internal_node_id":"0.0-2.0-31.0"},{"group":"hexagon_tri","room_assignment":["blue","purple","red","green","grey","yellow"],"door_color_assignment":["white","black"],"door_generator_assignment":[1,0],"goal":4,"start":0,"action_noise":0.15,"location_history":"[0,5,0,1,5,4]","action_history":"[1,1,1,1,0]","door_history":"[0,0,0,0,1]","location_rts":"[4761,543,491,783,781]","trial_type":"two-door-navigation","trial_index":34,"time_elapsed":814346,"internal_node_id":"0.0-2.0-32.0"},{"group":"hexagon_tri","room_assignment":["blue","purple","red","green","grey","yellow"],"door_color_assignment":["white","black"],"door_generator_assignment":[1,0],"goal":1,"start":4,"action_noise":0.15,"location_history":"[4,0,1]","action_history":"[1,0]","door_history":"[0,1]","location_rts":"[3007,1229]","trial_type":"two-door-navigation","trial_index":35,"time_elapsed":824138,"internal_node_id":"0.0-2.0-33.0"},{"group":"hexagon_tri","room_assignment":["blue","purple","red","green","grey","yellow"],"door_color_assignment":["white","black"],"door_generator_assignment":[1,0],"goal":2,"start":1,"action_noise":0.15,"location_history":"[1,5,0,1,3,2]","action_history":"[1,1,1,0,0]","door_history":"[0,0,0,1,1]","location_rts":"[2368,532,466,584,732]","trial_type":"two-door-navigation","trial_index":36,"time_elapsed":837457,"internal_node_id":"0.0-2.0-34.0"},{"group":"hexagon_tri","room_assignment":["blue","purple","red","green","grey","yellow"],"door_color_assignment":["white","black"],"door_generator_assignment":[1,0],"goal":0,"start":2,"action_noise":0.15,"location_history":"[2,3,2,3,2,3,2,3,2,1,5,0]","action_history":"[1,1,1,0,0,0,0,0,1,1,1]","door_history":"[0,0,0,1,1,1,1,1,0,0,0]","location_rts":"[3902,4946,1929,2318,1922,453,426,1413,389,320,350]","trial_type":"two-door-navigation","trial_index":37,"time_elapsed":870645,"internal_node_id":"0.0-2.0-35.0"},{"group":"hexagon_tri","room_assignment":["blue","purple","red","green","grey","yellow"],"door_color_assignment":["white","black"],"door_generator_assignment":[1,0],"goal":5,"start":0,"action_noise":0.15,"location_history":"[0,5]","action_history":"[0]","door_history":"[1]","location_rts":"[5467]","trial_type":"two-door-navigation","trial_index":38,"time_elapsed":880644,"internal_node_id":"0.0-2.0-36.0"},{"group":"hexagon_tri","room_assignment":["blue","purple","red","green","grey","yellow"],"door_color_assignment":["white","black"],"door_generator_assignment":[1,0],"goal":2,"start":5,"action_noise":0.15,"location_history":"[5,0,1,5,0,1,3,2]","action_history":"[1,0,1,1,1,0,0]","door_history":"[0,1,0,0,0,1,1]","location_rts":"[1999,811,4399,1999,1015,991,695]","trial_type":"two-door-navigation","trial_index":39,"time_elapsed":903260,"internal_node_id":"0.0-2.0-37.0"},{"group":"hexagon_tri","room_assignment":["blue","purple","red","green","grey","yellow"],"door_color_assignment":["white","black"],"door_generator_assignment":[1,0],"goal":1,"start":2,"action_noise":0.15,"location_history":"[2,1]","action_history":"[0]","door_history":"[1]","location_rts":"[6838]","trial_type":"two-door-navigation","trial_index":40,"time_elapsed":914631,"internal_node_id":"0.0-2.0-38.0"},{"group":"hexagon_tri","room_assignment":["blue","purple","red","green","grey","yellow"],"door_color_assignment":["white","black"],"door_generator_assignment":[1,0],"goal":4,"start":1,"action_noise":0.15,"location_history":"[1,3,4]","action_history":"[1,1]","door_history":"[0,0]","location_rts":"[8065,933]","trial_type":"two-door-navigation","trial_index":41,"time_elapsed":929184,"internal_node_id":"0.0-2.0-39.0"},{"group":"hexagon_tri","room_assignment":["blue","purple","red","green","grey","yellow"],"door_color_assignment":["white","black"],"door_generator_assignment":[1,0],"goal":3,"start":4,"action_noise":0.15,"location_history":"[4,0,1,3]","action_history":"[0,1,1]","door_history":"[1,0,0]","location_rts":"[2827,3991,565]","trial_type":"two-door-navigation","trial_index":42,"time_elapsed":943144,"internal_node_id":"0.0-2.0-40.0"},{"group":"hexagon_tri","room_assignment":["blue","purple","red","green","grey","yellow"],"door_color_assignment":["white","black"],"door_generator_assignment":[1,0],"goal":5,"start":3,"action_noise":0.15,"location_history":"[3,4,2,3,4,0,1,3,2,3,2,1,3,2,3,4,2,3,2,3,4,0,5]","action_history":"[1,1,1,1,0,1,0,1,1,0,0,0,0,1,1,1,1,0,1,1,0,0]","door_history":"[0,0,0,0,1,0,1,0,0,1,1,1,1,0,0,0,0,1,0,0,1,1]","location_rts":"[2134,1460,1354,881,263,1918,1395,1220,1307,1043,556,422,403,396,541,383,371,1511,1168,3815,690,404]","trial_type":"two-door-navigation","trial_index":43,"time_elapsed":992881,"internal_node_id":"0.0-2.0-41.0"},{"group":"hexagon_tri","room_assignment":["blue","purple","red","green","grey","yellow"],"door_color_assignment":["white","black"],"door_generator_assignment":[1,0],"goal":3,"start":5,"action_noise":0.15,"location_history":"[5,4,2,1,5,0,5,4,0,5,4,2,3]","action_history":"[1,0,0,1,1,0,0,0,1,1,1,0]","door_history":"[0,1,1,0,0,1,1,1,0,0,0,1]","location_rts":"[9481,870,962,802,1998,1910,636,857,1715,706,734,2221]","trial_type":"two-door-navigation","trial_index":44,"time_elapsed":1031619,"internal_node_id":"0.0-2.0-42.0"},{"group":"hexagon_tri","room_assignment":["blue","purple","red","green","grey","yellow"],"door_color_assignment":["white","black"],"door_generator_assignment":[1,0],"goal":0,"start":3,"action_noise":0.15,"location_history":"[3,4,2,1,3,2,3,4,2,3,2,1,3,4,2,3,4,0]","action_history":"[1,1,1,0,0,0,1,1,1,0,0,0,1,1,1,1,0]","door_history":"[0,0,0,1,1,1,0,0,0,1,1,1,0,0,0,0,1]","location_rts":"[4457,586,903,441,2654,429,1132,1092,708,638,1360,1541,2862,436,654,1743,832]","trial_type":"two-door-navigation","trial_index":45,"time_elapsed":1075061,"internal_node_id":"0.0-2.0-43.0"},{"group":"hexagon_tri","room_assignment":["blue","purple","red","green","grey","yellow"],"door_color_assignment":["white","black"],"door_generator_assignment":[1,0],"goal":2,"start":0,"action_noise":0.15,"location_history":"[0,5,4,0,1,5,4,2]","action_history":"[0,0,0,1,1,0,1]","door_history":"[1,1,1,0,0,1,0]","location_rts":"[7012,1595,1427,1651,344,1209,1726]","trial_type":"two-door-navigation","trial_index":46,"time_elapsed":1100712,"internal_node_id":"0.0-2.0-44.0"},{"group":"hexagon_tri","room_assignment":["blue","purple","red","green","grey","yellow"],"door_color_assignment":["white","black"],"door_generator_assignment":[1,0],"goal":4,"start":2,"action_noise":0.15,"location_history":"[2,1,5,0,1,3,2,3,2,1,5,0,5,4]","action_history":"[0,1,1,1,0,0,1,0,0,1,1,1,0]","door_history":"[1,0,0,0,1,1,0,1,1,0,0,0,1]","location_rts":"[4876,3248,249,1357,1165,755,1207,1577,2390,1391,800,474,1362]","trial_type":"two-door-navigation","trial_index":47,"time_elapsed":1138402,"internal_node_id":"0.0-2.0-45.0"},{"group":"hexagon_tri","room_assignment":["blue","purple","red","green","grey","yellow"],"door_color_assignment":["white","black"],"door_generator_assignment":[1,0],"goal":1,"start":4,"action_noise":0.15,"location_history":"[4,2,1]","action_history":"[1,0]","door_history":"[0,1]","location_rts":"[2947,1499]","trial_type":"two-door-navigation","trial_index":48,"time_elapsed":1148414,"internal_node_id":"0.0-2.0-46.0"},{"group":"hexagon_tri","room_assignment":["blue","purple","red","green","grey","yellow"],"door_color_assignment":["white","black"],"door_generator_assignment":[1,0],"goal":4,"start":1,"action_noise":0.15,"location_history":"[1,3,4]","action_history":"[1,1]","door_history":"[0,0]","location_rts":"[4456,463]","trial_type":"two-door-navigation","trial_index":49,"time_elapsed":1158904,"internal_node_id":"0.0-2.0-47.0"},{"group":"hexagon_tri","room_assignment":["blue","purple","red","green","grey","yellow"],"door_color_assignment":["white","black"],"door_generator_assignment":[1,0],"goal":3,"start":4,"action_noise":0.15,"location_history":"[4,0,1,5,4,0,1,5,4,0,5,0,1,5,4,2,1,5,0,5,4,0,5,4,0,1,5,0,5,0,5,4,0,5,4,2,1,5,4,2,3]","action_history":"[0,1,1,0,0,1,1,1,0,0,0,1,1,0,0,0,1,1,1,0,0,0,0,0,1,1,1,1,1,0,0,0,0,0,1,0,0,1,1,1]","door_history":"[1,0,0,1,1,0,0,0,1,1,1,0,0,1,1,1,0,0,0,1,1,1,1,1,0,0,0,0,0,1,1,1,1,1,0,1,1,0,0,0]","location_rts":"[2165,1216,1024,6918,1213,1615,383,529,2362,789,411,10651,750,3824,1939,636,3272,358,341,1065,354,348,372,366,1628,366,520,1798,350,337,1762,2325,847,904,1718,1365,767,884,596,826]","trial_type":"two-door-navigation","trial_index":50,"time_elapsed":1263337,"internal_node_id":"0.0-2.0-48.0"},{"group":"hexagon_tri","room_assignment":["blue","purple","red","green","grey","yellow"],"door_color_assignment":["white","black"],"door_generator_assignment":[1,0],"goal":5,"start":3,"action_noise":0.15,"location_history":"[3,4,2,3,2,1,3,4,0,1,5]","action_history":"[1,0,0,0,0,1,1,0,1,1]","door_history":"[0,1,1,1,1,0,0,1,0,0]","location_rts":"[2319,749,1384,1450,1711,868,938,989,404,238]","trial_type":"two-door-navigation","trial_index":51,"time_elapsed":1288135,"internal_node_id":"0.0-2.0-49.0"},{"view_history":"[{\"page_index\":0,\"viewing_time\":10731}]","rt":10732,"trial_type":"instructions","trial_index":52,"time_elapsed":1299868,"internal_node_id":"0.0-3.0"},{"view_history":"[{\"page_index\":0,\"viewing_time\":11079},{\"page_index\":1,\"viewing_time\":52559}]","rt":63639,"trial_type":"instructions","trial_index":53,"time_elapsed":1364507,"internal_node_id":"0.0-4.0"},{"group":"hexagon_bi","fractal_assignment":["../images/blu_wht.png","../images/cyn_red.png","../images/pnk_blu.png","../images/ylw_slt.png","../images/org_blu.png","../images/gry_blk.png"],"mutagen_generator_assignment":[1,0],"goal":4,"start":0,"action_noise":0.15,"location_history":"[0,1,2,1,0,5,0,5,0,5,4]","action_history":"[1,0,1,1,1,0,0,0,0,1]","mutagen_history":"[0,1,0,0,0,1,1,1,1,0]","location_rts":"[11008,2494,1555,672,509,400,404,396,430,528]","trial_type":"fractal-mutation","trial_index":54,"time_elapsed":1397037,"internal_node_id":"0.0-5.0-0.0"},{"group":"hexagon_bi","fractal_assignment":["../images/blu_wht.png","../images/cyn_red.png","../images/pnk_blu.png","../images/ylw_slt.png","../images/org_blu.png","../images/gry_blk.png"],"mutagen_generator_assignment":[1,0],"goal":3,"start":4,"action_noise":0.15,"location_history":"[4,5,0,5,0,5,4,5,4,3]","action_history":"[1,1,0,0,0,1,1,1,0]","mutagen_history":"[0,0,1,1,1,0,0,0,1]","location_rts":"[1742,941,504,880,750,500,909,747,591]","trial_type":"fractal-mutation","trial_index":55,"time_elapsed":1417639,"internal_node_id":"0.0-5.0-1.0"},{"group":"hexagon_bi","fractal_assignment":["../images/blu_wht.png","../images/cyn_red.png","../images/pnk_blu.png","../images/ylw_slt.png","../images/org_blu.png","../images/gry_blk.png"],"mutagen_generator_assignment":[1,0],"goal":5,"start":3,"action_noise":0.15,"location_history":"[3,2,1,2,3,4,5]","action_history":"[0,0,1,1,1,1]","mutagen_history":"[1,1,0,0,0,0]","location_rts":"[9167,480,3276,568,485,487]","trial_type":"fractal-mutation","trial_index":56,"time_elapsed":1441923,"internal_node_id":"0.0-5.0-2.0"},{"group":"hexagon_bi","fractal_assignment":["../images/blu_wht.png","../images/cyn_red.png","../images/pnk_blu.png","../images/ylw_slt.png","../images/org_blu.png","../images/gry_blk.png"],"mutagen_generator_assignment":[1,0],"goal":2,"start":5,"action_noise":0.15,"location_history":"[5,0,5,4,5,4,5,0,1,2]","action_history":"[0,0,1,1,1,1,0,1,0]","mutagen_history":"[1,1,0,0,0,0,1,0,1]","location_rts":"[904,499,460,380,462,491,399,489,573]","trial_type":"fractal-mutation","trial_index":57,"time_elapsed":1459556,"internal_node_id":"0.0-5.0-3.0"},{"group":"hexagon_bi","fractal_assignment":["../images/blu_wht.png","../images/cyn_red.png","../images/pnk_blu.png","../images/ylw_slt.png","../images/org_blu.png","../images/gry_blk.png"],"mutagen_generator_assignment":[1,0],"goal":1,"start":2,"action_noise":0.15,"location_history":"[2,3,4,3,2,3,2,1]","action_history":"[1,1,0,1,1,1,0]","mutagen_history":"[0,0,1,0,0,0,1]","location_rts":"[14338,461,377,2072,582,408,497]","trial_type":"fractal-mutation","trial_index":58,"time_elapsed":1489166,"internal_node_id":"0.0-5.0-4.0"},{"group":"hexagon_bi","fractal_assignment":["../images/blu_wht.png","../images/cyn_red.png","../images/pnk_blu.png","../images/ylw_slt.png","../images/org_blu.png","../images/gry_blk.png"],"mutagen_generator_assignment":[1,0],"goal":4,"start":1,"action_noise":0.15,"location_history":"[1,0,1,2,3,2,3,4]","action_history":"[1,1,0,0,1,1,1]","mutagen_history":"[0,0,1,1,0,0,0]","location_rts":"[1383,728,402,442,434,382,348]","trial_type":"fractal-mutation","trial_index":59,"time_elapsed":1504127,"internal_node_id":"0.0-5.0-5.0"},{"group":"hexagon_bi","fractal_assignment":["../images/blu_wht.png","../images/cyn_red.png","../images/pnk_blu.png","../images/ylw_slt.png","../images/org_blu.png","../images/gry_blk.png"],"mutagen_generator_assignment":[1,0],"goal":1,"start":4,"action_noise":0.15,"location_history":"[4,3,2,3,2,1]","action_history":"[0,1,1,1,0]","mutagen_history":"[1,0,0,0,1]","location_rts":"[965,584,219,391,104]","trial_type":"fractal-mutation","trial_index":60,"time_elapsed":1515150,"internal_node_id":"0.0-5.0-6.0"},{"group":"hexagon_bi","fractal_assignment":["../images/blu_wht.png","../images/cyn_red.png","../images/pnk_blu.png","../images/ylw_slt.png","../images/org_blu.png","../images/gry_blk.png"],"mutagen_generator_assignment":[1,0],"goal":5,"start":1,"action_noise":0.15,"location_history":"[1,0,1,0,5]","action_history":"[1,1,0,0]","mutagen_history":"[0,0,1,1]","location_rts":"[5688,1023,464,773]","trial_type":"fractal-mutation","trial_index":61,"time_elapsed":1530827,"internal_node_id":"0.0-5.0-7.0"},{"group":"hexagon_bi","fractal_assignment":["../images/blu_wht.png","../images/cyn_red.png","../images/pnk_blu.png","../images/ylw_slt.png","../images/org_blu.png","../images/gry_blk.png"],"mutagen_generator_assignment":[1,0],"goal":0,"start":5,"action_noise":0.15,"location_history":"[5,4,5,0]","action_history":"[1,1,0]","mutagen_history":"[0,0,1]","location_rts":"[1380,364,876]","trial_type":"fractal-mutation","trial_index":62,"time_elapsed":1540110,"internal_node_id":"0.0-5.0-8.0"},{"group":"hexagon_bi","fractal_assignment":["../images/blu_wht.png","../images/cyn_red.png","../images/pnk_blu.png","../images/ylw_slt.png","../images/org_blu.png","../images/gry_blk.png"],"mutagen_generator_assignment":[1,0],"goal":2,"start":0,"action_noise":0.15,"location_history":"[0,1,2]","action_history":"[1,0]","mutagen_history":"[0,1]","location_rts":"[2502,498]","trial_type":"fractal-mutation","trial_index":63,"time_elapsed":1548746,"internal_node_id":"0.0-5.0-9.0"},{"group":"hexagon_bi","fractal_assignment":["../images/blu_wht.png","../images/cyn_red.png","../images/pnk_blu.png","../images/ylw_slt.png","../images/org_blu.png","../images/gry_blk.png"],"mutagen_generator_assignment":[1,0],"goal":3,"start":2,"action_noise":0.15,"location_history":"[2,1,0,1,2,3]","action_history":"[0,1,1,0,1]","mutagen_history":"[1,0,0,1,0]","location_rts":"[895,957,387,11,386]","trial_type":"fractal-mutation","trial_index":64,"time_elapsed":1560154,"internal_node_id":"0.0-5.0-10.0"},{"group":"hexagon_bi","fractal_assignment":["../images/blu_wht.png","../images/cyn_red.png","../images/pnk_blu.png","../images/ylw_slt.png","../images/org_blu.png","../images/gry_blk.png"],"mutagen_generator_assignment":[1,0],"goal":0,"start":3,"action_noise":0.15,"location_history":"[3,2,1,2,1,2,3,2,1,2,1,0]","action_history":"[1,0,1,0,0,1,1,0,0,0,1]","mutagen_history":"[0,1,0,1,1,0,0,1,1,1,0]","location_rts":"[16140,451,853,484,311,501,383,1229,511,320,412]","trial_type":"fractal-mutation","trial_index":65,"time_elapsed":1596823,"internal_node_id":"0.0-5.0-11.0"},{"group":"hexagon_bi","fractal_assignment":["../images/blu_wht.png","../images/cyn_red.png","../images/pnk_blu.png","../images/ylw_slt.png","../images/org_blu.png","../images/gry_blk.png"],"mutagen_generator_assignment":[1,0],"goal":2,"start":0,"action_noise":0.15,"location_history":"[0,1,2]","action_history":"[0,0]","mutagen_history":"[1,1]","location_rts":"[11853,397]","trial_type":"fractal-mutation","trial_index":66,"time_elapsed":1614690,"internal_node_id":"0.0-5.0-12.0"},{"group":"hexagon_bi","fractal_assignment":["../images/blu_wht.png","../images/cyn_red.png","../images/pnk_blu.png","../images/ylw_slt.png","../images/org_blu.png","../images/gry_blk.png"],"mutagen_generator_assignment":[1,0],"goal":5,"start":2,"action_noise":0.15,"location_history":"[2,3,4,3,2,1,0,1,0,5]","action_history":"[1,0,0,1,0,1,0,1,0]","mutagen_history":"[0,1,1,0,1,0,1,0,1]","location_rts":"[859,533,547,645,887,618,559,824,118]","trial_type":"fractal-mutation","trial_index":67,"time_elapsed":1633251,"internal_node_id":"0.0-5.0-13.0"},{"group":"hexagon_bi","fractal_assignment":["../images/blu_wht.png","../images/cyn_red.png","../images/pnk_blu.png","../images/ylw_slt.png","../images/org_blu.png","../images/gry_blk.png"],"mutagen_generator_assignment":[1,0],"goal":4,"start":5,"action_noise":0.15,"location_history":"[5,4]","action_history":"[1]","mutagen_history":"[0]","location_rts":"[1400]","trial_type":"fractal-mutation","trial_index":68,"time_elapsed":1639204,"internal_node_id":"0.0-5.0-14.0"},{"group":"hexagon_bi","fractal_assignment":["../images/blu_wht.png","../images/cyn_red.png","../images/pnk_blu.png","../images/ylw_slt.png","../images/org_blu.png","../images/gry_blk.png"],"mutagen_generator_assignment":[1,0],"goal":3,"start":4,"action_noise":0.15,"location_history":"[4,3]","action_history":"[0]","mutagen_history":"[1]","location_rts":"[729]","trial_type":"fractal-mutation","trial_index":69,"time_elapsed":1644512,"internal_node_id":"0.0-5.0-15.0"},{"group":"hexagon_bi","fractal_assignment":["../images/blu_wht.png","../images/cyn_red.png","../images/pnk_blu.png","../images/ylw_slt.png","../images/org_blu.png","../images/gry_blk.png"],"mutagen_generator_assignment":[1,0],"goal":1,"start":3,"action_noise":0.15,"location_history":"[3,4,3,4,5,4,3,4,5,4,3,2,1]","action_history":"[1,0,0,1,1,0,0,0,1,0,1,0]","mutagen_history":"[0,1,1,0,0,1,1,1,0,1,0,1]","location_rts":"[819,830,368,1303,567,651,460,1356,659,1195,1153,19409]","trial_type":"fractal-mutation","trial_index":70,"time_elapsed":1689461,"internal_node_id":"0.0-5.0-16.0"},{"group":"hexagon_bi","fractal_assignment":["../images/blu_wht.png","../images/cyn_red.png","../images/pnk_blu.png","../images/ylw_slt.png","../images/org_blu.png","../images/gry_blk.png"],"mutagen_generator_assignment":[1,0],"goal":5,"start":1,"action_noise":0.15,"location_history":"[1,0,5]","action_history":"[1,0]","mutagen_history":"[0,1]","location_rts":"[555,412]","trial_type":"fractal-mutation","trial_index":71,"time_elapsed":1696045,"internal_node_id":"0.0-5.0-17.0"},{"group":"hexagon_bi","fractal_assignment":["../images/blu_wht.png","../images/cyn_red.png","../images/pnk_blu.png","../images/ylw_slt.png","../images/org_blu.png","../images/gry_blk.png"],"mutagen_generator_assignment":[1,0],"goal":4,"start":5,"action_noise":0.15,"location_history":"[5,0,5,4]","action_history":"[1,0,1]","mutagen_history":"[0,1,0]","location_rts":"[385,437,470]","trial_type":"fractal-mutation","trial_index":72,"time_elapsed":1703980,"internal_node_id":"0.0-5.0-18.0"},{"group":"hexagon_bi","fractal_assignment":["../images/blu_wht.png","../images/cyn_red.png","../images/pnk_blu.png","../images/ylw_slt.png","../images/org_blu.png","../images/gry_blk.png"],"mutagen_generator_assignment":[1,0],"goal":0,"start":4,"action_noise":0.15,"location_history":"[4,3,2,3,2,3,4,3,4,3,2,3,2,3,2,1,0]","action_history":"[0,1,0,1,1,0,0,0,0,1,1,1,1,0,0,1]","mutagen_history":"[1,0,1,0,0,1,1,1,1,0,0,0,0,1,1,0]","location_rts":"[679,569,850,546,1091,515,500,599,386,425,813,225,634,480,538,425]","trial_type":"fractal-mutation","trial_index":73,"time_elapsed":1733640,"internal_node_id":"0.0-5.0-19.0"},{"group":"hexagon_bi","fractal_assignment":["../images/blu_wht.png","../images/cyn_red.png","../images/pnk_blu.png","../images/ylw_slt.png","../images/org_blu.png","../images/gry_blk.png"],"mutagen_generator_assignment":[1,0],"goal":1,"start":0,"action_noise":0.15,"location_history":"[0,5,4,5,4,3,2,1]","action_history":"[0,1,1,1,0,1,0]","mutagen_history":"[1,0,0,0,1,0,1]","location_rts":"[636,529,582,654,605,563,25492]","trial_type":"fractal-mutation","trial_index":74,"time_elapsed":1773575,"internal_node_id":"0.0-5.0-20.0"},{"group":"hexagon_bi","fractal_assignment":["../images/blu_wht.png","../images/cyn_red.png","../images/pnk_blu.png","../images/ylw_slt.png","../images/org_blu.png","../images/gry_blk.png"],"mutagen_generator_assignment":[1,0],"goal":3,"start":1,"action_noise":0.15,"location_history":"[1,0,1,2,1,0,1,2,1,2,3]","action_history":"[1,0,0,1,1,1,1,0,0,0]","mutagen_history":"[0,1,1,0,0,0,0,1,1,1]","location_rts":"[688,565,427,393,399,432,470,899,506,661]","trial_type":"fractal-mutation","trial_index":75,"time_elapsed":1793029,"internal_node_id":"0.0-5.0-21.0"},{"group":"hexagon_bi","fractal_assignment":["../images/blu_wht.png","../images/cyn_red.png","../images/pnk_blu.png","../images/ylw_slt.png","../images/org_blu.png","../images/gry_blk.png"],"mutagen_generator_assignment":[1,0],"goal":2,"start":3,"action_noise":0.15,"location_history":"[3,4,3,4,3,2]","action_history":"[1,0,0,0,1]","mutagen_history":"[0,1,1,1,0]","location_rts":"[1456,347,809,463,2432]","trial_type":"fractal-mutation","trial_index":76,"time_elapsed":1807311,"internal_node_id":"0.0-5.0-22.0"},{"group":"hexagon_bi","fractal_assignment":["../images/blu_wht.png","../images/cyn_red.png","../images/pnk_blu.png","../images/ylw_slt.png","../images/org_blu.png","../images/gry_blk.png"],"mutagen_generator_assignment":[1,0],"goal":0,"start":2,"action_noise":0.15,"location_history":"[2,1,0]","action_history":"[0,1]","mutagen_history":"[1,0]","location_rts":"[4453,609]","trial_type":"fractal-mutation","trial_index":77,"time_elapsed":1818003,"internal_node_id":"0.0-5.0-23.0"},{"group":"hexagon_bi","fractal_assignment":["../images/blu_wht.png","../images/cyn_red.png","../images/pnk_blu.png","../images/ylw_slt.png","../images/org_blu.png","../images/gry_blk.png"],"mutagen_generator_assignment":[1,0],"goal":3,"start":0,"action_noise":0.15,"location_history":"[0,5,0,1,2,1,0,1,2,1,0,1,0,5,4,5,0,5,4,3]","action_history":"[0,1,1,0,0,1,1,0,0,1,1,1,0,1,1,0,0,1,1]","mutagen_history":"[1,0,0,1,1,0,0,1,1,0,0,0,1,0,0,1,1,0,0]","location_rts":"[1254,878,471,192,382,376,79,383,305,338,396,276,407,668,485,466,619,146,305]","trial_type":"fractal-mutation","trial_index":78,"time_elapsed":1849941,"internal_node_id":"0.0-5.0-24.0"},{"group":"hexagon_bi","fractal_assignment":["../images/blu_wht.png","../images/cyn_red.png","../images/pnk_blu.png","../images/ylw_slt.png","../images/org_blu.png","../images/gry_blk.png"],"mutagen_generator_assignment":[1,0],"goal":1,"start":3,"action_noise":0.15,"location_history":"[3,4,5,0,5,4,5,0,5,4,3,2,3,2,1]","action_history":"[0,1,0,0,1,0,0,0,1,1,1,0,1,1]","mutagen_history":"[1,0,1,1,0,1,1,1,0,0,0,1,0,0]","location_rts":"[814,581,389,218,295,599,1149,387,299,466,360,4006,400,540]","trial_type":"fractal-mutation","trial_index":79,"time_elapsed":1878733,"internal_node_id":"0.0-5.0-25.0"},{"group":"hexagon_bi","fractal_assignment":["../images/blu_wht.png","../images/cyn_red.png","../images/pnk_blu.png","../images/ylw_slt.png","../images/org_blu.png","../images/gry_blk.png"],"mutagen_generator_assignment":[1,0],"goal":2,"start":1,"action_noise":0.15,"location_history":"[1,0,5,4,3,4,5,4,5,0,5,0,5,0,5,4,3,2]","action_history":"[1,0,1,0,0,1,1,1,0,1,0,0,0,0,1,0,0]","mutagen_history":"[0,1,0,1,1,0,0,0,1,0,1,1,1,1,0,1,1]","location_rts":"[2779,274,426,132,722,409,67,440,143,467,420,357,426,344,152,41,978]","trial_type":"fractal-mutation","trial_index":80,"time_elapsed":1908782,"internal_node_id":"0.0-5.0-26.0"},{"group":"hexagon_bi","fractal_assignment":["../images/blu_wht.png","../images/cyn_red.png","../images/pnk_blu.png","../images/ylw_slt.png","../images/org_blu.png","../images/gry_blk.png"],"mutagen_generator_assignment":[1,0],"goal":5,"start":2,"action_noise":0.15,"location_history":"[2,1,0,5]","action_history":"[1,1,0]","mutagen_history":"[0,0,1]","location_rts":"[1895,531,360]","trial_type":"fractal-mutation","trial_index":81,"time_elapsed":1918231,"internal_node_id":"0.0-5.0-27.0"},{"group":"hexagon_bi","fractal_assignment":["../images/blu_wht.png","../images/cyn_red.png","../images/pnk_blu.png","../images/ylw_slt.png","../images/org_blu.png","../images/gry_blk.png"],"mutagen_generator_assignment":[1,0],"goal":4,"start":5,"action_noise":0.15,"location_history":"[5,4]","action_history":"[1]","mutagen_history":"[0]","location_rts":"[882]","trial_type":"fractal-mutation","trial_index":82,"time_elapsed":1923711,"internal_node_id":"0.0-5.0-28.0"},{"group":"hexagon_bi","fractal_assignment":["../images/blu_wht.png","../images/cyn_red.png","../images/pnk_blu.png","../images/ylw_slt.png","../images/org_blu.png","../images/gry_blk.png"],"mutagen_generator_assignment":[1,0],"goal":5,"start":4,"action_noise":0.15,"location_history":"[4,3,2,3,4,3,4,5]","action_history":"[0,1,1,0,0,0,1]","mutagen_history":"[1,0,0,1,1,1,0]","location_rts":"[883,499,410,518,390,513,196]","trial_type":"fractal-mutation","trial_index":83,"time_elapsed":1938024,"internal_node_id":"0.0-5.0-29.0"},{"group":"hexagon_bi","fractal_assignment":["../images/blu_wht.png","../images/cyn_red.png","../images/pnk_blu.png","../images/ylw_slt.png","../images/org_blu.png","../images/gry_blk.png"],"mutagen_generator_assignment":[1,0],"goal":3,"start":5,"action_noise":0.15,"location_history":"[5,0,1,2,1,2,3]","action_history":"[0,1,0,0,0,1]","mutagen_history":"[1,0,1,1,1,0]","location_rts":"[588,326,484,498,410,867]","trial_type":"fractal-mutation","trial_index":84,"time_elapsed":1951026,"internal_node_id":"0.0-5.0-30.0"},{"group":"hexagon_bi","fractal_assignment":["../images/blu_wht.png","../images/cyn_red.png","../images/pnk_blu.png","../images/ylw_slt.png","../images/org_blu.png","../images/gry_blk.png"],"mutagen_generator_assignment":[1,0],"goal":0,"start":3,"action_noise":0.15,"location_history":"[3,4,3,2,3,2,3,4,3,4,5,0]","action_history":"[0,0,1,1,1,0,0,0,0,1,0]","mutagen_history":"[1,1,0,0,0,1,1,1,1,0,1]","location_rts":"[1266,1425,188,549,522,247,2863,1315,7612,4007,1221]","trial_type":"fractal-mutation","trial_index":85,"time_elapsed":1987376,"internal_node_id":"0.0-5.0-31.0"},{"group":"hexagon_bi","fractal_assignment":["../images/blu_wht.png","../images/cyn_red.png","../images/pnk_blu.png","../images/ylw_slt.png","../images/org_blu.png","../images/gry_blk.png"],"mutagen_generator_assignment":[1,0],"goal":4,"start":0,"action_noise":0.15,"location_history":"[0,1,0,5,0,1,0,5,4]","action_history":"[1,1,0,0,1,1,0,1]","mutagen_history":"[0,0,1,1,0,0,1,0]","location_rts":"[715,173,307,445,304,440,514,354]","trial_type":"fractal-mutation","trial_index":86,"time_elapsed":2002564,"internal_node_id":"0.0-5.0-32.0"},{"group":"hexagon_bi","fractal_assignment":["../images/blu_wht.png","../images/cyn_red.png","../images/pnk_blu.png","../images/ylw_slt.png","../images/org_blu.png","../images/gry_blk.png"],"mutagen_generator_assignment":[1,0],"goal":1,"start":4,"action_noise":0.15,"location_history":"[4,3,2,3,4,3,2,1]","action_history":"[0,1,1,0,0,1,0]","mutagen_history":"[1,0,0,1,1,0,1]","location_rts":"[8399,338,276,395,552,416,185]","trial_type":"fractal-mutation","trial_index":87,"time_elapsed":2024015,"internal_node_id":"0.0-5.0-33.0"},{"group":"hexagon_bi","fractal_assignment":["../images/blu_wht.png","../images/cyn_red.png","../images/pnk_blu.png","../images/ylw_slt.png","../images/org_blu.png","../images/gry_blk.png"],"mutagen_generator_assignment":[1,0],"goal":2,"start":1,"action_noise":0.15,"location_history":"[1,0,5,0,1,0,1,0,5,0,1,0,5,0,1,0,1,2]","action_history":"[1,0,0,1,0,1,1,0,0,1,1,0,0,1,1,1,0]","mutagen_history":"[0,1,1,0,1,0,0,1,1,0,0,1,1,0,0,0,1]","location_rts":"[698,845,480,486,958,584,290,958,319,724,740,295,432,1266,686,872,139]","trial_type":"fractal-mutation","trial_index":88,"time_elapsed":2056268,"internal_node_id":"0.0-5.0-34.0"},{"group":"hexagon_bi","fractal_assignment":["../images/blu_wht.png","../images/cyn_red.png","../images/pnk_blu.png","../images/ylw_slt.png","../images/org_blu.png","../images/gry_blk.png"],"mutagen_generator_assignment":[1,0],"goal":0,"start":2,"action_noise":0.15,"location_history":"[2,1,0]","action_history":"[0,1]","mutagen_history":"[1,0]","location_rts":"[856,668]","trial_type":"fractal-mutation","trial_index":89,"time_elapsed":2063420,"internal_node_id":"0.0-5.0-35.0"},{"group":"hexagon_bi","fractal_assignment":["../images/blu_wht.png","../images/cyn_red.png","../images/pnk_blu.png","../images/ylw_slt.png","../images/org_blu.png","../images/gry_blk.png"],"mutagen_generator_assignment":[1,0],"goal":5,"start":0,"action_noise":0.15,"location_history":"[0,5]","action_history":"[0]","mutagen_history":"[1]","location_rts":"[756]","trial_type":"fractal-mutation","trial_index":90,"time_elapsed":2068752,"internal_node_id":"0.0-5.0-36.0"},{"group":"hexagon_bi","fractal_assignment":["../images/blu_wht.png","../images/cyn_red.png","../images/pnk_blu.png","../images/ylw_slt.png","../images/org_blu.png","../images/gry_blk.png"],"mutagen_generator_assignment":[1,0],"goal":2,"start":5,"action_noise":0.15,"location_history":"[5,4,5,0,5,0,5,0,5,0,1,2]","action_history":"[1,0,0,1,1,1,0,0,0,1,0]","mutagen_history":"[0,1,1,0,0,0,1,1,1,0,1]","location_rts":"[675,303,232,375,404,303,573,342,349,285,522]","trial_type":"fractal-mutation","trial_index":91,"time_elapsed":2088258,"internal_node_id":"0.0-5.0-37.0"},{"group":"hexagon_bi","fractal_assignment":["../images/blu_wht.png","../images/cyn_red.png","../images/pnk_blu.png","../images/ylw_slt.png","../images/org_blu.png","../images/gry_blk.png"],"mutagen_generator_assignment":[1,0],"goal":1,"start":2,"action_noise":0.15,"location_history":"[2,1]","action_history":"[1]","mutagen_history":"[0]","location_rts":"[905]","trial_type":"fractal-mutation","trial_index":92,"time_elapsed":2093710,"internal_node_id":"0.0-5.0-38.0"},{"group":"hexagon_bi","fractal_assignment":["../images/blu_wht.png","../images/cyn_red.png","../images/pnk_blu.png","../images/ylw_slt.png","../images/org_blu.png","../images/gry_blk.png"],"mutagen_generator_assignment":[1,0],"goal":4,"start":1,"action_noise":0.15,"location_history":"[1,2,1,0,1,0,5,0,1,0,1,2,1,0,5,0,1,0,1,2,1,2,3,4]","action_history":"[1,0,1,1,0,0,0,1,1,1,0,1,1,0,0,1,1,1,0,0,0,1,0]","mutagen_history":"[0,1,0,0,1,1,1,0,0,0,1,0,0,1,1,0,0,0,1,1,1,0,1]","location_rts":"[595,502,654,49,150,720,612,263,756,323,60,72,398,288,293,278,390,284,487,1022,771,150,866]","trial_type":"fractal-mutation","trial_index":93,"time_elapsed":2131466,"internal_node_id":"0.0-5.0-39.0"},{"group":"hexagon_bi","fractal_assignment":["../images/blu_wht.png","../images/cyn_red.png","../images/pnk_blu.png","../images/ylw_slt.png","../images/org_blu.png","../images/gry_blk.png"],"mutagen_generator_assignment":[1,0],"goal":3,"start":4,"action_noise":0.15,"location_history":"[4,3]","action_history":"[0]","mutagen_history":"[1]","location_rts":"[3503]","trial_type":"fractal-mutation","trial_index":94,"time_elapsed":2139552,"internal_node_id":"0.0-5.0-40.0"},{"group":"hexagon_bi","fractal_assignment":["../images/blu_wht.png","../images/cyn_red.png","../images/pnk_blu.png","../images/ylw_slt.png","../images/org_blu.png","../images/gry_blk.png"],"mutagen_generator_assignment":[1,0],"goal":5,"start":3,"action_noise":0.15,"location_history":"[3,2,1,2,1,0,1,2,3,2,3,2,1,2,1,0,1,2,1,2,3,2,3,4,5]","action_history":"[1,0,0,0,1,1,0,1,1,1,1,0,0,0,1,0,0,0,1,1,1,1,0,0]","mutagen_history":"[0,1,1,1,0,0,1,0,0,0,0,1,1,1,0,1,1,1,0,0,0,0,1,1]","location_rts":"[1098,1686,516,481,425,375,613,390,433,321,446,2602,784,423,360,283,421,342,3272,331,578,457,555,1062]","trial_type":"fractal-mutation","trial_index":95,"time_elapsed":2186787,"internal_node_id":"0.0-5.0-41.0"},{"group":"hexagon_bi","fractal_assignment":["../images/blu_wht.png","../images/cyn_red.png","../images/pnk_blu.png","../images/ylw_slt.png","../images/org_blu.png","../images/gry_blk.png"],"mutagen_generator_assignment":[1,0],"goal":3,"start":5,"action_noise":0.15,"location_history":"[5,0,5,4,5,0,5,4,3]","action_history":"[0,1,0,1,0,1,1,0]","mutagen_history":"[1,0,1,0,1,0,0,1]","location_rts":"[5520,4235,847,541,1034,1899,219,781]","trial_type":"fractal-mutation","trial_index":96,"time_elapsed":2213909,"internal_node_id":"0.0-5.0-42.0"},{"group":"hexagon_bi","fractal_assignment":["../images/blu_wht.png","../images/cyn_red.png","../images/pnk_blu.png","../images/ylw_slt.png","../images/org_blu.png","../images/gry_blk.png"],"mutagen_generator_assignment":[1,0],"goal":0,"start":3,"action_noise":0.15,"location_history":"[3,2,3,2,1,2,3,4,5,0]","action_history":"[1,1,1,0,0,1,0,1,1]","mutagen_history":"[0,0,0,1,1,0,1,0,0]","location_rts":"[864,4338,233,194,44,137,250,115,258]","trial_type":"fractal-mutation","trial_index":97,"time_elapsed":2233342,"internal_node_id":"0.0-5.0-43.0"},{"group":"hexagon_bi","fractal_assignment":["../images/blu_wht.png","../images/cyn_red.png","../images/pnk_blu.png","../images/ylw_slt.png","../images/org_blu.png","../images/gry_blk.png"],"mutagen_generator_assignment":[1,0],"goal":2,"start":0,"action_noise":0.15,"location_history":"[0,1,2]","action_history":"[1,0]","mutagen_history":"[0,1]","location_rts":"[539,596]","trial_type":"fractal-mutation","trial_index":98,"time_elapsed":2240085,"internal_node_id":"0.0-5.0-44.0"},{"group":"hexagon_bi","fractal_assignment":["../images/blu_wht.png","../images/cyn_red.png","../images/pnk_blu.png","../images/ylw_slt.png","../images/org_blu.png","../images/gry_blk.png"],"mutagen_generator_assignment":[1,0],"goal":4,"start":2,"action_noise":0.15,"location_history":"[2,3,4]","action_history":"[1,0]","mutagen_history":"[0,1]","location_rts":"[100,135]","trial_type":"fractal-mutation","trial_index":99,"time_elapsed":2245938,"internal_node_id":"0.0-5.0-45.0"},{"group":"hexagon_bi","fractal_assignment":["../images/blu_wht.png","../images/cyn_red.png","../images/pnk_blu.png","../images/ylw_slt.png","../images/org_blu.png","../images/gry_blk.png"],"mutagen_generator_assignment":[1,0],"goal":1,"start":4,"action_noise":0.15,"location_history":"[4,5,0,5,4,3,4,3,4,5,0,1]","action_history":"[1,0,1,1,1,0,0,0,0,1,1]","mutagen_history":"[0,1,0,0,0,1,1,1,1,0,0]","location_rts":"[417,8,72,431,511,406,453,459,434,202,7353]","trial_type":"fractal-mutation","trial_index":100,"time_elapsed":2271861,"internal_node_id":"0.0-5.0-46.0"},{"group":"hexagon_bi","fractal_assignment":["../images/blu_wht.png","../images/cyn_red.png","../images/pnk_blu.png","../images/ylw_slt.png","../images/org_blu.png","../images/gry_blk.png"],"mutagen_generator_assignment":[1,0],"goal":4,"start":1,"action_noise":0.15,"location_history":"[1,2,1,0,1,2,3,4]","action_history":"[0,0,1,1,0,1,0]","mutagen_history":"[1,1,0,0,1,0,1]","location_rts":"[718,76,463,357,288,1389,393]","trial_type":"fractal-mutation","trial_index":101,"time_elapsed":2286456,"internal_node_id":"0.0-5.0-47.0"},{"group":"hexagon_bi","fractal_assignment":["../images/blu_wht.png","../images/cyn_red.png","../images/pnk_blu.png","../images/ylw_slt.png","../images/org_blu.png","../images/gry_blk.png"],"mutagen_generator_assignment":[1,0],"goal":3,"start":4,"action_noise":0.15,"location_history":"[4,3]","action_history":"[0]","mutagen_history":"[1]","location_rts":"[1865]","trial_type":"fractal-mutation","trial_index":102,"time_elapsed":2292894,"internal_node_id":"0.0-5.0-48.0"},{"group":"hexagon_bi","fractal_assignment":["../images/blu_wht.png","../images/cyn_red.png","../images/pnk_blu.png","../images/ylw_slt.png","../images/org_blu.png","../images/gry_blk.png"],"mutagen_generator_assignment":[1,0],"goal":5,"start":3,"action_noise":0.15,"location_history":"[3,2,3,2,1,0,1,2,3,2,1,0,1,2,3,4,5]","action_history":"[1,1,1,0,1,1,0,1,1,0,1,1,0,0,0,1]","mutagen_history":"[0,0,0,1,0,0,1,0,0,1,0,0,1,1,1,0]","location_rts":"[2422,1135,1316,97,484,377,404,438,2138,9164,905,379,567,517,479,581]","trial_type":"fractal-mutation","trial_index":103,"time_elapsed":2334699,"internal_node_id":"0.0-5.0-49.0"},{"view_history":"[{\"page_index\":0,\"viewing_time\":18637}]","rt":18638,"trial_type":"instructions","trial_index":104,"time_elapsed":2354338,"internal_node_id":"0.0-6.0"},{"rt":35308,"responses":"{\"Q0\":\"a WORD IS SPELLED WRONG IN THE BEGINING INSTRUCTIONS\"}","trial_type":"survey-text","trial_index":105,"time_elapsed":2390657,"internal_node_id":"0.0-7.0"}]