[{"view_history":"[{\"page_index\":0,\"viewing_time\":8509},{\"page_index\":1,\"viewing_time\":1900},{\"page_index\":2,\"viewing_time\":6341},{\"page_index\":3,\"viewing_time\":9081}]","rt":25841,"trial_type":"instructions","trial_index":0,"time_elapsed":25859,"internal_node_id":"0.0-0.0"},{"view_history":"[{\"page_index\":0,\"viewing_time\":5589},{\"page_index\":1,\"viewing_time\":40948}]","rt":46540,"trial_type":"instructions","trial_index":1,"time_elapsed":73421,"internal_node_id":"0.0-1.0"},{"group":"hexagon_tri","room_assignment":["blue","green","purple","yellow","grey","red"],"door_color_assignment":["white","black"],"door_generator_assignment":[1,0],"goal":4,"start":0,"action_noise":0.15,"location_history":"[0,1,5,0,1,3,2,1,3,4]","action_history":"[1,1,1,1,0,0,0,0,1]","door_history":"[0,0,0,0,1,1,1,1,0]","location_rts":"[3479,1835,759,825,1455,737,657,916,400]","trial_type":"two-door-navigation","trial_index":2,"time_elapsed":98033,"internal_node_id":"0.0-2.0-0.0"},{"group":"hexagon_tri","room_assignment":["blue","green","purple","yellow","grey","red"],"door_color_assignment":["white","black"],"door_generator_assignment":[1,0],"goal":3,"start":4,"action_noise":0.15,"location_history":"[4,0,5,0,1,5,0,1,3]","action_history":"[0,0,0,1,0,1,1,0]","door_history":"[1,1,1,0,1,0,0,1]","location_rts":"[2628,526,522,852,655,1370,491,547]","trial_type":"two-door-navigation","trial_index":3,"time_elapsed":117792,"internal_node_id":"0.0-2.0-1.0"},{"group":"hexagon_tri","room_assignment":["blue","green","purple","yellow","grey","red"],"door_color_assignment":["white","black"],"door_generator_assignment":[1,0],"goal":5,"start":3,"action_noise":0.15,"location_history":"[3,2,1,5]","action_history":"[0,0,1]","door_history":"[1,1,0]","location_rts":"[1325,584,482]","trial_type":"two-door-navigation","trial_index":4,"time_elapsed":126952,"internal_node_id":"0.0-2.0-2.0"},{"group":"hexagon_tri","room_assignment":["blue","green","purple","yellow","grey","red"],"door_color_assignment":["white","black"],"door_generator_assignment":[1,0],"goal":2,"start":5,"action_noise":0.15,"location_history":"[5,0,1,3,2]","action_history":"[1,1,0,0]","door_history":"[0,0,1,1]","location_rts":"[1199,526,376,510]","trial_type":"two-door-navigation","trial_index":5,"time_elapsed":137484,"internal_node_id":"0.0-2.0-3.0"},{"group":"hexagon_tri","room_assignment":["blue","green","purple","yellow","grey","red"],"door_color_assignment":["white","black"],"door_generator_assignment":[1,0],"goal":1,"start":2,"action_noise":0.15,"location_history":"[2,1]","action_history":"[0]","door_history":"[1]","location_rts":"[1042]","trial_type":"two-door-navigation","trial_index":6,"time_elapsed":143256,"internal_node_id":"0.0-2.0-4.0"},{"group":"hexagon_tri","room_assignment":["blue","green","purple","yellow","grey","red"],"door_color_assignment":["white","black"],"door_generator_assignment":[1,0],"goal":4,"start":1,"action_noise":0.15,"location_history":"[1,3,2,3,4]","action_history":"[0,0,1,1]","door_history":"[1,1,0,0]","location_rts":"[1948,644,1184,691]","trial_type":"two-door-navigation","trial_index":7,"time_elapsed":155607,"internal_node_id":"0.0-2.0-5.0"},{"group":"hexagon_tri","room_assignment":["blue","green","purple","yellow","grey","red"],"door_color_assignment":["white","black"],"door_generator_assignment":[1,0],"goal":1,"start":4,"action_noise":0.15,"location_history":"[4,0,5,4,0,5,4,0,5,4,2,1]","action_history":"[0,0,0,1,0,0,0,0,1,1,0]","door_history":"[1,1,1,0,1,1,1,1,0,0,1]","location_rts":"[1621,446,593,972,1082,592,1091,973,78,817,1300]","trial_type":"two-door-navigation","trial_index":8,"time_elapsed":180593,"internal_node_id":"0.0-2.0-6.0"},{"group":"hexagon_tri","room_assignment":["blue","green","purple","yellow","grey","red"],"door_color_assignment":["white","black"],"door_generator_assignment":[1,0],"goal":5,"start":1,"action_noise":0.15,"location_history":"[1,5]","action_history":"[0]","door_history":"[1]","location_rts":"[1457]","trial_type":"two-door-navigation","trial_index":9,"time_elapsed":186658,"internal_node_id":"0.0-2.0-7.0"},{"group":"hexagon_tri","room_assignment":["blue","green","purple","yellow","grey","red"],"door_color_assignment":["white","black"],"door_generator_assignment":[1,0],"goal":0,"start":5,"action_noise":0.15,"location_history":"[5,4,0]","action_history":"[0,0]","door_history":"[1,1]","location_rts":"[1269,575]","trial_type":"two-door-navigation","trial_index":10,"time_elapsed":194160,"internal_node_id":"0.0-2.0-8.0"},{"group":"hexagon_tri","room_assignment":["blue","green","purple","yellow","grey","red"],"door_color_assignment":["white","black"],"door_generator_assignment":[1,0],"goal":2,"start":0,"action_noise":0.15,"location_history":"[0,5,4,0,1,3,4,2]","action_history":"[0,0,0,1,0,0,1]","door_history":"[1,1,1,0,1,1,0]","location_rts":"[1446,451,446,1575,392,507,868]","trial_type":"two-door-navigation","trial_index":11,"time_elapsed":210944,"internal_node_id":"0.0-2.0-9.0"},{"group":"hexagon_tri","room_assignment":["blue","green","purple","yellow","grey","red"],"door_color_assignment":["white","black"],"door_generator_assignment":[1,0],"goal":3,"start":2,"action_noise":0.15,"location_history":"[2,1,3]","action_history":"[0,0]","door_history":"[1,1]","location_rts":"[1501,427]","trial_type":"two-door-navigation","trial_index":12,"time_elapsed":218536,"internal_node_id":"0.0-2.0-10.0"},{"group":"hexagon_tri","room_assignment":["blue","green","purple","yellow","grey","red"],"door_color_assignment":["white","black"],"door_generator_assignment":[1,0],"goal":0,"start":3,"action_noise":0.15,"location_history":"[3,2,3,4,2,1,3,2,1,5,0]","action_history":"[0,1,1,1,0,0,1,0,0,0]","door_history":"[1,0,0,0,1,1,0,1,1,1]","location_rts":"[1003,896,411,490,398,414,405,524,296,396]","trial_type":"two-door-navigation","trial_index":13,"time_elapsed":238275,"internal_node_id":"0.0-2.0-11.0"},{"group":"hexagon_tri","room_assignment":["blue","green","purple","yellow","grey","red"],"door_color_assignment":["white","black"],"door_generator_assignment":[1,0],"goal":2,"start":0,"action_noise":0.15,"location_history":"[0,5,0,1,3,2]","action_history":"[0,0,1,0,0]","door_history":"[1,1,0,1,1]","location_rts":"[1354,389,196,403,779]","trial_type":"two-door-navigation","trial_index":14,"time_elapsed":250344,"internal_node_id":"0.0-2.0-12.0"},{"group":"hexagon_tri","room_assignment":["blue","green","purple","yellow","grey","red"],"door_color_assignment":["white","black"],"door_generator_assignment":[1,0],"goal":5,"start":2,"action_noise":0.15,"location_history":"[2,1,3,4,2,3,2,3,2,1,3,2,3,2,3,2,1,5]","action_history":"[0,0,1,1,1,1,0,0,0,0,0,0,0,1,0,0,1]","door_history":"[1,1,0,0,0,0,1,1,1,1,1,1,1,0,1,1,0]","location_rts":"[1286,356,164,480,379,428,283,482,427,340,2068,480,1225,384,401,274,1325]","trial_type":"two-door-navigation","trial_index":15,"time_elapsed":283274,"internal_node_id":"0.0-2.0-13.0"},{"group":"hexagon_tri","room_assignment":["blue","green","purple","yellow","grey","red"],"door_color_assignment":["white","black"],"door_generator_assignment":[1,0],"goal":4,"start":5,"action_noise":0.15,"location_history":"[5,0,1,5,4]","action_history":"[1,1,1,1]","door_history":"[0,0,0,0]","location_rts":"[1579,349,491,434]","trial_type":"two-door-navigation","trial_index":16,"time_elapsed":293915,"internal_node_id":"0.0-2.0-14.0"},{"group":"hexagon_tri","room_assignment":["blue","green","purple","yellow","grey","red"],"door_color_assignment":["white","black"],"door_generator_assignment":[1,0],"goal":3,"start":4,"action_noise":0.15,"location_history":"[4,0,5,4,0,1,5,4,2,3]","action_history":"[0,0,0,0,1,1,1,1,1]","door_history":"[1,1,1,1,0,0,0,0,0]","location_rts":"[1890,434,257,279,138,325,323,312,2017]","trial_type":"two-door-navigation","trial_index":17,"time_elapsed":313114,"internal_node_id":"0.0-2.0-15.0"},{"group":"hexagon_tri","room_assignment":["blue","green","purple","yellow","grey","red"],"door_color_assignment":["white","black"],"door_generator_assignment":[1,0],"goal":1,"start":3,"action_noise":0.15,"location_history":"[3,2,1]","action_history":"[0,0]","door_history":"[1,1]","location_rts":"[1932,535]","trial_type":"two-door-navigation","trial_index":18,"time_elapsed":321437,"internal_node_id":"0.0-2.0-16.0"},{"group":"hexagon_tri","room_assignment":["blue","green","purple","yellow","grey","red"],"door_color_assignment":["white","black"],"door_generator_assignment":[1,0],"goal":5,"start":1,"action_noise":0.15,"location_history":"[1,5]","action_history":"[0]","door_history":"[1]","location_rts":"[1069]","trial_type":"two-door-navigation","trial_index":19,"time_elapsed":327099,"internal_node_id":"0.0-2.0-17.0"},{"group":"hexagon_tri","room_assignment":["blue","green","purple","yellow","grey","red"],"door_color_assignment":["white","black"],"door_generator_assignment":[1,0],"goal":4,"start":5,"action_noise":0.15,"location_history":"[5,0,1,5,0,1,5,4]","action_history":"[0,1,1,1,1,0,0]","door_history":"[1,0,0,0,0,1,1]","location_rts":"[1398,1423,448,514,600,1513,552]","trial_type":"two-door-navigation","trial_index":20,"time_elapsed":344798,"internal_node_id":"0.0-2.0-18.0"},{"group":"hexagon_tri","room_assignment":["blue","green","purple","yellow","grey","red"],"door_color_assignment":["white","black"],"door_generator_assignment":[1,0],"goal":0,"start":4,"action_noise":0.15,"location_history":"[4,0]","action_history":"[0]","door_history":"[1]","location_rts":"[1148]","trial_type":"two-door-navigation","trial_index":21,"time_elapsed":350548,"internal_node_id":"0.0-2.0-19.0"},{"group":"hexagon_tri","room_assignment":["blue","green","purple","yellow","grey","red"],"door_color_assignment":["white","black"],"door_generator_assignment":[1,0],"goal":1,"start":0,"action_noise":0.15,"location_history":"[0,1]","action_history":"[0]","door_history":"[1]","location_rts":"[992]","trial_type":"two-door-navigation","trial_index":22,"time_elapsed":356146,"internal_node_id":"0.0-2.0-20.0"},{"group":"hexagon_tri","room_assignment":["blue","green","purple","yellow","grey","red"],"door_color_assignment":["white","black"],"door_generator_assignment":[1,0],"goal":3,"start":1,"action_noise":0.15,"location_history":"[1,5,4,2,3]","action_history":"[0,0,0,1]","door_history":"[1,1,1,0]","location_rts":"[2115,896,552,31]","trial_type":"two-door-navigation","trial_index":23,"time_elapsed":367536,"internal_node_id":"0.0-2.0-21.0"},{"group":"hexagon_tri","room_assignment":["blue","green","purple","yellow","grey","red"],"door_color_assignment":["white","black"],"door_generator_assignment":[1,0],"goal":2,"start":3,"action_noise":0.15,"location_history":"[3,4,0,1,5,0,1,5,4,0,5,4,0,5,0,1,5,4,0,5,0,1,5,0,1,5,4,2]","action_history":"[1,1,1,1,1,1,1,0,0,0,0,0,1,1,1,0,0,0,0,1,1,1,1,1,1,0,1]","door_history":"[0,0,0,0,0,0,0,1,1,1,1,1,0,0,0,1,1,1,1,0,0,0,0,0,0,1,0]","location_rts":"[967,620,540,609,617,908,830,73,855,596,1338,769,881,1212,564,511,541,713,508,1968,1326,641,473,428,243,547,924]","trial_type":"two-door-navigation","trial_index":24,"time_elapsed":420649,"internal_node_id":"0.0-2.0-22.0"},{"group":"hexagon_tri","room_assignment":["blue","green","purple","yellow","grey","red"],"door_color_assignment":["white","black"],"door_generator_assignment":[1,0],"goal":0,"start":2,"action_noise":0.15,"location_history":"[2,1,3,2,3,4,2,1,3,2,1,3,4,0]","action_history":"[0,0,0,1,1,1,1,0,0,0,0,1,1]","door_history":"[1,1,1,0,0,0,0,1,1,1,1,0,0]","location_rts":"[1191,394,661,575,569,539,1448,210,2262,747,496,228,901]","trial_type":"two-door-navigation","trial_index":25,"time_elapsed":449011,"internal_node_id":"0.0-2.0-23.0"},{"group":"hexagon_tri","room_assignment":["blue","green","purple","yellow","grey","red"],"door_color_assignment":["white","black"],"door_generator_assignment":[1,0],"goal":3,"start":0,"action_noise":0.15,"location_history":"[0,5,4,0,1,5,0,5,0,1,5,0,1,5,0,1,5,0,5,4,0,5,4,0,5,4,2,3]","action_history":"[0,0,1,1,1,1,0,1,1,0,1,0,1,1,1,1,1,0,0,0,0,0,0,0,0,1,1]","door_history":"[1,1,0,0,0,0,1,0,0,1,0,1,0,0,0,0,0,1,1,1,1,1,1,1,1,0,0]","location_rts":"[1221,524,1380,858,403,482,727,489,562,1647,687,718,486,306,435,518,508,896,491,440,737,468,700,591,654,1161,770]","trial_type":"two-door-navigation","trial_index":26,"time_elapsed":500908,"internal_node_id":"0.0-2.0-24.0"},{"group":"hexagon_tri","room_assignment":["blue","green","purple","yellow","grey","red"],"door_color_assignment":["white","black"],"door_generator_assignment":[1,0],"goal":1,"start":3,"action_noise":0.15,"location_history":"[3,2,1]","action_history":"[0,0]","door_history":"[1,1]","location_rts":"[2163,604]","trial_type":"two-door-navigation","trial_index":27,"time_elapsed":509346,"internal_node_id":"0.0-2.0-25.0"},{"group":"hexagon_tri","room_assignment":["blue","green","purple","yellow","grey","red"],"door_color_assignment":["white","black"],"door_generator_assignment":[1,0],"goal":2,"start":1,"action_noise":0.15,"location_history":"[1,3,2]","action_history":"[0,0]","door_history":"[1,1]","location_rts":"[2043,631]","trial_type":"two-door-navigation","trial_index":28,"time_elapsed":517709,"internal_node_id":"0.0-2.0-26.0"},{"group":"hexagon_tri","room_assignment":["blue","green","purple","yellow","grey","red"],"door_color_assignment":["white","black"],"door_generator_assignment":[1,0],"goal":5,"start":2,"action_noise":0.15,"location_history":"[2,1,3,2,3,4,2,1,5]","action_history":"[0,0,0,1,1,1,0,1]","door_history":"[1,1,1,0,0,0,1,0]","location_rts":"[1415,485,340,1501,393,420,340,425]","trial_type":"two-door-navigation","trial_index":29,"time_elapsed":535308,"internal_node_id":"0.0-2.0-27.0"},{"group":"hexagon_tri","room_assignment":["blue","green","purple","yellow","grey","red"],"door_color_assignment":["white","black"],"door_generator_assignment":[1,0],"goal":4,"start":5,"action_noise":0.15,"location_history":"[5,4]","action_history":"[0]","door_history":"[1]","location_rts":"[887]","trial_type":"two-door-navigation","trial_index":30,"time_elapsed":540782,"internal_node_id":"0.0-2.0-28.0"},{"group":"hexagon_tri","room_assignment":["blue","green","purple","yellow","grey","red"],"door_color_assignment":["white","black"],"door_generator_assignment":[1,0],"goal":5,"start":4,"action_noise":0.15,"location_history":"[4,0,5]","action_history":"[0,0]","door_history":"[1,1]","location_rts":"[1692,715]","trial_type":"two-door-navigation","trial_index":31,"time_elapsed":548873,"internal_node_id":"0.0-2.0-29.0"},{"group":"hexagon_tri","room_assignment":["blue","green","purple","yellow","grey","red"],"door_color_assignment":["white","black"],"door_generator_assignment":[1,0],"goal":3,"start":5,"action_noise":0.15,"location_history":"[5,0,1,5,4,2,3]","action_history":"[1,1,1,0,1,1]","door_history":"[0,0,0,1,0,0]","location_rts":"[4049,516,414,267,1093,378]","trial_type":"two-door-navigation","trial_index":32,"time_elapsed":565653,"internal_node_id":"0.0-2.0-30.0"},{"group":"hexagon_tri","room_assignment":["blue","green","purple","yellow","grey","red"],"door_color_assignment":["white","black"],"door_generator_assignment":[1,0],"goal":0,"start":3,"action_noise":0.15,"location_history":"[3,2,1,5,4,0]","action_history":"[0,0,1,1,0]","door_history":"[1,1,0,0,1]","location_rts":"[1219,472,1018,680,689]","trial_type":"two-door-navigation","trial_index":33,"time_elapsed":578718,"internal_node_id":"0.0-2.0-31.0"},{"group":"hexagon_tri","room_assignment":["blue","green","purple","yellow","grey","red"],"door_color_assignment":["white","black"],"door_generator_assignment":[1,0],"goal":4,"start":0,"action_noise":0.15,"location_history":"[0,1,3,4]","action_history":"[1,1,1]","door_history":"[0,0,0]","location_rts":"[2265,427,994]","trial_type":"two-door-navigation","trial_index":34,"time_elapsed":589197,"internal_node_id":"0.0-2.0-32.0"},{"group":"hexagon_tri","room_assignment":["blue","green","purple","yellow","grey","red"],"door_color_assignment":["white","black"],"door_generator_assignment":[1,0],"goal":1,"start":4,"action_noise":0.15,"location_history":"[4,0,1]","action_history":"[0,0]","door_history":"[1,1]","location_rts":"[1890,583]","trial_type":"two-door-navigation","trial_index":35,"time_elapsed":597476,"internal_node_id":"0.0-2.0-33.0"},{"group":"hexagon_tri","room_assignment":["blue","green","purple","yellow","grey","red"],"door_color_assignment":["white","black"],"door_generator_assignment":[1,0],"goal":2,"start":1,"action_noise":0.15,"location_history":"[1,3,2]","action_history":"[0,0]","door_history":"[1,1]","location_rts":"[1596,640]","trial_type":"two-door-navigation","trial_index":36,"time_elapsed":605517,"internal_node_id":"0.0-2.0-34.0"},{"group":"hexagon_tri","room_assignment":["blue","green","purple","yellow","grey","red"],"door_color_assignment":["white","black"],"door_generator_assignment":[1,0],"goal":0,"start":2,"action_noise":0.15,"location_history":"[2,1,3,4,2,1,5,0]","action_history":"[0,0,1,1,0,1,1]","door_history":"[1,1,0,0,1,0,0]","location_rts":"[1066,468,322,340,984,1408,579]","trial_type":"two-door-navigation","trial_index":37,"time_elapsed":621851,"internal_node_id":"0.0-2.0-35.0"},{"group":"hexagon_tri","room_assignment":["blue","green","purple","yellow","grey","red"],"door_color_assignment":["white","black"],"door_generator_assignment":[1,0],"goal":5,"start":0,"action_noise":0.15,"location_history":"[0,1,5]","action_history":"[1,1]","door_history":"[0,0]","location_rts":"[1789,399]","trial_type":"two-door-navigation","trial_index":38,"time_elapsed":629786,"internal_node_id":"0.0-2.0-36.0"},{"group":"hexagon_tri","room_assignment":["blue","green","purple","yellow","grey","red"],"door_color_assignment":["white","black"],"door_generator_assignment":[1,0],"goal":2,"start":5,"action_noise":0.15,"location_history":"[5,4,2]","action_history":"[0,1]","door_history":"[1,0]","location_rts":"[1070,507]","trial_type":"two-door-navigation","trial_index":39,"time_elapsed":637136,"internal_node_id":"0.0-2.0-37.0"},{"group":"hexagon_tri","room_assignment":["blue","green","purple","yellow","grey","red"],"door_color_assignment":["white","black"],"door_generator_assignment":[1,0],"goal":1,"start":2,"action_noise":0.15,"location_history":"[2,1]","action_history":"[0]","door_history":"[1]","location_rts":"[1545]","trial_type":"two-door-navigation","trial_index":40,"time_elapsed":643269,"internal_node_id":"0.0-2.0-38.0"},{"group":"hexagon_tri","room_assignment":["blue","green","purple","yellow","grey","red"],"door_color_assignment":["white","black"],"door_generator_assignment":[1,0],"goal":4,"start":1,"action_noise":0.15,"location_history":"[1,3,4]","action_history":"[0,0]","door_history":"[1,1]","location_rts":"[2057,569]","trial_type":"two-door-navigation","trial_index":41,"time_elapsed":651586,"internal_node_id":"0.0-2.0-39.0"},{"group":"hexagon_tri","room_assignment":["blue","green","purple","yellow","grey","red"],"door_color_assignment":["white","black"],"door_generator_assignment":[1,0],"goal":3,"start":4,"action_noise":0.15,"location_history":"[4,2,3]","action_history":"[1,1]","door_history":"[0,0]","location_rts":"[2704,432]","trial_type":"two-door-navigation","trial_index":42,"time_elapsed":660427,"internal_node_id":"0.0-2.0-40.0"},{"group":"hexagon_tri","room_assignment":["blue","green","purple","yellow","grey","red"],"door_color_assignment":["white","black"],"door_generator_assignment":[1,0],"goal":5,"start":3,"action_noise":0.15,"location_history":"[3,4,2,3,4,2,1,3,2,1,5]","action_history":"[0,0,1,1,0,0,0,0,0,1]","door_history":"[1,1,0,0,1,1,1,1,1,0]","location_rts":"[1604,752,1132,503,814,615,796,829,933,974]","trial_type":"two-door-navigation","trial_index":43,"time_elapsed":683956,"internal_node_id":"0.0-2.0-41.0"},{"group":"hexagon_tri","room_assignment":["blue","green","purple","yellow","grey","red"],"door_color_assignment":["white","black"],"door_generator_assignment":[1,0],"goal":3,"start":5,"action_noise":0.15,"location_history":"[5,0,5,4,2,3]","action_history":"[1,1,0,1,1]","door_history":"[0,0,1,0,0]","location_rts":"[1098,568,493,1521,169]","trial_type":"two-door-navigation","trial_index":44,"time_elapsed":696791,"internal_node_id":"0.0-2.0-42.0"},{"group":"hexagon_tri","room_assignment":["blue","green","purple","yellow","grey","red"],"door_color_assignment":["white","black"],"door_generator_assignment":[1,0],"goal":0,"start":3,"action_noise":0.15,"location_history":"[3,2,1,5,4,2,3,2,3,2,1,5,0]","action_history":"[0,0,1,1,1,1,0,0,0,0,1,1]","door_history":"[1,1,0,0,0,0,1,1,1,1,0,0]","location_rts":"[1821,714,1129,679,1509,505,605,565,668,597,830,662]","trial_type":"two-door-navigation","trial_index":45,"time_elapsed":723579,"internal_node_id":"0.0-2.0-43.0"},{"group":"hexagon_tri","room_assignment":["blue","green","purple","yellow","grey","red"],"door_color_assignment":["white","black"],"door_generator_assignment":[1,0],"goal":2,"start":0,"action_noise":0.15,"location_history":"[0,5,4,2]","action_history":"[0,0,1]","door_history":"[1,1,0]","location_rts":"[2385,759,1198]","trial_type":"two-door-navigation","trial_index":46,"time_elapsed":734674,"internal_node_id":"0.0-2.0-44.0"},{"group":"hexagon_tri","room_assignment":["blue","green","purple","yellow","grey","red"],"door_color_assignment":["white","black"],"door_generator_assignment":[1,0],"goal":4,"start":2,"action_noise":0.15,"location_history":"[2,1,3,4]","action_history":"[0,0,0]","door_history":"[1,1,1]","location_rts":"[2933,637,519]","trial_type":"two-door-navigation","trial_index":47,"time_elapsed":745488,"internal_node_id":"0.0-2.0-45.0"},{"group":"hexagon_tri","room_assignment":["blue","green","purple","yellow","grey","red"],"door_color_assignment":["white","black"],"door_generator_assignment":[1,0],"goal":1,"start":4,"action_noise":0.15,"location_history":"[4,2,1]","action_history":"[0,0]","door_history":"[1,1]","location_rts":"[1387,594]","trial_type":"two-door-navigation","trial_index":48,"time_elapsed":753209,"internal_node_id":"0.0-2.0-46.0"},{"group":"hexagon_tri","room_assignment":["blue","green","purple","yellow","grey","red"],"door_color_assignment":["white","black"],"door_generator_assignment":[1,0],"goal":4,"start":1,"action_noise":0.15,"location_history":"[1,3,2,1,3,2,3,4]","action_history":"[0,0,0,0,0,1,1]","door_history":"[1,1,1,1,1,0,0]","location_rts":"[1837,720,886,1071,1514,585,214]","trial_type":"two-door-navigation","trial_index":49,"time_elapsed":771327,"internal_node_id":"0.0-2.0-47.0"},{"group":"hexagon_tri","room_assignment":["blue","green","purple","yellow","grey","red"],"door_color_assignment":["white","black"],"door_generator_assignment":[1,0],"goal":3,"start":4,"action_noise":0.15,"location_history":"[4,0,1,5,0,5,4,0,5,0,1,5,4,2,3]","action_history":"[1,1,1,1,0,0,0,0,1,1,1,0,1,1]","door_history":"[0,0,0,0,1,1,1,1,0,0,0,1,0,0]","location_rts":"[2072,81,549,257,182,556,278,645,681,534,849,509,429,257]","trial_type":"two-door-navigation","trial_index":50,"time_elapsed":797910,"internal_node_id":"0.0-2.0-48.0"},{"group":"hexagon_tri","room_assignment":["blue","green","purple","yellow","grey","red"],"door_color_assignment":["white","black"],"door_generator_assignment":[1,0],"goal":5,"start":3,"action_noise":0.15,"location_history":"[3,2,1,5]","action_history":"[0,0,1]","door_history":"[1,1,0]","location_rts":"[8061,545,951]","trial_type":"two-door-navigation","trial_index":51,"time_elapsed":814221,"internal_node_id":"0.0-2.0-49.0"},{"view_history":"[{\"page_index\":0,\"viewing_time\":14272}]","rt":14273,"trial_type":"instructions","trial_index":52,"time_elapsed":829495,"internal_node_id":"0.0-3.0"},{"view_history":"[{\"page_index\":0,\"viewing_time\":2454},{\"page_index\":1,\"viewing_time\":40964}]","rt":43420,"trial_type":"instructions","trial_index":53,"time_elapsed":873923,"internal_node_id":"0.0-4.0"},{"group":"hexagon_bi","fractal_assignment":["../images/ylw_slt.png","../images/org_blu.png","../images/cyn_red.png","../images/pnk_blu.png","../images/gry_blk.png","../images/blu_wht.png"],"mutagen_generator_assignment":[0,1],"goal":4,"start":0,"action_noise":0.15,"location_history":"[0,1,2,3,4]","action_history":"[0,0,1,1]","mutagen_history":"[0,0,1,1]","location_rts":"[9118,2240,2517,1965]","trial_type":"fractal-mutation","trial_index":54,"time_elapsed":898529,"internal_node_id":"0.0-5.0-0.0"},{"group":"hexagon_bi","fractal_assignment":["../images/ylw_slt.png","../images/org_blu.png","../images/cyn_red.png","../images/pnk_blu.png","../images/gry_blk.png","../images/blu_wht.png"],"mutagen_generator_assignment":[0,1],"goal":3,"start":4,"action_noise":0.15,"location_history":"[4,3]","action_history":"[0]","mutagen_history":"[0]","location_rts":"[680]","trial_type":"fractal-mutation","trial_index":55,"time_elapsed":904202,"internal_node_id":"0.0-5.0-1.0"},{"group":"hexagon_bi","fractal_assignment":["../images/ylw_slt.png","../images/org_blu.png","../images/cyn_red.png","../images/pnk_blu.png","../images/gry_blk.png","../images/blu_wht.png"],"mutagen_generator_assignment":[0,1],"goal":5,"start":3,"action_noise":0.15,"location_history":"[3,4,5]","action_history":"[1,1]","mutagen_history":"[1,1]","location_rts":"[562,301]","trial_type":"fractal-mutation","trial_index":56,"time_elapsed":911414,"internal_node_id":"0.0-5.0-2.0"},{"group":"hexagon_bi","fractal_assignment":["../images/ylw_slt.png","../images/org_blu.png","../images/cyn_red.png","../images/pnk_blu.png","../images/gry_blk.png","../images/blu_wht.png"],"mutagen_generator_assignment":[0,1],"goal":2,"start":5,"action_noise":0.15,"location_history":"[5,4,5,4,3,4,5,4,3,4,3,4,3,2]","action_history":"[0,0,1,0,0,1,1,0,0,0,0,0,1]","mutagen_history":"[0,0,1,0,0,1,1,0,0,0,0,0,1]","location_rts":"[1169,225,224,535,496,45,79,48,124,143,216,214,222]","trial_type":"fractal-mutation","trial_index":57,"time_elapsed":934890,"internal_node_id":"0.0-5.0-3.0"},{"group":"hexagon_bi","fractal_assignment":["../images/ylw_slt.png","../images/org_blu.png","../images/cyn_red.png","../images/pnk_blu.png","../images/gry_blk.png","../images/blu_wht.png"],"mutagen_generator_assignment":[0,1],"goal":1,"start":2,"action_noise":0.15,"location_history":"[2,3,2,1]","action_history":"[1,1,0]","mutagen_history":"[1,1,0]","location_rts":"[1144,1544,1533]","trial_type":"fractal-mutation","trial_index":58,"time_elapsed":946344,"internal_node_id":"0.0-5.0-4.0"},{"group":"hexagon_bi","fractal_assignment":["../images/ylw_slt.png","../images/org_blu.png","../images/cyn_red.png","../images/pnk_blu.png","../images/gry_blk.png","../images/blu_wht.png"],"mutagen_generator_assignment":[0,1],"goal":4,"start":1,"action_noise":0.15,"location_history":"[1,2,1,0,1,0,5,4]","action_history":"[0,0,1,1,1,0,1]","mutagen_history":"[0,0,1,1,1,0,1]","location_rts":"[1086,856,760,435,38,465,693]","trial_type":"fractal-mutation","trial_index":59,"time_elapsed":962913,"internal_node_id":"0.0-5.0-5.0"},{"group":"hexagon_bi","fractal_assignment":["../images/ylw_slt.png","../images/org_blu.png","../images/cyn_red.png","../images/pnk_blu.png","../images/gry_blk.png","../images/blu_wht.png"],"mutagen_generator_assignment":[0,1],"goal":1,"start":4,"action_noise":0.15,"location_history":"[4,3,2,3,2,1]","action_history":"[0,1,1,1,0]","mutagen_history":"[0,1,1,1,0]","location_rts":"[626,24,186,183,64]","trial_type":"fractal-mutation","trial_index":60,"time_elapsed":973159,"internal_node_id":"0.0-5.0-6.0"},{"group":"hexagon_bi","fractal_assignment":["../images/ylw_slt.png","../images/org_blu.png","../images/cyn_red.png","../images/pnk_blu.png","../images/gry_blk.png","../images/blu_wht.png"],"mutagen_generator_assignment":[0,1],"goal":5,"start":1,"action_noise":0.15,"location_history":"[1,0,1,2,1,2,3,2,1,0,1,0,5]","action_history":"[1,1,0,0,0,1,1,1,0,1,1,0]","mutagen_history":"[1,1,0,0,0,1,1,1,0,1,1,0]","location_rts":"[517,107,27,61,53,152,54,531,325,608,669,909]","trial_type":"fractal-mutation","trial_index":61,"time_elapsed":995644,"internal_node_id":"0.0-5.0-7.0"},{"group":"hexagon_bi","fractal_assignment":["../images/ylw_slt.png","../images/org_blu.png","../images/cyn_red.png","../images/pnk_blu.png","../images/gry_blk.png","../images/blu_wht.png"],"mutagen_generator_assignment":[0,1],"goal":0,"start":5,"action_noise":0.15,"location_history":"[5,0]","action_history":"[0]","mutagen_history":"[0]","location_rts":"[671]","trial_type":"fractal-mutation","trial_index":62,"time_elapsed":1001016,"internal_node_id":"0.0-5.0-8.0"},{"group":"hexagon_bi","fractal_assignment":["../images/ylw_slt.png","../images/org_blu.png","../images/cyn_red.png","../images/pnk_blu.png","../images/gry_blk.png","../images/blu_wht.png"],"mutagen_generator_assignment":[0,1],"goal":2,"start":0,"action_noise":0.15,"location_history":"[0,1,0,5,4,5,0,5,0,5,0,5,0,1,2]","action_history":"[1,1,0,1,0,0,0,1,0,0,0,1,1,0]","mutagen_history":"[1,1,0,1,0,0,0,1,0,0,0,1,1,0]","location_rts":"[107,13,100,94,150,426,449,397,484,402,299,1443,525,1342]","trial_type":"fractal-mutation","trial_index":63,"time_elapsed":1028216,"internal_node_id":"0.0-5.0-9.0"},{"group":"hexagon_bi","fractal_assignment":["../images/ylw_slt.png","../images/org_blu.png","../images/cyn_red.png","../images/pnk_blu.png","../images/gry_blk.png","../images/blu_wht.png"],"mutagen_generator_assignment":[0,1],"goal":3,"start":2,"action_noise":0.15,"location_history":"[2,3]","action_history":"[1]","mutagen_history":"[1]","location_rts":"[55058]","trial_type":"fractal-mutation","trial_index":64,"time_elapsed":1088024,"internal_node_id":"0.0-5.0-10.0"},{"group":"hexagon_bi","fractal_assignment":["../images/ylw_slt.png","../images/org_blu.png","../images/cyn_red.png","../images/pnk_blu.png","../images/gry_blk.png","../images/blu_wht.png"],"mutagen_generator_assignment":[0,1],"goal":0,"start":3,"action_noise":0.15,"location_history":"[3,2,1,0]","action_history":"[1,1,1]","mutagen_history":"[1,1,1]","location_rts":"[7043,41,286]","trial_type":"fractal-mutation","trial_index":65,"time_elapsed":1102375,"internal_node_id":"0.0-5.0-11.0"},{"group":"hexagon_bi","fractal_assignment":["../images/ylw_slt.png","../images/org_blu.png","../images/cyn_red.png","../images/pnk_blu.png","../images/gry_blk.png","../images/blu_wht.png"],"mutagen_generator_assignment":[0,1],"goal":2,"start":0,"action_noise":0.15,"location_history":"[0,5,4,3,4,3,2]","action_history":"[0,1,1,0,0,0]","mutagen_history":"[0,1,1,0,0,0]","location_rts":"[210,356,135,117,329,388]","trial_type":"fractal-mutation","trial_index":66,"time_elapsed":1114843,"internal_node_id":"0.0-5.0-12.0"},{"group":"hexagon_bi","fractal_assignment":["../images/ylw_slt.png","../images/org_blu.png","../images/cyn_red.png","../images/pnk_blu.png","../images/gry_blk.png","../images/blu_wht.png"],"mutagen_generator_assignment":[0,1],"goal":5,"start":2,"action_noise":0.15,"location_history":"[2,3,4,3,2,3,4,3,2,3,4,5]","action_history":"[1,0,1,1,1,0,0,1,0,0,0]","mutagen_history":"[1,0,1,1,1,0,0,1,0,0,0]","location_rts":"[3328,319,292,776,479,766,356,512,320,470,1562]","trial_type":"fractal-mutation","trial_index":67,"time_elapsed":1140873,"internal_node_id":"0.0-5.0-13.0"},{"group":"hexagon_bi","fractal_assignment":["../images/ylw_slt.png","../images/org_blu.png","../images/cyn_red.png","../images/pnk_blu.png","../images/gry_blk.png","../images/blu_wht.png"],"mutagen_generator_assignment":[0,1],"goal":4,"start":5,"action_noise":0.15,"location_history":"[5,4]","action_history":"[1]","mutagen_history":"[1]","location_rts":"[3495]","trial_type":"fractal-mutation","trial_index":68,"time_elapsed":1149143,"internal_node_id":"0.0-5.0-14.0"},{"group":"hexagon_bi","fractal_assignment":["../images/ylw_slt.png","../images/org_blu.png","../images/cyn_red.png","../images/pnk_blu.png","../images/gry_blk.png","../images/blu_wht.png"],"mutagen_generator_assignment":[0,1],"goal":3,"start":4,"action_noise":0.15,"location_history":"[4,3]","action_history":"[0]","mutagen_history":"[0]","location_rts":"[4069]","trial_type":"fractal-mutation","trial_index":69,"time_elapsed":1157918,"internal_node_id":"0.0-5.0-15.0"},{"group":"hexagon_bi","fractal_assignment":["../images/ylw_slt.png","../images/org_blu.png","../images/cyn_red.png","../images/pnk_blu.png","../images/gry_blk.png","../images/blu_wht.png"],"mutagen_generator_assignment":[0,1],"goal":1,"start":3,"action_noise":0.15,"location_history":"[3,4,5,0,5,0,5,0,1]","action_history":"[0,1,0,0,0,0,1,1]","mutagen_history":"[0,1,0,0,0,0,1,1]","location_rts":"[944,720,406,474,859,620,422,919]","trial_type":"fractal-mutation","trial_index":70,"time_elapsed":1176656,"internal_node_id":"0.0-5.0-16.0"},{"group":"hexagon_bi","fractal_assignment":["../images/ylw_slt.png","../images/org_blu.png","../images/cyn_red.png","../images/pnk_blu.png","../images/gry_blk.png","../images/blu_wht.png"],"mutagen_generator_assignment":[0,1],"goal":5,"start":1,"action_noise":0.15,"location_history":"[1,2,3,4,3,2,1,2,1,0,1,0,5]","action_history":"[1,1,0,0,1,0,0,0,1,1,1,0]","mutagen_history":"[1,1,0,0,1,0,0,0,1,1,1,0]","location_rts":"[5083,1644,495,465,661,737,1308,742,430,540,375,308]","trial_type":"fractal-mutation","trial_index":71,"time_elapsed":1207356,"internal_node_id":"0.0-5.0-17.0"},{"group":"hexagon_bi","fractal_assignment":["../images/ylw_slt.png","../images/org_blu.png","../images/cyn_red.png","../images/pnk_blu.png","../images/gry_blk.png","../images/blu_wht.png"],"mutagen_generator_assignment":[0,1],"goal":4,"start":5,"action_noise":0.15,"location_history":"[5,0,1,0,5,4]","action_history":"[0,1,1,0,0]","mutagen_history":"[0,1,1,0,0]","location_rts":"[821,686,722,1076,118]","trial_type":"fractal-mutation","trial_index":72,"time_elapsed":1220559,"internal_node_id":"0.0-5.0-18.0"},{"group":"hexagon_bi","fractal_assignment":["../images/ylw_slt.png","../images/org_blu.png","../images/cyn_red.png","../images/pnk_blu.png","../images/gry_blk.png","../images/blu_wht.png"],"mutagen_generator_assignment":[0,1],"goal":0,"start":4,"action_noise":0.15,"location_history":"[4,5,4,3,4,3,4,3,2,1,0]","action_history":"[1,1,0,0,0,1,0,1,0,1]","mutagen_history":"[1,1,0,0,0,1,0,1,0,1]","location_rts":"[413,425,374,311,482,221,212,46,78,3220]","trial_type":"fractal-mutation","trial_index":73,"time_elapsed":1242083,"internal_node_id":"0.0-5.0-19.0"},{"group":"hexagon_bi","fractal_assignment":["../images/ylw_slt.png","../images/org_blu.png","../images/cyn_red.png","../images/pnk_blu.png","../images/gry_blk.png","../images/blu_wht.png"],"mutagen_generator_assignment":[0,1],"goal":1,"start":0,"action_noise":0.15,"location_history":"[0,1]","action_history":"[1]","mutagen_history":"[1]","location_rts":"[7305]","trial_type":"fractal-mutation","trial_index":74,"time_elapsed":1254163,"internal_node_id":"0.0-5.0-20.0"},{"group":"hexagon_bi","fractal_assignment":["../images/ylw_slt.png","../images/org_blu.png","../images/cyn_red.png","../images/pnk_blu.png","../images/gry_blk.png","../images/blu_wht.png"],"mutagen_generator_assignment":[0,1],"goal":3,"start":1,"action_noise":0.15,"location_history":"[1,2,3]","action_history":"[0,1]","mutagen_history":"[0,1]","location_rts":"[576,17]","trial_type":"fractal-mutation","trial_index":75,"time_elapsed":1260514,"internal_node_id":"0.0-5.0-21.0"},{"group":"hexagon_bi","fractal_assignment":["../images/ylw_slt.png","../images/org_blu.png","../images/cyn_red.png","../images/pnk_blu.png","../images/gry_blk.png","../images/blu_wht.png"],"mutagen_generator_assignment":[0,1],"goal":2,"start":3,"action_noise":0.15,"location_history":"[3,2]","action_history":"[0]","mutagen_history":"[0]","location_rts":"[133]","trial_type":"fractal-mutation","trial_index":76,"time_elapsed":1265299,"internal_node_id":"0.0-5.0-22.0"},{"group":"hexagon_bi","fractal_assignment":["../images/ylw_slt.png","../images/org_blu.png","../images/cyn_red.png","../images/pnk_blu.png","../images/gry_blk.png","../images/blu_wht.png"],"mutagen_generator_assignment":[0,1],"goal":0,"start":2,"action_noise":0.15,"location_history":"[2,1,0]","action_history":"[0,1]","mutagen_history":"[0,1]","location_rts":"[386,266]","trial_type":"fractal-mutation","trial_index":77,"time_elapsed":1271836,"internal_node_id":"0.0-5.0-23.0"},{"group":"hexagon_bi","fractal_assignment":["../images/ylw_slt.png","../images/org_blu.png","../images/cyn_red.png","../images/pnk_blu.png","../images/gry_blk.png","../images/blu_wht.png"],"mutagen_generator_assignment":[0,1],"goal":3,"start":0,"action_noise":0.15,"location_history":"[0,5,4,5,0,1,2,1,0,5,4,5,0,5,0,5,0,1,0,1,0,1,2,1,0,5,0,5,4,5,0,1,0,5,0,5,4,5,0,5,4,5,4,5,4,3]","action_history":"[0,1,1,0,1,0,0,1,0,1,1,0,1,0,0,0,1,1,1,1,1,0,0,1,0,0,0,1,1,1,1,0,0,0,0,1,0,0,0,1,1,1,1,0,0]","mutagen_history":"[0,1,1,0,1,0,0,1,0,1,1,0,1,0,0,0,1,1,1,1,1,0,0,1,0,0,0,1,1,1,1,0,0,0,0,1,0,0,0,1,1,1,1,0,0]","location_rts":"[67,116,208,220,221,475,132,190,46,225,2199,282,82,34,343,98,70,534,1035,539,501,77,908,716,349,315,25,2,456,207,170,69,146,193,67,175,176,365,89,201,61,56,118,226,296]","trial_type":"fractal-mutation","trial_index":78,"time_elapsed":1343862,"internal_node_id":"0.0-5.0-24.0"},{"group":"hexagon_bi","fractal_assignment":["../images/ylw_slt.png","../images/org_blu.png","../images/cyn_red.png","../images/pnk_blu.png","../images/gry_blk.png","../images/blu_wht.png"],"mutagen_generator_assignment":[0,1],"goal":1,"start":3,"action_noise":0.15,"location_history":"[3,2,3,4,3,2,3,4,3,2,1]","action_history":"[0,0,0,1,0,0,0,0,1,0]","mutagen_history":"[0,0,0,1,0,0,0,0,1,0]","location_rts":"[210,203,239,68,88,184,466,3463,90,81]","trial_type":"fractal-mutation","trial_index":79,"time_elapsed":1364642,"internal_node_id":"0.0-5.0-25.0"},{"group":"hexagon_bi","fractal_assignment":["../images/ylw_slt.png","../images/org_blu.png","../images/cyn_red.png","../images/pnk_blu.png","../images/gry_blk.png","../images/blu_wht.png"],"mutagen_generator_assignment":[0,1],"goal":2,"start":1,"action_noise":0.15,"location_history":"[1,2]","action_history":"[0]","mutagen_history":"[0]","location_rts":"[717]","trial_type":"fractal-mutation","trial_index":80,"time_elapsed":1370209,"internal_node_id":"0.0-5.0-26.0"},{"group":"hexagon_bi","fractal_assignment":["../images/ylw_slt.png","../images/org_blu.png","../images/cyn_red.png","../images/pnk_blu.png","../images/gry_blk.png","../images/blu_wht.png"],"mutagen_generator_assignment":[0,1],"goal":5,"start":2,"action_noise":0.15,"location_history":"[2,3,2,1,0,1,0,5]","action_history":"[1,1,0,1,1,1,0]","mutagen_history":"[1,1,0,1,1,1,0]","location_rts":"[1554,742,804,335,635,1043,543]","trial_type":"fractal-mutation","trial_index":81,"time_elapsed":1387755,"internal_node_id":"0.0-5.0-27.0"},{"group":"hexagon_bi","fractal_assignment":["../images/ylw_slt.png","../images/org_blu.png","../images/cyn_red.png","../images/pnk_blu.png","../images/gry_blk.png","../images/blu_wht.png"],"mutagen_generator_assignment":[0,1],"goal":4,"start":5,"action_noise":0.15,"location_history":"[5,4]","action_history":"[0]","mutagen_history":"[0]","location_rts":"[4390]","trial_type":"fractal-mutation","trial_index":82,"time_elapsed":1396905,"internal_node_id":"0.0-5.0-28.0"},{"group":"hexagon_bi","fractal_assignment":["../images/ylw_slt.png","../images/org_blu.png","../images/cyn_red.png","../images/pnk_blu.png","../images/gry_blk.png","../images/blu_wht.png"],"mutagen_generator_assignment":[0,1],"goal":5,"start":4,"action_noise":0.15,"location_history":"[4,3,2,1,2,3,2,1,0,1,2,1,2,3,2,3,2,1,0,5]","action_history":"[1,1,0,0,0,1,0,0,1,0,0,0,0,1,1,1,0,1,0]","mutagen_history":"[1,1,0,0,0,1,0,0,1,0,0,0,0,1,1,1,0,1,0]","location_rts":"[938,795,651,650,876,584,415,450,1194,779,588,587,811,323,735,510,352,404,593]","trial_type":"fractal-mutation","trial_index":83,"time_elapsed":1436166,"internal_node_id":"0.0-5.0-29.0"},{"group":"hexagon_bi","fractal_assignment":["../images/ylw_slt.png","../images/org_blu.png","../images/cyn_red.png","../images/pnk_blu.png","../images/gry_blk.png","../images/blu_wht.png"],"mutagen_generator_assignment":[0,1],"goal":3,"start":5,"action_noise":0.15,"location_history":"[5,0,5,4,5,0,1,2,1,2,1,0,5,0,5,4,5,4,3]","action_history":"[0,0,1,1,0,1,1,0,0,1,1,0,0,0,1,1,1,0]","mutagen_history":"[0,0,1,1,0,1,1,0,0,1,1,0,0,0,1,1,1,0]","location_rts":"[3780,676,1342,697,1012,497,868,542,800,613,42,178,593,65,59,88,63,40]","trial_type":"fractal-mutation","trial_index":84,"time_elapsed":1474146,"internal_node_id":"0.0-5.0-30.0"},{"group":"hexagon_bi","fractal_assignment":["../images/ylw_slt.png","../images/org_blu.png","../images/cyn_red.png","../images/pnk_blu.png","../images/gry_blk.png","../images/blu_wht.png"],"mutagen_generator_assignment":[0,1],"goal":0,"start":3,"action_noise":0.15,"location_history":"[3,4,5,0]","action_history":"[0,1,1]","mutagen_history":"[0,1,1]","location_rts":"[641,467,440]","trial_type":"fractal-mutation","trial_index":85,"time_elapsed":1483100,"internal_node_id":"0.0-5.0-31.0"},{"group":"hexagon_bi","fractal_assignment":["../images/ylw_slt.png","../images/org_blu.png","../images/cyn_red.png","../images/pnk_blu.png","../images/gry_blk.png","../images/blu_wht.png"],"mutagen_generator_assignment":[0,1],"goal":4,"start":0,"action_noise":0.15,"location_history":"[0,5,4]","action_history":"[0,1]","mutagen_history":"[0,1]","location_rts":"[1589,216]","trial_type":"fractal-mutation","trial_index":86,"time_elapsed":1491146,"internal_node_id":"0.0-5.0-32.0"},{"group":"hexagon_bi","fractal_assignment":["../images/ylw_slt.png","../images/org_blu.png","../images/cyn_red.png","../images/pnk_blu.png","../images/gry_blk.png","../images/blu_wht.png"],"mutagen_generator_assignment":[0,1],"goal":1,"start":4,"action_noise":0.15,"location_history":"[4,3,2,3,4,3,2,3,2,1]","action_history":"[0,1,0,0,0,1,1,1,0]","mutagen_history":"[0,1,0,0,0,1,1,1,0]","location_rts":"[967,118,610,595,409,1479,1266,771,408]","trial_type":"fractal-mutation","trial_index":87,"time_elapsed":1512073,"internal_node_id":"0.0-5.0-33.0"},{"group":"hexagon_bi","fractal_assignment":["../images/ylw_slt.png","../images/org_blu.png","../images/cyn_red.png","../images/pnk_blu.png","../images/gry_blk.png","../images/blu_wht.png"],"mutagen_generator_assignment":[0,1],"goal":2,"start":1,"action_noise":0.15,"location_history":"[1,2]","action_history":"[0]","mutagen_history":"[0]","location_rts":"[1122]","trial_type":"fractal-mutation","trial_index":88,"time_elapsed":1517926,"internal_node_id":"0.0-5.0-34.0"},{"group":"hexagon_bi","fractal_assignment":["../images/ylw_slt.png","../images/org_blu.png","../images/cyn_red.png","../images/pnk_blu.png","../images/gry_blk.png","../images/blu_wht.png"],"mutagen_generator_assignment":[0,1],"goal":0,"start":2,"action_noise":0.15,"location_history":"[2,3,2,1,2,3,2,1,0]","action_history":"[1,1,0,0,1,1,1,1]","mutagen_history":"[1,1,0,0,1,1,1,1]","location_rts":"[1096,540,729,645,429,891,793,1018]","trial_type":"fractal-mutation","trial_index":89,"time_elapsed":1536985,"internal_node_id":"0.0-5.0-35.0"},{"group":"hexagon_bi","fractal_assignment":["../images/ylw_slt.png","../images/org_blu.png","../images/cyn_red.png","../images/pnk_blu.png","../images/gry_blk.png","../images/blu_wht.png"],"mutagen_generator_assignment":[0,1],"goal":5,"start":0,"action_noise":0.15,"location_history":"[0,1,0,1,2,3,2,1,2,1,0,5]","action_history":"[1,1,1,0,1,1,0,0,0,1,1]","mutagen_history":"[1,1,1,0,1,1,0,0,0,1,1]","location_rts":"[1500,776,737,483,480,803,473,541,653,436,503]","trial_type":"fractal-mutation","trial_index":90,"time_elapsed":1561219,"internal_node_id":"0.0-5.0-36.0"},{"group":"hexagon_bi","fractal_assignment":["../images/ylw_slt.png","../images/org_blu.png","../images/cyn_red.png","../images/pnk_blu.png","../images/gry_blk.png","../images/blu_wht.png"],"mutagen_generator_assignment":[0,1],"goal":2,"start":5,"action_noise":0.15,"location_history":"[5,0,5,4,3,2]","action_history":"[0,0,1,0,0]","mutagen_history":"[0,0,1,0,0]","location_rts":"[894,586,970,696,442]","trial_type":"fractal-mutation","trial_index":91,"time_elapsed":1574212,"internal_node_id":"0.0-5.0-37.0"},{"group":"hexagon_bi","fractal_assignment":["../images/ylw_slt.png","../images/org_blu.png","../images/cyn_red.png","../images/pnk_blu.png","../images/gry_blk.png","../images/blu_wht.png"],"mutagen_generator_assignment":[0,1],"goal":1,"start":2,"action_noise":0.15,"location_history":"[2,1]","action_history":"[0]","mutagen_history":"[0]","location_rts":"[735]","trial_type":"fractal-mutation","trial_index":92,"time_elapsed":1579768,"internal_node_id":"0.0-5.0-38.0"},{"group":"hexagon_bi","fractal_assignment":["../images/ylw_slt.png","../images/org_blu.png","../images/cyn_red.png","../images/pnk_blu.png","../images/gry_blk.png","../images/blu_wht.png"],"mutagen_generator_assignment":[0,1],"goal":4,"start":1,"action_noise":0.15,"location_history":"[1,0,5,0,5,4]","action_history":"[1,0,0,0,1]","mutagen_history":"[1,0,0,0,1]","location_rts":"[996,332,178,69,71]","trial_type":"fractal-mutation","trial_index":93,"time_elapsed":1591096,"internal_node_id":"0.0-5.0-39.0"},{"group":"hexagon_bi","fractal_assignment":["../images/ylw_slt.png","../images/org_blu.png","../images/cyn_red.png","../images/pnk_blu.png","../images/gry_blk.png","../images/blu_wht.png"],"mutagen_generator_assignment":[0,1],"goal":3,"start":4,"action_noise":0.15,"location_history":"[4,3]","action_history":"[0]","mutagen_history":"[0]","location_rts":"[506]","trial_type":"fractal-mutation","trial_index":94,"time_elapsed":1596571,"internal_node_id":"0.0-5.0-40.0"},{"group":"hexagon_bi","fractal_assignment":["../images/ylw_slt.png","../images/org_blu.png","../images/cyn_red.png","../images/pnk_blu.png","../images/gry_blk.png","../images/blu_wht.png"],"mutagen_generator_assignment":[0,1],"goal":5,"start":3,"action_noise":0.15,"location_history":"[3,2,3,2,1,2,1,0,1,0,1,2,3,4,3,4,5]","action_history":"[1,1,1,0,1,0,1,1,1,1,1,0,1,0,0,1]","mutagen_history":"[1,1,1,0,1,0,1,1,1,1,1,0,1,0,0,1]","location_rts":"[592,437,996,503,1,551,18,343,254,63,335,126,2470,1,50,323]","trial_type":"fractal-mutation","trial_index":95,"time_elapsed":1626829,"internal_node_id":"0.0-5.0-41.0"},{"group":"hexagon_bi","fractal_assignment":["../images/ylw_slt.png","../images/org_blu.png","../images/cyn_red.png","../images/pnk_blu.png","../images/gry_blk.png","../images/blu_wht.png"],"mutagen_generator_assignment":[0,1],"goal":3,"start":5,"action_noise":0.15,"location_history":"[5,4,3]","action_history":"[1,0]","mutagen_history":"[1,0]","location_rts":"[2138,13]","trial_type":"fractal-mutation","trial_index":96,"time_elapsed":1634663,"internal_node_id":"0.0-5.0-42.0"},{"group":"hexagon_bi","fractal_assignment":["../images/ylw_slt.png","../images/org_blu.png","../images/cyn_red.png","../images/pnk_blu.png","../images/gry_blk.png","../images/blu_wht.png"],"mutagen_generator_assignment":[0,1],"goal":0,"start":3,"action_noise":0.15,"location_history":"[3,4,3,2,3,4,5,0]","action_history":"[0,0,1,1,0,1,1]","mutagen_history":"[0,0,1,1,0,1,1]","location_rts":"[314,1206,130,3350,1464,448,650]","trial_type":"fractal-mutation","trial_index":97,"time_elapsed":1653862,"internal_node_id":"0.0-5.0-43.0"},{"group":"hexagon_bi","fractal_assignment":["../images/ylw_slt.png","../images/org_blu.png","../images/cyn_red.png","../images/pnk_blu.png","../images/gry_blk.png","../images/blu_wht.png"],"mutagen_generator_assignment":[0,1],"goal":2,"start":0,"action_noise":0.15,"location_history":"[0,1,2]","action_history":"[1,0]","mutagen_history":"[1,0]","location_rts":"[668,725]","trial_type":"fractal-mutation","trial_index":98,"time_elapsed":1661150,"internal_node_id":"0.0-5.0-44.0"},{"group":"hexagon_bi","fractal_assignment":["../images/ylw_slt.png","../images/org_blu.png","../images/cyn_red.png","../images/pnk_blu.png","../images/gry_blk.png","../images/blu_wht.png"],"mutagen_generator_assignment":[0,1],"goal":4,"start":2,"action_noise":0.15,"location_history":"[2,3,4]","action_history":"[1,0]","mutagen_history":"[1,0]","location_rts":"[6506,824]","trial_type":"fractal-mutation","trial_index":99,"time_elapsed":1674266,"internal_node_id":"0.0-5.0-45.0"},{"group":"hexagon_bi","fractal_assignment":["../images/ylw_slt.png","../images/org_blu.png","../images/cyn_red.png","../images/pnk_blu.png","../images/gry_blk.png","../images/blu_wht.png"],"mutagen_generator_assignment":[0,1],"goal":1,"start":4,"action_noise":0.15,"location_history":"[4,5,0,5,4,5,4,3,4,3,2,1]","action_history":"[1,0,0,1,1,0,0,0,0,1,0]","mutagen_history":"[1,0,0,1,1,0,0,0,0,1,0]","location_rts":"[10517,388,348,631,328,319,261,470,658,629,359]","trial_type":"fractal-mutation","trial_index":100,"time_elapsed":1706372,"internal_node_id":"0.0-5.0-46.0"},{"group":"hexagon_bi","fractal_assignment":["../images/ylw_slt.png","../images/org_blu.png","../images/cyn_red.png","../images/pnk_blu.png","../images/gry_blk.png","../images/blu_wht.png"],"mutagen_generator_assignment":[0,1],"goal":4,"start":1,"action_noise":0.15,"location_history":"[1,2,3,2,1,0,1,2,3,4]","action_history":"[0,1,1,0,1,1,0,1,0]","mutagen_history":"[0,1,1,0,1,1,0,1,0]","location_rts":"[1750,493,478,593,417,532,851,404,295]","trial_type":"fractal-mutation","trial_index":101,"time_elapsed":1726745,"internal_node_id":"0.0-5.0-47.0"},{"group":"hexagon_bi","fractal_assignment":["../images/ylw_slt.png","../images/org_blu.png","../images/cyn_red.png","../images/pnk_blu.png","../images/gry_blk.png","../images/blu_wht.png"],"mutagen_generator_assignment":[0,1],"goal":3,"start":4,"action_noise":0.15,"location_history":"[4,5,0,5,0,5,4,3]","action_history":"[1,0,0,1,1,1,0]","mutagen_history":"[1,0,0,1,1,1,0]","location_rts":"[820,855,774,653,694,761,487]","trial_type":"fractal-mutation","trial_index":102,"time_elapsed":1743747,"internal_node_id":"0.0-5.0-48.0"},{"group":"hexagon_bi","fractal_assignment":["../images/ylw_slt.png","../images/org_blu.png","../images/cyn_red.png","../images/pnk_blu.png","../images/gry_blk.png","../images/blu_wht.png"],"mutagen_generator_assignment":[0,1],"goal":5,"start":3,"action_noise":0.15,"location_history":"[3,4,5]","action_history":"[0,1]","mutagen_history":"[0,1]","location_rts":"[586,538]","trial_type":"fractal-mutation","trial_index":103,"time_elapsed":1750803,"internal_node_id":"0.0-5.0-49.0"},{"view_history":"[{\"page_index\":0,\"viewing_time\":12048}]","rt":12050,"trial_type":"instructions","trial_index":104,"time_elapsed":1763855,"internal_node_id":"0.0-6.0"},{"rt":3639,"responses":"{\"Q0\":\"Thanks\"}","trial_type":"survey-text","trial_index":105,"time_elapsed":1768525,"internal_node_id":"0.0-7.0"}]