[{"view_history":"[{\"page_index\":0,\"viewing_time\":535951},{\"page_index\":1,\"viewing_time\":10135},{\"page_index\":2,\"viewing_time\":19904},{\"page_index\":3,\"viewing_time\":6618}]","rt":572610,"trial_type":"instructions","trial_index":0,"time_elapsed":572614,"internal_node_id":"0.0-0.0"},{"view_history":"[{\"page_index\":0,\"viewing_time\":2206},{\"page_index\":1,\"viewing_time\":40138}]","rt":42345,"trial_type":"instructions","trial_index":1,"time_elapsed":615959,"internal_node_id":"0.0-1.0"},{"group":"hexagon_tri","room_assignment":["green","purple","yellow","red","blue","grey"],"door_color_assignment":["white","black"],"door_generator_assignment":[1,0],"goal":4,"start":0,"action_noise":0.15,"location_history":"[0,5,4]","action_history":"[0,0]","door_history":"[1,1]","location_rts":"[4026,3339]","trial_type":"two-door-navigation","trial_index":2,"time_elapsed":628845,"internal_node_id":"0.0-2.0-0.0"},{"group":"hexagon_tri","room_assignment":["green","purple","yellow","red","blue","grey"],"door_color_assignment":["white","black"],"door_generator_assignment":[1,0],"goal":3,"start":4,"action_noise":0.15,"location_history":"[4,0,1,5,0,5,4,0,5,4,0,1,5,4,0,5,0,1,3]","action_history":"[0,1,1,1,1,0,0,0,0,0,1,1,0,0,0,1,1,0]","door_history":"[1,0,0,0,0,1,1,1,1,1,0,0,1,1,1,0,0,1]","location_rts":"[6537,1124,627,815,464,1135,554,495,508,700,1126,446,890,478,489,417,438,2742]","trial_type":"two-door-navigation","trial_index":3,"time_elapsed":670463,"internal_node_id":"0.0-2.0-1.0"},{"group":"hexagon_tri","room_assignment":["green","purple","yellow","red","blue","grey"],"door_color_assignment":["white","black"],"door_generator_assignment":[1,0],"goal":5,"start":3,"action_noise":0.15,"location_history":"[3,2,3,4,2,3,2,3,4,0,5]","action_history":"[1,1,1,1,1,0,0,0,0,0]","door_history":"[0,0,0,0,0,1,1,1,1,1]","location_rts":"[21342,1078,455,523,662,881,1827,1085,579,529]","trial_type":"two-door-navigation","trial_index":4,"time_elapsed":712962,"internal_node_id":"0.0-2.0-2.0"},{"group":"hexagon_tri","room_assignment":["green","purple","yellow","red","blue","grey"],"door_color_assignment":["white","black"],"door_generator_assignment":[1,0],"goal":2,"start":5,"action_noise":0.15,"location_history":"[5,0,5,4,0,5,4,0,1,3,4,2]","action_history":"[1,1,0,0,0,0,0,1,1,1,1]","door_history":"[0,0,1,1,1,1,1,0,0,0,0]","location_rts":"[7251,1028,1964,3541,972,950,416,1783,577,1610,852]","trial_type":"two-door-navigation","trial_index":5,"time_elapsed":748459,"internal_node_id":"0.0-2.0-3.0"},{"group":"hexagon_tri","room_assignment":["green","purple","yellow","red","blue","grey"],"door_color_assignment":["white","black"],"door_generator_assignment":[1,0],"goal":1,"start":2,"action_noise":0.15,"location_history":"[2,3,4,2,1]","action_history":"[1,1,1,1]","door_history":"[0,0,0,0]","location_rts":"[7077,486,670,498]","trial_type":"two-door-navigation","trial_index":6,"time_elapsed":764738,"internal_node_id":"0.0-2.0-4.0"},{"group":"hexagon_tri","room_assignment":["green","purple","yellow","red","blue","grey"],"door_color_assignment":["white","black"],"door_generator_assignment":[1,0],"goal":4,"start":1,"action_noise":0.15,"location_history":"[1,5,4]","action_history":"[0,0]","door_history":"[1,1]","location_rts":"[4203,431]","trial_type":"two-door-navigation","trial_index":7,"time_elapsed":774893,"internal_node_id":"0.0-2.0-5.0"},{"group":"hexagon_tri","room_assignment":["green","purple","yellow","red","blue","grey"],"door_color_assignment":["white","black"],"door_generator_assignment":[1,0],"goal":1,"start":4,"action_noise":0.15,"location_history":"[4,2,3,4,2,1]","action_history":"[1,1,1,0,0]","door_history":"[0,0,0,1,1]","location_rts":"[4179,443,2681,1495,1556]","trial_type":"two-door-navigation","trial_index":8,"time_elapsed":793795,"internal_node_id":"0.0-2.0-6.0"},{"group":"hexagon_tri","room_assignment":["green","purple","yellow","red","blue","grey"],"door_color_assignment":["white","black"],"door_generator_assignment":[1,0],"goal":5,"start":1,"action_noise":0.15,"location_history":"[1,3,2,1,3,4,2,1,3,4,2,1,3,2,1,3,4,2,3,4,0,5]","action_history":"[0,0,0,0,1,1,1,1,1,1,0,0,0,0,0,1,1,1,1,0,0]","door_history":"[1,1,1,1,0,0,0,0,0,0,1,1,1,1,1,0,0,0,0,1,1]","location_rts":"[16048,460,379,3069,1340,429,537,17442,466,678,886,530,562,455,390,800,2724,529,492,845,4295]","trial_type":"two-door-navigation","trial_index":9,"time_elapsed":871744,"internal_node_id":"0.0-2.0-7.0"},{"group":"hexagon_tri","room_assignment":["green","purple","yellow","red","blue","grey"],"door_color_assignment":["white","black"],"door_generator_assignment":[1,0],"goal":0,"start":5,"action_noise":0.15,"location_history":"[5,0]","action_history":"[1]","door_history":"[0]","location_rts":"[4549]","trial_type":"two-door-navigation","trial_index":10,"time_elapsed":880799,"internal_node_id":"0.0-2.0-8.0"},{"group":"hexagon_tri","room_assignment":["green","purple","yellow","red","blue","grey"],"door_color_assignment":["white","black"],"door_generator_assignment":[1,0],"goal":2,"start":0,"action_noise":0.15,"location_history":"[0,5,0,5,0,5,4,0,5,0,1,3,2]","action_history":"[0,0,0,1,1,0,1,1,0,1,1,0]","door_history":"[1,1,1,0,0,1,0,0,1,0,0,1]","location_rts":"[16886,9842,2796,3942,14200,2244,5549,929,492,747,380,750]","trial_type":"two-door-navigation","trial_index":11,"time_elapsed":955086,"internal_node_id":"0.0-2.0-9.0"},{"group":"hexagon_tri","room_assignment":["green","purple","yellow","red","blue","grey"],"door_color_assignment":["white","black"],"door_generator_assignment":[1,0],"goal":3,"start":2,"action_noise":0.15,"location_history":"[2,1,3]","action_history":"[0,0]","door_history":"[1,1]","location_rts":"[11840,2277]","trial_type":"two-door-navigation","trial_index":12,"time_elapsed":974737,"internal_node_id":"0.0-2.0-10.0"},{"group":"hexagon_tri","room_assignment":["green","purple","yellow","red","blue","grey"],"door_color_assignment":["white","black"],"door_generator_assignment":[1,0],"goal":0,"start":3,"action_noise":0.15,"location_history":"[3,2,1,5,4,2,3,4,0]","action_history":"[0,1,0,0,1,1,1,0]","door_history":"[1,0,1,1,0,0,0,1]","location_rts":"[5764,6660,5733,796,11649,937,519,746]","trial_type":"two-door-navigation","trial_index":13,"time_elapsed":1019078,"internal_node_id":"0.0-2.0-11.0"},{"group":"hexagon_tri","room_assignment":["green","purple","yellow","red","blue","grey"],"door_color_assignment":["white","black"],"door_generator_assignment":[1,0],"goal":2,"start":0,"action_noise":0.15,"location_history":"[0,5,4,2]","action_history":"[0,0,1]","door_history":"[1,1,0]","location_rts":"[7504,5368,1969]","trial_type":"two-door-navigation","trial_index":14,"time_elapsed":1040428,"internal_node_id":"0.0-2.0-12.0"},{"group":"hexagon_tri","room_assignment":["green","purple","yellow","red","blue","grey"],"door_color_assignment":["white","black"],"door_generator_assignment":[1,0],"goal":5,"start":2,"action_noise":0.15,"location_history":"[2,3,4,2,1,3,2,3,4,0,5]","action_history":"[1,1,1,0,0,0,1,1,0,0]","door_history":"[0,0,0,1,1,1,0,0,1,1]","location_rts":"[3394,6420,7531,850,432,447,856,386,1331,2543]","trial_type":"two-door-navigation","trial_index":15,"time_elapsed":1078158,"internal_node_id":"0.0-2.0-13.0"},{"group":"hexagon_tri","room_assignment":["green","purple","yellow","red","blue","grey"],"door_color_assignment":["white","black"],"door_generator_assignment":[1,0],"goal":4,"start":5,"action_noise":0.15,"location_history":"[5,4]","action_history":"[1]","door_history":"[0]","location_rts":"[6039]","trial_type":"two-door-navigation","trial_index":16,"time_elapsed":1088699,"internal_node_id":"0.0-2.0-14.0"},{"group":"hexagon_tri","room_assignment":["green","purple","yellow","red","blue","grey"],"door_color_assignment":["white","black"],"door_generator_assignment":[1,0],"goal":3,"start":4,"action_noise":0.15,"location_history":"[4,2,1,3]","action_history":"[1,0,0]","door_history":"[0,1,1]","location_rts":"[9431,5027,2057]","trial_type":"two-door-navigation","trial_index":17,"time_elapsed":1111743,"internal_node_id":"0.0-2.0-15.0"},{"group":"hexagon_tri","room_assignment":["green","purple","yellow","red","blue","grey"],"door_color_assignment":["white","black"],"door_generator_assignment":[1,0],"goal":1,"start":3,"action_noise":0.15,"location_history":"[3,2,1]","action_history":"[0,0]","door_history":"[1,1]","location_rts":"[6019,417]","trial_type":"two-door-navigation","trial_index":18,"time_elapsed":1123682,"internal_node_id":"0.0-2.0-16.0"},{"group":"hexagon_tri","room_assignment":["green","purple","yellow","red","blue","grey"],"door_color_assignment":["white","black"],"door_generator_assignment":[1,0],"goal":5,"start":1,"action_noise":0.15,"location_history":"[1,3,2,1,5]","action_history":"[0,0,0,1]","door_history":"[1,1,1,0]","location_rts":"[3983,15727,480,651]","trial_type":"two-door-navigation","trial_index":19,"time_elapsed":1152041,"internal_node_id":"0.0-2.0-17.0"},{"group":"hexagon_tri","room_assignment":["green","purple","yellow","red","blue","grey"],"door_color_assignment":["white","black"],"door_generator_assignment":[1,0],"goal":4,"start":5,"action_noise":0.15,"location_history":"[5,0,1,5,0,5,0,5,4]","action_history":"[1,1,1,1,0,1,0,0]","door_history":"[0,0,0,0,1,0,1,1]","location_rts":"[3437,7320,648,3050,2798,2417,1125,392]","trial_type":"two-door-navigation","trial_index":20,"time_elapsed":1184755,"internal_node_id":"0.0-2.0-18.0"},{"group":"hexagon_tri","room_assignment":["green","purple","yellow","red","blue","grey"],"door_color_assignment":["white","black"],"door_generator_assignment":[1,0],"goal":0,"start":4,"action_noise":0.15,"location_history":"[4,2,1,3,2,1,3,2,1,5,0]","action_history":"[1,1,0,1,0,0,0,0,1,1]","door_history":"[0,0,1,0,1,1,1,1,0,0]","location_rts":"[4620,19061,5692,3925,3262,563,912,1008,732,390]","trial_type":"two-door-navigation","trial_index":21,"time_elapsed":1238460,"internal_node_id":"0.0-2.0-19.0"},{"group":"hexagon_tri","room_assignment":["green","purple","yellow","red","blue","grey"],"door_color_assignment":["white","black"],"door_generator_assignment":[1,0],"goal":1,"start":0,"action_noise":0.15,"location_history":"[0,5,4,2,3,2,1]","action_history":"[0,0,1,1,0,0]","door_history":"[1,1,0,0,1,1]","location_rts":"[5024,17634,9461,2196,1337,316]","trial_type":"two-door-navigation","trial_index":22,"time_elapsed":1283980,"internal_node_id":"0.0-2.0-20.0"},{"group":"hexagon_tri","room_assignment":["green","purple","yellow","red","blue","grey"],"door_color_assignment":["white","black"],"door_generator_assignment":[1,0],"goal":3,"start":1,"action_noise":0.15,"location_history":"[1,3]","action_history":"[1]","door_history":"[0]","location_rts":"[1318]","trial_type":"two-door-navigation","trial_index":23,"time_elapsed":1289818,"internal_node_id":"0.0-2.0-21.0"},{"group":"hexagon_tri","room_assignment":["green","purple","yellow","red","blue","grey"],"door_color_assignment":["white","black"],"door_generator_assignment":[1,0],"goal":2,"start":3,"action_noise":0.15,"location_history":"[3,2]","action_history":"[0]","door_history":"[1]","location_rts":"[7466]","trial_type":"two-door-navigation","trial_index":24,"time_elapsed":1301787,"internal_node_id":"0.0-2.0-22.0"},{"group":"hexagon_tri","room_assignment":["green","purple","yellow","red","blue","grey"],"door_color_assignment":["white","black"],"door_generator_assignment":[1,0],"goal":0,"start":2,"action_noise":0.15,"location_history":"[2,1,3,4,2,3,4,2,1,3,4,0]","action_history":"[0,0,1,1,1,0,1,1,0,0,1]","door_history":"[1,1,0,0,0,1,0,0,1,1,0]","location_rts":"[4271,5913,6146,6437,665,456,699,413,350,328,407]","trial_type":"two-door-navigation","trial_index":25,"time_elapsed":1342431,"internal_node_id":"0.0-2.0-23.0"},{"group":"hexagon_tri","room_assignment":["green","purple","yellow","red","blue","grey"],"door_color_assignment":["white","black"],"door_generator_assignment":[1,0],"goal":3,"start":0,"action_noise":0.15,"location_history":"[0,1,3]","action_history":"[1,1]","door_history":"[0,0]","location_rts":"[760,2637]","trial_type":"two-door-navigation","trial_index":26,"time_elapsed":1351339,"internal_node_id":"0.0-2.0-24.0"},{"group":"hexagon_tri","room_assignment":["green","purple","yellow","red","blue","grey"],"door_color_assignment":["white","black"],"door_generator_assignment":[1,0],"goal":1,"start":3,"action_noise":0.15,"location_history":"[3,2,1]","action_history":"[1,0]","door_history":"[0,1]","location_rts":"[548,396]","trial_type":"two-door-navigation","trial_index":27,"time_elapsed":1357802,"internal_node_id":"0.0-2.0-25.0"},{"group":"hexagon_tri","room_assignment":["green","purple","yellow","red","blue","grey"],"door_color_assignment":["white","black"],"door_generator_assignment":[1,0],"goal":2,"start":1,"action_noise":0.15,"location_history":"[1,3,4,2]","action_history":"[0,1,1]","door_history":"[1,0,0]","location_rts":"[480,444,325]","trial_type":"two-door-navigation","trial_index":28,"time_elapsed":1365573,"internal_node_id":"0.0-2.0-26.0"},{"group":"hexagon_tri","room_assignment":["green","purple","yellow","red","blue","grey"],"door_color_assignment":["white","black"],"door_generator_assignment":[1,0],"goal":5,"start":2,"action_noise":0.15,"location_history":"[2,3,2,1,5]","action_history":"[1,0,0,0]","door_history":"[0,1,1,1]","location_rts":"[761,597,425,344]","trial_type":"two-door-navigation","trial_index":29,"time_elapsed":1375226,"internal_node_id":"0.0-2.0-27.0"},{"group":"hexagon_tri","room_assignment":["green","purple","yellow","red","blue","grey"],"door_color_assignment":["white","black"],"door_generator_assignment":[1,0],"goal":4,"start":5,"action_noise":0.15,"location_history":"[5,4]","action_history":"[1]","door_history":"[0]","location_rts":"[4127]","trial_type":"two-door-navigation","trial_index":30,"time_elapsed":1383857,"internal_node_id":"0.0-2.0-28.0"},{"group":"hexagon_tri","room_assignment":["green","purple","yellow","red","blue","grey"],"door_color_assignment":["white","black"],"door_generator_assignment":[1,0],"goal":5,"start":4,"action_noise":0.15,"location_history":"[4,2,1,5]","action_history":"[0,1,1]","door_history":"[1,0,0]","location_rts":"[618,732,830]","trial_type":"two-door-navigation","trial_index":31,"time_elapsed":1392574,"internal_node_id":"0.0-2.0-29.0"},{"group":"hexagon_tri","room_assignment":["green","purple","yellow","red","blue","grey"],"door_color_assignment":["white","black"],"door_generator_assignment":[1,0],"goal":3,"start":5,"action_noise":0.15,"location_history":"[5,0,5,4,0,5,4,2,3]","action_history":"[1,0,0,0,0,0,1,1]","door_history":"[0,1,1,1,1,1,0,0]","location_rts":"[410,738,618,2248,888,3554,355,3319]","trial_type":"two-door-navigation","trial_index":32,"time_elapsed":1416267,"internal_node_id":"0.0-2.0-30.0"},{"group":"hexagon_tri","room_assignment":["green","purple","yellow","red","blue","grey"],"door_color_assignment":["white","black"],"door_generator_assignment":[1,0],"goal":0,"start":3,"action_noise":0.15,"location_history":"[3,2,3,2,1,3,4,2,3,2,3,4,0]","action_history":"[0,1,1,0,0,1,1,1,0,0,1,1]","door_history":"[1,0,0,1,1,0,0,0,1,1,0,0]","location_rts":"[473,464,425,458,319,330,386,307,258,422,469,408]","trial_type":"two-door-navigation","trial_index":33,"time_elapsed":1436551,"internal_node_id":"0.0-2.0-31.0"},{"group":"hexagon_tri","room_assignment":["green","purple","yellow","red","blue","grey"],"door_color_assignment":["white","black"],"door_generator_assignment":[1,0],"goal":4,"start":0,"action_noise":0.15,"location_history":"[0,1,3,2,1,5,0,1,3,2,3,2,3,4]","action_history":"[1,0,0,0,1,1,1,0,0,1,0,1,1]","door_history":"[0,1,1,1,0,0,0,1,1,0,1,0,0]","location_rts":"[415,366,332,374,576,401,432,403,348,387,358,384,330]","trial_type":"two-door-navigation","trial_index":34,"time_elapsed":1458211,"internal_node_id":"0.0-2.0-32.0"},{"group":"hexagon_tri","room_assignment":["green","purple","yellow","red","blue","grey"],"door_color_assignment":["white","black"],"door_generator_assignment":[1,0],"goal":1,"start":4,"action_noise":0.15,"location_history":"[4,0,1]","action_history":"[0,1]","door_history":"[1,0]","location_rts":"[1476,370]","trial_type":"two-door-navigation","trial_index":35,"time_elapsed":1465579,"internal_node_id":"0.0-2.0-33.0"},{"group":"hexagon_tri","room_assignment":["green","purple","yellow","red","blue","grey"],"door_color_assignment":["white","black"],"door_generator_assignment":[1,0],"goal":2,"start":1,"action_noise":0.15,"location_history":"[1,3,4,0,1,3,4,0,5,4,0,1,5,0,1,5,0,1,3,2]","action_history":"[0,1,0,1,1,1,0,0,0,0,1,1,1,0,0,1,1,0,0]","door_history":"[1,0,1,0,0,0,1,1,1,1,0,0,0,1,1,0,0,1,1]","location_rts":"[489,357,336,410,315,349,301,371,367,889,1107,966,303,320,377,335,402,348,324]","trial_type":"two-door-navigation","trial_index":36,"time_elapsed":1496888,"internal_node_id":"0.0-2.0-34.0"},{"group":"hexagon_tri","room_assignment":["green","purple","yellow","red","blue","grey"],"door_color_assignment":["white","black"],"door_generator_assignment":[1,0],"goal":0,"start":2,"action_noise":0.15,"location_history":"[2,3,2,3,2,1,3,4,2,3,2,1,3,4,2,1,3,2,1,5,4,2,3,2,1,5,4,2,3,2,1,3,2,3,4,2,1,5,0]","action_history":"[1,1,1,0,0,0,1,1,1,0,0,0,1,1,1,0,0,0,0,0,1,1,0,0,1,0,1,1,0,0,0,0,1,1,1,0,0,1]","door_history":"[0,0,0,1,1,1,0,0,0,1,1,1,0,0,0,1,1,1,1,1,0,0,1,1,0,1,0,0,1,1,1,1,0,0,0,1,1,0]","location_rts":"[3765,335,481,349,757,386,336,1001,295,320,661,678,2304,1379,998,507,931,296,278,280,337,332,299,423,316,324,360,338,390,419,579,452,3304,311,374,404,338,394]","trial_type":"two-door-navigation","trial_index":37,"time_elapsed":1564699,"internal_node_id":"0.0-2.0-35.0"},{"group":"hexagon_tri","room_assignment":["green","purple","yellow","red","blue","grey"],"door_color_assignment":["white","black"],"door_generator_assignment":[1,0],"goal":5,"start":0,"action_noise":0.15,"location_history":"[0,5]","action_history":"[0]","door_history":"[1]","location_rts":"[2022]","trial_type":"two-door-navigation","trial_index":38,"time_elapsed":1571227,"internal_node_id":"0.0-2.0-36.0"},{"group":"hexagon_tri","room_assignment":["green","purple","yellow","red","blue","grey"],"door_color_assignment":["white","black"],"door_generator_assignment":[1,0],"goal":2,"start":5,"action_noise":0.15,"location_history":"[5,0,5,0,5,0,5,4,2]","action_history":"[1,0,1,1,1,1,0,1]","door_history":"[0,1,0,0,0,0,1,0]","location_rts":"[762,945,340,348,382,389,339,914]","trial_type":"two-door-navigation","trial_index":39,"time_elapsed":1587165,"internal_node_id":"0.0-2.0-37.0"},{"group":"hexagon_tri","room_assignment":["green","purple","yellow","red","blue","grey"],"door_color_assignment":["white","black"],"door_generator_assignment":[1,0],"goal":1,"start":2,"action_noise":0.15,"location_history":"[2,1]","action_history":"[1]","door_history":"[0]","location_rts":"[681]","trial_type":"two-door-navigation","trial_index":40,"time_elapsed":1592360,"internal_node_id":"0.0-2.0-38.0"},{"group":"hexagon_tri","room_assignment":["green","purple","yellow","red","blue","grey"],"door_color_assignment":["white","black"],"door_generator_assignment":[1,0],"goal":4,"start":1,"action_noise":0.15,"location_history":"[1,5,0,1,5,4]","action_history":"[1,1,1,1,0]","door_history":"[0,0,0,0,1]","location_rts":"[589,341,376,357,403]","trial_type":"two-door-navigation","trial_index":41,"time_elapsed":1602959,"internal_node_id":"0.0-2.0-39.0"},{"group":"hexagon_tri","room_assignment":["green","purple","yellow","red","blue","grey"],"door_color_assignment":["white","black"],"door_generator_assignment":[1,0],"goal":3,"start":4,"action_noise":0.15,"location_history":"[4,2,3]","action_history":"[1,1]","door_history":"[0,0]","location_rts":"[906,452]","trial_type":"two-door-navigation","trial_index":42,"time_elapsed":1609840,"internal_node_id":"0.0-2.0-40.0"},{"group":"hexagon_tri","room_assignment":["green","purple","yellow","red","blue","grey"],"door_color_assignment":["white","black"],"door_generator_assignment":[1,0],"goal":5,"start":3,"action_noise":0.15,"location_history":"[3,4,0,5]","action_history":"[1,1,1]","door_history":"[0,0,0]","location_rts":"[781,410,600]","trial_type":"two-door-navigation","trial_index":43,"time_elapsed":1618153,"internal_node_id":"0.0-2.0-41.0"},{"group":"hexagon_tri","room_assignment":["green","purple","yellow","red","blue","grey"],"door_color_assignment":["white","black"],"door_generator_assignment":[1,0],"goal":3,"start":5,"action_noise":0.15,"location_history":"[5,4,2,1,5,4,0,5,4,0,5,0,1,3]","action_history":"[1,1,1,1,0,0,0,0,0,0,1,0,0]","door_history":"[0,0,0,0,1,1,1,1,1,1,0,1,1]","location_rts":"[4344,449,559,432,810,393,382,384,451,384,409,306,337]","trial_type":"two-door-navigation","trial_index":44,"time_elapsed":1644331,"internal_node_id":"0.0-2.0-42.0"},{"group":"hexagon_tri","room_assignment":["green","purple","yellow","red","blue","grey"],"door_color_assignment":["white","black"],"door_generator_assignment":[1,0],"goal":0,"start":3,"action_noise":0.15,"location_history":"[3,4,2,3,2,1,3,2,3,4,0]","action_history":"[1,1,1,0,0,0,0,1,1,0]","door_history":"[0,0,0,1,1,1,1,0,0,1]","location_rts":"[811,426,369,1414,419,372,772,422,384,436]","trial_type":"two-door-navigation","trial_index":45,"time_elapsed":1663703,"internal_node_id":"0.0-2.0-43.0"},{"group":"hexagon_tri","room_assignment":["green","purple","yellow","red","blue","grey"],"door_color_assignment":["white","black"],"door_generator_assignment":[1,0],"goal":2,"start":0,"action_noise":0.15,"location_history":"[0,1,5,0,5,0,1,3,4,0,5,4,2]","action_history":"[1,1,1,0,1,1,0,1,0,0,0,1]","door_history":"[0,0,0,1,0,0,1,0,1,1,1,0]","location_rts":"[9057,383,536,1379,633,339,1127,1466,311,389,371,1011]","trial_type":"two-door-navigation","trial_index":46,"time_elapsed":1696306,"internal_node_id":"0.0-2.0-44.0"},{"group":"hexagon_tri","room_assignment":["green","purple","yellow","red","blue","grey"],"door_color_assignment":["white","black"],"door_generator_assignment":[1,0],"goal":4,"start":2,"action_noise":0.15,"location_history":"[2,3,4]","action_history":"[1,1]","door_history":"[0,0]","location_rts":"[7898,411]","trial_type":"two-door-navigation","trial_index":47,"time_elapsed":1710140,"internal_node_id":"0.0-2.0-45.0"},{"group":"hexagon_tri","room_assignment":["green","purple","yellow","red","blue","grey"],"door_color_assignment":["white","black"],"door_generator_assignment":[1,0],"goal":1,"start":4,"action_noise":0.15,"location_history":"[4,2,3,4,2,3,4,0,5,0,5,4,2,3,2,1]","action_history":"[1,1,1,1,1,1,0,0,0,0,0,1,0,0,0]","door_history":"[0,0,0,0,0,0,1,1,1,1,1,0,1,1,1]","location_rts":"[849,350,331,997,64,1472,302,412,524,416,380,972,449,411,507]","trial_type":"two-door-navigation","trial_index":48,"time_elapsed":1737176,"internal_node_id":"0.0-2.0-46.0"},{"group":"hexagon_tri","room_assignment":["green","purple","yellow","red","blue","grey"],"door_color_assignment":["white","black"],"door_generator_assignment":[1,0],"goal":4,"start":1,"action_noise":0.15,"location_history":"[1,5,4]","action_history":"[1,0]","door_history":"[0,1]","location_rts":"[938,1034]","trial_type":"two-door-navigation","trial_index":49,"time_elapsed":1744671,"internal_node_id":"0.0-2.0-47.0"},{"group":"hexagon_tri","room_assignment":["green","purple","yellow","red","blue","grey"],"door_color_assignment":["white","black"],"door_generator_assignment":[1,0],"goal":3,"start":4,"action_noise":0.15,"location_history":"[4,2,3]","action_history":"[1,1]","door_history":"[0,0]","location_rts":"[835,570]","trial_type":"two-door-navigation","trial_index":50,"time_elapsed":1751579,"internal_node_id":"0.0-2.0-48.0"},{"group":"hexagon_tri","room_assignment":["green","purple","yellow","red","blue","grey"],"door_color_assignment":["white","black"],"door_generator_assignment":[1,0],"goal":5,"start":3,"action_noise":0.15,"location_history":"[3,4,2,1,3,2,3,4,0,5]","action_history":"[1,1,0,0,0,1,1,1,0]","door_history":"[0,0,1,1,1,0,0,0,1]","location_rts":"[1902,3290,1411,360,332,591,250,373,344]","trial_type":"two-door-navigation","trial_index":51,"time_elapsed":1773022,"internal_node_id":"0.0-2.0-49.0"},{"view_history":"[{\"page_index\":0,\"viewing_time\":2931}]","rt":2933,"trial_type":"instructions","trial_index":52,"time_elapsed":1776956,"internal_node_id":"0.0-3.0"},{"view_history":"[{\"page_index\":0,\"viewing_time\":2813},{\"page_index\":1,\"viewing_time\":31531}]","rt":34344,"trial_type":"instructions","trial_index":53,"time_elapsed":1812301,"internal_node_id":"0.0-4.0"},{"group":"hexagon_tri","fractal_assignment":["../images/blu_wht.png","../images/cyn_red.png","../images/ylw_slt.png","../images/gry_blk.png","../images/org_blu.png","../images/pnk_blu.png"],"mutagen_generator_assignment":[0,1],"goal":4,"start":0,"action_noise":0.15,"location_history":"[0,5,0,5,0,5,4]","action_history":"[0,1,1,1,0,0]","mutagen_history":"[0,1,1,1,0,0]","location_rts":"[2667,916,1402,734,509,1805]","trial_type":"fractal-mutation","trial_index":54,"time_elapsed":1830930,"internal_node_id":"0.0-5.0-0.0"},{"group":"hexagon_tri","fractal_assignment":["../images/blu_wht.png","../images/cyn_red.png","../images/ylw_slt.png","../images/gry_blk.png","../images/org_blu.png","../images/pnk_blu.png"],"mutagen_generator_assignment":[0,1],"goal":3,"start":4,"action_noise":0.15,"location_history":"[4,0,1,5,0,5,4,2,3]","action_history":"[0,1,1,1,0,0,1,1]","mutagen_history":"[0,1,1,1,0,0,1,1]","location_rts":"[501,962,497,922,796,934,412,826]","trial_type":"fractal-mutation","trial_index":55,"time_elapsed":1849742,"internal_node_id":"0.0-5.0-1.0"},{"group":"hexagon_tri","fractal_assignment":["../images/blu_wht.png","../images/cyn_red.png","../images/ylw_slt.png","../images/gry_blk.png","../images/org_blu.png","../images/pnk_blu.png"],"mutagen_generator_assignment":[0,1],"goal":5,"start":3,"action_noise":0.15,"location_history":"[3,4,0,1,5]","action_history":"[1,0,1,1]","mutagen_history":"[1,0,1,1]","location_rts":"[651,496,827,739]","trial_type":"fractal-mutation","trial_index":56,"time_elapsed":1860660,"internal_node_id":"0.0-5.0-2.0"},{"group":"hexagon_tri","fractal_assignment":["../images/blu_wht.png","../images/cyn_red.png","../images/ylw_slt.png","../images/gry_blk.png","../images/org_blu.png","../images/pnk_blu.png"],"mutagen_generator_assignment":[0,1],"goal":2,"start":5,"action_noise":0.15,"location_history":"[5,0,1,3,2]","action_history":"[1,1,0,0]","mutagen_history":"[1,1,0,0]","location_rts":"[528,993,389,549]","trial_type":"fractal-mutation","trial_index":57,"time_elapsed":1871275,"internal_node_id":"0.0-5.0-3.0"},{"group":"hexagon_tri","fractal_assignment":["../images/blu_wht.png","../images/cyn_red.png","../images/ylw_slt.png","../images/gry_blk.png","../images/org_blu.png","../images/pnk_blu.png"],"mutagen_generator_assignment":[0,1],"goal":1,"start":2,"action_noise":0.15,"location_history":"[2,1]","action_history":"[1]","mutagen_history":"[1]","location_rts":"[823]","trial_type":"fractal-mutation","trial_index":58,"time_elapsed":1876799,"internal_node_id":"0.0-5.0-4.0"},{"group":"hexagon_tri","fractal_assignment":["../images/blu_wht.png","../images/cyn_red.png","../images/ylw_slt.png","../images/gry_blk.png","../images/org_blu.png","../images/pnk_blu.png"],"mutagen_generator_assignment":[0,1],"goal":4,"start":1,"action_noise":0.15,"location_history":"[1,5,0,1,5,4]","action_history":"[1,0,1,1,0]","mutagen_history":"[1,0,1,1,0]","location_rts":"[871,435,861,421,417]","trial_type":"fractal-mutation","trial_index":59,"time_elapsed":1889192,"internal_node_id":"0.0-5.0-5.0"},{"group":"hexagon_tri","fractal_assignment":["../images/blu_wht.png","../images/cyn_red.png","../images/ylw_slt.png","../images/gry_blk.png","../images/org_blu.png","../images/pnk_blu.png"],"mutagen_generator_assignment":[0,1],"goal":1,"start":4,"action_noise":0.15,"location_history":"[4,2,3,4,0,1]","action_history":"[1,1,1,0,0]","mutagen_history":"[1,1,1,0,0]","location_rts":"[1087,577,481,595,932]","trial_type":"fractal-mutation","trial_index":60,"time_elapsed":1902225,"internal_node_id":"0.0-5.0-6.0"},{"group":"hexagon_tri","fractal_assignment":["../images/blu_wht.png","../images/cyn_red.png","../images/ylw_slt.png","../images/gry_blk.png","../images/org_blu.png","../images/pnk_blu.png"],"mutagen_generator_assignment":[0,1],"goal":5,"start":1,"action_noise":0.15,"location_history":"[1,5]","action_history":"[1]","mutagen_history":"[1]","location_rts":"[454]","trial_type":"fractal-mutation","trial_index":61,"time_elapsed":1907378,"internal_node_id":"0.0-5.0-7.0"},{"group":"hexagon_tri","fractal_assignment":["../images/blu_wht.png","../images/cyn_red.png","../images/ylw_slt.png","../images/gry_blk.png","../images/org_blu.png","../images/pnk_blu.png"],"mutagen_generator_assignment":[0,1],"goal":0,"start":5,"action_noise":0.15,"location_history":"[5,0]","action_history":"[1]","mutagen_history":"[1]","location_rts":"[451]","trial_type":"fractal-mutation","trial_index":62,"time_elapsed":1912539,"internal_node_id":"0.0-5.0-8.0"},{"group":"hexagon_tri","fractal_assignment":["../images/blu_wht.png","../images/cyn_red.png","../images/ylw_slt.png","../images/gry_blk.png","../images/org_blu.png","../images/pnk_blu.png"],"mutagen_generator_assignment":[0,1],"goal":2,"start":0,"action_noise":0.15,"location_history":"[0,1,5,4,2]","action_history":"[1,0,1,1]","mutagen_history":"[1,0,1,1]","location_rts":"[676,490,327,334]","trial_type":"fractal-mutation","trial_index":63,"time_elapsed":1922551,"internal_node_id":"0.0-5.0-9.0"},{"group":"hexagon_tri","fractal_assignment":["../images/blu_wht.png","../images/cyn_red.png","../images/ylw_slt.png","../images/gry_blk.png","../images/org_blu.png","../images/pnk_blu.png"],"mutagen_generator_assignment":[0,1],"goal":3,"start":2,"action_noise":0.15,"location_history":"[2,1,3]","action_history":"[0,1]","mutagen_history":"[0,1]","location_rts":"[1100,468]","trial_type":"fractal-mutation","trial_index":64,"time_elapsed":1929958,"internal_node_id":"0.0-5.0-10.0"},{"group":"hexagon_tri","fractal_assignment":["../images/blu_wht.png","../images/cyn_red.png","../images/ylw_slt.png","../images/gry_blk.png","../images/org_blu.png","../images/pnk_blu.png"],"mutagen_generator_assignment":[0,1],"goal":0,"start":3,"action_noise":0.15,"location_history":"[3,4,2,3,4,2,1,5,0]","action_history":"[1,1,0,1,1,0,1,1]","mutagen_history":"[1,1,0,1,1,0,1,1]","location_rts":"[1325,490,539,424,357,1658,1681,1902]","trial_type":"fractal-mutation","trial_index":65,"time_elapsed":1951310,"internal_node_id":"0.0-5.0-11.0"},{"group":"hexagon_tri","fractal_assignment":["../images/blu_wht.png","../images/cyn_red.png","../images/ylw_slt.png","../images/gry_blk.png","../images/org_blu.png","../images/pnk_blu.png"],"mutagen_generator_assignment":[0,1],"goal":2,"start":0,"action_noise":0.15,"location_history":"[0,5,0,1,5,0,5,0,1,3,4,2]","action_history":"[0,1,1,1,1,0,1,1,0,1,1]","mutagen_history":"[0,1,1,1,1,0,1,1,0,1,1]","location_rts":"[424,432,403,380,819,1112,2222,522,579,342,381]","trial_type":"fractal-mutation","trial_index":66,"time_elapsed":1975478,"internal_node_id":"0.0-5.0-12.0"},{"group":"hexagon_tri","fractal_assignment":["../images/blu_wht.png","../images/cyn_red.png","../images/ylw_slt.png","../images/gry_blk.png","../images/org_blu.png","../images/pnk_blu.png"],"mutagen_generator_assignment":[0,1],"goal":5,"start":2,"action_noise":0.15,"location_history":"[2,3,4,2,3,4,0,1,5]","action_history":"[1,1,1,1,1,0,1,1]","mutagen_history":"[1,1,1,1,1,0,1,1]","location_rts":"[625,425,326,444,420,311,444,490]","trial_type":"fractal-mutation","trial_index":67,"time_elapsed":1991936,"internal_node_id":"0.0-5.0-13.0"},{"group":"hexagon_tri","fractal_assignment":["../images/blu_wht.png","../images/cyn_red.png","../images/ylw_slt.png","../images/gry_blk.png","../images/org_blu.png","../images/pnk_blu.png"],"mutagen_generator_assignment":[0,1],"goal":4,"start":5,"action_noise":0.15,"location_history":"[5,0,1,5,0,1,3,2,3,4]","action_history":"[0,1,1,1,1,0,0,1,1]","mutagen_history":"[0,1,1,1,1,0,0,1,1]","location_rts":"[587,591,321,344,378,278,389,438,526]","trial_type":"fractal-mutation","trial_index":68,"time_elapsed":2009871,"internal_node_id":"0.0-5.0-14.0"},{"group":"hexagon_tri","fractal_assignment":["../images/blu_wht.png","../images/cyn_red.png","../images/ylw_slt.png","../images/gry_blk.png","../images/org_blu.png","../images/pnk_blu.png"],"mutagen_generator_assignment":[0,1],"goal":3,"start":4,"action_noise":0.15,"location_history":"[4,0,1,5,4,2,1,3]","action_history":"[0,1,1,0,0,0,0]","mutagen_history":"[0,1,1,0,0,0,0]","location_rts":"[2012,731,409,548,373,501,412]","trial_type":"fractal-mutation","trial_index":69,"time_elapsed":2026327,"internal_node_id":"0.0-5.0-15.0"},{"group":"hexagon_tri","fractal_assignment":["../images/blu_wht.png","../images/cyn_red.png","../images/ylw_slt.png","../images/gry_blk.png","../images/org_blu.png","../images/pnk_blu.png"],"mutagen_generator_assignment":[0,1],"goal":1,"start":3,"action_noise":0.15,"location_history":"[3,2,1]","action_history":"[0,0]","mutagen_history":"[0,0]","location_rts":"[503,396]","trial_type":"fractal-mutation","trial_index":70,"time_elapsed":2032975,"internal_node_id":"0.0-5.0-16.0"},{"group":"hexagon_tri","fractal_assignment":["../images/blu_wht.png","../images/cyn_red.png","../images/ylw_slt.png","../images/gry_blk.png","../images/org_blu.png","../images/pnk_blu.png"],"mutagen_generator_assignment":[0,1],"goal":5,"start":1,"action_noise":0.15,"location_history":"[1,3,4,0,5]","action_history":"[0,0,0,0]","mutagen_history":"[0,0,0,0]","location_rts":"[461,369,404,439]","trial_type":"fractal-mutation","trial_index":71,"time_elapsed":2042621,"internal_node_id":"0.0-5.0-17.0"},{"group":"hexagon_tri","fractal_assignment":["../images/blu_wht.png","../images/cyn_red.png","../images/ylw_slt.png","../images/gry_blk.png","../images/org_blu.png","../images/pnk_blu.png"],"mutagen_generator_assignment":[0,1],"goal":4,"start":5,"action_noise":0.15,"location_history":"[5,4]","action_history":"[0]","mutagen_history":"[0]","location_rts":"[464]","trial_type":"fractal-mutation","trial_index":72,"time_elapsed":2047685,"internal_node_id":"0.0-5.0-18.0"},{"group":"hexagon_tri","fractal_assignment":["../images/blu_wht.png","../images/cyn_red.png","../images/ylw_slt.png","../images/gry_blk.png","../images/org_blu.png","../images/pnk_blu.png"],"mutagen_generator_assignment":[0,1],"goal":0,"start":4,"action_noise":0.15,"location_history":"[4,0]","action_history":"[0]","mutagen_history":"[0]","location_rts":"[850]","trial_type":"fractal-mutation","trial_index":73,"time_elapsed":2053169,"internal_node_id":"0.0-5.0-19.0"},{"group":"hexagon_tri","fractal_assignment":["../images/blu_wht.png","../images/cyn_red.png","../images/ylw_slt.png","../images/gry_blk.png","../images/org_blu.png","../images/pnk_blu.png"],"mutagen_generator_assignment":[0,1],"goal":1,"start":0,"action_noise":0.15,"location_history":"[0,5,0,5,4,2,1]","action_history":"[0,1,0,0,1,1]","mutagen_history":"[0,1,0,0,1,1]","location_rts":"[439,427,390,357,1300,429]","trial_type":"fractal-mutation","trial_index":74,"time_elapsed":2066989,"internal_node_id":"0.0-5.0-20.0"},{"group":"hexagon_tri","fractal_assignment":["../images/blu_wht.png","../images/cyn_red.png","../images/ylw_slt.png","../images/gry_blk.png","../images/org_blu.png","../images/pnk_blu.png"],"mutagen_generator_assignment":[0,1],"goal":3,"start":1,"action_noise":0.15,"location_history":"[1,3]","action_history":"[0]","mutagen_history":"[0]","location_rts":"[359]","trial_type":"fractal-mutation","trial_index":75,"time_elapsed":2072009,"internal_node_id":"0.0-5.0-21.0"},{"group":"hexagon_tri","fractal_assignment":["../images/blu_wht.png","../images/cyn_red.png","../images/ylw_slt.png","../images/gry_blk.png","../images/org_blu.png","../images/pnk_blu.png"],"mutagen_generator_assignment":[0,1],"goal":2,"start":3,"action_noise":0.15,"location_history":"[3,2]","action_history":"[0]","mutagen_history":"[0]","location_rts":"[423]","trial_type":"fractal-mutation","trial_index":76,"time_elapsed":2077052,"internal_node_id":"0.0-5.0-22.0"},{"group":"hexagon_tri","fractal_assignment":["../images/blu_wht.png","../images/cyn_red.png","../images/ylw_slt.png","../images/gry_blk.png","../images/org_blu.png","../images/pnk_blu.png"],"mutagen_generator_assignment":[0,1],"goal":0,"start":2,"action_noise":0.15,"location_history":"[2,1,5,4,0]","action_history":"[0,1,0,0]","mutagen_history":"[0,1,0,0]","location_rts":"[453,488,400,325]","trial_type":"fractal-mutation","trial_index":77,"time_elapsed":2086738,"internal_node_id":"0.0-5.0-23.0"},{"group":"hexagon_tri","fractal_assignment":["../images/blu_wht.png","../images/cyn_red.png","../images/ylw_slt.png","../images/gry_blk.png","../images/org_blu.png","../images/pnk_blu.png"],"mutagen_generator_assignment":[0,1],"goal":3,"start":0,"action_noise":0.15,"location_history":"[0,5,0,5,0,1,3]","action_history":"[0,1,1,1,1,0]","mutagen_history":"[0,1,1,1,1,0]","location_rts":"[387,754,1228,632,192,414]","trial_type":"fractal-mutation","trial_index":78,"time_elapsed":2100931,"internal_node_id":"0.0-5.0-24.0"},{"group":"hexagon_tri","fractal_assignment":["../images/blu_wht.png","../images/cyn_red.png","../images/ylw_slt.png","../images/gry_blk.png","../images/org_blu.png","../images/pnk_blu.png"],"mutagen_generator_assignment":[0,1],"goal":1,"start":3,"action_noise":0.15,"location_history":"[3,4,2,3,2,3,4,2,1]","action_history":"[1,1,1,0,1,1,1,0]","mutagen_history":"[1,1,1,0,1,1,1,0]","location_rts":"[593,422,399,321,984,242,378,683]","trial_type":"fractal-mutation","trial_index":79,"time_elapsed":2117865,"internal_node_id":"0.0-5.0-25.0"},{"group":"hexagon_tri","fractal_assignment":["../images/blu_wht.png","../images/cyn_red.png","../images/ylw_slt.png","../images/gry_blk.png","../images/org_blu.png","../images/pnk_blu.png"],"mutagen_generator_assignment":[0,1],"goal":2,"start":1,"action_noise":0.15,"location_history":"[1,5,4,2]","action_history":"[1,1,1]","mutagen_history":"[1,1,1]","location_rts":"[2795,376,898]","trial_type":"fractal-mutation","trial_index":80,"time_elapsed":2129026,"internal_node_id":"0.0-5.0-26.0"},{"group":"hexagon_tri","fractal_assignment":["../images/blu_wht.png","../images/cyn_red.png","../images/ylw_slt.png","../images/gry_blk.png","../images/org_blu.png","../images/pnk_blu.png"],"mutagen_generator_assignment":[0,1],"goal":5,"start":2,"action_noise":0.15,"location_history":"[2,1,5]","action_history":"[0,1]","mutagen_history":"[0,1]","location_rts":"[275,1439]","trial_type":"fractal-mutation","trial_index":81,"time_elapsed":2136585,"internal_node_id":"0.0-5.0-27.0"},{"group":"hexagon_tri","fractal_assignment":["../images/blu_wht.png","../images/cyn_red.png","../images/ylw_slt.png","../images/gry_blk.png","../images/org_blu.png","../images/pnk_blu.png"],"mutagen_generator_assignment":[0,1],"goal":4,"start":5,"action_noise":0.15,"location_history":"[5,0,1,3,4]","action_history":"[1,1,0,1]","mutagen_history":"[1,1,0,1]","location_rts":"[1700,3981,1078,1613]","trial_type":"fractal-mutation","trial_index":82,"time_elapsed":2153177,"internal_node_id":"0.0-5.0-28.0"},{"group":"hexagon_tri","fractal_assignment":["../images/blu_wht.png","../images/cyn_red.png","../images/ylw_slt.png","../images/gry_blk.png","../images/org_blu.png","../images/pnk_blu.png"],"mutagen_generator_assignment":[0,1],"goal":5,"start":4,"action_noise":0.15,"location_history":"[4,0,1,5]","action_history":"[1,1,1]","mutagen_history":"[1,1,1]","location_rts":"[1714,1714,1536]","trial_type":"fractal-mutation","trial_index":83,"time_elapsed":2165256,"internal_node_id":"0.0-5.0-29.0"},{"group":"hexagon_tri","fractal_assignment":["../images/blu_wht.png","../images/cyn_red.png","../images/ylw_slt.png","../images/gry_blk.png","../images/org_blu.png","../images/pnk_blu.png"],"mutagen_generator_assignment":[0,1],"goal":3,"start":5,"action_noise":0.15,"location_history":"[5,4,2,3]","action_history":"[0,1,1]","mutagen_history":"[0,1,1]","location_rts":"[5084,8710,1203]","trial_type":"fractal-mutation","trial_index":84,"time_elapsed":2187279,"internal_node_id":"0.0-5.0-30.0"},{"group":"hexagon_tri","fractal_assignment":["../images/blu_wht.png","../images/cyn_red.png","../images/ylw_slt.png","../images/gry_blk.png","../images/org_blu.png","../images/pnk_blu.png"],"mutagen_generator_assignment":[0,1],"goal":0,"start":3,"action_noise":0.15,"location_history":"[3,2,1,5,4,2,1,3,2,3,4,2,1,5,0]","action_history":"[0,0,1,1,1,0,0,0,1,1,1,1,1,1]","mutagen_history":"[0,0,1,1,1,0,0,0,1,1,1,1,1,1]","location_rts":"[921,1535,2198,1065,1449,924,3503,986,3433,1954,1571,3332,3058,2001]","trial_type":"fractal-mutation","trial_index":85,"time_elapsed":2235077,"internal_node_id":"0.0-5.0-31.0"},{"group":"hexagon_tri","fractal_assignment":["../images/blu_wht.png","../images/cyn_red.png","../images/ylw_slt.png","../images/gry_blk.png","../images/org_blu.png","../images/pnk_blu.png"],"mutagen_generator_assignment":[0,1],"goal":4,"start":0,"action_noise":0.15,"location_history":"[0,5,4]","action_history":"[0,0]","mutagen_history":"[0,0]","location_rts":"[3037,1441]","trial_type":"fractal-mutation","trial_index":86,"time_elapsed":2245362,"internal_node_id":"0.0-5.0-32.0"},{"group":"hexagon_tri","fractal_assignment":["../images/blu_wht.png","../images/cyn_red.png","../images/ylw_slt.png","../images/gry_blk.png","../images/org_blu.png","../images/pnk_blu.png"],"mutagen_generator_assignment":[0,1],"goal":1,"start":4,"action_noise":0.15,"location_history":"[4,2,3,4,2,3,2,3,4,2,3,2,3,2,1]","action_history":"[1,1,1,1,0,0,1,0,1,1,1,1,0,1]","mutagen_history":"[1,1,1,1,0,0,1,0,1,1,1,1,0,1]","location_rts":"[1255,2981,1705,1287,931,1785,430,1031,557,328,366,360,573,305]","trial_type":"fractal-mutation","trial_index":87,"time_elapsed":2279256,"internal_node_id":"0.0-5.0-33.0"},{"group":"hexagon_tri","fractal_assignment":["../images/blu_wht.png","../images/cyn_red.png","../images/ylw_slt.png","../images/gry_blk.png","../images/org_blu.png","../images/pnk_blu.png"],"mutagen_generator_assignment":[0,1],"goal":2,"start":1,"action_noise":0.15,"location_history":"[1,3,4,2]","action_history":"[1,1,1]","mutagen_history":"[1,1,1]","location_rts":"[1670,333,366]","trial_type":"fractal-mutation","trial_index":88,"time_elapsed":2288775,"internal_node_id":"0.0-5.0-34.0"},{"group":"hexagon_tri","fractal_assignment":["../images/blu_wht.png","../images/cyn_red.png","../images/ylw_slt.png","../images/gry_blk.png","../images/org_blu.png","../images/pnk_blu.png"],"mutagen_generator_assignment":[0,1],"goal":0,"start":2,"action_noise":0.15,"location_history":"[2,1,5,0]","action_history":"[1,1,1]","mutagen_history":"[1,1,1]","location_rts":"[537,351,486]","trial_type":"fractal-mutation","trial_index":89,"time_elapsed":2297244,"internal_node_id":"0.0-5.0-35.0"},{"group":"hexagon_tri","fractal_assignment":["../images/blu_wht.png","../images/cyn_red.png","../images/ylw_slt.png","../images/gry_blk.png","../images/org_blu.png","../images/pnk_blu.png"],"mutagen_generator_assignment":[0,1],"goal":5,"start":0,"action_noise":0.15,"location_history":"[0,5]","action_history":"[0]","mutagen_history":"[0]","location_rts":"[405]","trial_type":"fractal-mutation","trial_index":90,"time_elapsed":2302287,"internal_node_id":"0.0-5.0-36.0"},{"group":"hexagon_tri","fractal_assignment":["../images/blu_wht.png","../images/cyn_red.png","../images/ylw_slt.png","../images/gry_blk.png","../images/org_blu.png","../images/pnk_blu.png"],"mutagen_generator_assignment":[0,1],"goal":2,"start":5,"action_noise":0.15,"location_history":"[5,4,0,5,0,5,0,5,0,5,0,1,5,0,1,3,4,2]","action_history":"[0,0,1,1,1,1,0,1,0,1,1,0,1,1,0,1,1]","mutagen_history":"[0,0,1,1,1,1,0,1,0,1,1,0,1,1,0,1,1]","location_rts":"[590,397,431,377,523,760,399,979,445,4574,486,1316,360,470,373,548,341]","trial_type":"fractal-mutation","trial_index":91,"time_elapsed":2338937,"internal_node_id":"0.0-5.0-37.0"},{"group":"hexagon_tri","fractal_assignment":["../images/blu_wht.png","../images/cyn_red.png","../images/ylw_slt.png","../images/gry_blk.png","../images/org_blu.png","../images/pnk_blu.png"],"mutagen_generator_assignment":[0,1],"goal":1,"start":2,"action_noise":0.15,"location_history":"[2,3,4,2,3,2,1]","action_history":"[1,1,1,1,0,1]","mutagen_history":"[1,1,1,1,0,1]","location_rts":"[1608,1190,398,564,561,2319]","trial_type":"fractal-mutation","trial_index":92,"time_elapsed":2356202,"internal_node_id":"0.0-5.0-38.0"},{"group":"hexagon_tri","fractal_assignment":["../images/blu_wht.png","../images/cyn_red.png","../images/ylw_slt.png","../images/gry_blk.png","../images/org_blu.png","../images/pnk_blu.png"],"mutagen_generator_assignment":[0,1],"goal":4,"start":1,"action_noise":0.15,"location_history":"[1,5,0,5,4]","action_history":"[1,1,0,0]","mutagen_history":"[1,1,0,0]","location_rts":"[4329,480,379,494]","trial_type":"fractal-mutation","trial_index":93,"time_elapsed":2370035,"internal_node_id":"0.0-5.0-39.0"},{"group":"hexagon_tri","fractal_assignment":["../images/blu_wht.png","../images/cyn_red.png","../images/ylw_slt.png","../images/gry_blk.png","../images/org_blu.png","../images/pnk_blu.png"],"mutagen_generator_assignment":[0,1],"goal":3,"start":4,"action_noise":0.15,"location_history":"[4,2,3]","action_history":"[1,1]","mutagen_history":"[1,1]","location_rts":"[552,466]","trial_type":"fractal-mutation","trial_index":94,"time_elapsed":2376954,"internal_node_id":"0.0-5.0-40.0"},{"group":"hexagon_tri","fractal_assignment":["../images/blu_wht.png","../images/cyn_red.png","../images/ylw_slt.png","../images/gry_blk.png","../images/org_blu.png","../images/pnk_blu.png"],"mutagen_generator_assignment":[0,1],"goal":5,"start":3,"action_noise":0.15,"location_history":"[3,2,1,5]","action_history":"[1,1,1]","mutagen_history":"[1,1,1]","location_rts":"[629,1401,582]","trial_type":"fractal-mutation","trial_index":95,"time_elapsed":2386652,"internal_node_id":"0.0-5.0-41.0"},{"group":"hexagon_tri","fractal_assignment":["../images/blu_wht.png","../images/cyn_red.png","../images/ylw_slt.png","../images/gry_blk.png","../images/org_blu.png","../images/pnk_blu.png"],"mutagen_generator_assignment":[0,1],"goal":3,"start":5,"action_noise":0.15,"location_history":"[5,4,2,3]","action_history":"[0,1,1]","mutagen_history":"[0,1,1]","location_rts":"[570,755,509]","trial_type":"fractal-mutation","trial_index":96,"time_elapsed":2395581,"internal_node_id":"0.0-5.0-42.0"},{"group":"hexagon_tri","fractal_assignment":["../images/blu_wht.png","../images/cyn_red.png","../images/ylw_slt.png","../images/gry_blk.png","../images/org_blu.png","../images/pnk_blu.png"],"mutagen_generator_assignment":[0,1],"goal":0,"start":3,"action_noise":0.15,"location_history":"[3,4,2,1,3,4,0]","action_history":"[1,1,0,0,1,0]","mutagen_history":"[1,1,0,0,1,0]","location_rts":"[932,621,405,760,464,945]","trial_type":"fractal-mutation","trial_index":97,"time_elapsed":2410165,"internal_node_id":"0.0-5.0-43.0"},{"group":"hexagon_tri","fractal_assignment":["../images/blu_wht.png","../images/cyn_red.png","../images/ylw_slt.png","../images/gry_blk.png","../images/org_blu.png","../images/pnk_blu.png"],"mutagen_generator_assignment":[0,1],"goal":2,"start":0,"action_noise":0.15,"location_history":"[0,1,5,0,5,4,2]","action_history":"[1,1,1,0,0,1]","mutagen_history":"[1,1,1,0,0,1]","location_rts":"[435,1829,377,405,652,942]","trial_type":"fractal-mutation","trial_index":98,"time_elapsed":2425363,"internal_node_id":"0.0-5.0-44.0"},{"group":"hexagon_tri","fractal_assignment":["../images/blu_wht.png","../images/cyn_red.png","../images/ylw_slt.png","../images/gry_blk.png","../images/org_blu.png","../images/pnk_blu.png"],"mutagen_generator_assignment":[0,1],"goal":4,"start":2,"action_noise":0.15,"location_history":"[2,3,4]","action_history":"[1,1]","mutagen_history":"[1,1]","location_rts":"[1220,1099]","trial_type":"fractal-mutation","trial_index":99,"time_elapsed":2433591,"internal_node_id":"0.0-5.0-45.0"},{"group":"hexagon_tri","fractal_assignment":["../images/blu_wht.png","../images/cyn_red.png","../images/ylw_slt.png","../images/gry_blk.png","../images/org_blu.png","../images/pnk_blu.png"],"mutagen_generator_assignment":[0,1],"goal":1,"start":4,"action_noise":0.15,"location_history":"[4,0,1]","action_history":"[1,1]","mutagen_history":"[1,1]","location_rts":"[840,2332]","trial_type":"fractal-mutation","trial_index":100,"time_elapsed":2442674,"internal_node_id":"0.0-5.0-46.0"},{"group":"hexagon_tri","fractal_assignment":["../images/blu_wht.png","../images/cyn_red.png","../images/ylw_slt.png","../images/gry_blk.png","../images/org_blu.png","../images/pnk_blu.png"],"mutagen_generator_assignment":[0,1],"goal":4,"start":1,"action_noise":0.15,"location_history":"[1,5,0,1,3,2,3,4]","action_history":"[1,1,1,0,0,1,1]","mutagen_history":"[1,1,1,0,0,1,1]","location_rts":"[431,1681,378,345,355,376,579]","trial_type":"fractal-mutation","trial_index":101,"time_elapsed":2458524,"internal_node_id":"0.0-5.0-47.0"},{"group":"hexagon_tri","fractal_assignment":["../images/blu_wht.png","../images/cyn_red.png","../images/ylw_slt.png","../images/gry_blk.png","../images/org_blu.png","../images/pnk_blu.png"],"mutagen_generator_assignment":[0,1],"goal":3,"start":4,"action_noise":0.15,"location_history":"[4,0,1,5,4,2,3]","action_history":"[0,1,1,0,1,1]","mutagen_history":"[0,1,1,0,1,1]","location_rts":"[330,1472,616,417,1062,308]","trial_type":"fractal-mutation","trial_index":102,"time_elapsed":2473271,"internal_node_id":"0.0-5.0-48.0"},{"group":"hexagon_tri","fractal_assignment":["../images/blu_wht.png","../images/cyn_red.png","../images/ylw_slt.png","../images/gry_blk.png","../images/org_blu.png","../images/pnk_blu.png"],"mutagen_generator_assignment":[0,1],"goal":5,"start":3,"action_noise":0.15,"location_history":"[3,4,2,1,3,2,3,4,2,3,4,2,1,3,4,0,5]","action_history":"[1,1,0,0,0,1,1,1,0,1,1,1,0,1,0,0]","mutagen_history":"[1,1,0,0,0,1,1,1,0,1,1,1,0,1,0,0]","location_rts":"[517,1224,699,1060,433,451,2452,1307,3312,2643,1944,1189,3541,3033,426,949]","trial_type":"fractal-mutation","trial_index":103,"time_elapsed":2520483,"internal_node_id":"0.0-5.0-49.0"},{"view_history":"[{\"page_index\":0,\"viewing_time\":13640}]","rt":13640,"trial_type":"instructions","trial_index":104,"time_elapsed":2535123,"internal_node_id":"0.0-6.0"},{"rt":15233,"responses":"{\"Q0\":\"Interesting study, difficult to get a pattern going!\"}","trial_type":"survey-text","trial_index":105,"time_elapsed":2551367,"internal_node_id":"0.0-7.0"}]