[{"view_history":"[{\"page_index\":0,\"viewing_time\":11159},{\"page_index\":1,\"viewing_time\":48682},{\"page_index\":2,\"viewing_time\":18539},{\"page_index\":3,\"viewing_time\":8479}]","rt":86861,"trial_type":"instructions","trial_index":0,"time_elapsed":86862,"internal_node_id":"0.0-0.0"},{"view_history":"[{\"page_index\":0,\"viewing_time\":2707},{\"page_index\":1,\"viewing_time\":50337}]","rt":53045,"trial_type":"instructions","trial_index":1,"time_elapsed":140909,"internal_node_id":"0.0-1.0"},{"group":"hexagon_bi","room_assignment":["green","purple","red","grey","yellow","blue"],"door_color_assignment":["white","black"],"door_generator_assignment":[0,1],"goal":4,"start":0,"action_noise":0.15,"location_history":"[0,1,0,5,0,5,4]","action_history":"[1,1,0,0,0,1]","door_history":"[1,1,0,0,0,1]","location_rts":"[2718,4127,1597,2648,876,1170]","trial_type":"two-door-navigation","trial_index":2,"time_elapsed":163694,"internal_node_id":"0.0-2.0-0.0"},{"group":"hexagon_bi","room_assignment":["green","purple","red","grey","yellow","blue"],"door_color_assignment":["white","black"],"door_generator_assignment":[0,1],"goal":3,"start":4,"action_noise":0.15,"location_history":"[4,3]","action_history":"[0]","door_history":"[0]","location_rts":"[1939]","trial_type":"two-door-navigation","trial_index":3,"time_elapsed":170158,"internal_node_id":"0.0-2.0-1.0"},{"group":"hexagon_bi","room_assignment":["green","purple","red","grey","yellow","blue"],"door_color_assignment":["white","black"],"door_generator_assignment":[0,1],"goal":5,"start":3,"action_noise":0.15,"location_history":"[3,2,3,2,1,2,3,4,5]","action_history":"[1,1,1,0,0,1,0,1]","door_history":"[1,1,1,0,0,1,0,1]","location_rts":"[1793,1379,624,626,1051,721,835,1442]","trial_type":"two-door-navigation","trial_index":4,"time_elapsed":190311,"internal_node_id":"0.0-2.0-2.0"},{"group":"hexagon_bi","room_assignment":["green","purple","red","grey","yellow","blue"],"door_color_assignment":["white","black"],"door_generator_assignment":[0,1],"goal":2,"start":5,"action_noise":0.15,"location_history":"[5,0,1,0,5,4,3,4,3,2]","action_history":"[0,1,0,0,1,0,0,0,1]","door_history":"[0,1,0,0,1,0,0,0,1]","location_rts":"[1195,1010,699,547,1083,1035,664,607,539]","trial_type":"two-door-navigation","trial_index":5,"time_elapsed":210390,"internal_node_id":"0.0-2.0-3.0"},{"group":"hexagon_bi","room_assignment":["green","purple","red","grey","yellow","blue"],"door_color_assignment":["white","black"],"door_generator_assignment":[0,1],"goal":1,"start":2,"action_noise":0.15,"location_history":"[2,1]","action_history":"[0]","door_history":"[0]","location_rts":"[1299]","trial_type":"two-door-navigation","trial_index":6,"time_elapsed":216217,"internal_node_id":"0.0-2.0-4.0"},{"group":"hexagon_bi","room_assignment":["green","purple","red","grey","yellow","blue"],"door_color_assignment":["white","black"],"door_generator_assignment":[0,1],"goal":4,"start":1,"action_noise":0.15,"location_history":"[1,2,3,4]","action_history":"[1,1,0]","door_history":"[1,1,0]","location_rts":"[1480,635,1123]","trial_type":"two-door-navigation","trial_index":7,"time_elapsed":226021,"internal_node_id":"0.0-2.0-5.0"},{"group":"hexagon_bi","room_assignment":["green","purple","red","grey","yellow","blue"],"door_color_assignment":["white","black"],"door_generator_assignment":[0,1],"goal":1,"start":4,"action_noise":0.15,"location_history":"[4,5,0,1]","action_history":"[1,1,0]","door_history":"[1,1,0]","location_rts":"[1507,292,233]","trial_type":"two-door-navigation","trial_index":8,"time_elapsed":234619,"internal_node_id":"0.0-2.0-6.0"},{"group":"hexagon_bi","room_assignment":["green","purple","red","grey","yellow","blue"],"door_color_assignment":["white","black"],"door_generator_assignment":[0,1],"goal":5,"start":1,"action_noise":0.15,"location_history":"[1,2,1,0,5]","action_history":"[0,0,1,1]","door_history":"[0,0,1,1]","location_rts":"[579,339,295,324]","trial_type":"two-door-navigation","trial_index":9,"time_elapsed":243748,"internal_node_id":"0.0-2.0-7.0"},{"group":"hexagon_bi","room_assignment":["green","purple","red","grey","yellow","blue"],"door_color_assignment":["white","black"],"door_generator_assignment":[0,1],"goal":0,"start":5,"action_noise":0.15,"location_history":"[5,4,3,4,3,2,1,0]","action_history":"[0,0,0,1,1,0,1]","door_history":"[0,0,0,1,1,0,1]","location_rts":"[714,427,227,1200,385,364,491]","trial_type":"two-door-navigation","trial_index":10,"time_elapsed":258207,"internal_node_id":"0.0-2.0-8.0"},{"group":"hexagon_bi","room_assignment":["green","purple","red","grey","yellow","blue"],"door_color_assignment":["white","black"],"door_generator_assignment":[0,1],"goal":2,"start":0,"action_noise":0.15,"location_history":"[0,1,2]","action_history":"[1,0]","door_history":"[1,0]","location_rts":"[865,404]","trial_type":"two-door-navigation","trial_index":11,"time_elapsed":265021,"internal_node_id":"0.0-2.0-9.0"},{"group":"hexagon_bi","room_assignment":["green","purple","red","grey","yellow","blue"],"door_color_assignment":["white","black"],"door_generator_assignment":[0,1],"goal":3,"start":2,"action_noise":0.15,"location_history":"[2,3]","action_history":"[1]","door_history":"[1]","location_rts":"[435]","trial_type":"two-door-navigation","trial_index":12,"time_elapsed":269981,"internal_node_id":"0.0-2.0-10.0"},{"group":"hexagon_bi","room_assignment":["green","purple","red","grey","yellow","blue"],"door_color_assignment":["white","black"],"door_generator_assignment":[0,1],"goal":0,"start":3,"action_noise":0.15,"location_history":"[3,2,1,0]","action_history":"[0,1,1]","door_history":"[0,1,1]","location_rts":"[467,395,605]","trial_type":"two-door-navigation","trial_index":13,"time_elapsed":278015,"internal_node_id":"0.0-2.0-11.0"},{"group":"hexagon_bi","room_assignment":["green","purple","red","grey","yellow","blue"],"door_color_assignment":["white","black"],"door_generator_assignment":[0,1],"goal":2,"start":0,"action_noise":0.15,"location_history":"[0,5,4,5,0,1,0,5,0,1,2]","action_history":"[0,0,1,0,1,1,0,0,1,0]","door_history":"[0,0,1,0,1,1,0,0,1,0]","location_rts":"[354,371,306,379,507,252,659,746,430,803]","trial_type":"two-door-navigation","trial_index":14,"time_elapsed":296532,"internal_node_id":"0.0-2.0-12.0"},{"group":"hexagon_bi","room_assignment":["green","purple","red","grey","yellow","blue"],"door_color_assignment":["white","black"],"door_generator_assignment":[0,1],"goal":5,"start":2,"action_noise":0.15,"location_history":"[2,3,4,5]","action_history":"[0,0,1]","door_history":"[0,0,1]","location_rts":"[1041,642,508]","trial_type":"two-door-navigation","trial_index":15,"time_elapsed":305291,"internal_node_id":"0.0-2.0-13.0"},{"group":"hexagon_bi","room_assignment":["green","purple","red","grey","yellow","blue"],"door_color_assignment":["white","black"],"door_generator_assignment":[0,1],"goal":4,"start":5,"action_noise":0.15,"location_history":"[5,0,5,4]","action_history":"[0,0,1]","door_history":"[0,0,1]","location_rts":"[579,740,759]","trial_type":"two-door-navigation","trial_index":16,"time_elapsed":313935,"internal_node_id":"0.0-2.0-14.0"},{"group":"hexagon_bi","room_assignment":["green","purple","red","grey","yellow","blue"],"door_color_assignment":["white","black"],"door_generator_assignment":[0,1],"goal":3,"start":4,"action_noise":0.15,"location_history":"[4,5,0,5,0,1,0,1,2,3]","action_history":"[1,0,0,0,1,1,1,0,1]","door_history":"[1,0,0,0,1,1,1,0,1]","location_rts":"[604,283,339,276,353,418,323,268,371]","trial_type":"two-door-navigation","trial_index":17,"time_elapsed":329862,"internal_node_id":"0.0-2.0-15.0"},{"group":"hexagon_bi","room_assignment":["green","purple","red","grey","yellow","blue"],"door_color_assignment":["white","black"],"door_generator_assignment":[0,1],"goal":1,"start":3,"action_noise":0.15,"location_history":"[3,4,3,2,3,4,5,4,5,0,5,0,5,0,1]","action_history":"[1,0,1,0,0,0,1,1,1,1,0,1,0,1]","door_history":"[1,0,1,0,0,0,1,1,1,1,0,1,0,1]","location_rts":"[827,651,561,339,267,300,266,275,324,331,284,284,483,435]","trial_type":"two-door-navigation","trial_index":18,"time_elapsed":353285,"internal_node_id":"0.0-2.0-16.0"},{"group":"hexagon_bi","room_assignment":["green","purple","red","grey","yellow","blue"],"door_color_assignment":["white","black"],"door_generator_assignment":[0,1],"goal":5,"start":1,"action_noise":0.15,"location_history":"[1,2,1,0,5]","action_history":"[0,0,1,0]","door_history":"[0,0,1,0]","location_rts":"[1508,467,354,739]","trial_type":"two-door-navigation","trial_index":19,"time_elapsed":363939,"internal_node_id":"0.0-2.0-17.0"},{"group":"hexagon_bi","room_assignment":["green","purple","red","grey","yellow","blue"],"door_color_assignment":["white","black"],"door_generator_assignment":[0,1],"goal":4,"start":5,"action_noise":0.15,"location_history":"[5,0,5,4]","action_history":"[1,0,1]","door_history":"[1,0,1]","location_rts":"[1027,482,420]","trial_type":"two-door-navigation","trial_index":20,"time_elapsed":372440,"internal_node_id":"0.0-2.0-18.0"},{"group":"hexagon_bi","room_assignment":["green","purple","red","grey","yellow","blue"],"door_color_assignment":["white","black"],"door_generator_assignment":[0,1],"goal":0,"start":4,"action_noise":0.15,"location_history":"[4,3,4,5,4,3,4,3,2,3,2,1,0]","action_history":"[0,0,1,1,0,0,0,1,1,1,0,1]","door_history":"[0,0,1,1,0,0,0,1,1,1,0,1]","location_rts":"[659,562,1083,354,771,254,305,268,282,282,292,315]","trial_type":"two-door-navigation","trial_index":21,"time_elapsed":393630,"internal_node_id":"0.0-2.0-19.0"},{"group":"hexagon_bi","room_assignment":["green","purple","red","grey","yellow","blue"],"door_color_assignment":["white","black"],"door_generator_assignment":[0,1],"goal":1,"start":0,"action_noise":0.15,"location_history":"[0,1]","action_history":"[1]","door_history":"[1]","location_rts":"[435]","trial_type":"two-door-navigation","trial_index":22,"time_elapsed":398588,"internal_node_id":"0.0-2.0-20.0"},{"group":"hexagon_bi","room_assignment":["green","purple","red","grey","yellow","blue"],"door_color_assignment":["white","black"],"door_generator_assignment":[0,1],"goal":3,"start":1,"action_noise":0.15,"location_history":"[1,0,1,2,3]","action_history":"[0,1,0,1]","door_history":"[0,1,0,1]","location_rts":"[413,307,268,293]","trial_type":"two-door-navigation","trial_index":23,"time_elapsed":407623,"internal_node_id":"0.0-2.0-21.0"},{"group":"hexagon_bi","room_assignment":["green","purple","red","grey","yellow","blue"],"door_color_assignment":["white","black"],"door_generator_assignment":[0,1],"goal":2,"start":3,"action_noise":0.15,"location_history":"[3,4,5,4,5,0,1,2]","action_history":"[0,0,1,1,0,0,0]","door_history":"[0,0,1,1,0,0,0]","location_rts":"[2896,354,746,292,277,643,284]","trial_type":"two-door-navigation","trial_index":24,"time_elapsed":424766,"internal_node_id":"0.0-2.0-22.0"},{"group":"hexagon_bi","room_assignment":["green","purple","red","grey","yellow","blue"],"door_color_assignment":["white","black"],"door_generator_assignment":[0,1],"goal":0,"start":2,"action_noise":0.15,"location_history":"[2,3,4,3,4,5,4,3,2,3,4,5,0]","action_history":"[1,0,0,0,1,1,0,1,1,0,1,0]","door_history":"[1,0,0,0,1,1,0,1,1,0,1,0]","location_rts":"[1144,346,524,316,292,418,323,355,371,260,322,253]","trial_type":"two-door-navigation","trial_index":25,"time_elapsed":445447,"internal_node_id":"0.0-2.0-23.0"},{"group":"hexagon_bi","room_assignment":["green","purple","red","grey","yellow","blue"],"door_color_assignment":["white","black"],"door_generator_assignment":[0,1],"goal":3,"start":0,"action_noise":0.15,"location_history":"[0,1,0,5,4,3]","action_history":"[0,1,0,1,0]","door_history":"[0,1,0,1,0]","location_rts":"[716,340,321,307,395]","trial_type":"two-door-navigation","trial_index":26,"time_elapsed":456133,"internal_node_id":"0.0-2.0-24.0"},{"group":"hexagon_bi","room_assignment":["green","purple","red","grey","yellow","blue"],"door_color_assignment":["white","black"],"door_generator_assignment":[0,1],"goal":1,"start":3,"action_noise":0.15,"location_history":"[3,2,1]","action_history":"[1,0]","door_history":"[1,0]","location_rts":"[644,301]","trial_type":"two-door-navigation","trial_index":27,"time_elapsed":462621,"internal_node_id":"0.0-2.0-25.0"},{"group":"hexagon_bi","room_assignment":["green","purple","red","grey","yellow","blue"],"door_color_assignment":["white","black"],"door_generator_assignment":[0,1],"goal":2,"start":1,"action_noise":0.15,"location_history":"[1,0,5,0,5,0,5,0,5,4,5,0,1,0,1,2]","action_history":"[1,0,1,0,1,0,0,1,1,1,1,1,1,1,0]","door_history":"[1,0,1,0,1,0,0,1,1,1,1,1,1,1,0]","location_rts":"[268,323,363,337,364,371,379,1611,242,242,347,346,403,322,203]","trial_type":"two-door-navigation","trial_index":28,"time_elapsed":487563,"internal_node_id":"0.0-2.0-26.0"},{"group":"hexagon_bi","room_assignment":["green","purple","red","grey","yellow","blue"],"door_color_assignment":["white","black"],"door_generator_assignment":[0,1],"goal":5,"start":2,"action_noise":0.15,"location_history":"[2,1,0,5]","action_history":"[0,1,0]","door_history":"[0,1,0]","location_rts":"[748,360,460]","trial_type":"two-door-navigation","trial_index":29,"time_elapsed":495695,"internal_node_id":"0.0-2.0-27.0"},{"group":"hexagon_bi","room_assignment":["green","purple","red","grey","yellow","blue"],"door_color_assignment":["white","black"],"door_generator_assignment":[0,1],"goal":4,"start":5,"action_noise":0.15,"location_history":"[5,0,1,2,1,0,5,4]","action_history":"[0,1,0,0,1,0,1]","door_history":"[0,1,0,0,1,0,1]","location_rts":"[627,412,429,356,268,522,676]","trial_type":"two-door-navigation","trial_index":30,"time_elapsed":509639,"internal_node_id":"0.0-2.0-28.0"},{"group":"hexagon_bi","room_assignment":["green","purple","red","grey","yellow","blue"],"door_color_assignment":["white","black"],"door_generator_assignment":[0,1],"goal":5,"start":4,"action_noise":0.15,"location_history":"[4,5]","action_history":"[1]","door_history":"[1]","location_rts":"[931]","trial_type":"two-door-navigation","trial_index":31,"time_elapsed":515094,"internal_node_id":"0.0-2.0-29.0"},{"group":"hexagon_bi","room_assignment":["green","purple","red","grey","yellow","blue"],"door_color_assignment":["white","black"],"door_generator_assignment":[0,1],"goal":3,"start":5,"action_noise":0.15,"location_history":"[5,0,1,2,1,2,1,2,1,2,3]","action_history":"[0,1,1,1,0,1,0,0,0,1]","door_history":"[0,1,1,1,0,1,0,0,0,1]","location_rts":"[867,1378,689,1266,546,1467,388,394,419,483]","trial_type":"two-door-navigation","trial_index":32,"time_elapsed":536708,"internal_node_id":"0.0-2.0-30.0"},{"group":"hexagon_bi","room_assignment":["green","purple","red","grey","yellow","blue"],"door_color_assignment":["white","black"],"door_generator_assignment":[0,1],"goal":0,"start":3,"action_noise":0.15,"location_history":"[3,2,3,2,3,4,3,2,1,2,3,2,1,2,1,0]","action_history":"[0,1,0,0,1,1,1,0,0,1,1,0,0,1,1]","door_history":"[0,1,0,0,1,1,1,0,0,1,1,0,0,1,1]","location_rts":"[980,1065,346,315,392,354,313,268,307,275,346,723,362,372,307]","trial_type":"two-door-navigation","trial_index":33,"time_elapsed":562279,"internal_node_id":"0.0-2.0-31.0"},{"group":"hexagon_bi","room_assignment":["green","purple","red","grey","yellow","blue"],"door_color_assignment":["white","black"],"door_generator_assignment":[0,1],"goal":4,"start":0,"action_noise":0.15,"location_history":"[0,5,0,1,0,1,0,5,4]","action_history":"[0,0,1,1,0,1,0,0]","door_history":"[0,0,1,1,0,1,0,0]","location_rts":"[1617,372,251,348,235,667,890,291]","trial_type":"two-door-navigation","trial_index":34,"time_elapsed":578645,"internal_node_id":"0.0-2.0-32.0"},{"group":"hexagon_bi","room_assignment":["green","purple","red","grey","yellow","blue"],"door_color_assignment":["white","black"],"door_generator_assignment":[0,1],"goal":1,"start":4,"action_noise":0.15,"location_history":"[4,3,2,1]","action_history":"[0,1,0]","door_history":"[0,1,0]","location_rts":"[804,210,76]","trial_type":"two-door-navigation","trial_index":35,"time_elapsed":586301,"internal_node_id":"0.0-2.0-33.0"},{"group":"hexagon_bi","room_assignment":["green","purple","red","grey","yellow","blue"],"door_color_assignment":["white","black"],"door_generator_assignment":[0,1],"goal":2,"start":1,"action_noise":0.15,"location_history":"[1,0,5,4,3,4,3,2]","action_history":"[1,0,1,0,0,0,1]","door_history":"[1,0,1,0,0,0,1]","location_rts":"[659,219,299,331,242,370,241]","trial_type":"two-door-navigation","trial_index":36,"time_elapsed":599316,"internal_node_id":"0.0-2.0-34.0"},{"group":"hexagon_bi","room_assignment":["green","purple","red","grey","yellow","blue"],"door_color_assignment":["white","black"],"door_generator_assignment":[0,1],"goal":0,"start":2,"action_noise":0.15,"location_history":"[2,3,2,3,4,5,4,5,4,3,4,3,2,1,0]","action_history":"[1,0,1,0,0,1,0,1,0,0,0,1,0,1]","door_history":"[1,0,1,0,0,1,0,1,0,0,0,1,0,1]","location_rts":"[546,299,355,339,192,906,340,328,244,843,419,51,306,420]","trial_type":"two-door-navigation","trial_index":37,"time_elapsed":622703,"internal_node_id":"0.0-2.0-35.0"},{"group":"hexagon_bi","room_assignment":["green","purple","red","grey","yellow","blue"],"door_color_assignment":["white","black"],"door_generator_assignment":[0,1],"goal":5,"start":0,"action_noise":0.15,"location_history":"[0,5]","action_history":"[0]","door_history":"[0]","location_rts":"[4323]","trial_type":"two-door-navigation","trial_index":38,"time_elapsed":631550,"internal_node_id":"0.0-2.0-36.0"},{"group":"hexagon_bi","room_assignment":["green","purple","red","grey","yellow","blue"],"door_color_assignment":["white","black"],"door_generator_assignment":[0,1],"goal":2,"start":5,"action_noise":0.15,"location_history":"[5,4,3,2]","action_history":"[1,0,1]","door_history":"[1,0,1]","location_rts":"[1163,83,315]","trial_type":"two-door-navigation","trial_index":39,"time_elapsed":639677,"internal_node_id":"0.0-2.0-37.0"},{"group":"hexagon_bi","room_assignment":["green","purple","red","grey","yellow","blue"],"door_color_assignment":["white","black"],"door_generator_assignment":[0,1],"goal":1,"start":2,"action_noise":0.15,"location_history":"[2,1]","action_history":"[0]","door_history":"[0]","location_rts":"[820]","trial_type":"two-door-navigation","trial_index":40,"time_elapsed":645022,"internal_node_id":"0.0-2.0-38.0"},{"group":"hexagon_bi","room_assignment":["green","purple","red","grey","yellow","blue"],"door_color_assignment":["white","black"],"door_generator_assignment":[0,1],"goal":4,"start":1,"action_noise":0.15,"location_history":"[1,2,3,4]","action_history":"[0,1,1]","door_history":"[0,1,1]","location_rts":"[499,345,307]","trial_type":"two-door-navigation","trial_index":41,"time_elapsed":652741,"internal_node_id":"0.0-2.0-39.0"},{"group":"hexagon_bi","room_assignment":["green","purple","red","grey","yellow","blue"],"door_color_assignment":["white","black"],"door_generator_assignment":[0,1],"goal":3,"start":4,"action_noise":0.15,"location_history":"[4,5,0,5,0,5,4,3]","action_history":"[1,0,0,1,0,1,0]","door_history":"[1,0,0,1,0,1,0]","location_rts":"[445,65,452,394,314,450,388]","trial_type":"two-door-navigation","trial_index":42,"time_elapsed":665908,"internal_node_id":"0.0-2.0-40.0"},{"group":"hexagon_bi","room_assignment":["green","purple","red","grey","yellow","blue"],"door_color_assignment":["white","black"],"door_generator_assignment":[0,1],"goal":5,"start":3,"action_noise":0.15,"location_history":"[3,4,5]","action_history":"[0,1]","door_history":"[0,1]","location_rts":"[563,234]","trial_type":"two-door-navigation","trial_index":43,"time_elapsed":672255,"internal_node_id":"0.0-2.0-41.0"},{"group":"hexagon_bi","room_assignment":["green","purple","red","grey","yellow","blue"],"door_color_assignment":["white","black"],"door_generator_assignment":[0,1],"goal":3,"start":5,"action_noise":0.15,"location_history":"[5,4,3]","action_history":"[1,1]","door_history":"[1,1]","location_rts":"[651,466]","trial_type":"two-door-navigation","trial_index":44,"time_elapsed":678918,"internal_node_id":"0.0-2.0-42.0"},{"group":"hexagon_bi","room_assignment":["green","purple","red","grey","yellow","blue"],"door_color_assignment":["white","black"],"door_generator_assignment":[0,1],"goal":0,"start":3,"action_noise":0.15,"location_history":"[3,4,3,2,3,4,3,2,1,2,1,0]","action_history":"[0,0,1,1,0,0,1,0,0,0,1]","door_history":"[0,0,1,1,0,0,1,0,0,0,1]","location_rts":"[1836,433,779,468,314,315,346,373,348,466,492]","trial_type":"two-door-navigation","trial_index":45,"time_elapsed":699820,"internal_node_id":"0.0-2.0-43.0"},{"group":"hexagon_bi","room_assignment":["green","purple","red","grey","yellow","blue"],"door_color_assignment":["white","black"],"door_generator_assignment":[0,1],"goal":2,"start":0,"action_noise":0.15,"location_history":"[0,5,0,1,0,5,4,5,4,3,4,5,0,1,2]","action_history":"[0,0,1,1,0,1,1,1,0,0,1,0,1,1]","door_history":"[0,0,1,1,0,1,1,1,0,0,1,0,1,1]","location_rts":"[1364,292,260,315,1099,629,651,1562,355,371,596,538,459,1132]","trial_type":"two-door-navigation","trial_index":46,"time_elapsed":727236,"internal_node_id":"0.0-2.0-44.0"},{"group":"hexagon_bi","room_assignment":["green","purple","red","grey","yellow","blue"],"door_color_assignment":["white","black"],"door_generator_assignment":[0,1],"goal":4,"start":2,"action_noise":0.15,"location_history":"[2,1,2,3,2,3,4]","action_history":"[0,0,1,1,1,0]","door_history":"[0,0,1,1,1,0]","location_rts":"[1171,583,475,379,955,339]","trial_type":"two-door-navigation","trial_index":47,"time_elapsed":740768,"internal_node_id":"0.0-2.0-45.0"},{"group":"hexagon_bi","room_assignment":["green","purple","red","grey","yellow","blue"],"door_color_assignment":["white","black"],"door_generator_assignment":[0,1],"goal":1,"start":4,"action_noise":0.15,"location_history":"[4,3,4,3,4,5,0,5,0,5,0,1]","action_history":"[0,0,1,0,1,1,1,0,0,1,0]","door_history":"[0,0,1,0,1,1,1,0,0,1,0]","location_rts":"[1178,1804,211,371,577,235,371,267,723,265,707]","trial_type":"two-door-navigation","trial_index":48,"time_elapsed":762212,"internal_node_id":"0.0-2.0-46.0"},{"group":"hexagon_bi","room_assignment":["green","purple","red","grey","yellow","blue"],"door_color_assignment":["white","black"],"door_generator_assignment":[0,1],"goal":4,"start":1,"action_noise":0.15,"location_history":"[1,2,1,2,1,0,5,4]","action_history":"[0,0,1,0,1,0,1]","door_history":"[0,0,1,0,1,0,1]","location_rts":"[595,603,284,714,307,858,753]","trial_type":"two-door-navigation","trial_index":49,"time_elapsed":776980,"internal_node_id":"0.0-2.0-47.0"},{"group":"hexagon_bi","room_assignment":["green","purple","red","grey","yellow","blue"],"door_color_assignment":["white","black"],"door_generator_assignment":[0,1],"goal":3,"start":4,"action_noise":0.15,"location_history":"[4,5,0,5,0,5,0,5,0,1,2,3]","action_history":"[1,0,1,0,0,0,1,0,1,0,1]","door_history":"[1,0,1,0,0,0,1,0,1,0,1]","location_rts":"[3771,601,1084,540,242,330,247,723,804,330,372]","trial_type":"two-door-navigation","trial_index":50,"time_elapsed":800758,"internal_node_id":"0.0-2.0-48.0"},{"group":"hexagon_bi","room_assignment":["green","purple","red","grey","yellow","blue"],"door_color_assignment":["white","black"],"door_generator_assignment":[0,1],"goal":5,"start":3,"action_noise":0.15,"location_history":"[3,2,1,2,1,0,5]","action_history":"[1,0,0,0,1,0]","door_history":"[1,0,0,0,1,0]","location_rts":"[491,324,458,490,259,474]","trial_type":"two-door-navigation","trial_index":51,"time_elapsed":812886,"internal_node_id":"0.0-2.0-49.0"},{"view_history":"[{\"page_index\":0,\"viewing_time\":3917}]","rt":3917,"trial_type":"instructions","trial_index":52,"time_elapsed":817803,"internal_node_id":"0.0-3.0"},{"view_history":"[{\"page_index\":0,\"viewing_time\":2614},{\"page_index\":1,\"viewing_time\":221337}]","rt":223953,"trial_type":"instructions","trial_index":53,"time_elapsed":1042757,"internal_node_id":"0.0-4.0"},{"group":"hexagon_tri","fractal_assignment":["../images/org_blu.png","../images/cyn_red.png","../images/pnk_blu.png","../images/blu_wht.png","../images/gry_blk.png","../images/ylw_slt.png"],"mutagen_generator_assignment":[1,0],"goal":4,"start":0,"action_noise":0.15,"location_history":"[0,1,3,4]","action_history":"[1,0,0]","mutagen_history":"[0,1,1]","location_rts":"[13541,4391,4321]","trial_type":"fractal-mutation","trial_index":54,"time_elapsed":1071655,"internal_node_id":"0.0-5.0-0.0"},{"group":"hexagon_tri","fractal_assignment":["../images/org_blu.png","../images/cyn_red.png","../images/pnk_blu.png","../images/blu_wht.png","../images/gry_blk.png","../images/ylw_slt.png"],"mutagen_generator_assignment":[1,0],"goal":3,"start":4,"action_noise":0.15,"location_history":"[4,0,1,5,4,0,5,0,1,5,4,2,3]","action_history":"[0,1,1,0,0,0,1,1,1,0,1,1]","mutagen_history":"[1,0,0,1,1,1,0,0,0,1,0,0]","location_rts":"[2509,760,1057,844,1014,925,626,637,817,428,431,551]","trial_type":"fractal-mutation","trial_index":55,"time_elapsed":1098252,"internal_node_id":"0.0-5.0-1.0"},{"group":"hexagon_tri","fractal_assignment":["../images/org_blu.png","../images/cyn_red.png","../images/pnk_blu.png","../images/blu_wht.png","../images/gry_blk.png","../images/ylw_slt.png"],"mutagen_generator_assignment":[1,0],"goal":5,"start":3,"action_noise":0.15,"location_history":"[3,2,1,5]","action_history":"[1,0,1]","mutagen_history":"[0,1,0]","location_rts":"[1630,1265,622]","trial_type":"fractal-mutation","trial_index":56,"time_elapsed":1108376,"internal_node_id":"0.0-5.0-2.0"},{"group":"hexagon_tri","fractal_assignment":["../images/org_blu.png","../images/cyn_red.png","../images/pnk_blu.png","../images/blu_wht.png","../images/gry_blk.png","../images/ylw_slt.png"],"mutagen_generator_assignment":[1,0],"goal":2,"start":5,"action_noise":0.15,"location_history":"[5,4,0,1,5,4,0,5,4,2]","action_history":"[0,0,1,1,0,0,1,0,1]","mutagen_history":"[1,1,0,0,1,1,0,1,0]","location_rts":"[959,619,462,572,444,652,492,781,367]","trial_type":"fractal-mutation","trial_index":57,"time_elapsed":1126553,"internal_node_id":"0.0-5.0-3.0"},{"group":"hexagon_tri","fractal_assignment":["../images/org_blu.png","../images/cyn_red.png","../images/pnk_blu.png","../images/blu_wht.png","../images/gry_blk.png","../images/ylw_slt.png"],"mutagen_generator_assignment":[1,0],"goal":1,"start":2,"action_noise":0.15,"location_history":"[2,1]","action_history":"[0]","mutagen_history":"[1]","location_rts":"[797]","trial_type":"fractal-mutation","trial_index":58,"time_elapsed":1131891,"internal_node_id":"0.0-5.0-4.0"},{"group":"hexagon_tri","fractal_assignment":["../images/org_blu.png","../images/cyn_red.png","../images/pnk_blu.png","../images/blu_wht.png","../images/gry_blk.png","../images/ylw_slt.png"],"mutagen_generator_assignment":[1,0],"goal":4,"start":1,"action_noise":0.15,"location_history":"[1,3,4]","action_history":"[0,1]","mutagen_history":"[1,0]","location_rts":"[660,403]","trial_type":"fractal-mutation","trial_index":59,"time_elapsed":1138523,"internal_node_id":"0.0-5.0-5.0"},{"group":"hexagon_tri","fractal_assignment":["../images/org_blu.png","../images/cyn_red.png","../images/pnk_blu.png","../images/blu_wht.png","../images/gry_blk.png","../images/ylw_slt.png"],"mutagen_generator_assignment":[1,0],"goal":1,"start":4,"action_noise":0.15,"location_history":"[4,0,5,4,2,1]","action_history":"[0,0,0,1,0]","mutagen_history":"[1,1,1,0,1]","location_rts":"[475,587,396,299,731]","trial_type":"fractal-mutation","trial_index":60,"time_elapsed":1149721,"internal_node_id":"0.0-5.0-6.0"},{"group":"hexagon_tri","fractal_assignment":["../images/org_blu.png","../images/cyn_red.png","../images/pnk_blu.png","../images/blu_wht.png","../images/gry_blk.png","../images/ylw_slt.png"],"mutagen_generator_assignment":[1,0],"goal":5,"start":1,"action_noise":0.15,"location_history":"[1,3,2,3,2,3,4,0,5]","action_history":"[0,0,1,0,1,1,1,0]","mutagen_history":"[1,1,0,1,0,0,0,1]","location_rts":"[621,501,391,347,444,59,550,606]","trial_type":"fractal-mutation","trial_index":61,"time_elapsed":1165038,"internal_node_id":"0.0-5.0-7.0"},{"group":"hexagon_tri","fractal_assignment":["../images/org_blu.png","../images/cyn_red.png","../images/pnk_blu.png","../images/blu_wht.png","../images/gry_blk.png","../images/ylw_slt.png"],"mutagen_generator_assignment":[1,0],"goal":0,"start":5,"action_noise":0.15,"location_history":"[5,0]","action_history":"[0]","mutagen_history":"[1]","location_rts":"[300]","trial_type":"fractal-mutation","trial_index":62,"time_elapsed":1169886,"internal_node_id":"0.0-5.0-8.0"},{"group":"hexagon_tri","fractal_assignment":["../images/org_blu.png","../images/cyn_red.png","../images/pnk_blu.png","../images/blu_wht.png","../images/gry_blk.png","../images/ylw_slt.png"],"mutagen_generator_assignment":[1,0],"goal":2,"start":0,"action_noise":0.15,"location_history":"[0,5,0,5,4,2]","action_history":"[0,0,1,1,0]","mutagen_history":"[1,1,0,0,1]","location_rts":"[250,330,442,470,199]","trial_type":"fractal-mutation","trial_index":63,"time_elapsed":1180286,"internal_node_id":"0.0-5.0-9.0"},{"group":"hexagon_tri","fractal_assignment":["../images/org_blu.png","../images/cyn_red.png","../images/pnk_blu.png","../images/blu_wht.png","../images/gry_blk.png","../images/ylw_slt.png"],"mutagen_generator_assignment":[1,0],"goal":3,"start":2,"action_noise":0.15,"location_history":"[2,1,3]","action_history":"[0,0]","mutagen_history":"[1,1]","location_rts":"[424,413]","trial_type":"fractal-mutation","trial_index":64,"time_elapsed":1186700,"internal_node_id":"0.0-5.0-10.0"},{"group":"hexagon_tri","fractal_assignment":["../images/org_blu.png","../images/cyn_red.png","../images/pnk_blu.png","../images/blu_wht.png","../images/gry_blk.png","../images/ylw_slt.png"],"mutagen_generator_assignment":[1,0],"goal":0,"start":3,"action_noise":0.15,"location_history":"[3,4,0]","action_history":"[1,1]","mutagen_history":"[0,0]","location_rts":"[651,699]","trial_type":"fractal-mutation","trial_index":65,"time_elapsed":1193622,"internal_node_id":"0.0-5.0-11.0"},{"group":"hexagon_tri","fractal_assignment":["../images/org_blu.png","../images/cyn_red.png","../images/pnk_blu.png","../images/blu_wht.png","../images/gry_blk.png","../images/ylw_slt.png"],"mutagen_generator_assignment":[1,0],"goal":2,"start":0,"action_noise":0.15,"location_history":"[0,5,4,2]","action_history":"[0,1,1]","mutagen_history":"[1,0,0]","location_rts":"[1408,1354,604]","trial_type":"fractal-mutation","trial_index":66,"time_elapsed":1203607,"internal_node_id":"0.0-5.0-12.0"},{"group":"hexagon_tri","fractal_assignment":["../images/org_blu.png","../images/cyn_red.png","../images/pnk_blu.png","../images/blu_wht.png","../images/gry_blk.png","../images/ylw_slt.png"],"mutagen_generator_assignment":[1,0],"goal":5,"start":2,"action_noise":0.15,"location_history":"[2,1,3,4,2,1,5]","action_history":"[0,0,1,1,0,1]","mutagen_history":"[1,1,0,0,1,0]","location_rts":"[526,377,104,543,399,713]","trial_type":"fractal-mutation","trial_index":67,"time_elapsed":1215981,"internal_node_id":"0.0-5.0-13.0"},{"group":"hexagon_tri","fractal_assignment":["../images/org_blu.png","../images/cyn_red.png","../images/pnk_blu.png","../images/blu_wht.png","../images/gry_blk.png","../images/ylw_slt.png"],"mutagen_generator_assignment":[1,0],"goal":4,"start":5,"action_noise":0.15,"location_history":"[5,4]","action_history":"[0]","mutagen_history":"[1]","location_rts":"[476]","trial_type":"fractal-mutation","trial_index":68,"time_elapsed":1220993,"internal_node_id":"0.0-5.0-14.0"},{"group":"hexagon_tri","fractal_assignment":["../images/org_blu.png","../images/cyn_red.png","../images/pnk_blu.png","../images/blu_wht.png","../images/gry_blk.png","../images/ylw_slt.png"],"mutagen_generator_assignment":[1,0],"goal":3,"start":4,"action_noise":0.15,"location_history":"[4,0,5,0,5,4,0,1,3]","action_history":"[0,1,1,0,0,0,1,1]","mutagen_history":"[1,0,0,1,1,1,0,0]","location_rts":"[649,1407,950,635,506,515,383,664]","trial_type":"fractal-mutation","trial_index":69,"time_elapsed":1238492,"internal_node_id":"0.0-5.0-15.0"},{"group":"hexagon_tri","fractal_assignment":["../images/org_blu.png","../images/cyn_red.png","../images/pnk_blu.png","../images/blu_wht.png","../images/gry_blk.png","../images/ylw_slt.png"],"mutagen_generator_assignment":[1,0],"goal":1,"start":3,"action_noise":0.15,"location_history":"[3,2,1]","action_history":"[0,0]","mutagen_history":"[1,1]","location_rts":"[636,660]","trial_type":"fractal-mutation","trial_index":70,"time_elapsed":1245370,"internal_node_id":"0.0-5.0-16.0"},{"group":"hexagon_tri","fractal_assignment":["../images/org_blu.png","../images/cyn_red.png","../images/pnk_blu.png","../images/blu_wht.png","../images/gry_blk.png","../images/ylw_slt.png"],"mutagen_generator_assignment":[1,0],"goal":5,"start":1,"action_noise":0.15,"location_history":"[1,3,2,3,2,1,5]","action_history":"[0,0,1,0,0,1]","mutagen_history":"[1,1,0,1,1,0]","location_rts":"[557,753,506,618,607,795]","trial_type":"fractal-mutation","trial_index":71,"time_elapsed":1258927,"internal_node_id":"0.0-5.0-17.0"},{"group":"hexagon_tri","fractal_assignment":["../images/org_blu.png","../images/cyn_red.png","../images/pnk_blu.png","../images/blu_wht.png","../images/gry_blk.png","../images/ylw_slt.png"],"mutagen_generator_assignment":[1,0],"goal":4,"start":5,"action_noise":0.15,"location_history":"[5,4]","action_history":"[0]","mutagen_history":"[1]","location_rts":"[2997]","trial_type":"fractal-mutation","trial_index":72,"time_elapsed":1266474,"internal_node_id":"0.0-5.0-18.0"},{"group":"hexagon_tri","fractal_assignment":["../images/org_blu.png","../images/cyn_red.png","../images/pnk_blu.png","../images/blu_wht.png","../images/gry_blk.png","../images/ylw_slt.png"],"mutagen_generator_assignment":[1,0],"goal":0,"start":4,"action_noise":0.15,"location_history":"[4,0]","action_history":"[0]","mutagen_history":"[1]","location_rts":"[715]","trial_type":"fractal-mutation","trial_index":73,"time_elapsed":1271734,"internal_node_id":"0.0-5.0-19.0"},{"group":"hexagon_tri","fractal_assignment":["../images/org_blu.png","../images/cyn_red.png","../images/pnk_blu.png","../images/blu_wht.png","../images/gry_blk.png","../images/ylw_slt.png"],"mutagen_generator_assignment":[1,0],"goal":1,"start":0,"action_noise":0.15,"location_history":"[0,5,4,0,1]","action_history":"[0,0,0,1]","mutagen_history":"[1,1,1,0]","location_rts":"[478,637,670,940]","trial_type":"fractal-mutation","trial_index":74,"time_elapsed":1282107,"internal_node_id":"0.0-5.0-20.0"},{"group":"hexagon_tri","fractal_assignment":["../images/org_blu.png","../images/cyn_red.png","../images/pnk_blu.png","../images/blu_wht.png","../images/gry_blk.png","../images/ylw_slt.png"],"mutagen_generator_assignment":[1,0],"goal":3,"start":1,"action_noise":0.15,"location_history":"[1,3]","action_history":"[0]","mutagen_history":"[1]","location_rts":"[351]","trial_type":"fractal-mutation","trial_index":75,"time_elapsed":1287004,"internal_node_id":"0.0-5.0-21.0"},{"group":"hexagon_tri","fractal_assignment":["../images/org_blu.png","../images/cyn_red.png","../images/pnk_blu.png","../images/blu_wht.png","../images/gry_blk.png","../images/ylw_slt.png"],"mutagen_generator_assignment":[1,0],"goal":2,"start":3,"action_noise":0.15,"location_history":"[3,2]","action_history":"[0]","mutagen_history":"[1]","location_rts":"[397]","trial_type":"fractal-mutation","trial_index":76,"time_elapsed":1291948,"internal_node_id":"0.0-5.0-22.0"},{"group":"hexagon_tri","fractal_assignment":["../images/org_blu.png","../images/cyn_red.png","../images/pnk_blu.png","../images/blu_wht.png","../images/gry_blk.png","../images/ylw_slt.png"],"mutagen_generator_assignment":[1,0],"goal":0,"start":2,"action_noise":0.15,"location_history":"[2,3,2,1,3,4,2,1,3,2,3,2,1,5,0]","action_history":"[1,0,0,0,1,1,0,0,0,1,1,0,1,1]","mutagen_history":"[0,1,1,1,0,0,1,1,1,0,0,1,0,0]","location_rts":"[957,541,625,530,323,403,547,802,414,365,363,317,620,495]","trial_type":"fractal-mutation","trial_index":77,"time_elapsed":1317181,"internal_node_id":"0.0-5.0-23.0"},{"group":"hexagon_tri","fractal_assignment":["../images/org_blu.png","../images/cyn_red.png","../images/pnk_blu.png","../images/blu_wht.png","../images/gry_blk.png","../images/ylw_slt.png"],"mutagen_generator_assignment":[1,0],"goal":3,"start":0,"action_noise":0.15,"location_history":"[0,5,4,2,1,3]","action_history":"[0,0,1,0,0]","mutagen_history":"[1,1,0,1,1]","location_rts":"[602,752,685,796,581]","trial_type":"fractal-mutation","trial_index":78,"time_elapsed":1329289,"internal_node_id":"0.0-5.0-24.0"},{"group":"hexagon_tri","fractal_assignment":["../images/org_blu.png","../images/cyn_red.png","../images/pnk_blu.png","../images/blu_wht.png","../images/gry_blk.png","../images/ylw_slt.png"],"mutagen_generator_assignment":[1,0],"goal":1,"start":3,"action_noise":0.15,"location_history":"[3,2,3,2,1]","action_history":"[0,0,1,0]","mutagen_history":"[1,1,0,1]","location_rts":"[604,572,368,1035]","trial_type":"fractal-mutation","trial_index":79,"time_elapsed":1339530,"internal_node_id":"0.0-5.0-25.0"},{"group":"hexagon_tri","fractal_assignment":["../images/org_blu.png","../images/cyn_red.png","../images/pnk_blu.png","../images/blu_wht.png","../images/gry_blk.png","../images/ylw_slt.png"],"mutagen_generator_assignment":[1,0],"goal":2,"start":1,"action_noise":0.15,"location_history":"[1,3,2]","action_history":"[0,0]","mutagen_history":"[1,1]","location_rts":"[847,526]","trial_type":"fractal-mutation","trial_index":80,"time_elapsed":1346492,"internal_node_id":"0.0-5.0-26.0"},{"group":"hexagon_tri","fractal_assignment":["../images/org_blu.png","../images/cyn_red.png","../images/pnk_blu.png","../images/blu_wht.png","../images/gry_blk.png","../images/ylw_slt.png"],"mutagen_generator_assignment":[1,0],"goal":5,"start":2,"action_noise":0.15,"location_history":"[2,1,3,2,3,4,0,5]","action_history":"[0,0,0,1,1,0,0]","mutagen_history":"[1,1,1,0,0,1,1]","location_rts":"[540,325,330,320,974,330,416]","trial_type":"fractal-mutation","trial_index":81,"time_elapsed":1360491,"internal_node_id":"0.0-5.0-27.0"},{"group":"hexagon_tri","fractal_assignment":["../images/org_blu.png","../images/cyn_red.png","../images/pnk_blu.png","../images/blu_wht.png","../images/gry_blk.png","../images/ylw_slt.png"],"mutagen_generator_assignment":[1,0],"goal":4,"start":5,"action_noise":0.15,"location_history":"[5,4]","action_history":"[0]","mutagen_history":"[1]","location_rts":"[620]","trial_type":"fractal-mutation","trial_index":82,"time_elapsed":1365660,"internal_node_id":"0.0-5.0-28.0"},{"group":"hexagon_tri","fractal_assignment":["../images/org_blu.png","../images/cyn_red.png","../images/pnk_blu.png","../images/blu_wht.png","../images/gry_blk.png","../images/ylw_slt.png"],"mutagen_generator_assignment":[1,0],"goal":5,"start":4,"action_noise":0.15,"location_history":"[4,0,1,3,2,1,5]","action_history":"[0,1,0,0,0,1]","mutagen_history":"[1,0,1,1,1,0]","location_rts":"[844,410,449,352,338,684]","trial_type":"fractal-mutation","trial_index":83,"time_elapsed":1378481,"internal_node_id":"0.0-5.0-29.0"},{"group":"hexagon_tri","fractal_assignment":["../images/org_blu.png","../images/cyn_red.png","../images/pnk_blu.png","../images/blu_wht.png","../images/gry_blk.png","../images/ylw_slt.png"],"mutagen_generator_assignment":[1,0],"goal":3,"start":5,"action_noise":0.15,"location_history":"[5,0,1,3]","action_history":"[1,0,0]","mutagen_history":"[0,1,1]","location_rts":"[1157,397,511]","trial_type":"fractal-mutation","trial_index":84,"time_elapsed":1387162,"internal_node_id":"0.0-5.0-30.0"},{"group":"hexagon_tri","fractal_assignment":["../images/org_blu.png","../images/cyn_red.png","../images/pnk_blu.png","../images/blu_wht.png","../images/gry_blk.png","../images/ylw_slt.png"],"mutagen_generator_assignment":[1,0],"goal":0,"start":3,"action_noise":0.15,"location_history":"[3,2,1,3,2,3,4,0]","action_history":"[0,0,0,0,1,1,0]","mutagen_history":"[1,1,1,1,0,0,1]","location_rts":"[746,600,653,1725,466,426,364]","trial_type":"fractal-mutation","trial_index":85,"time_elapsed":1402924,"internal_node_id":"0.0-5.0-31.0"},{"group":"hexagon_tri","fractal_assignment":["../images/org_blu.png","../images/cyn_red.png","../images/pnk_blu.png","../images/blu_wht.png","../images/gry_blk.png","../images/ylw_slt.png"],"mutagen_generator_assignment":[1,0],"goal":4,"start":0,"action_noise":0.15,"location_history":"[0,5,4]","action_history":"[0,0]","mutagen_history":"[1,1]","location_rts":"[493,380]","trial_type":"fractal-mutation","trial_index":86,"time_elapsed":1409386,"internal_node_id":"0.0-5.0-32.0"},{"group":"hexagon_tri","fractal_assignment":["../images/org_blu.png","../images/cyn_red.png","../images/pnk_blu.png","../images/blu_wht.png","../images/gry_blk.png","../images/ylw_slt.png"],"mutagen_generator_assignment":[1,0],"goal":1,"start":4,"action_noise":0.15,"location_history":"[4,0,5,4,2,3,2,1]","action_history":"[0,0,0,1,1,0,0]","mutagen_history":"[1,1,1,0,0,1,1]","location_rts":"[477,558,349,77,644,559,442]","trial_type":"fractal-mutation","trial_index":87,"time_elapsed":1423268,"internal_node_id":"0.0-5.0-33.0"},{"group":"hexagon_tri","fractal_assignment":["../images/org_blu.png","../images/cyn_red.png","../images/pnk_blu.png","../images/blu_wht.png","../images/gry_blk.png","../images/ylw_slt.png"],"mutagen_generator_assignment":[1,0],"goal":2,"start":1,"action_noise":0.15,"location_history":"[1,3,2]","action_history":"[0,0]","mutagen_history":"[1,1]","location_rts":"[1220,514]","trial_type":"fractal-mutation","trial_index":88,"time_elapsed":1430588,"internal_node_id":"0.0-5.0-34.0"},{"group":"hexagon_tri","fractal_assignment":["../images/org_blu.png","../images/cyn_red.png","../images/pnk_blu.png","../images/blu_wht.png","../images/gry_blk.png","../images/ylw_slt.png"],"mutagen_generator_assignment":[1,0],"goal":0,"start":2,"action_noise":0.15,"location_history":"[2,1,3,2,3,4,0]","action_history":"[0,0,0,1,1,0]","mutagen_history":"[1,1,1,0,0,1]","location_rts":"[5098,466,365,303,608,387]","trial_type":"fractal-mutation","trial_index":89,"time_elapsed":1447544,"internal_node_id":"0.0-5.0-35.0"},{"group":"hexagon_tri","fractal_assignment":["../images/org_blu.png","../images/cyn_red.png","../images/pnk_blu.png","../images/blu_wht.png","../images/gry_blk.png","../images/ylw_slt.png"],"mutagen_generator_assignment":[1,0],"goal":5,"start":0,"action_noise":0.15,"location_history":"[0,5]","action_history":"[0]","mutagen_history":"[1]","location_rts":"[1101]","trial_type":"fractal-mutation","trial_index":90,"time_elapsed":1453195,"internal_node_id":"0.0-5.0-36.0"},{"group":"hexagon_tri","fractal_assignment":["../images/org_blu.png","../images/cyn_red.png","../images/pnk_blu.png","../images/blu_wht.png","../images/gry_blk.png","../images/ylw_slt.png"],"mutagen_generator_assignment":[1,0],"goal":2,"start":5,"action_noise":0.15,"location_history":"[5,4,0,1,5,0,1,5,0,5,0,1,3,2]","action_history":"[0,0,1,1,1,0,0,1,0,1,0,0,0]","mutagen_history":"[1,1,0,0,0,1,1,0,1,0,1,1,1]","location_rts":"[750,382,367,751,366,485,381,258,372,461,345,459,1022]","trial_type":"fractal-mutation","trial_index":91,"time_elapsed":1476573,"internal_node_id":"0.0-5.0-37.0"},{"group":"hexagon_tri","fractal_assignment":["../images/org_blu.png","../images/cyn_red.png","../images/pnk_blu.png","../images/blu_wht.png","../images/gry_blk.png","../images/ylw_slt.png"],"mutagen_generator_assignment":[1,0],"goal":1,"start":2,"action_noise":0.15,"location_history":"[2,1]","action_history":"[0]","mutagen_history":"[1]","location_rts":"[682]","trial_type":"fractal-mutation","trial_index":92,"time_elapsed":1481802,"internal_node_id":"0.0-5.0-38.0"},{"group":"hexagon_tri","fractal_assignment":["../images/org_blu.png","../images/cyn_red.png","../images/pnk_blu.png","../images/blu_wht.png","../images/gry_blk.png","../images/ylw_slt.png"],"mutagen_generator_assignment":[1,0],"goal":4,"start":1,"action_noise":0.15,"location_history":"[1,3,2,1,5,0,1,5,0,5,4]","action_history":"[0,0,0,1,1,0,0,1,1,0]","mutagen_history":"[1,1,1,0,0,1,1,0,0,1]","location_rts":"[575,2338,348,286,308,318,386,206,543,443]","trial_type":"fractal-mutation","trial_index":93,"time_elapsed":1501418,"internal_node_id":"0.0-5.0-39.0"},{"group":"hexagon_tri","fractal_assignment":["../images/org_blu.png","../images/cyn_red.png","../images/pnk_blu.png","../images/blu_wht.png","../images/gry_blk.png","../images/ylw_slt.png"],"mutagen_generator_assignment":[1,0],"goal":3,"start":4,"action_noise":0.15,"location_history":"[4,0,5,0,5,0,1,5,4,2,3]","action_history":"[0,0,1,0,1,1,1,0,0,1]","mutagen_history":"[1,1,0,1,0,0,0,1,1,0]","location_rts":"[603,237,219,288,675,673,605,412,435,286]","trial_type":"fractal-mutation","trial_index":94,"time_elapsed":1519698,"internal_node_id":"0.0-5.0-40.0"},{"group":"hexagon_tri","fractal_assignment":["../images/org_blu.png","../images/cyn_red.png","../images/pnk_blu.png","../images/blu_wht.png","../images/gry_blk.png","../images/ylw_slt.png"],"mutagen_generator_assignment":[1,0],"goal":5,"start":3,"action_noise":0.15,"location_history":"[3,4,0,5]","action_history":"[0,0,0]","mutagen_history":"[1,1,1]","location_rts":"[423,845,436]","trial_type":"fractal-mutation","trial_index":95,"time_elapsed":1528025,"internal_node_id":"0.0-5.0-41.0"},{"group":"hexagon_tri","fractal_assignment":["../images/org_blu.png","../images/cyn_red.png","../images/pnk_blu.png","../images/blu_wht.png","../images/gry_blk.png","../images/ylw_slt.png"],"mutagen_generator_assignment":[1,0],"goal":3,"start":5,"action_noise":0.15,"location_history":"[5,4,2,1,3]","action_history":"[0,1,1,0]","mutagen_history":"[1,0,0,1]","location_rts":"[608,332,596,192]","trial_type":"fractal-mutation","trial_index":96,"time_elapsed":1537400,"internal_node_id":"0.0-5.0-42.0"},{"group":"hexagon_tri","fractal_assignment":["../images/org_blu.png","../images/cyn_red.png","../images/pnk_blu.png","../images/blu_wht.png","../images/gry_blk.png","../images/ylw_slt.png"],"mutagen_generator_assignment":[1,0],"goal":0,"start":3,"action_noise":0.15,"location_history":"[3,2,1,3,2,3,2,1,3,4,0]","action_history":"[0,0,0,0,0,0,0,1,1,0]","mutagen_history":"[1,1,1,1,1,1,1,0,0,1]","location_rts":"[510,305,479,352,423,348,436,254,401,296]","trial_type":"fractal-mutation","trial_index":97,"time_elapsed":1555066,"internal_node_id":"0.0-5.0-43.0"},{"group":"hexagon_tri","fractal_assignment":["../images/org_blu.png","../images/cyn_red.png","../images/pnk_blu.png","../images/blu_wht.png","../images/gry_blk.png","../images/ylw_slt.png"],"mutagen_generator_assignment":[1,0],"goal":2,"start":0,"action_noise":0.15,"location_history":"[0,5,4,0,5,0,1,5,0,1,3,2]","action_history":"[0,0,0,0,1,1,0,0,1,0,0]","mutagen_history":"[1,1,1,1,0,0,1,1,0,1,1]","location_rts":"[427,5222,374,483,413,732,426,429,356,300,489]","trial_type":"fractal-mutation","trial_index":98,"time_elapsed":1579618,"internal_node_id":"0.0-5.0-44.0"},{"group":"hexagon_tri","fractal_assignment":["../images/org_blu.png","../images/cyn_red.png","../images/pnk_blu.png","../images/blu_wht.png","../images/gry_blk.png","../images/ylw_slt.png"],"mutagen_generator_assignment":[1,0],"goal":4,"start":2,"action_noise":0.15,"location_history":"[2,1,3,2,3,4]","action_history":"[0,0,0,1,1]","mutagen_history":"[1,1,1,0,0]","location_rts":"[567,382,412,337,426]","trial_type":"fractal-mutation","trial_index":99,"time_elapsed":1590431,"internal_node_id":"0.0-5.0-45.0"},{"group":"hexagon_tri","fractal_assignment":["../images/org_blu.png","../images/cyn_red.png","../images/pnk_blu.png","../images/blu_wht.png","../images/gry_blk.png","../images/ylw_slt.png"],"mutagen_generator_assignment":[1,0],"goal":1,"start":4,"action_noise":0.15,"location_history":"[4,0,5,4,0,1]","action_history":"[0,0,0,1,1]","mutagen_history":"[1,1,1,0,0]","location_rts":"[729,610,1389,191,482]","trial_type":"fractal-mutation","trial_index":100,"time_elapsed":1602485,"internal_node_id":"0.0-5.0-46.0"},{"group":"hexagon_tri","fractal_assignment":["../images/org_blu.png","../images/cyn_red.png","../images/pnk_blu.png","../images/blu_wht.png","../images/gry_blk.png","../images/ylw_slt.png"],"mutagen_generator_assignment":[1,0],"goal":4,"start":1,"action_noise":0.15,"location_history":"[1,3,2,3,4]","action_history":"[0,1,0,0]","mutagen_history":"[1,0,1,1]","location_rts":"[452,393,720,718]","trial_type":"fractal-mutation","trial_index":101,"time_elapsed":1612401,"internal_node_id":"0.0-5.0-47.0"},{"group":"hexagon_tri","fractal_assignment":["../images/org_blu.png","../images/cyn_red.png","../images/pnk_blu.png","../images/blu_wht.png","../images/gry_blk.png","../images/ylw_slt.png"],"mutagen_generator_assignment":[1,0],"goal":3,"start":4,"action_noise":0.15,"location_history":"[4,0,1,5,4,2,1,3]","action_history":"[0,0,1,0,1,0,0]","mutagen_history":"[1,1,0,1,0,1,1]","location_rts":"[614,413,330,734,338,685,397]","trial_type":"fractal-mutation","trial_index":102,"time_elapsed":1626684,"internal_node_id":"0.0-5.0-48.0"},{"group":"hexagon_tri","fractal_assignment":["../images/org_blu.png","../images/cyn_red.png","../images/pnk_blu.png","../images/blu_wht.png","../images/gry_blk.png","../images/ylw_slt.png"],"mutagen_generator_assignment":[1,0],"goal":5,"start":3,"action_noise":0.15,"location_history":"[3,4,0,1,5]","action_history":"[0,0,1,1]","mutagen_history":"[1,1,0,0]","location_rts":"[762,2428,1077,897]","trial_type":"fractal-mutation","trial_index":103,"time_elapsed":1639502,"internal_node_id":"0.0-5.0-49.0"},{"view_history":"[{\"page_index\":0,\"viewing_time\":27227}]","rt":27228,"trial_type":"instructions","trial_index":104,"time_elapsed":1667732,"internal_node_id":"0.0-6.0"},{"rt":7115,"responses":"{\"Q0\":\"No comments. \"}","trial_type":"survey-text","trial_index":105,"time_elapsed":1675857,"internal_node_id":"0.0-7.0"}]