[{"view_history":"[{\"page_index\":0,\"viewing_time\":2112},{\"page_index\":1,\"viewing_time\":4206},{\"page_index\":2,\"viewing_time\":492},{\"page_index\":3,\"viewing_time\":562}]","rt":7373,"trial_type":"instructions","trial_index":0,"time_elapsed":7373,"internal_node_id":"0.0-0.0"},{"view_history":"[{\"page_index\":0,\"viewing_time\":1163},{\"page_index\":1,\"viewing_time\":4350}]","rt":5513,"trial_type":"instructions","trial_index":1,"time_elapsed":13886,"internal_node_id":"0.0-1.0"},{"group":"hexagon_tri","room_assignment":["yellow","green","blue","grey","red","purple"],"door_color_assignment":["black","white"],"door_generator_assignment":[1,0],"goal":4,"start":0,"action_noise":0.15,"location_history":"[0,5,0,1,5,4]","action_history":"[1,1,1,1,1]","door_history":"[0,0,0,0,0]","location_rts":"[127541,11139,735,678,7641]","trial_type":"two-door-navigation","trial_index":2,"time_elapsed":170211,"internal_node_id":"0.0-2.0-0.0"},{"group":"hexagon_tri","room_assignment":["yellow","green","blue","grey","red","purple"],"door_color_assignment":["black","white"],"door_generator_assignment":[1,0],"goal":3,"start":4,"action_noise":0.15,"location_history":"[4,2,1,3]","action_history":"[1,1,1]","door_history":"[0,0,0]","location_rts":"[10278,2543,3727]","trial_type":"two-door-navigation","trial_index":3,"time_elapsed":193320,"internal_node_id":"0.0-2.0-1.0"},{"group":"hexagon_tri","room_assignment":["yellow","green","blue","grey","red","purple"],"door_color_assignment":["black","white"],"door_generator_assignment":[1,0],"goal":5,"start":3,"action_noise":0.15,"location_history":"[3,4,2,3,4,2,3,2,3,2,3,4,0,5]","action_history":"[1,1,1,1,1,1,0,0,0,0,1,0,0]","door_history":"[0,0,0,0,0,0,1,1,1,1,0,1,1]","location_rts":"[464,306,341,399,307,438,795,459,350,259,505,402,388]","trial_type":"two-door-navigation","trial_index":4,"time_elapsed":215464,"internal_node_id":"0.0-2.0-2.0"},{"group":"hexagon_tri","room_assignment":["yellow","green","blue","grey","red","purple"],"door_color_assignment":["black","white"],"door_generator_assignment":[1,0],"goal":2,"start":5,"action_noise":0.15,"location_history":"[5,0,1,5,4,0,5,0,5,4,2]","action_history":"[1,1,1,1,0,0,1,0,0,0]","door_history":"[0,0,0,0,1,1,0,1,1,1]","location_rts":"[534,556,362,479,505,403,261,278,384,6895]","trial_type":"two-door-navigation","trial_index":5,"time_elapsed":239792,"internal_node_id":"0.0-2.0-3.0"},{"group":"hexagon_tri","room_assignment":["yellow","green","blue","grey","red","purple"],"door_color_assignment":["black","white"],"door_generator_assignment":[1,0],"goal":1,"start":2,"action_noise":0.15,"location_history":"[2,1]","action_history":"[1]","door_history":"[0]","location_rts":"[3095]","trial_type":"two-door-navigation","trial_index":6,"time_elapsed":247409,"internal_node_id":"0.0-2.0-4.0"},{"group":"hexagon_tri","room_assignment":["yellow","green","blue","grey","red","purple"],"door_color_assignment":["black","white"],"door_generator_assignment":[1,0],"goal":4,"start":1,"action_noise":0.15,"location_history":"[1,3,2,1,3,4]","action_history":"[0,0,0,1,1]","door_history":"[1,1,1,0,0]","location_rts":"[1791,3003,833,590,1263]","trial_type":"two-door-navigation","trial_index":7,"time_elapsed":263560,"internal_node_id":"0.0-2.0-5.0"},{"group":"hexagon_tri","room_assignment":["yellow","green","blue","grey","red","purple"],"door_color_assignment":["black","white"],"door_generator_assignment":[1,0],"goal":1,"start":4,"action_noise":0.15,"location_history":"[4,2,3,4,0,1]","action_history":"[1,1,1,1,1]","door_history":"[0,0,0,0,0]","location_rts":"[5335,683,334,334,674]","trial_type":"two-door-navigation","trial_index":8,"time_elapsed":279515,"internal_node_id":"0.0-2.0-6.0"},{"group":"hexagon_tri","room_assignment":["yellow","green","blue","grey","red","purple"],"door_color_assignment":["black","white"],"door_generator_assignment":[1,0],"goal":5,"start":1,"action_noise":0.15,"location_history":"[1,5]","action_history":"[1]","door_history":"[0]","location_rts":"[46779]","trial_type":"two-door-navigation","trial_index":9,"time_elapsed":330872,"internal_node_id":"0.0-2.0-7.0"},{"group":"hexagon_tri","room_assignment":["yellow","green","blue","grey","red","purple"],"door_color_assignment":["black","white"],"door_generator_assignment":[1,0],"goal":0,"start":5,"action_noise":0.15,"location_history":"[5,0]","action_history":"[1]","door_history":"[0]","location_rts":"[8251]","trial_type":"two-door-navigation","trial_index":10,"time_elapsed":343643,"internal_node_id":"0.0-2.0-8.0"},{"group":"hexagon_tri","room_assignment":["yellow","green","blue","grey","red","purple"],"door_color_assignment":["black","white"],"door_generator_assignment":[1,0],"goal":2,"start":0,"action_noise":0.15,"location_history":"[0,1,5,4,2]","action_history":"[1,1,1,1]","door_history":"[0,0,0,0]","location_rts":"[1261,293,428,298]","trial_type":"two-door-navigation","trial_index":11,"time_elapsed":353496,"internal_node_id":"0.0-2.0-9.0"},{"group":"hexagon_tri","room_assignment":["yellow","green","blue","grey","red","purple"],"door_color_assignment":["black","white"],"door_generator_assignment":[1,0],"goal":3,"start":2,"action_noise":0.15,"location_history":"[2,3]","action_history":"[1]","door_history":"[0]","location_rts":"[1508]","trial_type":"two-door-navigation","trial_index":12,"time_elapsed":359531,"internal_node_id":"0.0-2.0-10.0"},{"group":"hexagon_tri","room_assignment":["yellow","green","blue","grey","red","purple"],"door_color_assignment":["black","white"],"door_generator_assignment":[1,0],"goal":0,"start":3,"action_noise":0.15,"location_history":"[3,4,0]","action_history":"[1,1]","door_history":"[0,0]","location_rts":"[23590,280]","trial_type":"two-door-navigation","trial_index":13,"time_elapsed":388936,"internal_node_id":"0.0-2.0-11.0"},{"group":"hexagon_tri","room_assignment":["yellow","green","blue","grey","red","purple"],"door_color_assignment":["black","white"],"door_generator_assignment":[1,0],"goal":2,"start":0,"action_noise":0.15,"location_history":"[0,1,5,0,5,0,5,0,5,4,2]","action_history":"[1,1,1,1,1,1,1,0,1,1]","door_history":"[0,0,0,0,0,0,0,1,0,0]","location_rts":"[316,267,281,187,310,269,274,284,309,519]","trial_type":"two-door-navigation","trial_index":14,"time_elapsed":405637,"internal_node_id":"0.0-2.0-12.0"},{"group":"hexagon_tri","room_assignment":["yellow","green","blue","grey","red","purple"],"door_color_assignment":["black","white"],"door_generator_assignment":[1,0],"goal":5,"start":2,"action_noise":0.15,"location_history":"[2,3,4,2,3,4,0,1,5]","action_history":"[1,1,1,1,1,0,1,1]","door_history":"[0,0,0,0,0,1,0,0]","location_rts":"[6514,1300,447,746,126,293,14,365]","trial_type":"two-door-navigation","trial_index":15,"time_elapsed":427090,"internal_node_id":"0.0-2.0-13.0"},{"group":"hexagon_tri","room_assignment":["yellow","green","blue","grey","red","purple"],"door_color_assignment":["black","white"],"door_generator_assignment":[1,0],"goal":4,"start":5,"action_noise":0.15,"location_history":"[5,0,1,5,0,1,5,0,5,0,1,5,4]","action_history":"[1,1,1,1,1,1,1,0,0,0,1,1]","door_history":"[0,0,0,0,0,0,0,1,1,1,0,0]","location_rts":"[11748,314,659,326,231,314,376,145,347,354,222,312]","trial_type":"two-door-navigation","trial_index":16,"time_elapsed":458172,"internal_node_id":"0.0-2.0-14.0"},{"group":"hexagon_tri","room_assignment":["yellow","green","blue","grey","red","purple"],"door_color_assignment":["black","white"],"door_generator_assignment":[1,0],"goal":3,"start":4,"action_noise":0.15,"location_history":"[4,2,1,5,0,5,4,2,3]","action_history":"[1,1,1,1,1,0,1,1]","door_history":"[0,0,0,0,0,1,0,0]","location_rts":"[930,285,488,294,516,840,308,323]","trial_type":"two-door-navigation","trial_index":17,"time_elapsed":473803,"internal_node_id":"0.0-2.0-15.0"},{"group":"hexagon_tri","room_assignment":["yellow","green","blue","grey","red","purple"],"door_color_assignment":["black","white"],"door_generator_assignment":[1,0],"goal":1,"start":3,"action_noise":0.15,"location_history":"[3,4,0,1]","action_history":"[1,0,1]","door_history":"[0,1,0]","location_rts":"[3789,45676,380]","trial_type":"two-door-navigation","trial_index":18,"time_elapsed":530222,"internal_node_id":"0.0-2.0-16.0"},{"group":"hexagon_tri","room_assignment":["yellow","green","blue","grey","red","purple"],"door_color_assignment":["black","white"],"door_generator_assignment":[1,0],"goal":5,"start":1,"action_noise":0.15,"location_history":"[1,3,4,2,3,2,1,5]","action_history":"[1,1,1,1,0,1,1]","door_history":"[0,0,0,0,1,0,0]","location_rts":"[55380,426,387,329,286,329,328]","trial_type":"two-door-navigation","trial_index":19,"time_elapsed":598316,"internal_node_id":"0.0-2.0-17.0"},{"group":"hexagon_tri","room_assignment":["yellow","green","blue","grey","red","purple"],"door_color_assignment":["black","white"],"door_generator_assignment":[1,0],"goal":4,"start":5,"action_noise":0.15,"location_history":"[5,0,5,0,5,0,1,5,0,1,5,4]","action_history":"[1,1,1,0,1,1,1,1,1,1,0]","door_history":"[0,0,0,1,0,0,0,0,0,0,1]","location_rts":"[53777,321,247,498,354,307,302,298,312,243,601]","trial_type":"two-door-navigation","trial_index":20,"time_elapsed":670281,"internal_node_id":"0.0-2.0-18.0"},{"group":"hexagon_tri","room_assignment":["yellow","green","blue","grey","red","purple"],"door_color_assignment":["black","white"],"door_generator_assignment":[1,0],"goal":0,"start":4,"action_noise":0.15,"location_history":"[4,2,3,4,2,3,2,3,4,2,3,4,2,1,5,0]","action_history":"[1,1,1,1,1,0,1,1,1,1,1,1,0,1,1]","door_history":"[0,0,0,0,0,1,0,0,0,0,0,0,1,0,0]","location_rts":"[61064,301,282,407,280,237,268,300,269,289,264,296,193,271,310]","trial_type":"two-door-navigation","trial_index":21,"time_elapsed":754071,"internal_node_id":"0.0-2.0-19.0"},{"group":"hexagon_tri","room_assignment":["yellow","green","blue","grey","red","purple"],"door_color_assignment":["black","white"],"door_generator_assignment":[1,0],"goal":1,"start":0,"action_noise":0.15,"location_history":"[0,1]","action_history":"[1]","door_history":"[0]","location_rts":"[13120]","trial_type":"two-door-navigation","trial_index":22,"time_elapsed":771712,"internal_node_id":"0.0-2.0-20.0"},{"group":"hexagon_tri","room_assignment":["yellow","green","blue","grey","red","purple"],"door_color_assignment":["black","white"],"door_generator_assignment":[1,0],"goal":3,"start":1,"action_noise":0.15,"location_history":"[1,5,0,1,3]","action_history":"[1,1,1,1]","door_history":"[0,0,0,0]","location_rts":"[8632,311,265,310]","trial_type":"two-door-navigation","trial_index":23,"time_elapsed":788804,"internal_node_id":"0.0-2.0-21.0"},{"group":"hexagon_tri","room_assignment":["yellow","green","blue","grey","red","purple"],"door_color_assignment":["black","white"],"door_generator_assignment":[1,0],"goal":2,"start":3,"action_noise":0.15,"location_history":"[3,4,2]","action_history":"[1,1]","door_history":"[0,0]","location_rts":"[2005,265]","trial_type":"two-door-navigation","trial_index":24,"time_elapsed":796674,"internal_node_id":"0.0-2.0-22.0"},{"group":"hexagon_tri","room_assignment":["yellow","green","blue","grey","red","purple"],"door_color_assignment":["black","white"],"door_generator_assignment":[1,0],"goal":0,"start":2,"action_noise":0.15,"location_history":"[2,3,4,2,3,4,2,1,3,2,3,4,2,3,2,3,4,2,3,4,2,1,5,4,2,3,2,3,4,2,3,4,2,3,4,2,3,4,2,1,3,4,2,1,3,4,0]","action_history":"[1,1,1,1,1,1,0,1,1,1,1,1,0,0,0,1,1,1,1,1,0,0,0,1,1,0,1,1,1,1,1,0,1,1,1,1,1,1,0,1,1,1,1,0,0,0]","door_history":"[0,0,0,0,0,0,1,0,0,0,0,0,1,1,1,0,0,0,0,0,1,1,1,0,0,1,0,0,0,0,0,1,0,0,0,0,0,0,1,0,0,0,0,1,1,1]","location_rts":"[6250,317,295,283,372,278,233,345,310,294,300,659,287,335,333,523,294,303,260,227,96,384,416,125,249,690,546,326,378,305,377,734,529,256,271,52,64,62,725,316,87,81,26,490,262,44]","trial_type":"two-door-navigation","trial_index":25,"time_elapsed":867382,"internal_node_id":"0.0-2.0-23.0"},{"group":"hexagon_tri","room_assignment":["yellow","green","blue","grey","red","purple"],"door_color_assignment":["black","white"],"door_generator_assignment":[1,0],"goal":3,"start":0,"action_noise":0.15,"location_history":"[0,5,0,1,5,0,1,5,0,1,5,0,5,0,5,4,0,5,4,0,1,3]","action_history":"[0,1,1,1,1,1,1,1,1,1,1,0,0,0,0,0,0,0,0,0,0]","door_history":"[1,0,0,0,0,0,0,0,0,0,0,1,1,1,1,1,1,1,1,1,1]","location_rts":"[1385,309,253,303,262,342,333,118,191,90,32,5,7,40,57,56,138,391,349,207,466]","trial_type":"two-door-navigation","trial_index":26,"time_elapsed":897597,"internal_node_id":"0.0-2.0-24.0"},{"group":"hexagon_tri","room_assignment":["yellow","green","blue","grey","red","purple"],"door_color_assignment":["black","white"],"door_generator_assignment":[1,0],"goal":1,"start":3,"action_noise":0.15,"location_history":"[3,2,1]","action_history":"[0,0]","door_history":"[1,1]","location_rts":"[2907,94]","trial_type":"two-door-navigation","trial_index":27,"time_elapsed":906135,"internal_node_id":"0.0-2.0-25.0"},{"group":"hexagon_tri","room_assignment":["yellow","green","blue","grey","red","purple"],"door_color_assignment":["black","white"],"door_generator_assignment":[1,0],"goal":2,"start":1,"action_noise":0.15,"location_history":"[1,3,4,0,5,4,2]","action_history":"[0,0,0,0,0,0]","door_history":"[1,1,1,1,1,1]","location_rts":"[6225,296,296,13305,11805,237]","trial_type":"two-door-navigation","trial_index":28,"time_elapsed":947905,"internal_node_id":"0.0-2.0-26.0"},{"group":"hexagon_tri","room_assignment":["yellow","green","blue","grey","red","purple"],"door_color_assignment":["black","white"],"door_generator_assignment":[1,0],"goal":5,"start":2,"action_noise":0.15,"location_history":"[2,1,3,2,1,3,4,0,1,3,2,1,3,2,3,4,2,3,4,2,3,2,3,4,2,3,4,2,3,4,2,1,5]","action_history":"[0,0,0,0,0,0,0,0,0,0,0,0,0,1,1,1,1,1,1,1,1,1,1,1,1,1,1,1,1,1,0,1]","door_history":"[1,1,1,1,1,1,1,1,1,1,1,1,1,0,0,0,0,0,0,0,0,0,0,0,0,0,0,0,0,0,1,0]","location_rts":"[1027,262,158,445,237,7108,269,168,7,47,5,25,3,654,251,54,52,407,21,56,372,5,402,52,108,137,49,107,100,248,112,138]","trial_type":"two-door-navigation","trial_index":29,"time_elapsed":997079,"internal_node_id":"0.0-2.0-27.0"},{"group":"hexagon_tri","room_assignment":["yellow","green","blue","grey","red","purple"],"door_color_assignment":["black","white"],"door_generator_assignment":[1,0],"goal":4,"start":5,"action_noise":0.15,"location_history":"[5,4]","action_history":"[0]","door_history":"[1]","location_rts":"[2855]","trial_type":"two-door-navigation","trial_index":30,"time_elapsed":1004458,"internal_node_id":"0.0-2.0-28.0"},{"group":"hexagon_tri","room_assignment":["yellow","green","blue","grey","red","purple"],"door_color_assignment":["black","white"],"door_generator_assignment":[1,0],"goal":5,"start":4,"action_noise":0.15,"location_history":"[4,0,5]","action_history":"[0,0]","door_history":"[1,1]","location_rts":"[4389,344]","trial_type":"two-door-navigation","trial_index":31,"time_elapsed":1014727,"internal_node_id":"0.0-2.0-29.0"},{"group":"hexagon_tri","room_assignment":["yellow","green","blue","grey","red","purple"],"door_color_assignment":["black","white"],"door_generator_assignment":[1,0],"goal":3,"start":5,"action_noise":0.15,"location_history":"[5,4,0,1,5,0,5,0,1,3]","action_history":"[1,1,1,1,1,1,1,1,0]","door_history":"[0,0,0,0,0,0,0,0,1]","location_rts":"[3142,201,267,275,201,56,39,58,65]","trial_type":"two-door-navigation","trial_index":32,"time_elapsed":1031697,"internal_node_id":"0.0-2.0-30.0"},{"group":"hexagon_tri","room_assignment":["yellow","green","blue","grey","red","purple"],"door_color_assignment":["black","white"],"door_generator_assignment":[1,0],"goal":0,"start":3,"action_noise":0.15,"location_history":"[3,2,1,3,2,1,5,0]","action_history":"[0,0,0,0,0,1,1]","door_history":"[1,1,1,1,1,0,0]","location_rts":"[5474,237,222,147,84,655,147]","trial_type":"two-door-navigation","trial_index":33,"time_elapsed":1049285,"internal_node_id":"0.0-2.0-31.0"},{"group":"hexagon_tri","room_assignment":["yellow","green","blue","grey","red","purple"],"door_color_assignment":["black","white"],"door_generator_assignment":[1,0],"goal":4,"start":0,"action_noise":0.15,"location_history":"[0,5,0,1,3,4]","action_history":"[0,1,1,1,1]","door_history":"[1,0,0,0,0]","location_rts":"[2200,391,220,40,86]","trial_type":"two-door-navigation","trial_index":34,"time_elapsed":1060820,"internal_node_id":"0.0-2.0-32.0"},{"group":"hexagon_tri","room_assignment":["yellow","green","blue","grey","red","purple"],"door_color_assignment":["black","white"],"door_generator_assignment":[1,0],"goal":1,"start":4,"action_noise":0.15,"location_history":"[4,0,5,4,2,1]","action_history":"[0,0,0,0,0]","door_history":"[1,1,1,1,1]","location_rts":"[6682,141,85,183,123]","trial_type":"two-door-navigation","trial_index":35,"time_elapsed":1076625,"internal_node_id":"0.0-2.0-33.0"},{"group":"hexagon_tri","room_assignment":["yellow","green","blue","grey","red","purple"],"door_color_assignment":["black","white"],"door_generator_assignment":[1,0],"goal":2,"start":1,"action_noise":0.15,"location_history":"[1,3,4,0,5,4,2]","action_history":"[0,0,0,0,0,0]","door_history":"[1,1,1,1,1,1]","location_rts":"[2702,241,223,53,78,102]","trial_type":"two-door-navigation","trial_index":36,"time_elapsed":1089633,"internal_node_id":"0.0-2.0-34.0"},{"group":"hexagon_tri","room_assignment":["yellow","green","blue","grey","red","purple"],"door_color_assignment":["black","white"],"door_generator_assignment":[1,0],"goal":0,"start":2,"action_noise":0.15,"location_history":"[2,1,5,4,0]","action_history":"[0,0,0,0]","door_history":"[1,1,1,1]","location_rts":"[438,267,214,164]","trial_type":"two-door-navigation","trial_index":37,"time_elapsed":1098287,"internal_node_id":"0.0-2.0-35.0"},{"group":"hexagon_tri","room_assignment":["yellow","green","blue","grey","red","purple"],"door_color_assignment":["black","white"],"door_generator_assignment":[1,0],"goal":5,"start":0,"action_noise":0.15,"location_history":"[0,5]","action_history":"[0]","door_history":"[1]","location_rts":"[2082]","trial_type":"two-door-navigation","trial_index":38,"time_elapsed":1104890,"internal_node_id":"0.0-2.0-36.0"},{"group":"hexagon_tri","room_assignment":["yellow","green","blue","grey","red","purple"],"door_color_assignment":["black","white"],"door_generator_assignment":[1,0],"goal":2,"start":5,"action_noise":0.15,"location_history":"[5,4,2]","action_history":"[0,0]","door_history":"[1,1]","location_rts":"[1346,111]","trial_type":"two-door-navigation","trial_index":39,"time_elapsed":1111884,"internal_node_id":"0.0-2.0-37.0"},{"group":"hexagon_tri","room_assignment":["yellow","green","blue","grey","red","purple"],"door_color_assignment":["black","white"],"door_generator_assignment":[1,0],"goal":1,"start":2,"action_noise":0.15,"location_history":"[2,1]","action_history":"[0]","door_history":"[1]","location_rts":"[1422]","trial_type":"two-door-navigation","trial_index":40,"time_elapsed":1117827,"internal_node_id":"0.0-2.0-38.0"},{"group":"hexagon_tri","room_assignment":["yellow","green","blue","grey","red","purple"],"door_color_assignment":["black","white"],"door_generator_assignment":[1,0],"goal":4,"start":1,"action_noise":0.15,"location_history":"[1,5,0,5,0,1,3,2,1,3,4]","action_history":"[0,0,0,0,0,0,0,0,0,1]","door_history":"[1,1,1,1,1,1,1,1,1,0]","location_rts":"[13989,349,273,296,327,266,307,282,301,529]","trial_type":"two-door-navigation","trial_index":41,"time_elapsed":1148427,"internal_node_id":"0.0-2.0-39.0"},{"group":"hexagon_tri","room_assignment":["yellow","green","blue","grey","red","purple"],"door_color_assignment":["black","white"],"door_generator_assignment":[1,0],"goal":3,"start":4,"action_noise":0.15,"location_history":"[4,0,1,5,0,1,3]","action_history":"[0,1,1,1,1,0]","door_history":"[1,0,0,0,0,1]","location_rts":"[1364,696,340,138,306,473]","trial_type":"two-door-navigation","trial_index":42,"time_elapsed":1161351,"internal_node_id":"0.0-2.0-40.0"},{"group":"hexagon_tri","room_assignment":["yellow","green","blue","grey","red","purple"],"door_color_assignment":["black","white"],"door_generator_assignment":[1,0],"goal":5,"start":3,"action_noise":0.15,"location_history":"[3,2,1,5]","action_history":"[0,0,0]","door_history":"[1,1,1]","location_rts":"[7994,785,281]","trial_type":"two-door-navigation","trial_index":43,"time_elapsed":1176968,"internal_node_id":"0.0-2.0-41.0"},{"group":"hexagon_tri","room_assignment":["yellow","green","blue","grey","red","purple"],"door_color_assignment":["black","white"],"door_generator_assignment":[1,0],"goal":3,"start":5,"action_noise":0.15,"location_history":"[5,4,2,3]","action_history":"[1,1,1]","door_history":"[0,0,0]","location_rts":"[1821,317,270]","trial_type":"two-door-navigation","trial_index":44,"time_elapsed":1185931,"internal_node_id":"0.0-2.0-42.0"},{"group":"hexagon_tri","room_assignment":["yellow","green","blue","grey","red","purple"],"door_color_assignment":["black","white"],"door_generator_assignment":[1,0],"goal":0,"start":3,"action_noise":0.15,"location_history":"[3,2,1,3,2,1,3,4,2,3,4,2,3,4,0]","action_history":"[0,0,0,0,0,1,1,1,1,1,1,1,1,0]","door_history":"[1,1,1,1,1,0,0,0,0,0,0,0,0,1]","location_rts":"[17141,312,356,295,397,672,178,186,242,378,274,215,250,459]","trial_type":"two-door-navigation","trial_index":45,"time_elapsed":1225046,"internal_node_id":"0.0-2.0-43.0"},{"group":"hexagon_tri","room_assignment":["yellow","green","blue","grey","red","purple"],"door_color_assignment":["black","white"],"door_generator_assignment":[1,0],"goal":2,"start":0,"action_noise":0.15,"location_history":"[0,5,4,2]","action_history":"[0,0,1]","door_history":"[1,1,0]","location_rts":"[3261,386,364]","trial_type":"two-door-navigation","trial_index":46,"time_elapsed":1235614,"internal_node_id":"0.0-2.0-44.0"},{"group":"hexagon_tri","room_assignment":["yellow","green","blue","grey","red","purple"],"door_color_assignment":["black","white"],"door_generator_assignment":[1,0],"goal":4,"start":2,"action_noise":0.15,"location_history":"[2,3,2,3,2,3,2,1,5,0,1,5,0,1,3,4]","action_history":"[1,1,1,1,1,1,0,1,1,1,1,1,1,0,1]","door_history":"[0,0,0,0,0,0,1,0,0,0,0,0,0,1,0]","location_rts":"[1085,271,284,79,211,98,108,25,163,89,123,417,180,89,161]","trial_type":"two-door-navigation","trial_index":47,"time_elapsed":1257766,"internal_node_id":"0.0-2.0-45.0"},{"group":"hexagon_tri","room_assignment":["yellow","green","blue","grey","red","purple"],"door_color_assignment":["black","white"],"door_generator_assignment":[1,0],"goal":1,"start":4,"action_noise":0.15,"location_history":"[4,0,1]","action_history":"[0,1]","door_history":"[1,0]","location_rts":"[6496,492]","trial_type":"two-door-navigation","trial_index":48,"time_elapsed":1270296,"internal_node_id":"0.0-2.0-46.0"},{"group":"hexagon_tri","room_assignment":["yellow","green","blue","grey","red","purple"],"door_color_assignment":["black","white"],"door_generator_assignment":[1,0],"goal":4,"start":1,"action_noise":0.15,"location_history":"[1,5,4]","action_history":"[1,1]","door_history":"[0,0]","location_rts":"[1225,254]","trial_type":"two-door-navigation","trial_index":49,"time_elapsed":1277321,"internal_node_id":"0.0-2.0-47.0"},{"group":"hexagon_tri","room_assignment":["yellow","green","blue","grey","red","purple"],"door_color_assignment":["black","white"],"door_generator_assignment":[1,0],"goal":3,"start":4,"action_noise":0.15,"location_history":"[4,2,3]","action_history":"[1,1]","door_history":"[0,0]","location_rts":"[30919,160]","trial_type":"two-door-navigation","trial_index":50,"time_elapsed":1313945,"internal_node_id":"0.0-2.0-48.0"},{"group":"hexagon_tri","room_assignment":["yellow","green","blue","grey","red","purple"],"door_color_assignment":["black","white"],"door_generator_assignment":[1,0],"goal":5,"start":3,"action_noise":0.15,"location_history":"[3,2,1,3,2,3,4,2,3,4,0,1,3,2,1,3,4,2,3,2,1,5]","action_history":"[0,0,0,0,1,1,1,1,1,1,1,1,0,0,0,0,1,1,0,0,0]","door_history":"[1,1,1,1,0,0,0,0,0,0,0,0,1,1,1,1,0,0,1,1,1]","location_rts":"[12230,377,306,319,683,266,9,28,217,237,214,174,165,49,60,27,63,67,31,107,61]","trial_type":"two-door-navigation","trial_index":51,"time_elapsed":1354528,"internal_node_id":"0.0-2.0-49.0"},{"view_history":"[{\"page_index\":0,\"viewing_time\":4099}]","rt":4100,"trial_type":"instructions","trial_index":52,"time_elapsed":1359628,"internal_node_id":"0.0-3.0"},{"view_history":"[{\"page_index\":0,\"viewing_time\":1649},{\"page_index\":1,\"viewing_time\":1086}]","rt":2735,"trial_type":"instructions","trial_index":53,"time_elapsed":1363363,"internal_node_id":"0.0-4.0"},{"group":"hexagon_bi","fractal_assignment":["../images/ylw_slt.png","../images/blu_wht.png","../images/pnk_blu.png","../images/gry_blk.png","../images/org_blu.png","../images/cyn_red.png"],"mutagen_generator_assignment":[0,1],"goal":4,"start":0,"action_noise":0.15,"location_history":"[0,5,4]","action_history":"[0,0]","mutagen_history":"[0,0]","location_rts":"[1787,98]","trial_type":"fractal-mutation","trial_index":54,"time_elapsed":1370864,"internal_node_id":"0.0-5.0-0.0"},{"group":"hexagon_bi","fractal_assignment":["../images/ylw_slt.png","../images/blu_wht.png","../images/pnk_blu.png","../images/gry_blk.png","../images/org_blu.png","../images/cyn_red.png"],"mutagen_generator_assignment":[0,1],"goal":3,"start":4,"action_noise":0.15,"location_history":"[4,3]","action_history":"[0]","mutagen_history":"[0]","location_rts":"[35]","trial_type":"fractal-mutation","trial_index":55,"time_elapsed":1375470,"internal_node_id":"0.0-5.0-1.0"},{"group":"hexagon_bi","fractal_assignment":["../images/ylw_slt.png","../images/blu_wht.png","../images/pnk_blu.png","../images/gry_blk.png","../images/org_blu.png","../images/cyn_red.png"],"mutagen_generator_assignment":[0,1],"goal":5,"start":3,"action_noise":0.15,"location_history":"[3,4,3,4,3,4,3,4,5]","action_history":"[0,0,0,0,0,0,0,0]","mutagen_history":"[0,0,0,0,0,0,0,0]","location_rts":"[1126,114,144,26,53,67,106,129]","trial_type":"fractal-mutation","trial_index":56,"time_elapsed":1389174,"internal_node_id":"0.0-5.0-2.0"},{"group":"hexagon_bi","fractal_assignment":["../images/ylw_slt.png","../images/blu_wht.png","../images/pnk_blu.png","../images/gry_blk.png","../images/org_blu.png","../images/cyn_red.png"],"mutagen_generator_assignment":[0,1],"goal":2,"start":5,"action_noise":0.15,"location_history":"[5,0,5,0,5,0,5,0,5,0,5,4,5,4,5,4,3,2]","action_history":"[0,0,0,0,0,0,0,0,0,0,1,1,1,1,1,0,1]","mutagen_history":"[0,0,0,0,0,0,0,0,0,0,1,1,1,1,1,0,1]","location_rts":"[36011,235,455,84,107,41,7237,1062,3616,79,110,156,111,82,3,113,79]","trial_type":"fractal-mutation","trial_index":57,"time_elapsed":1460870,"internal_node_id":"0.0-5.0-3.0"},{"group":"hexagon_bi","fractal_assignment":["../images/ylw_slt.png","../images/blu_wht.png","../images/pnk_blu.png","../images/gry_blk.png","../images/org_blu.png","../images/cyn_red.png"],"mutagen_generator_assignment":[0,1],"goal":1,"start":2,"action_noise":0.15,"location_history":"[2,1]","action_history":"[0]","mutagen_history":"[0]","location_rts":"[3328]","trial_type":"fractal-mutation","trial_index":58,"time_elapsed":1468752,"internal_node_id":"0.0-5.0-4.0"},{"group":"hexagon_bi","fractal_assignment":["../images/ylw_slt.png","../images/blu_wht.png","../images/pnk_blu.png","../images/gry_blk.png","../images/org_blu.png","../images/cyn_red.png"],"mutagen_generator_assignment":[0,1],"goal":4,"start":1,"action_noise":0.15,"location_history":"[1,2,3,4]","action_history":"[0,1,0]","mutagen_history":"[0,1,0]","location_rts":"[10708,603,319]","trial_type":"fractal-mutation","trial_index":59,"time_elapsed":1487042,"internal_node_id":"0.0-5.0-5.0"},{"group":"hexagon_bi","fractal_assignment":["../images/ylw_slt.png","../images/blu_wht.png","../images/pnk_blu.png","../images/gry_blk.png","../images/org_blu.png","../images/cyn_red.png"],"mutagen_generator_assignment":[0,1],"goal":1,"start":4,"action_noise":0.15,"location_history":"[4,5,4,3,2,3,2,1]","action_history":"[0,1,1,1,1,1,0]","mutagen_history":"[0,1,1,1,1,1,0]","location_rts":"[654,324,397,376,341,289,335]","trial_type":"fractal-mutation","trial_index":60,"time_elapsed":1500707,"internal_node_id":"0.0-5.0-6.0"},{"group":"hexagon_bi","fractal_assignment":["../images/ylw_slt.png","../images/blu_wht.png","../images/pnk_blu.png","../images/gry_blk.png","../images/org_blu.png","../images/cyn_red.png"],"mutagen_generator_assignment":[0,1],"goal":5,"start":1,"action_noise":0.15,"location_history":"[1,2,1,2,3,4,3,2,1,0,5]","action_history":"[0,0,0,1,0,0,0,0,0,0]","mutagen_history":"[0,0,0,1,0,0,0,0,0,0]","location_rts":"[3061,423,277,200,245,2492,468,485,462,549]","trial_type":"fractal-mutation","trial_index":61,"time_elapsed":1523332,"internal_node_id":"0.0-5.0-7.0"},{"group":"hexagon_bi","fractal_assignment":["../images/ylw_slt.png","../images/blu_wht.png","../images/pnk_blu.png","../images/gry_blk.png","../images/org_blu.png","../images/cyn_red.png"],"mutagen_generator_assignment":[0,1],"goal":0,"start":5,"action_noise":0.15,"location_history":"[5,4,3,4,3,4,3,4,3,2,1,2,1,0]","action_history":"[0,0,0,0,0,0,0,0,0,0,0,0,0]","mutagen_history":"[0,0,0,0,0,0,0,0,0,0,0,0,0]","location_rts":"[9998,325,599,316,121,968,10929,11267,9880,141,477,129,199]","trial_type":"fractal-mutation","trial_index":62,"time_elapsed":1586094,"internal_node_id":"0.0-5.0-8.0"},{"group":"hexagon_bi","fractal_assignment":["../images/ylw_slt.png","../images/blu_wht.png","../images/pnk_blu.png","../images/gry_blk.png","../images/org_blu.png","../images/cyn_red.png"],"mutagen_generator_assignment":[0,1],"goal":2,"start":0,"action_noise":0.15,"location_history":"[0,5,4,5,4,5,0,1,0,1,0,5,4,5,0,5,0,1,2]","action_history":"[0,1,1,1,1,0,1,1,1,1,0,1,1,0,0,0,0,0]","mutagen_history":"[0,1,1,1,1,0,1,1,1,1,0,1,1,0,0,0,0,0]","location_rts":"[14731,2454,358,423,308,184,209,304,417,369,16,437,385,530,125,107,92,469]","trial_type":"fractal-mutation","trial_index":63,"time_elapsed":1630549,"internal_node_id":"0.0-5.0-9.0"},{"group":"hexagon_bi","fractal_assignment":["../images/ylw_slt.png","../images/blu_wht.png","../images/pnk_blu.png","../images/gry_blk.png","../images/org_blu.png","../images/cyn_red.png"],"mutagen_generator_assignment":[0,1],"goal":3,"start":2,"action_noise":0.15,"location_history":"[2,1,2,3]","action_history":"[0,0,1]","mutagen_history":"[0,0,1]","location_rts":"[86,69,92]","trial_type":"fractal-mutation","trial_index":64,"time_elapsed":1637460,"internal_node_id":"0.0-5.0-10.0"},{"group":"hexagon_bi","fractal_assignment":["../images/ylw_slt.png","../images/blu_wht.png","../images/pnk_blu.png","../images/gry_blk.png","../images/org_blu.png","../images/cyn_red.png"],"mutagen_generator_assignment":[0,1],"goal":0,"start":3,"action_noise":0.15,"location_history":"[3,4,3,4,3,4,5,4,5,0]","action_history":"[0,0,0,0,1,1,1,1,0]","mutagen_history":"[0,0,0,0,1,1,1,1,0]","location_rts":"[151,123,254,142,124,50,129,150,222]","trial_type":"fractal-mutation","trial_index":65,"time_elapsed":1651794,"internal_node_id":"0.0-5.0-11.0"},{"group":"hexagon_bi","fractal_assignment":["../images/ylw_slt.png","../images/blu_wht.png","../images/pnk_blu.png","../images/gry_blk.png","../images/org_blu.png","../images/cyn_red.png"],"mutagen_generator_assignment":[0,1],"goal":2,"start":0,"action_noise":0.15,"location_history":"[0,5,0,5,0,5,0,5,0,1,0,1,0,1,0,5,4,5,4,5,0,1,2]","action_history":"[0,0,0,0,0,0,0,0,1,1,1,0,0,0,0,1,1,1,1,0,0,0]","mutagen_history":"[0,0,0,0,0,0,0,0,1,1,1,0,0,0,0,1,1,1,1,0,0,0]","location_rts":"[50,181,118,143,14,34,183,35,64,153,122,98,112,62,121,103,73,107,172,151,187,541]","trial_type":"fractal-mutation","trial_index":66,"time_elapsed":1681232,"internal_node_id":"0.0-5.0-12.0"},{"group":"hexagon_bi","fractal_assignment":["../images/ylw_slt.png","../images/blu_wht.png","../images/pnk_blu.png","../images/gry_blk.png","../images/org_blu.png","../images/cyn_red.png"],"mutagen_generator_assignment":[0,1],"goal":5,"start":2,"action_noise":0.15,"location_history":"[2,1,2,3,4,3,2,3,2,3,2,3,4,3,4,3,2,3,2,1,2,1,0,5]","action_history":"[0,0,1,0,0,0,1,1,1,1,0,0,0,0,0,1,1,1,0,0,0,1,0]","mutagen_history":"[0,0,1,0,0,0,1,1,1,1,0,0,0,0,0,1,1,1,0,0,0,1,0]","location_rts":"[423,104,244,114,134,199,120,155,477,131,202,31,235,753,359,183,254,331,273,204,169,135,142]","trial_type":"fractal-mutation","trial_index":67,"time_elapsed":1714272,"internal_node_id":"0.0-5.0-13.0"},{"group":"hexagon_bi","fractal_assignment":["../images/ylw_slt.png","../images/blu_wht.png","../images/pnk_blu.png","../images/gry_blk.png","../images/org_blu.png","../images/cyn_red.png"],"mutagen_generator_assignment":[0,1],"goal":4,"start":5,"action_noise":0.15,"location_history":"[5,0,1,0,1,0,5,0,1,0,1,0,1,0,5,0,5,4]","action_history":"[0,1,1,1,0,0,0,1,1,1,1,0,0,0,0,1,1]","mutagen_history":"[0,1,1,1,0,0,0,1,1,1,1,0,0,0,0,1,1]","location_rts":"[144,138,0,122,67,46,196,66,142,22,94,334,66,58,243,104,127]","trial_type":"fractal-mutation","trial_index":68,"time_elapsed":1737690,"internal_node_id":"0.0-5.0-14.0"},{"group":"hexagon_bi","fractal_assignment":["../images/ylw_slt.png","../images/blu_wht.png","../images/pnk_blu.png","../images/gry_blk.png","../images/org_blu.png","../images/cyn_red.png"],"mutagen_generator_assignment":[0,1],"goal":3,"start":4,"action_noise":0.15,"location_history":"[4,3]","action_history":"[0]","mutagen_history":"[0]","location_rts":"[497]","trial_type":"fractal-mutation","trial_index":69,"time_elapsed":1742731,"internal_node_id":"0.0-5.0-15.0"},{"group":"hexagon_bi","fractal_assignment":["../images/ylw_slt.png","../images/blu_wht.png","../images/pnk_blu.png","../images/gry_blk.png","../images/org_blu.png","../images/cyn_red.png"],"mutagen_generator_assignment":[0,1],"goal":1,"start":3,"action_noise":0.15,"location_history":"[3,4,5,4,5,0,1]","action_history":"[0,1,1,1,0,1]","mutagen_history":"[0,1,1,1,0,1]","location_rts":"[9,79,70,28,173,155]","trial_type":"fractal-mutation","trial_index":70,"time_elapsed":1753094,"internal_node_id":"0.0-5.0-16.0"},{"group":"hexagon_bi","fractal_assignment":["../images/ylw_slt.png","../images/blu_wht.png","../images/pnk_blu.png","../images/gry_blk.png","../images/org_blu.png","../images/cyn_red.png"],"mutagen_generator_assignment":[0,1],"goal":5,"start":1,"action_noise":0.15,"location_history":"[1,2,1,2,1,2,1,0,5]","action_history":"[0,0,0,0,0,0,1,0]","mutagen_history":"[0,0,0,0,0,0,1,0]","location_rts":"[55,270,215,135,593,47,87,374]","trial_type":"fractal-mutation","trial_index":71,"time_elapsed":1766728,"internal_node_id":"0.0-5.0-17.0"},{"group":"hexagon_bi","fractal_assignment":["../images/ylw_slt.png","../images/blu_wht.png","../images/pnk_blu.png","../images/gry_blk.png","../images/org_blu.png","../images/cyn_red.png"],"mutagen_generator_assignment":[0,1],"goal":4,"start":5,"action_noise":0.15,"location_history":"[5,0,5,4]","action_history":"[0,0,1]","mutagen_history":"[0,0,1]","location_rts":"[343,207,2]","trial_type":"fractal-mutation","trial_index":72,"time_elapsed":1773937,"internal_node_id":"0.0-5.0-18.0"},{"group":"hexagon_bi","fractal_assignment":["../images/ylw_slt.png","../images/blu_wht.png","../images/pnk_blu.png","../images/gry_blk.png","../images/org_blu.png","../images/cyn_red.png"],"mutagen_generator_assignment":[0,1],"goal":0,"start":4,"action_noise":0.15,"location_history":"[4,3,2,1,2,1,0]","action_history":"[0,1,0,0,0,1]","mutagen_history":"[0,1,0,0,0,1]","location_rts":"[37,133,19,109,223,86]","trial_type":"fractal-mutation","trial_index":73,"time_elapsed":1784351,"internal_node_id":"0.0-5.0-19.0"},{"group":"hexagon_bi","fractal_assignment":["../images/ylw_slt.png","../images/blu_wht.png","../images/pnk_blu.png","../images/gry_blk.png","../images/org_blu.png","../images/cyn_red.png"],"mutagen_generator_assignment":[0,1],"goal":1,"start":0,"action_noise":0.15,"location_history":"[0,1]","action_history":"[0]","mutagen_history":"[0]","location_rts":"[18]","trial_type":"fractal-mutation","trial_index":74,"time_elapsed":1788913,"internal_node_id":"0.0-5.0-20.0"},{"group":"hexagon_bi","fractal_assignment":["../images/ylw_slt.png","../images/blu_wht.png","../images/pnk_blu.png","../images/gry_blk.png","../images/org_blu.png","../images/cyn_red.png"],"mutagen_generator_assignment":[0,1],"goal":3,"start":1,"action_noise":0.15,"location_history":"[1,2,1,2,3]","action_history":"[0,0,0,1]","mutagen_history":"[0,0,0,1]","location_rts":"[96,204,105,31]","trial_type":"fractal-mutation","trial_index":75,"time_elapsed":1797043,"internal_node_id":"0.0-5.0-21.0"},{"group":"hexagon_bi","fractal_assignment":["../images/ylw_slt.png","../images/blu_wht.png","../images/pnk_blu.png","../images/gry_blk.png","../images/org_blu.png","../images/cyn_red.png"],"mutagen_generator_assignment":[0,1],"goal":2,"start":3,"action_noise":0.15,"location_history":"[3,4,5,4,5,4,3,4,3,4,3,2]","action_history":"[0,1,1,1,1,0,0,0,0,0,1]","mutagen_history":"[0,1,1,1,1,0,0,0,0,0,1]","location_rts":"[31,160,63,57,8,105,98,118,14,84,156]","trial_type":"fractal-mutation","trial_index":76,"time_elapsed":1813020,"internal_node_id":"0.0-5.0-22.0"},{"group":"hexagon_bi","fractal_assignment":["../images/ylw_slt.png","../images/blu_wht.png","../images/pnk_blu.png","../images/gry_blk.png","../images/org_blu.png","../images/cyn_red.png"],"mutagen_generator_assignment":[0,1],"goal":0,"start":2,"action_noise":0.15,"location_history":"[2,1,2,1,0]","action_history":"[0,0,0,0]","mutagen_history":"[0,0,0,0]","location_rts":"[199,191,54,253]","trial_type":"fractal-mutation","trial_index":77,"time_elapsed":1821393,"internal_node_id":"0.0-5.0-23.0"},{"group":"hexagon_bi","fractal_assignment":["../images/ylw_slt.png","../images/blu_wht.png","../images/pnk_blu.png","../images/gry_blk.png","../images/org_blu.png","../images/cyn_red.png"],"mutagen_generator_assignment":[0,1],"goal":3,"start":0,"action_noise":0.15,"location_history":"[0,5,0,5,0,1,2,1,2,3]","action_history":"[0,0,0,0,1,0,0,0,1]","mutagen_history":"[0,0,0,0,1,0,0,0,1]","location_rts":"[333,166,90,292,29,183,176,138,152]","trial_type":"fractal-mutation","trial_index":78,"time_elapsed":1835909,"internal_node_id":"0.0-5.0-24.0"},{"group":"hexagon_bi","fractal_assignment":["../images/ylw_slt.png","../images/blu_wht.png","../images/pnk_blu.png","../images/gry_blk.png","../images/org_blu.png","../images/cyn_red.png"],"mutagen_generator_assignment":[0,1],"goal":1,"start":3,"action_noise":0.15,"location_history":"[3,2,3,4,5,4,3,2,3,2,3,2,3,2,3,4,3,2,1]","action_history":"[1,1,0,1,1,0,1,1,1,0,1,1,1,0,0,0,1,0]","mutagen_history":"[1,1,0,1,1,0,1,1,1,0,1,1,1,0,0,0,1,0]","location_rts":"[89,165,286,55,109,84,89,176,3,111,59,33,178,69,226,163,1082,103]","trial_type":"fractal-mutation","trial_index":79,"time_elapsed":1861562,"internal_node_id":"0.0-5.0-25.0"},{"group":"hexagon_bi","fractal_assignment":["../images/ylw_slt.png","../images/blu_wht.png","../images/pnk_blu.png","../images/gry_blk.png","../images/org_blu.png","../images/cyn_red.png"],"mutagen_generator_assignment":[0,1],"goal":2,"start":1,"action_noise":0.15,"location_history":"[1,2]","action_history":"[0]","mutagen_history":"[0]","location_rts":"[622]","trial_type":"fractal-mutation","trial_index":80,"time_elapsed":1866736,"internal_node_id":"0.0-5.0-26.0"},{"group":"hexagon_bi","fractal_assignment":["../images/ylw_slt.png","../images/blu_wht.png","../images/pnk_blu.png","../images/gry_blk.png","../images/org_blu.png","../images/cyn_red.png"],"mutagen_generator_assignment":[0,1],"goal":5,"start":2,"action_noise":0.15,"location_history":"[2,1,0,5]","action_history":"[0,1,0]","mutagen_history":"[0,1,0]","location_rts":"[392,334,247]","trial_type":"fractal-mutation","trial_index":81,"time_elapsed":1874367,"internal_node_id":"0.0-5.0-27.0"},{"group":"hexagon_bi","fractal_assignment":["../images/ylw_slt.png","../images/blu_wht.png","../images/pnk_blu.png","../images/gry_blk.png","../images/org_blu.png","../images/cyn_red.png"],"mutagen_generator_assignment":[0,1],"goal":4,"start":5,"action_noise":0.15,"location_history":"[5,0,1,2,1,0,5,4]","action_history":"[0,1,1,0,0,0,1]","mutagen_history":"[0,1,1,0,0,0,1]","location_rts":"[338,296,75,148,130,228,357]","trial_type":"fractal-mutation","trial_index":82,"time_elapsed":1886840,"internal_node_id":"0.0-5.0-28.0"},{"group":"hexagon_bi","fractal_assignment":["../images/ylw_slt.png","../images/blu_wht.png","../images/pnk_blu.png","../images/gry_blk.png","../images/org_blu.png","../images/cyn_red.png"],"mutagen_generator_assignment":[0,1],"goal":5,"start":4,"action_noise":0.15,"location_history":"[4,3,2,1,2,1,2,3,4,3,2,3,4,5]","action_history":"[0,1,0,0,0,0,1,0,0,1,0,0,1]","mutagen_history":"[0,1,0,0,0,0,1,0,0,1,0,0,1]","location_rts":"[274,180,59,65,86,107,69,64,199,773,284,70,486]","trial_type":"fractal-mutation","trial_index":83,"time_elapsed":1906710,"internal_node_id":"0.0-5.0-29.0"},{"group":"hexagon_bi","fractal_assignment":["../images/ylw_slt.png","../images/blu_wht.png","../images/pnk_blu.png","../images/gry_blk.png","../images/org_blu.png","../images/cyn_red.png"],"mutagen_generator_assignment":[0,1],"goal":3,"start":5,"action_noise":0.15,"location_history":"[5,4,5,4,3]","action_history":"[1,1,1,0]","mutagen_history":"[1,1,1,0]","location_rts":"[252,97,104,272]","trial_type":"fractal-mutation","trial_index":84,"time_elapsed":1915175,"internal_node_id":"0.0-5.0-30.0"},{"group":"hexagon_bi","fractal_assignment":["../images/ylw_slt.png","../images/blu_wht.png","../images/pnk_blu.png","../images/gry_blk.png","../images/org_blu.png","../images/cyn_red.png"],"mutagen_generator_assignment":[0,1],"goal":0,"start":3,"action_noise":0.15,"location_history":"[3,4,3,4,3,4,3,2,1,2,3,4,5,4,3,4,3,2,1,2,1,0]","action_history":"[1,0,0,1,0,0,1,0,0,1,0,1,0,0,0,0,1,0,0,0,1]","mutagen_history":"[1,0,0,1,0,0,1,0,0,1,0,1,0,0,0,0,1,0,0,0,1]","location_rts":"[36,1045,102,144,185,641,119,100,160,110,310,263,88,324,244,223,664,65,165,119,322]","trial_type":"fractal-mutation","trial_index":85,"time_elapsed":1946240,"internal_node_id":"0.0-5.0-31.0"},{"group":"hexagon_bi","fractal_assignment":["../images/ylw_slt.png","../images/blu_wht.png","../images/pnk_blu.png","../images/gry_blk.png","../images/org_blu.png","../images/cyn_red.png"],"mutagen_generator_assignment":[0,1],"goal":4,"start":0,"action_noise":0.15,"location_history":"[0,5,4]","action_history":"[0,1]","mutagen_history":"[0,1]","location_rts":"[424,292]","trial_type":"fractal-mutation","trial_index":86,"time_elapsed":1952571,"internal_node_id":"0.0-5.0-32.0"},{"group":"hexagon_bi","fractal_assignment":["../images/ylw_slt.png","../images/blu_wht.png","../images/pnk_blu.png","../images/gry_blk.png","../images/org_blu.png","../images/cyn_red.png"],"mutagen_generator_assignment":[0,1],"goal":1,"start":4,"action_noise":0.15,"location_history":"[4,5,4,3,4,3,2,3,4,3,4,3,2,3,2,1]","action_history":"[1,0,0,0,0,0,1,0,0,0,0,1,1,1,0]","mutagen_history":"[1,0,0,0,0,0,1,0,0,0,0,1,1,1,0]","location_rts":"[324,163,316,317,260,2232,1393,391,173,1042,103,134,280,180,20]","trial_type":"fractal-mutation","trial_index":87,"time_elapsed":1979207,"internal_node_id":"0.0-5.0-33.0"},{"group":"hexagon_bi","fractal_assignment":["../images/ylw_slt.png","../images/blu_wht.png","../images/pnk_blu.png","../images/gry_blk.png","../images/org_blu.png","../images/cyn_red.png"],"mutagen_generator_assignment":[0,1],"goal":2,"start":1,"action_noise":0.15,"location_history":"[1,2]","action_history":"[0]","mutagen_history":"[0]","location_rts":"[2587]","trial_type":"fractal-mutation","trial_index":88,"time_elapsed":1986349,"internal_node_id":"0.0-5.0-34.0"},{"group":"hexagon_bi","fractal_assignment":["../images/ylw_slt.png","../images/blu_wht.png","../images/pnk_blu.png","../images/gry_blk.png","../images/org_blu.png","../images/cyn_red.png"],"mutagen_generator_assignment":[0,1],"goal":0,"start":2,"action_noise":0.15,"location_history":"[2,1,0]","action_history":"[0,1]","mutagen_history":"[0,1]","location_rts":"[903,273]","trial_type":"fractal-mutation","trial_index":89,"time_elapsed":1993143,"internal_node_id":"0.0-5.0-35.0"},{"group":"hexagon_bi","fractal_assignment":["../images/ylw_slt.png","../images/blu_wht.png","../images/pnk_blu.png","../images/gry_blk.png","../images/org_blu.png","../images/cyn_red.png"],"mutagen_generator_assignment":[0,1],"goal":5,"start":0,"action_noise":0.15,"location_history":"[0,5]","action_history":"[0]","mutagen_history":"[0]","location_rts":"[732]","trial_type":"fractal-mutation","trial_index":90,"time_elapsed":1998429,"internal_node_id":"0.0-5.0-36.0"},{"group":"hexagon_bi","fractal_assignment":["../images/ylw_slt.png","../images/blu_wht.png","../images/pnk_blu.png","../images/gry_blk.png","../images/org_blu.png","../images/cyn_red.png"],"mutagen_generator_assignment":[0,1],"goal":2,"start":5,"action_noise":0.15,"location_history":"[5,0,5,0,5,4,3,2]","action_history":"[0,0,0,0,1,0,1]","mutagen_history":"[0,0,0,0,1,0,1]","location_rts":"[1377,1390,2162,277,209,1672,2211]","trial_type":"fractal-mutation","trial_index":91,"time_elapsed":2018612,"internal_node_id":"0.0-5.0-37.0"},{"group":"hexagon_bi","fractal_assignment":["../images/ylw_slt.png","../images/blu_wht.png","../images/pnk_blu.png","../images/gry_blk.png","../images/org_blu.png","../images/cyn_red.png"],"mutagen_generator_assignment":[0,1],"goal":1,"start":2,"action_noise":0.15,"location_history":"[2,1]","action_history":"[0]","mutagen_history":"[0]","location_rts":"[822]","trial_type":"fractal-mutation","trial_index":92,"time_elapsed":2023980,"internal_node_id":"0.0-5.0-38.0"},{"group":"hexagon_bi","fractal_assignment":["../images/ylw_slt.png","../images/blu_wht.png","../images/pnk_blu.png","../images/gry_blk.png","../images/org_blu.png","../images/cyn_red.png"],"mutagen_generator_assignment":[0,1],"goal":4,"start":1,"action_noise":0.15,"location_history":"[1,2,3,4]","action_history":"[0,0,0]","mutagen_history":"[0,0,0]","location_rts":"[1642,2829,1361]","trial_type":"fractal-mutation","trial_index":93,"time_elapsed":2036443,"internal_node_id":"0.0-5.0-39.0"},{"group":"hexagon_bi","fractal_assignment":["../images/ylw_slt.png","../images/blu_wht.png","../images/pnk_blu.png","../images/gry_blk.png","../images/org_blu.png","../images/cyn_red.png"],"mutagen_generator_assignment":[0,1],"goal":3,"start":4,"action_noise":0.15,"location_history":"[4,5,0,5,0,5,0,5,4,3]","action_history":"[1,0,0,0,0,0,0,1,0]","mutagen_history":"[1,0,0,0,0,0,0,1,0]","location_rts":"[500,355,423,1396,419,220,1934,305,305]","trial_type":"fractal-mutation","trial_index":94,"time_elapsed":2055269,"internal_node_id":"0.0-5.0-40.0"},{"group":"hexagon_bi","fractal_assignment":["../images/ylw_slt.png","../images/blu_wht.png","../images/pnk_blu.png","../images/gry_blk.png","../images/org_blu.png","../images/cyn_red.png"],"mutagen_generator_assignment":[0,1],"goal":5,"start":3,"action_noise":0.15,"location_history":"[3,4,5]","action_history":"[0,0]","mutagen_history":"[0,0]","location_rts":"[21135,284]","trial_type":"fractal-mutation","trial_index":95,"time_elapsed":2082276,"internal_node_id":"0.0-5.0-41.0"},{"group":"hexagon_bi","fractal_assignment":["../images/ylw_slt.png","../images/blu_wht.png","../images/pnk_blu.png","../images/gry_blk.png","../images/org_blu.png","../images/cyn_red.png"],"mutagen_generator_assignment":[0,1],"goal":3,"start":5,"action_noise":0.15,"location_history":"[5,4,3]","action_history":"[0,0]","mutagen_history":"[0,0]","location_rts":"[6097,156]","trial_type":"fractal-mutation","trial_index":96,"time_elapsed":2094126,"internal_node_id":"0.0-5.0-42.0"},{"group":"hexagon_bi","fractal_assignment":["../images/ylw_slt.png","../images/blu_wht.png","../images/pnk_blu.png","../images/gry_blk.png","../images/org_blu.png","../images/cyn_red.png"],"mutagen_generator_assignment":[0,1],"goal":0,"start":3,"action_noise":0.15,"location_history":"[3,4,3,4,5,0]","action_history":"[0,0,0,1,0]","mutagen_history":"[0,0,0,1,0]","location_rts":"[3504,242,436,258,340]","trial_type":"fractal-mutation","trial_index":97,"time_elapsed":2107650,"internal_node_id":"0.0-5.0-43.0"},{"group":"hexagon_bi","fractal_assignment":["../images/ylw_slt.png","../images/blu_wht.png","../images/pnk_blu.png","../images/gry_blk.png","../images/org_blu.png","../images/cyn_red.png"],"mutagen_generator_assignment":[0,1],"goal":2,"start":0,"action_noise":0.15,"location_history":"[0,5,0,1,0,5,0,5,0,5,0,5,4,3,4,3,4,3,4,5,4,3,4,5,0,5,0,1,0,1,2]","action_history":"[0,0,1,0,0,1,0,0,0,0,1,1,0,0,0,1,0,0,1,1,0,0,1,0,0,0,1,1,1,0]","mutagen_history":"[0,0,1,0,0,1,0,0,0,0,1,1,0,0,0,1,0,0,1,1,0,0,1,0,0,0,1,1,1,0]","location_rts":"[5555,3546,383,1341,321,272,385,151,320,306,112,424,416,299,515,442,362,195,163,517,284,174,133,156,262,437,226,343,220,332]","trial_type":"fractal-mutation","trial_index":98,"time_elapsed":2161376,"internal_node_id":"0.0-5.0-44.0"},{"group":"hexagon_bi","fractal_assignment":["../images/ylw_slt.png","../images/blu_wht.png","../images/pnk_blu.png","../images/gry_blk.png","../images/org_blu.png","../images/cyn_red.png"],"mutagen_generator_assignment":[0,1],"goal":4,"start":2,"action_noise":0.15,"location_history":"[2,1,0,5,0,5,4]","action_history":"[0,1,0,0,0,1]","mutagen_history":"[0,1,0,0,0,1]","location_rts":"[1287,161,181,318,398,605]","trial_type":"fractal-mutation","trial_index":99,"time_elapsed":2174147,"internal_node_id":"0.0-5.0-45.0"},{"group":"hexagon_bi","fractal_assignment":["../images/ylw_slt.png","../images/blu_wht.png","../images/pnk_blu.png","../images/gry_blk.png","../images/org_blu.png","../images/cyn_red.png"],"mutagen_generator_assignment":[0,1],"goal":1,"start":4,"action_noise":0.15,"location_history":"[4,5,0,1]","action_history":"[1,0,0]","mutagen_history":"[1,0,0]","location_rts":"[20066,162,165]","trial_type":"fractal-mutation","trial_index":100,"time_elapsed":2201211,"internal_node_id":"0.0-5.0-46.0"},{"group":"hexagon_bi","fractal_assignment":["../images/ylw_slt.png","../images/blu_wht.png","../images/pnk_blu.png","../images/gry_blk.png","../images/org_blu.png","../images/cyn_red.png"],"mutagen_generator_assignment":[0,1],"goal":4,"start":1,"action_noise":0.15,"location_history":"[1,0,1,0,5,0,5,0,1,2,1,2,3,2,3,2,1,2,1,0,1,2,3,4]","action_history":"[0,0,1,0,0,0,0,1,0,0,0,1,0,0,1,0,0,0,1,1,1,1,0]","mutagen_history":"[0,0,1,0,0,0,0,1,0,0,0,1,0,0,1,0,0,0,1,1,1,1,0]","location_rts":"[46302,471,406,353,69,300,316,373,304,326,315,244,185,287,350,272,205,590,214,110,85,170,88]","trial_type":"fractal-mutation","trial_index":101,"time_elapsed":2281291,"internal_node_id":"0.0-5.0-47.0"},{"group":"hexagon_bi","fractal_assignment":["../images/ylw_slt.png","../images/blu_wht.png","../images/pnk_blu.png","../images/gry_blk.png","../images/org_blu.png","../images/cyn_red.png"],"mutagen_generator_assignment":[0,1],"goal":3,"start":4,"action_noise":0.15,"location_history":"[4,3]","action_history":"[0]","mutagen_history":"[0]","location_rts":"[1354]","trial_type":"fractal-mutation","trial_index":102,"time_elapsed":2287190,"internal_node_id":"0.0-5.0-48.0"},{"group":"hexagon_bi","fractal_assignment":["../images/ylw_slt.png","../images/blu_wht.png","../images/pnk_blu.png","../images/gry_blk.png","../images/org_blu.png","../images/cyn_red.png"],"mutagen_generator_assignment":[0,1],"goal":5,"start":3,"action_noise":0.15,"location_history":"[3,4,3,4,3,2,1,0,5]","action_history":"[0,0,0,0,1,0,0,0]","mutagen_history":"[0,0,0,0,1,0,0,0]","location_rts":"[30955,448,233,277,1088,491,314,97]","trial_type":"fractal-mutation","trial_index":103,"time_elapsed":2333061,"internal_node_id":"0.0-5.0-49.0"},{"view_history":"[{\"page_index\":0,\"viewing_time\":11081}]","rt":11081,"trial_type":"instructions","trial_index":104,"time_elapsed":2345143,"internal_node_id":"0.0-6.0"},{"rt":22307,"responses":"{\"Q0\":\"underpaid trash. I will NOT be completing the next HITs and I will be leaving a horrible review to warn others about this. \"}","trial_type":"survey-text","trial_index":105,"time_elapsed":2368452,"internal_node_id":"0.0-7.0"}]