[{"view_history":"[{\"page_index\":0,\"viewing_time\":25055},{\"page_index\":1,\"viewing_time\":11247},{\"page_index\":2,\"viewing_time\":16141},{\"page_index\":3,\"viewing_time\":9021}]","rt":61465,"trial_type":"instructions","trial_index":0,"time_elapsed":61465,"internal_node_id":"0.0-0.0"},{"view_history":"[{\"page_index\":0,\"viewing_time\":2513},{\"page_index\":1,\"viewing_time\":69751}]","rt":72264,"trial_type":"instructions","trial_index":1,"time_elapsed":134729,"internal_node_id":"0.0-1.0"},{"group":"hexagon_bi","room_assignment":["green","grey","purple","yellow","blue","red"],"door_color_assignment":["black","white"],"door_generator_assignment":[0,1],"goal":4,"start":0,"action_noise":0.15,"location_history":"[0,5,4]","action_history":"[1,1]","door_history":"[1,1]","location_rts":"[4325,1369]","trial_type":"two-door-navigation","trial_index":2,"time_elapsed":145968,"internal_node_id":"0.0-2.0-0.0"},{"group":"hexagon_bi","room_assignment":["green","grey","purple","yellow","blue","red"],"door_color_assignment":["black","white"],"door_generator_assignment":[0,1],"goal":3,"start":4,"action_noise":0.15,"location_history":"[4,3]","action_history":"[0]","door_history":"[0]","location_rts":"[2183]","trial_type":"two-door-navigation","trial_index":3,"time_elapsed":152676,"internal_node_id":"0.0-2.0-1.0"},{"group":"hexagon_bi","room_assignment":["green","grey","purple","yellow","blue","red"],"door_color_assignment":["black","white"],"door_generator_assignment":[0,1],"goal":5,"start":3,"action_noise":0.15,"location_history":"[3,2,3,4,3,2,3,2,1,2,1,0,5]","action_history":"[1,1,0,1,1,1,1,0,0,0,1,0]","door_history":"[1,1,0,1,1,1,1,0,0,0,1,0]","location_rts":"[2545,1151,583,560,326,365,384,1010,370,407,1085,630]","trial_type":"two-door-navigation","trial_index":4,"time_elapsed":177804,"internal_node_id":"0.0-2.0-2.0"},{"group":"hexagon_bi","room_assignment":["green","grey","purple","yellow","blue","red"],"door_color_assignment":["black","white"],"door_generator_assignment":[0,1],"goal":2,"start":5,"action_noise":0.15,"location_history":"[5,0,1,2]","action_history":"[0,1,0]","door_history":"[0,1,0]","location_rts":"[2133,1570,1226]","trial_type":"two-door-navigation","trial_index":5,"time_elapsed":189297,"internal_node_id":"0.0-2.0-3.0"},{"group":"hexagon_bi","room_assignment":["green","grey","purple","yellow","blue","red"],"door_color_assignment":["black","white"],"door_generator_assignment":[0,1],"goal":1,"start":2,"action_noise":0.15,"location_history":"[2,3,2,3,2,1]","action_history":"[1,1,1,1,0]","door_history":"[1,1,1,1,0]","location_rts":"[1681,570,810,960,744]","trial_type":"two-door-navigation","trial_index":6,"time_elapsed":202659,"internal_node_id":"0.0-2.0-4.0"},{"group":"hexagon_bi","room_assignment":["green","grey","purple","yellow","blue","red"],"door_color_assignment":["black","white"],"door_generator_assignment":[0,1],"goal":4,"start":1,"action_noise":0.15,"location_history":"[1,0,1,2,1,2,3,2,1,0,5,0,1,2,1,0,1,2,1,2,3,2,1,2,3,2,1,0,5,4]","action_history":"[0,0,0,0,1,1,1,1,1,0,1,1,0,0,1,1,0,0,0,1,1,0,0,1,1,0,0,0,1]","door_history":"[0,0,0,0,1,1,1,1,1,0,1,1,0,0,1,1,0,0,0,1,1,0,0,1,1,0,0,0,1]","location_rts":"[1585,495,501,700,455,254,402,447,441,308,490,512,337,383,495,491,215,245,254,402,503,278,485,335,386,240,415,587,897]","trial_type":"two-door-navigation","trial_index":7,"time_elapsed":249252,"internal_node_id":"0.0-2.0-5.0"},{"group":"hexagon_bi","room_assignment":["green","grey","purple","yellow","blue","red"],"door_color_assignment":["black","white"],"door_generator_assignment":[0,1],"goal":1,"start":4,"action_noise":0.15,"location_history":"[4,3,2,3,2,3,4,3,2,1]","action_history":"[0,1,1,1,1,0,0,1,0]","door_history":"[0,1,1,1,1,0,0,1,0]","location_rts":"[2175,1171,852,921,847,416,248,1026,812]","trial_type":"two-door-navigation","trial_index":8,"time_elapsed":270395,"internal_node_id":"0.0-2.0-6.0"},{"group":"hexagon_bi","room_assignment":["green","grey","purple","yellow","blue","red"],"door_color_assignment":["black","white"],"door_generator_assignment":[0,1],"goal":5,"start":1,"action_noise":0.15,"location_history":"[1,2,3,2,1,2,1,2,3,4,3,2,1,2,1,0,1,2,1,0,5]","action_history":"[0,1,1,0,0,0,1,1,0,0,1,1,0,0,1,1,0,0,1,0]","door_history":"[0,1,1,0,0,0,1,1,0,0,1,1,0,0,1,1,0,0,1,0]","location_rts":"[1844,1591,1145,774,716,990,411,327,737,2363,489,1440,852,413,280,486,566,480,338,339]","trial_type":"two-door-navigation","trial_index":9,"time_elapsed":310793,"internal_node_id":"0.0-2.0-7.0"},{"group":"hexagon_bi","room_assignment":["green","grey","purple","yellow","blue","red"],"door_color_assignment":["black","white"],"door_generator_assignment":[0,1],"goal":0,"start":5,"action_noise":0.15,"location_history":"[5,0]","action_history":"[0]","door_history":"[0]","location_rts":"[1389]","trial_type":"two-door-navigation","trial_index":10,"time_elapsed":316701,"internal_node_id":"0.0-2.0-8.0"},{"group":"hexagon_bi","room_assignment":["green","grey","purple","yellow","blue","red"],"door_color_assignment":["black","white"],"door_generator_assignment":[0,1],"goal":2,"start":0,"action_noise":0.15,"location_history":"[0,5,4,3,4,5,4,3,2]","action_history":"[0,1,0,0,1,0,0,1]","door_history":"[0,1,0,0,1,0,0,1]","location_rts":"[463,433,893,776,703,939,584,569]","trial_type":"two-door-navigation","trial_index":11,"time_elapsed":333712,"internal_node_id":"0.0-2.0-9.0"},{"group":"hexagon_bi","room_assignment":["green","grey","purple","yellow","blue","red"],"door_color_assignment":["black","white"],"door_generator_assignment":[0,1],"goal":3,"start":2,"action_noise":0.15,"location_history":"[2,1,0,1,2,3]","action_history":"[0,1,1,0,1]","door_history":"[0,1,1,0,1]","location_rts":"[4740,513,893,1185,659]","trial_type":"two-door-navigation","trial_index":12,"time_elapsed":350304,"internal_node_id":"0.0-2.0-10.0"},{"group":"hexagon_bi","room_assignment":["green","grey","purple","yellow","blue","red"],"door_color_assignment":["black","white"],"door_generator_assignment":[0,1],"goal":0,"start":3,"action_noise":0.15,"location_history":"[3,2,1,2,1,2,1,0]","action_history":"[1,0,0,0,0,0,1]","door_history":"[1,0,0,0,0,0,1]","location_rts":"[2146,945,659,509,662,456,718]","trial_type":"two-door-navigation","trial_index":13,"time_elapsed":367047,"internal_node_id":"0.0-2.0-11.0"},{"group":"hexagon_bi","room_assignment":["green","grey","purple","yellow","blue","red"],"door_color_assignment":["black","white"],"door_generator_assignment":[0,1],"goal":2,"start":0,"action_noise":0.15,"location_history":"[0,5,0,5,4,5,0,1,0,1,0,5,0,1,2]","action_history":"[0,0,0,1,1,1,1,1,1,1,0,0,1,0]","door_history":"[0,0,0,1,1,1,1,1,1,1,0,0,1,0]","location_rts":"[1247,823,628,5525,400,401,321,432,883,456,713,947,479,672]","trial_type":"two-door-navigation","trial_index":14,"time_elapsed":398715,"internal_node_id":"0.0-2.0-12.0"},{"group":"hexagon_bi","room_assignment":["green","grey","purple","yellow","blue","red"],"door_color_assignment":["black","white"],"door_generator_assignment":[0,1],"goal":5,"start":2,"action_noise":0.15,"location_history":"[2,1,0,5]","action_history":"[0,1,0]","door_history":"[0,1,0]","location_rts":"[1019,1122,755]","trial_type":"two-door-navigation","trial_index":15,"time_elapsed":408170,"internal_node_id":"0.0-2.0-13.0"},{"group":"hexagon_bi","room_assignment":["green","grey","purple","yellow","blue","red"],"door_color_assignment":["black","white"],"door_generator_assignment":[0,1],"goal":4,"start":5,"action_noise":0.15,"location_history":"[5,4]","action_history":"[1]","door_history":"[1]","location_rts":"[4541]","trial_type":"two-door-navigation","trial_index":16,"time_elapsed":417229,"internal_node_id":"0.0-2.0-14.0"},{"group":"hexagon_bi","room_assignment":["green","grey","purple","yellow","blue","red"],"door_color_assignment":["black","white"],"door_generator_assignment":[0,1],"goal":3,"start":4,"action_noise":0.15,"location_history":"[4,3]","action_history":"[0]","door_history":"[0]","location_rts":"[4343]","trial_type":"two-door-navigation","trial_index":17,"time_elapsed":426091,"internal_node_id":"0.0-2.0-15.0"},{"group":"hexagon_bi","room_assignment":["green","grey","purple","yellow","blue","red"],"door_color_assignment":["black","white"],"door_generator_assignment":[0,1],"goal":1,"start":3,"action_noise":0.15,"location_history":"[3,2,3,4,3,2,3,2,3,2,3,4,3,2,3,2,1]","action_history":"[1,1,0,0,0,0,1,1,1,1,0,0,0,1,1,0]","door_history":"[1,1,0,0,0,0,1,1,1,1,0,0,0,1,1,0]","location_rts":"[1596,477,551,372,571,687,484,321,311,355,450,303,588,507,659,333]","trial_type":"two-door-navigation","trial_index":18,"time_elapsed":454491,"internal_node_id":"0.0-2.0-16.0"},{"group":"hexagon_bi","room_assignment":["green","grey","purple","yellow","blue","red"],"door_color_assignment":["black","white"],"door_generator_assignment":[0,1],"goal":5,"start":1,"action_noise":0.15,"location_history":"[1,2,1,2,3,2,3,4,5]","action_history":"[0,0,0,1,1,1,0,1]","door_history":"[0,0,0,1,1,1,0,1]","location_rts":"[2374,646,539,362,366,378,878,973]","trial_type":"two-door-navigation","trial_index":19,"time_elapsed":472636,"internal_node_id":"0.0-2.0-17.0"},{"group":"hexagon_bi","room_assignment":["green","grey","purple","yellow","blue","red"],"door_color_assignment":["black","white"],"door_generator_assignment":[0,1],"goal":4,"start":5,"action_noise":0.15,"location_history":"[5,0,1,0,5,4]","action_history":"[0,0,0,0,1]","door_history":"[0,0,0,0,1]","location_rts":"[1499,1025,437,427,638]","trial_type":"two-door-navigation","trial_index":20,"time_elapsed":485264,"internal_node_id":"0.0-2.0-18.0"},{"group":"hexagon_bi","room_assignment":["green","grey","purple","yellow","blue","red"],"door_color_assignment":["black","white"],"door_generator_assignment":[0,1],"goal":0,"start":4,"action_noise":0.15,"location_history":"[4,5,4,5,4,3,4,5,0]","action_history":"[1,1,1,1,0,1,1,1]","door_history":"[1,1,1,1,0,1,1,1]","location_rts":"[4363,974,640,337,448,1467,551,435]","trial_type":"two-door-navigation","trial_index":21,"time_elapsed":506121,"internal_node_id":"0.0-2.0-19.0"},{"group":"hexagon_bi","room_assignment":["green","grey","purple","yellow","blue","red"],"door_color_assignment":["black","white"],"door_generator_assignment":[0,1],"goal":1,"start":0,"action_noise":0.15,"location_history":"[0,5,4,3,4,3,2,1]","action_history":"[1,1,0,0,0,1,0]","door_history":"[1,1,0,0,0,1,0]","location_rts":"[2691,631,876,346,539,797,825]","trial_type":"two-door-navigation","trial_index":22,"time_elapsed":523460,"internal_node_id":"0.0-2.0-20.0"},{"group":"hexagon_bi","room_assignment":["green","grey","purple","yellow","blue","red"],"door_color_assignment":["black","white"],"door_generator_assignment":[0,1],"goal":3,"start":1,"action_noise":0.15,"location_history":"[1,2,3]","action_history":"[0,1]","door_history":"[0,1]","location_rts":"[1732,1004]","trial_type":"two-door-navigation","trial_index":23,"time_elapsed":531730,"internal_node_id":"0.0-2.0-21.0"},{"group":"hexagon_bi","room_assignment":["green","grey","purple","yellow","blue","red"],"door_color_assignment":["black","white"],"door_generator_assignment":[0,1],"goal":2,"start":3,"action_noise":0.15,"location_history":"[3,2]","action_history":"[1]","door_history":"[1]","location_rts":"[1196]","trial_type":"two-door-navigation","trial_index":24,"time_elapsed":537448,"internal_node_id":"0.0-2.0-22.0"},{"group":"hexagon_bi","room_assignment":["green","grey","purple","yellow","blue","red"],"door_color_assignment":["black","white"],"door_generator_assignment":[0,1],"goal":0,"start":2,"action_noise":0.15,"location_history":"[2,1,2,3,4,3,2,3,2,1,2,1,2,3,2,1,0]","action_history":"[0,0,0,0,0,1,1,1,0,0,0,1,1,1,1,1]","door_history":"[0,0,0,0,0,1,1,1,0,0,0,1,1,1,1,1]","location_rts":"[2337,434,328,557,1478,668,352,409,465,372,302,739,314,364,1546,366]","trial_type":"two-door-navigation","trial_index":25,"time_elapsed":568295,"internal_node_id":"0.0-2.0-23.0"},{"group":"hexagon_bi","room_assignment":["green","grey","purple","yellow","blue","red"],"door_color_assignment":["black","white"],"door_generator_assignment":[0,1],"goal":3,"start":0,"action_noise":0.15,"location_history":"[0,5,4,3]","action_history":"[0,0,0]","door_history":"[0,0,0]","location_rts":"[1387,454,1984]","trial_type":"two-door-navigation","trial_index":26,"time_elapsed":578673,"internal_node_id":"0.0-2.0-24.0"},{"group":"hexagon_bi","room_assignment":["green","grey","purple","yellow","blue","red"],"door_color_assignment":["black","white"],"door_generator_assignment":[0,1],"goal":1,"start":3,"action_noise":0.15,"location_history":"[3,4,5,4,5,4,5,4,5,0,5,0,1]","action_history":"[1,1,1,1,1,1,1,1,1,0,0,0]","door_history":"[1,1,1,1,1,1,1,1,1,0,0,0]","location_rts":"[885,670,931,645,471,329,356,294,709,260,589,342]","trial_type":"two-door-navigation","trial_index":27,"time_elapsed":600871,"internal_node_id":"0.0-2.0-25.0"},{"group":"hexagon_bi","room_assignment":["green","grey","purple","yellow","blue","red"],"door_color_assignment":["black","white"],"door_generator_assignment":[0,1],"goal":2,"start":1,"action_noise":0.15,"location_history":"[1,2]","action_history":"[0]","door_history":"[0]","location_rts":"[3325]","trial_type":"two-door-navigation","trial_index":28,"time_elapsed":608717,"internal_node_id":"0.0-2.0-26.0"},{"group":"hexagon_bi","room_assignment":["green","grey","purple","yellow","blue","red"],"door_color_assignment":["black","white"],"door_generator_assignment":[0,1],"goal":5,"start":2,"action_noise":0.15,"location_history":"[2,1,0,1,0,1,0,1,2,3,2,1,0,1,0,1,0,1,2,3,2,3,2,3,4,3,4,3,4,5]","action_history":"[0,0,1,1,1,1,1,0,1,1,1,1,1,1,1,1,0,0,0,1,0,1,1,0,0,0,1,1,1]","door_history":"[0,0,1,1,1,1,1,0,1,1,1,1,1,1,1,1,0,0,0,1,0,1,1,0,0,0,1,1,1]","location_rts":"[1792,589,524,395,319,324,287,351,581,488,341,370,348,351,357,390,479,402,787,566,922,624,877,249,357,400,576,1205,372]","trial_type":"two-door-navigation","trial_index":29,"time_elapsed":657376,"internal_node_id":"0.0-2.0-27.0"},{"group":"hexagon_bi","room_assignment":["green","grey","purple","yellow","blue","red"],"door_color_assignment":["black","white"],"door_generator_assignment":[0,1],"goal":4,"start":5,"action_noise":0.15,"location_history":"[5,0,5,4]","action_history":"[0,0,0]","door_history":"[0,0,0]","location_rts":"[1348,887,382]","trial_type":"two-door-navigation","trial_index":30,"time_elapsed":666556,"internal_node_id":"0.0-2.0-28.0"},{"group":"hexagon_bi","room_assignment":["green","grey","purple","yellow","blue","red"],"door_color_assignment":["black","white"],"door_generator_assignment":[0,1],"goal":5,"start":4,"action_noise":0.15,"location_history":"[4,5]","action_history":"[1]","door_history":"[1]","location_rts":"[1420]","trial_type":"two-door-navigation","trial_index":31,"time_elapsed":672500,"internal_node_id":"0.0-2.0-29.0"},{"group":"hexagon_bi","room_assignment":["green","grey","purple","yellow","blue","red"],"door_color_assignment":["black","white"],"door_generator_assignment":[0,1],"goal":3,"start":5,"action_noise":0.15,"location_history":"[5,4,5,4,5,4,5,4,5,4,5,4,5,4,5,4,3]","action_history":"[1,1,1,1,1,1,1,1,1,1,0,1,1,1,1,0]","door_history":"[1,1,1,1,1,1,1,1,1,1,0,1,1,1,1,0]","location_rts":"[1215,360,321,400,363,357,326,462,440,361,485,1128,328,345,437,301]","trial_type":"two-door-navigation","trial_index":32,"time_elapsed":699927,"internal_node_id":"0.0-2.0-30.0"},{"group":"hexagon_bi","room_assignment":["green","grey","purple","yellow","blue","red"],"door_color_assignment":["black","white"],"door_generator_assignment":[0,1],"goal":0,"start":3,"action_noise":0.15,"location_history":"[3,4,3,4,5,4,5,0]","action_history":"[0,0,0,1,1,1,0]","door_history":"[0,0,0,1,1,1,0]","location_rts":"[3141,1118,806,640,392,299,820]","trial_type":"two-door-navigation","trial_index":33,"time_elapsed":717764,"internal_node_id":"0.0-2.0-31.0"},{"group":"hexagon_bi","room_assignment":["green","grey","purple","yellow","blue","red"],"door_color_assignment":["black","white"],"door_generator_assignment":[0,1],"goal":4,"start":0,"action_noise":0.15,"location_history":"[0,1,0,5,4]","action_history":"[1,1,0,1]","door_history":"[1,1,0,1]","location_rts":"[1295,387,1124,878]","trial_type":"two-door-navigation","trial_index":34,"time_elapsed":729031,"internal_node_id":"0.0-2.0-32.0"},{"group":"hexagon_bi","room_assignment":["green","grey","purple","yellow","blue","red"],"door_color_assignment":["black","white"],"door_generator_assignment":[0,1],"goal":1,"start":4,"action_noise":0.15,"location_history":"[4,5,0,1]","action_history":"[0,0,1]","door_history":"[0,0,1]","location_rts":"[2189,606,1419]","trial_type":"two-door-navigation","trial_index":35,"time_elapsed":739808,"internal_node_id":"0.0-2.0-33.0"},{"group":"hexagon_bi","room_assignment":["green","grey","purple","yellow","blue","red"],"door_color_assignment":["black","white"],"door_generator_assignment":[0,1],"goal":2,"start":1,"action_noise":0.15,"location_history":"[1,2]","action_history":"[0]","door_history":"[0]","location_rts":"[2076]","trial_type":"two-door-navigation","trial_index":36,"time_elapsed":746407,"internal_node_id":"0.0-2.0-34.0"},{"group":"hexagon_bi","room_assignment":["green","grey","purple","yellow","blue","red"],"door_color_assignment":["black","white"],"door_generator_assignment":[0,1],"goal":0,"start":2,"action_noise":0.15,"location_history":"[2,1,2,1,0]","action_history":"[0,0,0,1]","door_history":"[0,0,0,1]","location_rts":"[2028,803,442,1166]","trial_type":"two-door-navigation","trial_index":37,"time_elapsed":758428,"internal_node_id":"0.0-2.0-35.0"},{"group":"hexagon_bi","room_assignment":["green","grey","purple","yellow","blue","red"],"door_color_assignment":["black","white"],"door_generator_assignment":[0,1],"goal":5,"start":0,"action_noise":0.15,"location_history":"[0,1,2,1,0,5]","action_history":"[0,0,0,0,0]","door_history":"[0,0,0,0,0]","location_rts":"[2755,1422,712,403,386]","trial_type":"two-door-navigation","trial_index":38,"time_elapsed":772703,"internal_node_id":"0.0-2.0-36.0"},{"group":"hexagon_bi","room_assignment":["green","grey","purple","yellow","blue","red"],"door_color_assignment":["black","white"],"door_generator_assignment":[0,1],"goal":2,"start":5,"action_noise":0.15,"location_history":"[5,4,5,0,1,2]","action_history":"[1,0,0,0,0]","door_history":"[1,0,0,0,0]","location_rts":"[1984,981,384,546,382]","trial_type":"two-door-navigation","trial_index":39,"time_elapsed":785570,"internal_node_id":"0.0-2.0-37.0"},{"group":"hexagon_bi","room_assignment":["green","grey","purple","yellow","blue","red"],"door_color_assignment":["black","white"],"door_generator_assignment":[0,1],"goal":1,"start":2,"action_noise":0.15,"location_history":"[2,1]","action_history":"[0]","door_history":"[0]","location_rts":"[3335]","trial_type":"two-door-navigation","trial_index":40,"time_elapsed":793424,"internal_node_id":"0.0-2.0-38.0"},{"group":"hexagon_bi","room_assignment":["green","grey","purple","yellow","blue","red"],"door_color_assignment":["black","white"],"door_generator_assignment":[0,1],"goal":4,"start":1,"action_noise":0.15,"location_history":"[1,2,1,0,1,0,1,2,1,2,1,0,1,0,5,4]","action_history":"[0,0,0,1,1,1,0,0,0,0,1,1,1,0,1]","door_history":"[0,0,0,1,1,1,0,0,0,0,1,1,1,0,1]","location_rts":"[2497,1028,418,272,395,688,596,512,605,460,346,366,383,321,549]","trial_type":"two-door-navigation","trial_index":41,"time_elapsed":821613,"internal_node_id":"0.0-2.0-39.0"},{"group":"hexagon_bi","room_assignment":["green","grey","purple","yellow","blue","red"],"door_color_assignment":["black","white"],"door_generator_assignment":[0,1],"goal":3,"start":4,"action_noise":0.15,"location_history":"[4,5,4,3]","action_history":"[0,1,0]","door_history":"[0,1,0]","location_rts":"[1750,1647,781]","trial_type":"two-door-navigation","trial_index":42,"time_elapsed":832350,"internal_node_id":"0.0-2.0-40.0"},{"group":"hexagon_bi","room_assignment":["green","grey","purple","yellow","blue","red"],"door_color_assignment":["black","white"],"door_generator_assignment":[0,1],"goal":5,"start":3,"action_noise":0.15,"location_history":"[3,2,3,4,3,2,3,4,5]","action_history":"[1,1,1,0,1,1,0,1]","door_history":"[1,1,1,0,1,1,0,1]","location_rts":"[2243,774,823,862,832,624,912,687]","trial_type":"two-door-navigation","trial_index":43,"time_elapsed":851759,"internal_node_id":"0.0-2.0-41.0"},{"group":"hexagon_bi","room_assignment":["green","grey","purple","yellow","blue","red"],"door_color_assignment":["black","white"],"door_generator_assignment":[0,1],"goal":3,"start":5,"action_noise":0.15,"location_history":"[5,0,1,2,3]","action_history":"[0,1,0,1]","door_history":"[0,1,0,1]","location_rts":"[1537,490,778,757]","trial_type":"two-door-navigation","trial_index":44,"time_elapsed":862905,"internal_node_id":"0.0-2.0-42.0"},{"group":"hexagon_bi","room_assignment":["green","grey","purple","yellow","blue","red"],"door_color_assignment":["black","white"],"door_generator_assignment":[0,1],"goal":0,"start":3,"action_noise":0.15,"location_history":"[3,4,3,4,3,4,3,4,5,4,5,0]","action_history":"[0,0,0,0,1,0,0,1,1,1,0]","door_history":"[0,0,0,0,1,0,0,1,1,1,0]","location_rts":"[1179,458,712,595,523,488,451,341,415,399,272]","trial_type":"two-door-navigation","trial_index":45,"time_elapsed":883449,"internal_node_id":"0.0-2.0-43.0"},{"group":"hexagon_bi","room_assignment":["green","grey","purple","yellow","blue","red"],"door_color_assignment":["black","white"],"door_generator_assignment":[0,1],"goal":2,"start":0,"action_noise":0.15,"location_history":"[0,5,0,1,0,5,0,5,0,5,0,1,2]","action_history":"[0,0,1,1,1,0,0,0,0,0,0,0]","door_history":"[0,0,1,1,1,0,0,0,0,0,0,0]","location_rts":"[830,4417,1051,419,499,536,324,378,389,442,401,568]","trial_type":"two-door-navigation","trial_index":46,"time_elapsed":909411,"internal_node_id":"0.0-2.0-44.0"},{"group":"hexagon_bi","room_assignment":["green","grey","purple","yellow","blue","red"],"door_color_assignment":["black","white"],"door_generator_assignment":[0,1],"goal":4,"start":2,"action_noise":0.15,"location_history":"[2,3,2,3,4]","action_history":"[0,1,1,0]","door_history":"[0,1,1,0]","location_rts":"[1595,536,462,514]","trial_type":"two-door-navigation","trial_index":47,"time_elapsed":920096,"internal_node_id":"0.0-2.0-45.0"},{"group":"hexagon_bi","room_assignment":["green","grey","purple","yellow","blue","red"],"door_color_assignment":["black","white"],"door_generator_assignment":[0,1],"goal":1,"start":4,"action_noise":0.15,"location_history":"[4,5,4,3,4,5,0,1]","action_history":"[1,1,0,0,0,0,1]","door_history":"[1,1,0,0,0,0,1]","location_rts":"[961,1128,373,399,378,950,650]","trial_type":"two-door-navigation","trial_index":48,"time_elapsed":935562,"internal_node_id":"0.0-2.0-46.0"},{"group":"hexagon_bi","room_assignment":["green","grey","purple","yellow","blue","red"],"door_color_assignment":["black","white"],"door_generator_assignment":[0,1],"goal":4,"start":1,"action_noise":0.15,"location_history":"[1,2,1,2,3,4]","action_history":"[0,0,0,1,0]","door_history":"[0,0,0,1,0]","location_rts":"[2153,1025,1102,556,490]","trial_type":"two-door-navigation","trial_index":49,"time_elapsed":949476,"internal_node_id":"0.0-2.0-47.0"},{"group":"hexagon_bi","room_assignment":["green","grey","purple","yellow","blue","red"],"door_color_assignment":["black","white"],"door_generator_assignment":[0,1],"goal":3,"start":4,"action_noise":0.15,"location_history":"[4,5,0,1,2,3]","action_history":"[1,0,0,0,1]","door_history":"[1,0,0,0,1]","location_rts":"[1143,1144,978,2742,744]","trial_type":"two-door-navigation","trial_index":50,"time_elapsed":964813,"internal_node_id":"0.0-2.0-48.0"},{"group":"hexagon_bi","room_assignment":["green","grey","purple","yellow","blue","red"],"door_color_assignment":["black","white"],"door_generator_assignment":[0,1],"goal":5,"start":3,"action_noise":0.15,"location_history":"[3,4,5]","action_history":"[0,1]","door_history":"[0,1]","location_rts":"[5265,792]","trial_type":"two-door-navigation","trial_index":51,"time_elapsed":976410,"internal_node_id":"0.0-2.0-49.0"},{"view_history":"[{\"page_index\":0,\"viewing_time\":3101}]","rt":3101,"trial_type":"instructions","trial_index":52,"time_elapsed":980513,"internal_node_id":"0.0-3.0"},{"view_history":"[{\"page_index\":0,\"viewing_time\":3079},{\"page_index\":1,\"viewing_time\":24859}]","rt":27938,"trial_type":"instructions","trial_index":53,"time_elapsed":1009451,"internal_node_id":"0.0-4.0"},{"group":"hexagon_tri","fractal_assignment":["../images/blu_wht.png","../images/ylw_slt.png","../images/pnk_blu.png","../images/org_blu.png","../images/cyn_red.png","../images/gry_blk.png"],"mutagen_generator_assignment":[1,0],"goal":4,"start":0,"action_noise":0.15,"location_history":"[0,1,5,0,5,4]","action_history":"[0,1,1,0,0]","mutagen_history":"[1,0,0,1,1]","location_rts":"[8900,3437,2087,2364,844]","trial_type":"fractal-mutation","trial_index":54,"time_elapsed":1035892,"internal_node_id":"0.0-5.0-0.0"},{"group":"hexagon_tri","fractal_assignment":["../images/blu_wht.png","../images/ylw_slt.png","../images/pnk_blu.png","../images/org_blu.png","../images/cyn_red.png","../images/gry_blk.png"],"mutagen_generator_assignment":[1,0],"goal":3,"start":4,"action_noise":0.15,"location_history":"[4,0,1,3]","action_history":"[0,1,1]","mutagen_history":"[1,0,0]","location_rts":"[1100,415,995]","trial_type":"fractal-mutation","trial_index":55,"time_elapsed":1045082,"internal_node_id":"0.0-5.0-1.0"},{"group":"hexagon_tri","fractal_assignment":["../images/blu_wht.png","../images/ylw_slt.png","../images/pnk_blu.png","../images/org_blu.png","../images/cyn_red.png","../images/gry_blk.png"],"mutagen_generator_assignment":[1,0],"goal":5,"start":3,"action_noise":0.15,"location_history":"[3,4,2,3,4,0,1,5]","action_history":"[1,1,1,1,1,1,1]","mutagen_history":"[0,0,0,0,0,0,0]","location_rts":"[2380,596,619,793,499,518,561]","trial_type":"fractal-mutation","trial_index":56,"time_elapsed":1061883,"internal_node_id":"0.0-5.0-2.0"},{"group":"hexagon_tri","fractal_assignment":["../images/blu_wht.png","../images/ylw_slt.png","../images/pnk_blu.png","../images/org_blu.png","../images/cyn_red.png","../images/gry_blk.png"],"mutagen_generator_assignment":[1,0],"goal":2,"start":5,"action_noise":0.15,"location_history":"[5,0,1,5,0,1,5,0,1,5,0,1,5,0,1,3,4,2]","action_history":"[1,1,1,1,1,1,1,1,1,1,1,1,1,1,1,1,1]","mutagen_history":"[0,0,0,0,0,0,0,0,0,0,0,0,0,0,0,0,0]","location_rts":"[10980,473,443,385,417,544,716,375,361,408,364,412,501,377,450,391,433]","trial_type":"fractal-mutation","trial_index":57,"time_elapsed":1101205,"internal_node_id":"0.0-5.0-3.0"},{"group":"hexagon_tri","fractal_assignment":["../images/blu_wht.png","../images/ylw_slt.png","../images/pnk_blu.png","../images/org_blu.png","../images/cyn_red.png","../images/gry_blk.png"],"mutagen_generator_assignment":[1,0],"goal":1,"start":2,"action_noise":0.15,"location_history":"[2,1]","action_history":"[0]","mutagen_history":"[1]","location_rts":"[2791]","trial_type":"fractal-mutation","trial_index":58,"time_elapsed":1108558,"internal_node_id":"0.0-5.0-4.0"},{"group":"hexagon_tri","fractal_assignment":["../images/blu_wht.png","../images/ylw_slt.png","../images/pnk_blu.png","../images/org_blu.png","../images/cyn_red.png","../images/gry_blk.png"],"mutagen_generator_assignment":[1,0],"goal":4,"start":1,"action_noise":0.15,"location_history":"[1,3,2,1,3,2,1,3,2,1,3,4]","action_history":"[0,0,0,0,0,0,0,0,0,0,1]","mutagen_history":"[1,1,1,1,1,1,1,1,1,1,0]","location_rts":"[1767,489,503,697,493,566,747,595,583,804,648]","trial_type":"fractal-mutation","trial_index":59,"time_elapsed":1131624,"internal_node_id":"0.0-5.0-5.0"},{"group":"hexagon_tri","fractal_assignment":["../images/blu_wht.png","../images/ylw_slt.png","../images/pnk_blu.png","../images/org_blu.png","../images/cyn_red.png","../images/gry_blk.png"],"mutagen_generator_assignment":[1,0],"goal":1,"start":4,"action_noise":0.15,"location_history":"[4,2,1]","action_history":"[1,0]","mutagen_history":"[0,1]","location_rts":"[847,1495]","trial_type":"fractal-mutation","trial_index":60,"time_elapsed":1139582,"internal_node_id":"0.0-5.0-6.0"},{"group":"hexagon_tri","fractal_assignment":["../images/blu_wht.png","../images/ylw_slt.png","../images/pnk_blu.png","../images/org_blu.png","../images/cyn_red.png","../images/gry_blk.png"],"mutagen_generator_assignment":[1,0],"goal":5,"start":1,"action_noise":0.15,"location_history":"[1,5]","action_history":"[1]","mutagen_history":"[0]","location_rts":"[1279]","trial_type":"fractal-mutation","trial_index":61,"time_elapsed":1145405,"internal_node_id":"0.0-5.0-7.0"},{"group":"hexagon_tri","fractal_assignment":["../images/blu_wht.png","../images/ylw_slt.png","../images/pnk_blu.png","../images/org_blu.png","../images/cyn_red.png","../images/gry_blk.png"],"mutagen_generator_assignment":[1,0],"goal":0,"start":5,"action_noise":0.15,"location_history":"[5,4,2,3,2,3,4,0]","action_history":"[1,1,1,1,1,0,0]","mutagen_history":"[0,0,0,0,0,1,1]","location_rts":"[2866,540,564,389,511,388,389]","trial_type":"fractal-mutation","trial_index":62,"time_elapsed":1161896,"internal_node_id":"0.0-5.0-8.0"},{"group":"hexagon_tri","fractal_assignment":["../images/blu_wht.png","../images/ylw_slt.png","../images/pnk_blu.png","../images/org_blu.png","../images/cyn_red.png","../images/gry_blk.png"],"mutagen_generator_assignment":[1,0],"goal":2,"start":0,"action_noise":0.15,"location_history":"[0,1,5,0,1,5,4,0,1,3,2]","action_history":"[1,1,1,1,1,0,0,0,0,0]","mutagen_history":"[0,0,0,0,0,1,1,1,1,1]","location_rts":"[775,378,404,354,361,437,365,453,417,413]","trial_type":"fractal-mutation","trial_index":63,"time_elapsed":1180329,"internal_node_id":"0.0-5.0-9.0"},{"group":"hexagon_tri","fractal_assignment":["../images/blu_wht.png","../images/ylw_slt.png","../images/pnk_blu.png","../images/org_blu.png","../images/cyn_red.png","../images/gry_blk.png"],"mutagen_generator_assignment":[1,0],"goal":3,"start":2,"action_noise":0.15,"location_history":"[2,3]","action_history":"[1]","mutagen_history":"[0]","location_rts":"[2094]","trial_type":"fractal-mutation","trial_index":64,"time_elapsed":1186966,"internal_node_id":"0.0-5.0-10.0"},{"group":"hexagon_tri","fractal_assignment":["../images/blu_wht.png","../images/ylw_slt.png","../images/pnk_blu.png","../images/org_blu.png","../images/cyn_red.png","../images/gry_blk.png"],"mutagen_generator_assignment":[1,0],"goal":0,"start":3,"action_noise":0.15,"location_history":"[3,2,1,3,4,0]","action_history":"[0,0,0,0,0]","mutagen_history":"[1,1,1,1,1]","location_rts":"[1494,426,470,436,531]","trial_type":"fractal-mutation","trial_index":65,"time_elapsed":1199157,"internal_node_id":"0.0-5.0-11.0"},{"group":"hexagon_tri","fractal_assignment":["../images/blu_wht.png","../images/ylw_slt.png","../images/pnk_blu.png","../images/org_blu.png","../images/cyn_red.png","../images/gry_blk.png"],"mutagen_generator_assignment":[1,0],"goal":2,"start":0,"action_noise":0.15,"location_history":"[0,5,4,0,5,4,0,1,3,2]","action_history":"[0,0,0,0,0,0,0,0,0]","mutagen_history":"[1,1,1,1,1,1,1,1,1]","location_rts":"[3156,592,528,700,2648,2897,998,788,5343]","trial_type":"fractal-mutation","trial_index":66,"time_elapsed":1229845,"internal_node_id":"0.0-5.0-12.0"},{"group":"hexagon_tri","fractal_assignment":["../images/blu_wht.png","../images/ylw_slt.png","../images/pnk_blu.png","../images/org_blu.png","../images/cyn_red.png","../images/gry_blk.png"],"mutagen_generator_assignment":[1,0],"goal":5,"start":2,"action_noise":0.15,"location_history":"[2,3,4,2,3,2,3,4,0,5]","action_history":"[1,1,1,1,1,1,0,0,0]","mutagen_history":"[0,0,0,0,0,0,1,1,1]","location_rts":"[14404,659,417,404,369,479,395,309,336]","trial_type":"fractal-mutation","trial_index":67,"time_elapsed":1260563,"internal_node_id":"0.0-5.0-13.0"},{"group":"hexagon_tri","fractal_assignment":["../images/blu_wht.png","../images/ylw_slt.png","../images/pnk_blu.png","../images/org_blu.png","../images/cyn_red.png","../images/gry_blk.png"],"mutagen_generator_assignment":[1,0],"goal":4,"start":5,"action_noise":0.15,"location_history":"[5,4]","action_history":"[0]","mutagen_history":"[1]","location_rts":"[946]","trial_type":"fractal-mutation","trial_index":68,"time_elapsed":1266083,"internal_node_id":"0.0-5.0-14.0"},{"group":"hexagon_tri","fractal_assignment":["../images/blu_wht.png","../images/ylw_slt.png","../images/pnk_blu.png","../images/org_blu.png","../images/cyn_red.png","../images/gry_blk.png"],"mutagen_generator_assignment":[1,0],"goal":3,"start":4,"action_noise":0.15,"location_history":"[4,2,3]","action_history":"[1,1]","mutagen_history":"[0,0]","location_rts":"[781,448]","trial_type":"fractal-mutation","trial_index":69,"time_elapsed":1272907,"internal_node_id":"0.0-5.0-15.0"},{"group":"hexagon_tri","fractal_assignment":["../images/blu_wht.png","../images/ylw_slt.png","../images/pnk_blu.png","../images/org_blu.png","../images/cyn_red.png","../images/gry_blk.png"],"mutagen_generator_assignment":[1,0],"goal":1,"start":3,"action_noise":0.15,"location_history":"[3,2,1]","action_history":"[0,0]","mutagen_history":"[1,1]","location_rts":"[1211,461]","trial_type":"fractal-mutation","trial_index":70,"time_elapsed":1280219,"internal_node_id":"0.0-5.0-16.0"},{"group":"hexagon_tri","fractal_assignment":["../images/blu_wht.png","../images/ylw_slt.png","../images/pnk_blu.png","../images/org_blu.png","../images/cyn_red.png","../images/gry_blk.png"],"mutagen_generator_assignment":[1,0],"goal":5,"start":1,"action_noise":0.15,"location_history":"[1,5]","action_history":"[1]","mutagen_history":"[0]","location_rts":"[812]","trial_type":"fractal-mutation","trial_index":71,"time_elapsed":1285579,"internal_node_id":"0.0-5.0-17.0"},{"group":"hexagon_tri","fractal_assignment":["../images/blu_wht.png","../images/ylw_slt.png","../images/pnk_blu.png","../images/org_blu.png","../images/cyn_red.png","../images/gry_blk.png"],"mutagen_generator_assignment":[1,0],"goal":4,"start":5,"action_noise":0.15,"location_history":"[5,4]","action_history":"[0]","mutagen_history":"[1]","location_rts":"[772]","trial_type":"fractal-mutation","trial_index":72,"time_elapsed":1290924,"internal_node_id":"0.0-5.0-18.0"},{"group":"hexagon_tri","fractal_assignment":["../images/blu_wht.png","../images/ylw_slt.png","../images/pnk_blu.png","../images/org_blu.png","../images/cyn_red.png","../images/gry_blk.png"],"mutagen_generator_assignment":[1,0],"goal":0,"start":4,"action_noise":0.15,"location_history":"[4,0]","action_history":"[0]","mutagen_history":"[1]","location_rts":"[779]","trial_type":"fractal-mutation","trial_index":73,"time_elapsed":1296274,"internal_node_id":"0.0-5.0-19.0"},{"group":"hexagon_tri","fractal_assignment":["../images/blu_wht.png","../images/ylw_slt.png","../images/pnk_blu.png","../images/org_blu.png","../images/cyn_red.png","../images/gry_blk.png"],"mutagen_generator_assignment":[1,0],"goal":1,"start":0,"action_noise":0.15,"location_history":"[0,5,4,2,1]","action_history":"[0,0,0,0]","mutagen_history":"[1,1,1,1]","location_rts":"[1029,379,364,408]","trial_type":"fractal-mutation","trial_index":74,"time_elapsed":1306201,"internal_node_id":"0.0-5.0-20.0"},{"group":"hexagon_tri","fractal_assignment":["../images/blu_wht.png","../images/ylw_slt.png","../images/pnk_blu.png","../images/org_blu.png","../images/cyn_red.png","../images/gry_blk.png"],"mutagen_generator_assignment":[1,0],"goal":3,"start":1,"action_noise":0.15,"location_history":"[1,5,0,5,4,2,3]","action_history":"[1,1,1,1,1,1]","mutagen_history":"[0,0,0,0,0,0]","location_rts":"[1414,651,408,496,593,443]","trial_type":"fractal-mutation","trial_index":75,"time_elapsed":1319985,"internal_node_id":"0.0-5.0-21.0"},{"group":"hexagon_tri","fractal_assignment":["../images/blu_wht.png","../images/ylw_slt.png","../images/pnk_blu.png","../images/org_blu.png","../images/cyn_red.png","../images/gry_blk.png"],"mutagen_generator_assignment":[1,0],"goal":2,"start":3,"action_noise":0.15,"location_history":"[3,4,0,5,4,2]","action_history":"[0,0,0,0,0]","mutagen_history":"[1,1,1,1,1]","location_rts":"[1110,418,392,354,379]","trial_type":"fractal-mutation","trial_index":76,"time_elapsed":1331446,"internal_node_id":"0.0-5.0-22.0"},{"group":"hexagon_tri","fractal_assignment":["../images/blu_wht.png","../images/ylw_slt.png","../images/pnk_blu.png","../images/org_blu.png","../images/cyn_red.png","../images/gry_blk.png"],"mutagen_generator_assignment":[1,0],"goal":0,"start":2,"action_noise":0.15,"location_history":"[2,3,2,1,3,2,3,2,3,4,2,1,3,2,3,2,1,5,0]","action_history":"[0,0,0,0,0,0,0,0,0,0,0,0,0,0,0,0,1,1]","mutagen_history":"[1,1,1,1,1,1,1,1,1,1,1,1,1,1,1,1,0,0]","location_rts":"[1312,363,1098,535,776,1900,1032,559,493,839,659,2617,408,766,401,406,747,396]","trial_type":"fractal-mutation","trial_index":77,"time_elapsed":1369382,"internal_node_id":"0.0-5.0-23.0"},{"group":"hexagon_tri","fractal_assignment":["../images/blu_wht.png","../images/ylw_slt.png","../images/pnk_blu.png","../images/org_blu.png","../images/cyn_red.png","../images/gry_blk.png"],"mutagen_generator_assignment":[1,0],"goal":3,"start":0,"action_noise":0.15,"location_history":"[0,5,4,0,5,0,1,3]","action_history":"[0,0,0,0,1,1,0]","mutagen_history":"[1,1,1,1,0,0,1]","location_rts":"[2201,359,347,1848,337,1104,341]","trial_type":"fractal-mutation","trial_index":78,"time_elapsed":1386835,"internal_node_id":"0.0-5.0-24.0"},{"group":"hexagon_tri","fractal_assignment":["../images/blu_wht.png","../images/ylw_slt.png","../images/pnk_blu.png","../images/org_blu.png","../images/cyn_red.png","../images/gry_blk.png"],"mutagen_generator_assignment":[1,0],"goal":1,"start":3,"action_noise":0.15,"location_history":"[3,2,1]","action_history":"[0,0]","mutagen_history":"[1,1]","location_rts":"[375828,418]","trial_type":"fractal-mutation","trial_index":79,"time_elapsed":1768715,"internal_node_id":"0.0-5.0-25.0"},{"group":"hexagon_tri","fractal_assignment":["../images/blu_wht.png","../images/ylw_slt.png","../images/pnk_blu.png","../images/org_blu.png","../images/cyn_red.png","../images/gry_blk.png"],"mutagen_generator_assignment":[1,0],"goal":2,"start":1,"action_noise":0.15,"location_history":"[1,3,2]","action_history":"[0,0]","mutagen_history":"[1,1]","location_rts":"[1299,341]","trial_type":"fractal-mutation","trial_index":80,"time_elapsed":1775987,"internal_node_id":"0.0-5.0-26.0"},{"group":"hexagon_tri","fractal_assignment":["../images/blu_wht.png","../images/ylw_slt.png","../images/pnk_blu.png","../images/org_blu.png","../images/cyn_red.png","../images/gry_blk.png"],"mutagen_generator_assignment":[1,0],"goal":5,"start":2,"action_noise":0.15,"location_history":"[2,1,3,2,1,3,4,2,3,4,2,3,2,1,3,2,1,3,2,3,2,1,5]","action_history":"[0,0,0,0,0,1,1,1,1,1,0,0,0,0,0,0,0,0,0,0,0,1]","mutagen_history":"[1,1,1,1,1,0,0,0,0,0,1,1,1,1,1,1,1,1,1,1,1,0]","location_rts":"[1355,4057,553,348,794,467,489,660,1525,2715,899,1298,5777,744,571,462,365,401,447,370,556,454]","trial_type":"fractal-mutation","trial_index":81,"time_elapsed":1828059,"internal_node_id":"0.0-5.0-27.0"},{"group":"hexagon_tri","fractal_assignment":["../images/blu_wht.png","../images/ylw_slt.png","../images/pnk_blu.png","../images/org_blu.png","../images/cyn_red.png","../images/gry_blk.png"],"mutagen_generator_assignment":[1,0],"goal":4,"start":5,"action_noise":0.15,"location_history":"[5,4]","action_history":"[1]","mutagen_history":"[0]","location_rts":"[1715]","trial_type":"fractal-mutation","trial_index":82,"time_elapsed":1834317,"internal_node_id":"0.0-5.0-28.0"},{"group":"hexagon_tri","fractal_assignment":["../images/blu_wht.png","../images/ylw_slt.png","../images/pnk_blu.png","../images/org_blu.png","../images/cyn_red.png","../images/gry_blk.png"],"mutagen_generator_assignment":[1,0],"goal":5,"start":4,"action_noise":0.15,"location_history":"[4,2,1,3,2,1,5]","action_history":"[1,0,0,0,0,1]","mutagen_history":"[0,1,1,1,1,0]","location_rts":"[2026,708,1089,625,861,442]","trial_type":"fractal-mutation","trial_index":83,"time_elapsed":1849930,"internal_node_id":"0.0-5.0-29.0"},{"group":"hexagon_tri","fractal_assignment":["../images/blu_wht.png","../images/ylw_slt.png","../images/pnk_blu.png","../images/org_blu.png","../images/cyn_red.png","../images/gry_blk.png"],"mutagen_generator_assignment":[1,0],"goal":3,"start":5,"action_noise":0.15,"location_history":"[5,4,0,5,4,0,5,4,2,1,3]","action_history":"[0,0,0,0,0,0,0,0,0,0]","mutagen_history":"[1,1,1,1,1,1,1,1,1,1]","location_rts":"[253585,228,339,314,389,342,330,423,407,342]","trial_type":"fractal-mutation","trial_index":84,"time_elapsed":2120740,"internal_node_id":"0.0-5.0-30.0"},{"group":"hexagon_tri","fractal_assignment":["../images/blu_wht.png","../images/ylw_slt.png","../images/pnk_blu.png","../images/org_blu.png","../images/cyn_red.png","../images/gry_blk.png"],"mutagen_generator_assignment":[1,0],"goal":0,"start":3,"action_noise":0.15,"location_history":"[3,2,1,3,2,3,2,1,3,2,1,3,4,0]","action_history":"[0,0,0,0,0,0,0,0,0,0,0,0,0]","mutagen_history":"[1,1,1,1,1,1,1,1,1,1,1,1,1]","location_rts":"[1089,343,906,924,348,485,2182,461,545,326,576,3809,1372]","trial_type":"fractal-mutation","trial_index":85,"time_elapsed":2151447,"internal_node_id":"0.0-5.0-31.0"},{"group":"hexagon_tri","fractal_assignment":["../images/blu_wht.png","../images/ylw_slt.png","../images/pnk_blu.png","../images/org_blu.png","../images/cyn_red.png","../images/gry_blk.png"],"mutagen_generator_assignment":[1,0],"goal":4,"start":0,"action_noise":0.15,"location_history":"[0,5,4]","action_history":"[0,0]","mutagen_history":"[1,1]","location_rts":"[1670,567]","trial_type":"fractal-mutation","trial_index":86,"time_elapsed":2159315,"internal_node_id":"0.0-5.0-32.0"},{"group":"hexagon_tri","fractal_assignment":["../images/blu_wht.png","../images/ylw_slt.png","../images/pnk_blu.png","../images/org_blu.png","../images/cyn_red.png","../images/gry_blk.png"],"mutagen_generator_assignment":[1,0],"goal":1,"start":4,"action_noise":0.15,"location_history":"[4,0,5,0,5,0,5,4,2,1]","action_history":"[0,0,0,0,0,0,0,0,0]","mutagen_history":"[1,1,1,1,1,1,1,1,1]","location_rts":"[1515,427,1265,581,482,406,343,530,418]","trial_type":"fractal-mutation","trial_index":87,"time_elapsed":2178343,"internal_node_id":"0.0-5.0-33.0"},{"group":"hexagon_tri","fractal_assignment":["../images/blu_wht.png","../images/ylw_slt.png","../images/pnk_blu.png","../images/org_blu.png","../images/cyn_red.png","../images/gry_blk.png"],"mutagen_generator_assignment":[1,0],"goal":2,"start":1,"action_noise":0.15,"location_history":"[1,3,2]","action_history":"[0,0]","mutagen_history":"[1,1]","location_rts":"[1206,3998]","trial_type":"fractal-mutation","trial_index":88,"time_elapsed":2189185,"internal_node_id":"0.0-5.0-34.0"},{"group":"hexagon_tri","fractal_assignment":["../images/blu_wht.png","../images/ylw_slt.png","../images/pnk_blu.png","../images/org_blu.png","../images/cyn_red.png","../images/gry_blk.png"],"mutagen_generator_assignment":[1,0],"goal":0,"start":2,"action_noise":0.15,"location_history":"[2,1,3,2,1,3,2,1,5,4,0]","action_history":"[0,0,0,0,0,0,0,0,0,0]","mutagen_history":"[1,1,1,1,1,1,1,1,1,1]","location_rts":"[1717,513,455,317,487,387,433,458,542,655]","trial_type":"fractal-mutation","trial_index":89,"time_elapsed":2209283,"internal_node_id":"0.0-5.0-35.0"},{"group":"hexagon_tri","fractal_assignment":["../images/blu_wht.png","../images/ylw_slt.png","../images/pnk_blu.png","../images/org_blu.png","../images/cyn_red.png","../images/gry_blk.png"],"mutagen_generator_assignment":[1,0],"goal":5,"start":0,"action_noise":0.15,"location_history":"[0,5]","action_history":"[0]","mutagen_history":"[1]","location_rts":"[1418]","trial_type":"fractal-mutation","trial_index":90,"time_elapsed":2215265,"internal_node_id":"0.0-5.0-36.0"},{"group":"hexagon_tri","fractal_assignment":["../images/blu_wht.png","../images/ylw_slt.png","../images/pnk_blu.png","../images/org_blu.png","../images/cyn_red.png","../images/gry_blk.png"],"mutagen_generator_assignment":[1,0],"goal":2,"start":5,"action_noise":0.15,"location_history":"[5,4,0,5,4,2]","action_history":"[0,0,0,0,0]","mutagen_history":"[1,1,1,1,1]","location_rts":"[1030,455,471,399,2428]","trial_type":"fractal-mutation","trial_index":91,"time_elapsed":2228842,"internal_node_id":"0.0-5.0-37.0"},{"group":"hexagon_tri","fractal_assignment":["../images/blu_wht.png","../images/ylw_slt.png","../images/pnk_blu.png","../images/org_blu.png","../images/cyn_red.png","../images/gry_blk.png"],"mutagen_generator_assignment":[1,0],"goal":1,"start":2,"action_noise":0.15,"location_history":"[2,1]","action_history":"[0]","mutagen_history":"[1]","location_rts":"[11448]","trial_type":"fractal-mutation","trial_index":92,"time_elapsed":2244857,"internal_node_id":"0.0-5.0-38.0"},{"group":"hexagon_tri","fractal_assignment":["../images/blu_wht.png","../images/ylw_slt.png","../images/pnk_blu.png","../images/org_blu.png","../images/cyn_red.png","../images/gry_blk.png"],"mutagen_generator_assignment":[1,0],"goal":4,"start":1,"action_noise":0.15,"location_history":"[1,3,2,1,3,2,1,3,4]","action_history":"[0,0,0,0,0,0,0,0]","mutagen_history":"[1,1,1,1,1,1,1,1]","location_rts":"[982,568,762,745,670,1873,1604,569]","trial_type":"fractal-mutation","trial_index":93,"time_elapsed":2264626,"internal_node_id":"0.0-5.0-39.0"},{"group":"hexagon_tri","fractal_assignment":["../images/blu_wht.png","../images/ylw_slt.png","../images/pnk_blu.png","../images/org_blu.png","../images/cyn_red.png","../images/gry_blk.png"],"mutagen_generator_assignment":[1,0],"goal":3,"start":4,"action_noise":0.15,"location_history":"[4,0,5,4,2,1,3]","action_history":"[0,0,0,0,0,0]","mutagen_history":"[1,1,1,1,1,1]","location_rts":"[1764,435,423,486,844,4323]","trial_type":"fractal-mutation","trial_index":94,"time_elapsed":2282761,"internal_node_id":"0.0-5.0-40.0"},{"group":"hexagon_tri","fractal_assignment":["../images/blu_wht.png","../images/ylw_slt.png","../images/pnk_blu.png","../images/org_blu.png","../images/cyn_red.png","../images/gry_blk.png"],"mutagen_generator_assignment":[1,0],"goal":5,"start":3,"action_noise":0.15,"location_history":"[3,2,1,3,2,1,3,2,1,3,2,1,3,2,1,5]","action_history":"[0,0,0,0,0,0,0,0,0,0,0,0,0,0,0]","mutagen_history":"[1,1,1,1,1,1,1,1,1,1,1,1,1,1,1]","location_rts":"[1245,7552,6812,447,630,1011,2445,569,804,946,579,669,569,1144,395]","trial_type":"fractal-mutation","trial_index":95,"time_elapsed":2328016,"internal_node_id":"0.0-5.0-41.0"},{"group":"hexagon_tri","fractal_assignment":["../images/blu_wht.png","../images/ylw_slt.png","../images/pnk_blu.png","../images/org_blu.png","../images/cyn_red.png","../images/gry_blk.png"],"mutagen_generator_assignment":[1,0],"goal":3,"start":5,"action_noise":0.15,"location_history":"[5,0,5,4,0,1,3]","action_history":"[0,0,0,0,0,0]","mutagen_history":"[1,1,1,1,1,1]","location_rts":"[1165,529,1066,904,408,438]","trial_type":"fractal-mutation","trial_index":96,"time_elapsed":2342408,"internal_node_id":"0.0-5.0-42.0"},{"group":"hexagon_tri","fractal_assignment":["../images/blu_wht.png","../images/ylw_slt.png","../images/pnk_blu.png","../images/org_blu.png","../images/cyn_red.png","../images/gry_blk.png"],"mutagen_generator_assignment":[1,0],"goal":0,"start":3,"action_noise":0.15,"location_history":"[3,4,0]","action_history":"[0,0]","mutagen_history":"[1,1]","location_rts":"[996,889]","trial_type":"fractal-mutation","trial_index":97,"time_elapsed":2349926,"internal_node_id":"0.0-5.0-43.0"},{"group":"hexagon_tri","fractal_assignment":["../images/blu_wht.png","../images/ylw_slt.png","../images/pnk_blu.png","../images/org_blu.png","../images/cyn_red.png","../images/gry_blk.png"],"mutagen_generator_assignment":[1,0],"goal":2,"start":0,"action_noise":0.15,"location_history":"[0,5,0,5,4,0,5,4,0,5,4,0,5,4,2]","action_history":"[0,0,0,0,0,0,0,0,0,0,0,0,0,0]","mutagen_history":"[1,1,1,1,1,1,1,1,1,1,1,1,1,1]","location_rts":"[1058,403,422,1913,995,3096,1957,672,997,608,1942,706,778,612]","trial_type":"fractal-mutation","trial_index":98,"time_elapsed":2384487,"internal_node_id":"0.0-5.0-44.0"},{"group":"hexagon_tri","fractal_assignment":["../images/blu_wht.png","../images/ylw_slt.png","../images/pnk_blu.png","../images/org_blu.png","../images/cyn_red.png","../images/gry_blk.png"],"mutagen_generator_assignment":[1,0],"goal":4,"start":2,"action_noise":0.15,"location_history":"[2,1,3,4]","action_history":"[0,0,0]","mutagen_history":"[1,1,1]","location_rts":"[6302,467,532]","trial_type":"fractal-mutation","trial_index":99,"time_elapsed":2398476,"internal_node_id":"0.0-5.0-45.0"},{"group":"hexagon_tri","fractal_assignment":["../images/blu_wht.png","../images/ylw_slt.png","../images/pnk_blu.png","../images/org_blu.png","../images/cyn_red.png","../images/gry_blk.png"],"mutagen_generator_assignment":[1,0],"goal":1,"start":4,"action_noise":0.15,"location_history":"[4,0,5,0,1]","action_history":"[0,0,0,0]","mutagen_history":"[1,1,1,1]","location_rts":"[1034,569,429,852]","trial_type":"fractal-mutation","trial_index":100,"time_elapsed":2409107,"internal_node_id":"0.0-5.0-46.0"},{"group":"hexagon_tri","fractal_assignment":["../images/blu_wht.png","../images/ylw_slt.png","../images/pnk_blu.png","../images/org_blu.png","../images/cyn_red.png","../images/gry_blk.png"],"mutagen_generator_assignment":[1,0],"goal":4,"start":1,"action_noise":0.15,"location_history":"[1,3,2,1,3,2,1,3,2,1,3,2,1,3,2,1,3,2,1,3,4]","action_history":"[0,0,0,0,0,0,0,0,0,0,0,0,0,0,0,0,0,0,0,0]","mutagen_history":"[1,1,1,1,1,1,1,1,1,1,1,1,1,1,1,1,1,1,1,1]","location_rts":"[1035,1001,3041,1787,634,356,618,708,382,2466,639,359,334,536,2100,942,740,668,555,346]","trial_type":"fractal-mutation","trial_index":101,"time_elapsed":2453136,"internal_node_id":"0.0-5.0-47.0"},{"group":"hexagon_tri","fractal_assignment":["../images/blu_wht.png","../images/ylw_slt.png","../images/pnk_blu.png","../images/org_blu.png","../images/cyn_red.png","../images/gry_blk.png"],"mutagen_generator_assignment":[1,0],"goal":3,"start":4,"action_noise":0.15,"location_history":"[4,2,1,3]","action_history":"[0,0,0]","mutagen_history":"[1,1,1]","location_rts":"[513,371,349]","trial_type":"fractal-mutation","trial_index":102,"time_elapsed":2461052,"internal_node_id":"0.0-5.0-48.0"},{"group":"hexagon_tri","fractal_assignment":["../images/blu_wht.png","../images/ylw_slt.png","../images/pnk_blu.png","../images/org_blu.png","../images/cyn_red.png","../images/gry_blk.png"],"mutagen_generator_assignment":[1,0],"goal":5,"start":3,"action_noise":0.15,"location_history":"[3,2,1,3,2,1,5]","action_history":"[0,0,0,0,0,0]","mutagen_history":"[1,1,1,1,1,1]","location_rts":"[450,443,413,666,366,388]","trial_type":"fractal-mutation","trial_index":103,"time_elapsed":2473648,"internal_node_id":"0.0-5.0-49.0"},{"view_history":"[{\"page_index\":0,\"viewing_time\":7183}]","rt":7184,"trial_type":"instructions","trial_index":104,"time_elapsed":2481832,"internal_node_id":"0.0-6.0"},{"rt":5599,"responses":"{\"Q0\":\"No problems.\"}","trial_type":"survey-text","trial_index":105,"time_elapsed":2488434,"internal_node_id":"0.0-7.0"}]