[{"view_history":"[{\"page_index\":0,\"viewing_time\":12585},{\"page_index\":1,\"viewing_time\":12423},{\"page_index\":2,\"viewing_time\":75152},{\"page_index\":3,\"viewing_time\":7648}]","rt":107808,"trial_type":"instructions","trial_index":0,"time_elapsed":107809,"internal_node_id":"0.0-0.0"},{"view_history":"[{\"page_index\":0,\"viewing_time\":6110},{\"page_index\":1,\"viewing_time\":22896}]","rt":29007,"trial_type":"instructions","trial_index":1,"time_elapsed":137817,"internal_node_id":"0.0-1.0"},{"group":"hexagon_bi","room_assignment":["red","green","purple","blue","grey","yellow"],"door_color_assignment":["white","black"],"door_generator_assignment":[0,1],"goal":4,"start":0,"action_noise":0.15,"location_history":"[0,5,4]","action_history":"[0,1]","door_history":"[0,1]","location_rts":"[3181,2031]","trial_type":"two-door-navigation","trial_index":2,"time_elapsed":148588,"internal_node_id":"0.0-2.0-0.0"},{"group":"hexagon_bi","room_assignment":["red","green","purple","blue","grey","yellow"],"door_color_assignment":["white","black"],"door_generator_assignment":[0,1],"goal":3,"start":4,"action_noise":0.15,"location_history":"[4,3]","action_history":"[1]","door_history":"[1]","location_rts":"[2909]","trial_type":"two-door-navigation","trial_index":3,"time_elapsed":156022,"internal_node_id":"0.0-2.0-1.0"},{"group":"hexagon_bi","room_assignment":["red","green","purple","blue","grey","yellow"],"door_color_assignment":["white","black"],"door_generator_assignment":[0,1],"goal":5,"start":3,"action_noise":0.15,"location_history":"[3,4,5]","action_history":"[0,1]","door_history":"[0,1]","location_rts":"[4704,1184]","trial_type":"two-door-navigation","trial_index":4,"time_elapsed":167451,"internal_node_id":"0.0-2.0-2.0"},{"group":"hexagon_bi","room_assignment":["red","green","purple","blue","grey","yellow"],"door_color_assignment":["white","black"],"door_generator_assignment":[0,1],"goal":2,"start":5,"action_noise":0.15,"location_history":"[5,4,5,4,5,0,1,0,5,0,5,0,1,2]","action_history":"[1,1,1,0,0,0,0,0,0,1,0,1,1]","door_history":"[1,1,1,0,0,0,0,0,0,1,0,1,1]","location_rts":"[5712,1313,993,1385,592,745,735,838,1266,868,1467,613,1029]","trial_type":"two-door-navigation","trial_index":5,"time_elapsed":201787,"internal_node_id":"0.0-2.0-3.0"},{"group":"hexagon_bi","room_assignment":["red","green","purple","blue","grey","yellow"],"door_color_assignment":["white","black"],"door_generator_assignment":[0,1],"goal":1,"start":2,"action_noise":0.15,"location_history":"[2,1]","action_history":"[0]","door_history":"[0]","location_rts":"[2779]","trial_type":"two-door-navigation","trial_index":6,"time_elapsed":209093,"internal_node_id":"0.0-2.0-4.0"},{"group":"hexagon_bi","room_assignment":["red","green","purple","blue","grey","yellow"],"door_color_assignment":["white","black"],"door_generator_assignment":[0,1],"goal":4,"start":1,"action_noise":0.15,"location_history":"[1,0,5,0,1,0,1,0,1,0,5,4]","action_history":"[1,0,0,0,0,1,1,1,1,0,1]","door_history":"[1,0,0,0,0,1,1,1,1,0,1]","location_rts":"[1993,833,1247,1405,1192,871,1088,806,1001,951,1192]","trial_type":"two-door-navigation","trial_index":7,"time_elapsed":236406,"internal_node_id":"0.0-2.0-5.0"},{"group":"hexagon_bi","room_assignment":["red","green","purple","blue","grey","yellow"],"door_color_assignment":["white","black"],"door_generator_assignment":[0,1],"goal":1,"start":4,"action_noise":0.15,"location_history":"[4,5,0,5,4,3,4,3,2,3,2,3,2,3,4,5,4,3,2,3,4,3,4,3,4,5,4,3,2,3,2,3,2,1]","action_history":"[1,1,0,0,0,0,0,1,1,1,1,1,1,0,0,0,0,1,0,0,0,0,0,1,1,1,1,1,1,1,1,0,0]","door_history":"[1,1,0,0,0,0,0,1,1,1,1,1,1,0,0,0,0,1,0,0,0,0,0,1,1,1,1,1,1,1,1,0,0]","location_rts":"[1785,1453,17374,1016,940,1822,1291,1189,2014,1258,961,1730,852,589,1500,1291,1148,1066,1547,1116,942,684,779,527,854,878,680,653,610,1355,1621,830,739]","trial_type":"two-door-navigation","trial_index":8,"time_elapsed":326683,"internal_node_id":"0.0-2.0-6.0"},{"group":"hexagon_bi","room_assignment":["red","green","purple","blue","grey","yellow"],"door_color_assignment":["white","black"],"door_generator_assignment":[0,1],"goal":5,"start":1,"action_noise":0.15,"location_history":"[1,0,5]","action_history":"[1,0]","door_history":"[1,0]","location_rts":"[1707,938]","trial_type":"two-door-navigation","trial_index":9,"time_elapsed":334874,"internal_node_id":"0.0-2.0-7.0"},{"group":"hexagon_bi","room_assignment":["red","green","purple","blue","grey","yellow"],"door_color_assignment":["white","black"],"door_generator_assignment":[0,1],"goal":0,"start":5,"action_noise":0.15,"location_history":"[5,0]","action_history":"[0]","door_history":"[0]","location_rts":"[2254]","trial_type":"two-door-navigation","trial_index":10,"time_elapsed":341656,"internal_node_id":"0.0-2.0-8.0"},{"group":"hexagon_bi","room_assignment":["red","green","purple","blue","grey","yellow"],"door_color_assignment":["white","black"],"door_generator_assignment":[0,1],"goal":2,"start":0,"action_noise":0.15,"location_history":"[0,1,2]","action_history":"[1,0]","door_history":"[1,0]","location_rts":"[1528,1435]","trial_type":"two-door-navigation","trial_index":11,"time_elapsed":350165,"internal_node_id":"0.0-2.0-9.0"},{"group":"hexagon_bi","room_assignment":["red","green","purple","blue","grey","yellow"],"door_color_assignment":["white","black"],"door_generator_assignment":[0,1],"goal":3,"start":2,"action_noise":0.15,"location_history":"[2,3]","action_history":"[1]","door_history":"[1]","location_rts":"[1833]","trial_type":"two-door-navigation","trial_index":12,"time_elapsed":356525,"internal_node_id":"0.0-2.0-10.0"},{"group":"hexagon_bi","room_assignment":["red","green","purple","blue","grey","yellow"],"door_color_assignment":["white","black"],"door_generator_assignment":[0,1],"goal":0,"start":3,"action_noise":0.15,"location_history":"[3,4,3,4,5,0]","action_history":"[0,1,0,0,0]","door_history":"[0,1,0,0,0]","location_rts":"[1721,1182,890,565,1670]","trial_type":"two-door-navigation","trial_index":13,"time_elapsed":371154,"internal_node_id":"0.0-2.0-11.0"},{"group":"hexagon_bi","room_assignment":["red","green","purple","blue","grey","yellow"],"door_color_assignment":["white","black"],"door_generator_assignment":[0,1],"goal":2,"start":0,"action_noise":0.15,"location_history":"[0,1,2]","action_history":"[1,1]","door_history":"[1,1]","location_rts":"[1503,5804]","trial_type":"two-door-navigation","trial_index":14,"time_elapsed":384010,"internal_node_id":"0.0-2.0-12.0"},{"group":"hexagon_bi","room_assignment":["red","green","purple","blue","grey","yellow"],"door_color_assignment":["white","black"],"door_generator_assignment":[0,1],"goal":5,"start":2,"action_noise":0.15,"location_history":"[2,1,2,1,2,1,0,5]","action_history":"[0,1,0,0,0,1,0]","door_history":"[0,1,0,0,0,1,0]","location_rts":"[1562,1236,842,723,1384,668,2109]","trial_type":"two-door-navigation","trial_index":15,"time_elapsed":403170,"internal_node_id":"0.0-2.0-13.0"},{"group":"hexagon_bi","room_assignment":["red","green","purple","blue","grey","yellow"],"door_color_assignment":["white","black"],"door_generator_assignment":[0,1],"goal":4,"start":5,"action_noise":0.15,"location_history":"[5,4]","action_history":"[1]","door_history":"[1]","location_rts":"[2164]","trial_type":"two-door-navigation","trial_index":16,"time_elapsed":409857,"internal_node_id":"0.0-2.0-14.0"},{"group":"hexagon_bi","room_assignment":["red","green","purple","blue","grey","yellow"],"door_color_assignment":["white","black"],"door_generator_assignment":[0,1],"goal":3,"start":4,"action_noise":0.15,"location_history":"[4,3]","action_history":"[1]","door_history":"[1]","location_rts":"[4026]","trial_type":"two-door-navigation","trial_index":17,"time_elapsed":418410,"internal_node_id":"0.0-2.0-15.0"},{"group":"hexagon_bi","room_assignment":["red","green","purple","blue","grey","yellow"],"door_color_assignment":["white","black"],"door_generator_assignment":[0,1],"goal":1,"start":3,"action_noise":0.15,"location_history":"[3,2,3,4,3,4,5,4,3,4,5,0,5,4,5,4,5,4,5,0,1]","action_history":"[0,1,0,0,0,1,1,1,1,0,0,0,0,1,1,1,1,1,0,1]","door_history":"[0,1,0,0,0,1,1,1,1,0,0,0,0,1,1,1,1,1,0,1]","location_rts":"[1550,1444,1056,353,942,783,740,890,1282,1024,3881,1849,1256,1059,920,908,1306,870,838,1386]","trial_type":"two-door-navigation","trial_index":18,"time_elapsed":466666,"internal_node_id":"0.0-2.0-16.0"},{"group":"hexagon_bi","room_assignment":["red","green","purple","blue","grey","yellow"],"door_color_assignment":["white","black"],"door_generator_assignment":[0,1],"goal":5,"start":1,"action_noise":0.15,"location_history":"[1,2,3,2,3,4,3,4,3,2,3,2,1,2,3,4,3,4,5]","action_history":"[0,1,1,1,0,0,0,1,1,1,1,0,0,1,0,0,0,1]","door_history":"[0,1,1,1,0,0,0,1,1,1,1,0,0,1,0,0,0,1]","location_rts":"[2229,861,877,927,1414,879,2561,667,1379,1112,1670,601,1258,1951,1291,1009,1115,475]","trial_type":"two-door-navigation","trial_index":19,"time_elapsed":510814,"internal_node_id":"0.0-2.0-17.0"},{"group":"hexagon_bi","room_assignment":["red","green","purple","blue","grey","yellow"],"door_color_assignment":["white","black"],"door_generator_assignment":[0,1],"goal":4,"start":5,"action_noise":0.15,"location_history":"[5,4]","action_history":"[1]","door_history":"[1]","location_rts":"[2393]","trial_type":"two-door-navigation","trial_index":20,"time_elapsed":517730,"internal_node_id":"0.0-2.0-18.0"},{"group":"hexagon_bi","room_assignment":["red","green","purple","blue","grey","yellow"],"door_color_assignment":["white","black"],"door_generator_assignment":[0,1],"goal":0,"start":4,"action_noise":0.15,"location_history":"[4,5,4,3,2,1,0]","action_history":"[0,1,0,1,0,1]","door_history":"[0,1,0,1,0,1]","location_rts":"[2372,1231,1318,1731,2076,1299]","trial_type":"two-door-navigation","trial_index":21,"time_elapsed":537379,"internal_node_id":"0.0-2.0-19.0"},{"group":"hexagon_bi","room_assignment":["red","green","purple","blue","grey","yellow"],"door_color_assignment":["white","black"],"door_generator_assignment":[0,1],"goal":1,"start":0,"action_noise":0.15,"location_history":"[0,5,4,3,2,1]","action_history":"[0,1,0,1,0]","door_history":"[0,1,0,1,0]","location_rts":"[1509,1289,1418,1168,1047]","trial_type":"two-door-navigation","trial_index":22,"time_elapsed":552428,"internal_node_id":"0.0-2.0-20.0"},{"group":"hexagon_bi","room_assignment":["red","green","purple","blue","grey","yellow"],"door_color_assignment":["white","black"],"door_generator_assignment":[0,1],"goal":3,"start":1,"action_noise":0.15,"location_history":"[1,0,5,0,5,0,5,0,5,4,3]","action_history":"[1,0,1,0,1,0,0,0,1,0]","door_history":"[1,0,1,0,1,0,0,0,1,0]","location_rts":"[1787,991,916,978,1248,981,1022,822,665,1877]","trial_type":"two-door-navigation","trial_index":23,"time_elapsed":577405,"internal_node_id":"0.0-2.0-21.0"},{"group":"hexagon_bi","room_assignment":["red","green","purple","blue","grey","yellow"],"door_color_assignment":["white","black"],"door_generator_assignment":[0,1],"goal":2,"start":3,"action_noise":0.15,"location_history":"[3,2]","action_history":"[1]","door_history":"[1]","location_rts":"[1149]","trial_type":"two-door-navigation","trial_index":24,"time_elapsed":583077,"internal_node_id":"0.0-2.0-22.0"},{"group":"hexagon_bi","room_assignment":["red","green","purple","blue","grey","yellow"],"door_color_assignment":["white","black"],"door_generator_assignment":[0,1],"goal":0,"start":2,"action_noise":0.15,"location_history":"[2,3,4,5,0]","action_history":"[1,0,1,0]","door_history":"[1,0,1,0]","location_rts":"[28409,1209,1216,1255]","trial_type":"two-door-navigation","trial_index":25,"time_elapsed":622755,"internal_node_id":"0.0-2.0-23.0"},{"group":"hexagon_bi","room_assignment":["red","green","purple","blue","grey","yellow"],"door_color_assignment":["white","black"],"door_generator_assignment":[0,1],"goal":3,"start":0,"action_noise":0.15,"location_history":"[0,1,2,3]","action_history":"[1,0,1]","door_history":"[1,0,1]","location_rts":"[28578,1748,1330]","trial_type":"two-door-navigation","trial_index":26,"time_elapsed":660964,"internal_node_id":"0.0-2.0-24.0"},{"group":"hexagon_bi","room_assignment":["red","green","purple","blue","grey","yellow"],"door_color_assignment":["white","black"],"door_generator_assignment":[0,1],"goal":1,"start":3,"action_noise":0.15,"location_history":"[3,4,3,4,3,2,3,2,3,2,1]","action_history":"[0,1,0,0,1,0,1,1,0,0]","door_history":"[0,1,0,0,1,0,1,1,0,0]","location_rts":"[6865,1800,1069,1241,1095,1372,1024,955,980,734]","trial_type":"two-door-navigation","trial_index":27,"time_elapsed":691817,"internal_node_id":"0.0-2.0-25.0"},{"group":"hexagon_bi","room_assignment":["red","green","purple","blue","grey","yellow"],"door_color_assignment":["white","black"],"door_generator_assignment":[0,1],"goal":2,"start":1,"action_noise":0.15,"location_history":"[1,0,1,2]","action_history":"[1,1,0]","door_history":"[1,1,0]","location_rts":"[3273,1295,475]","trial_type":"two-door-navigation","trial_index":28,"time_elapsed":703427,"internal_node_id":"0.0-2.0-26.0"},{"group":"hexagon_bi","room_assignment":["red","green","purple","blue","grey","yellow"],"door_color_assignment":["white","black"],"door_generator_assignment":[0,1],"goal":5,"start":2,"action_noise":0.15,"location_history":"[2,1,0,5]","action_history":"[0,1,1]","door_history":"[0,1,1]","location_rts":"[3205,512,1134]","trial_type":"two-door-navigation","trial_index":29,"time_elapsed":714844,"internal_node_id":"0.0-2.0-27.0"},{"group":"hexagon_bi","room_assignment":["red","green","purple","blue","grey","yellow"],"door_color_assignment":["white","black"],"door_generator_assignment":[0,1],"goal":4,"start":5,"action_noise":0.15,"location_history":"[5,0,5,4]","action_history":"[0,0,1]","door_history":"[0,0,1]","location_rts":"[10459,1120,381]","trial_type":"two-door-navigation","trial_index":30,"time_elapsed":733369,"internal_node_id":"0.0-2.0-28.0"},{"group":"hexagon_bi","room_assignment":["red","green","purple","blue","grey","yellow"],"door_color_assignment":["white","black"],"door_generator_assignment":[0,1],"goal":5,"start":4,"action_noise":0.15,"location_history":"[4,3,2,1,2,3,4,5]","action_history":"[1,1,0,1,1,0,1]","door_history":"[1,1,0,1,1,0,1]","location_rts":"[3199,1873,607,1002,740,305,985]","trial_type":"two-door-navigation","trial_index":31,"time_elapsed":752737,"internal_node_id":"0.0-2.0-29.0"},{"group":"hexagon_bi","room_assignment":["red","green","purple","blue","grey","yellow"],"door_color_assignment":["white","black"],"door_generator_assignment":[0,1],"goal":3,"start":5,"action_noise":0.15,"location_history":"[5,0,1,2,3]","action_history":"[0,1,0,1]","door_history":"[0,1,0,1]","location_rts":"[5933,1120,1007,846]","trial_type":"two-door-navigation","trial_index":32,"time_elapsed":769223,"internal_node_id":"0.0-2.0-30.0"},{"group":"hexagon_bi","room_assignment":["red","green","purple","blue","grey","yellow"],"door_color_assignment":["white","black"],"door_generator_assignment":[0,1],"goal":0,"start":3,"action_noise":0.15,"location_history":"[3,2,3,2,1,2,1,0]","action_history":"[1,0,1,0,1,0,1]","door_history":"[1,0,1,0,1,0,1]","location_rts":"[1732,804,794,753,747,693,628]","trial_type":"two-door-navigation","trial_index":33,"time_elapsed":786017,"internal_node_id":"0.0-2.0-31.0"},{"group":"hexagon_bi","room_assignment":["red","green","purple","blue","grey","yellow"],"door_color_assignment":["white","black"],"door_generator_assignment":[0,1],"goal":4,"start":0,"action_noise":0.15,"location_history":"[0,5,4]","action_history":"[0,1]","door_history":"[0,1]","location_rts":"[7176,980]","trial_type":"two-door-navigation","trial_index":34,"time_elapsed":799717,"internal_node_id":"0.0-2.0-32.0"},{"group":"hexagon_bi","room_assignment":["red","green","purple","blue","grey","yellow"],"door_color_assignment":["white","black"],"door_generator_assignment":[0,1],"goal":1,"start":4,"action_noise":0.15,"location_history":"[4,5,4,3,2,1]","action_history":"[0,1,0,1,0]","door_history":"[0,1,0,1,0]","location_rts":"[1639,1638,896,1487,1069]","trial_type":"two-door-navigation","trial_index":35,"time_elapsed":815056,"internal_node_id":"0.0-2.0-33.0"},{"group":"hexagon_bi","room_assignment":["red","green","purple","blue","grey","yellow"],"door_color_assignment":["white","black"],"door_generator_assignment":[0,1],"goal":2,"start":1,"action_noise":0.15,"location_history":"[1,0,5,4,5,0,1,2]","action_history":"[1,0,1,0,0,1,0]","door_history":"[1,0,1,0,0,1,0]","location_rts":"[5878,932,667,961,1087,1188,1367]","trial_type":"two-door-navigation","trial_index":36,"time_elapsed":837778,"internal_node_id":"0.0-2.0-34.0"},{"group":"hexagon_bi","room_assignment":["red","green","purple","blue","grey","yellow"],"door_color_assignment":["white","black"],"door_generator_assignment":[0,1],"goal":0,"start":2,"action_noise":0.15,"location_history":"[2,3,4,5,0]","action_history":"[1,0,1,0]","door_history":"[1,0,1,0]","location_rts":"[4789,958,837,1056]","trial_type":"two-door-navigation","trial_index":37,"time_elapsed":852998,"internal_node_id":"0.0-2.0-35.0"},{"group":"hexagon_bi","room_assignment":["red","green","purple","blue","grey","yellow"],"door_color_assignment":["white","black"],"door_generator_assignment":[0,1],"goal":5,"start":0,"action_noise":0.15,"location_history":"[0,1,2,3,4,5]","action_history":"[1,0,1,0,1]","door_history":"[1,0,1,0,1]","location_rts":"[3976,1205,890,1136,1187]","trial_type":"two-door-navigation","trial_index":38,"time_elapsed":869988,"internal_node_id":"0.0-2.0-36.0"},{"group":"hexagon_bi","room_assignment":["red","green","purple","blue","grey","yellow"],"door_color_assignment":["white","black"],"door_generator_assignment":[0,1],"goal":2,"start":5,"action_noise":0.15,"location_history":"[5,4,3,2]","action_history":"[1,0,1]","door_history":"[1,0,1]","location_rts":"[5039,5920,1161]","trial_type":"two-door-navigation","trial_index":39,"time_elapsed":888676,"internal_node_id":"0.0-2.0-37.0"},{"group":"hexagon_bi","room_assignment":["red","green","purple","blue","grey","yellow"],"door_color_assignment":["white","black"],"door_generator_assignment":[0,1],"goal":1,"start":2,"action_noise":0.15,"location_history":"[2,1]","action_history":"[0]","door_history":"[0]","location_rts":"[1442]","trial_type":"two-door-navigation","trial_index":40,"time_elapsed":894639,"internal_node_id":"0.0-2.0-38.0"},{"group":"hexagon_bi","room_assignment":["red","green","purple","blue","grey","yellow"],"door_color_assignment":["white","black"],"door_generator_assignment":[0,1],"goal":4,"start":1,"action_noise":0.15,"location_history":"[1,0,5,4]","action_history":"[1,0,1]","door_history":"[1,0,1]","location_rts":"[1256,1267,1002]","trial_type":"two-door-navigation","trial_index":41,"time_elapsed":904738,"internal_node_id":"0.0-2.0-39.0"},{"group":"hexagon_bi","room_assignment":["red","green","purple","blue","grey","yellow"],"door_color_assignment":["white","black"],"door_generator_assignment":[0,1],"goal":3,"start":4,"action_noise":0.15,"location_history":"[4,5,4,5,0,1,2,3]","action_history":"[1,0,1,0,1,0,1]","door_history":"[1,0,1,0,1,0,1]","location_rts":"[7350,1051,921,1039,1629,1239,1057]","trial_type":"two-door-navigation","trial_index":42,"time_elapsed":929679,"internal_node_id":"0.0-2.0-40.0"},{"group":"hexagon_bi","room_assignment":["red","green","purple","blue","grey","yellow"],"door_color_assignment":["white","black"],"door_generator_assignment":[0,1],"goal":5,"start":3,"action_noise":0.15,"location_history":"[3,2,1,2,3,2,3,2,1,0,5]","action_history":"[1,0,1,0,1,1,1,0,1,0]","door_history":"[1,0,1,0,1,1,1,0,1,0]","location_rts":"[1477,1202,734,856,723,1004,594,540,1560,1587]","trial_type":"two-door-navigation","trial_index":43,"time_elapsed":953664,"internal_node_id":"0.0-2.0-41.0"},{"group":"hexagon_bi","room_assignment":["red","green","purple","blue","grey","yellow"],"door_color_assignment":["white","black"],"door_generator_assignment":[0,1],"goal":3,"start":5,"action_noise":0.15,"location_history":"[5,4,3]","action_history":"[1,0]","door_history":"[1,0]","location_rts":"[13095,972]","trial_type":"two-door-navigation","trial_index":44,"time_elapsed":973278,"internal_node_id":"0.0-2.0-42.0"},{"group":"hexagon_bi","room_assignment":["red","green","purple","blue","grey","yellow"],"door_color_assignment":["white","black"],"door_generator_assignment":[0,1],"goal":0,"start":3,"action_noise":0.15,"location_history":"[3,2,1,0]","action_history":"[1,0,1]","door_history":"[1,0,1]","location_rts":"[10087,1010,1147]","trial_type":"two-door-navigation","trial_index":45,"time_elapsed":992091,"internal_node_id":"0.0-2.0-43.0"},{"group":"hexagon_bi","room_assignment":["red","green","purple","blue","grey","yellow"],"door_color_assignment":["white","black"],"door_generator_assignment":[0,1],"goal":2,"start":0,"action_noise":0.15,"location_history":"[0,5,4,3,2]","action_history":"[0,1,0,1]","door_history":"[0,1,0,1]","location_rts":"[1163,802,1875,846]","trial_type":"two-door-navigation","trial_index":46,"time_elapsed":1004365,"internal_node_id":"0.0-2.0-44.0"},{"group":"hexagon_bi","room_assignment":["red","green","purple","blue","grey","yellow"],"door_color_assignment":["white","black"],"door_generator_assignment":[0,1],"goal":4,"start":2,"action_noise":0.15,"location_history":"[2,3,2,1,2,3,2,1,2,3,2,3,2,3,4]","action_history":"[0,1,0,1,0,1,0,0,0,1,1,0,1,0]","door_history":"[0,1,0,1,0,1,0,0,0,1,1,0,1,0]","location_rts":"[3529,994,2240,1257,1298,1039,910,1037,603,1033,829,1522,820,699]","trial_type":"two-door-navigation","trial_index":47,"time_elapsed":1039975,"internal_node_id":"0.0-2.0-45.0"},{"group":"hexagon_bi","room_assignment":["red","green","purple","blue","grey","yellow"],"door_color_assignment":["white","black"],"door_generator_assignment":[0,1],"goal":1,"start":4,"action_noise":0.15,"location_history":"[4,3,2,3,2,1]","action_history":"[1,0,1,0,0]","door_history":"[1,0,1,0,0]","location_rts":"[5766,1377,1170,948,789]","trial_type":"two-door-navigation","trial_index":48,"time_elapsed":1058627,"internal_node_id":"0.0-2.0-46.0"},{"group":"hexagon_bi","room_assignment":["red","green","purple","blue","grey","yellow"],"door_color_assignment":["white","black"],"door_generator_assignment":[0,1],"goal":4,"start":1,"action_noise":0.15,"location_history":"[1,0,5,4]","action_history":"[1,0,1]","door_history":"[1,0,1]","location_rts":"[5568,1589,1743]","trial_type":"two-door-navigation","trial_index":49,"time_elapsed":1074095,"internal_node_id":"0.0-2.0-47.0"},{"group":"hexagon_bi","room_assignment":["red","green","purple","blue","grey","yellow"],"door_color_assignment":["white","black"],"door_generator_assignment":[0,1],"goal":3,"start":4,"action_noise":0.15,"location_history":"[4,5,4,3]","action_history":"[0,1,0]","door_history":"[0,1,0]","location_rts":"[5646,1228,855]","trial_type":"two-door-navigation","trial_index":50,"time_elapsed":1088384,"internal_node_id":"0.0-2.0-48.0"},{"group":"hexagon_bi","room_assignment":["red","green","purple","blue","grey","yellow"],"door_color_assignment":["white","black"],"door_generator_assignment":[0,1],"goal":5,"start":3,"action_noise":0.15,"location_history":"[3,2,3,2,3,2,3,4,5]","action_history":"[1,0,1,1,1,1,0,1]","door_history":"[1,0,1,1,1,1,0,1]","location_rts":"[6124,1363,1046,465,717,499,442,2354]","trial_type":"two-door-navigation","trial_index":51,"time_elapsed":1113067,"internal_node_id":"0.0-2.0-49.0"},{"view_history":"[{\"page_index\":0,\"viewing_time\":14032}]","rt":14033,"trial_type":"instructions","trial_index":52,"time_elapsed":1128102,"internal_node_id":"0.0-3.0"},{"view_history":"[{\"page_index\":0,\"viewing_time\":2839},{\"page_index\":1,\"viewing_time\":35616}]","rt":38455,"trial_type":"instructions","trial_index":53,"time_elapsed":1167557,"internal_node_id":"0.0-4.0"},{"group":"hexagon_bi","fractal_assignment":["../images/blu_wht.png","../images/ylw_slt.png","../images/org_blu.png","../images/cyn_red.png","../images/pnk_blu.png","../images/gry_blk.png"],"mutagen_generator_assignment":[1,0],"goal":4,"start":0,"action_noise":0.15,"location_history":"[0,1,2,3,4]","action_history":"[1,1,1,1]","mutagen_history":"[0,0,0,0]","location_rts":"[6245,2494,1187,944]","trial_type":"fractal-mutation","trial_index":54,"time_elapsed":1186062,"internal_node_id":"0.0-5.0-0.0"},{"group":"hexagon_bi","fractal_assignment":["../images/blu_wht.png","../images/ylw_slt.png","../images/org_blu.png","../images/cyn_red.png","../images/pnk_blu.png","../images/gry_blk.png"],"mutagen_generator_assignment":[1,0],"goal":3,"start":4,"action_noise":0.15,"location_history":"[4,3]","action_history":"[0]","mutagen_history":"[1]","location_rts":"[3201]","trial_type":"fractal-mutation","trial_index":55,"time_elapsed":1193810,"internal_node_id":"0.0-5.0-1.0"},{"group":"hexagon_bi","fractal_assignment":["../images/blu_wht.png","../images/ylw_slt.png","../images/org_blu.png","../images/cyn_red.png","../images/pnk_blu.png","../images/gry_blk.png"],"mutagen_generator_assignment":[1,0],"goal":5,"start":3,"action_noise":0.15,"location_history":"[3,4,3,2,1,2,3,2,1,0,1,0,5]","action_history":"[0,0,0,0,0,1,1,1,1,1,1,0]","mutagen_history":"[1,1,1,1,1,0,0,0,0,0,0,1]","location_rts":"[4042,1489,1239,872,894,1538,762,769,814,640,628,1566]","trial_type":"fractal-mutation","trial_index":56,"time_elapsed":1224972,"internal_node_id":"0.0-5.0-2.0"},{"group":"hexagon_bi","fractal_assignment":["../images/blu_wht.png","../images/ylw_slt.png","../images/org_blu.png","../images/cyn_red.png","../images/pnk_blu.png","../images/gry_blk.png"],"mutagen_generator_assignment":[1,0],"goal":2,"start":5,"action_noise":0.15,"location_history":"[5,4,5,4,3,4,3,2]","action_history":"[0,1,1,0,0,0,1]","mutagen_history":"[1,0,0,1,1,1,0]","location_rts":"[1762,1907,1608,1928,1384,773,1618]","trial_type":"fractal-mutation","trial_index":57,"time_elapsed":1246700,"internal_node_id":"0.0-5.0-3.0"},{"group":"hexagon_bi","fractal_assignment":["../images/blu_wht.png","../images/ylw_slt.png","../images/org_blu.png","../images/cyn_red.png","../images/pnk_blu.png","../images/gry_blk.png"],"mutagen_generator_assignment":[1,0],"goal":1,"start":2,"action_noise":0.15,"location_history":"[2,1]","action_history":"[0]","mutagen_history":"[1]","location_rts":"[2577]","trial_type":"fractal-mutation","trial_index":58,"time_elapsed":1253821,"internal_node_id":"0.0-5.0-4.0"},{"group":"hexagon_bi","fractal_assignment":["../images/blu_wht.png","../images/ylw_slt.png","../images/org_blu.png","../images/cyn_red.png","../images/pnk_blu.png","../images/gry_blk.png"],"mutagen_generator_assignment":[1,0],"goal":4,"start":1,"action_noise":0.15,"location_history":"[1,0,1,0,1,2,3,4]","action_history":"[1,1,0,1,0,1,0]","mutagen_history":"[0,0,1,0,1,0,1]","location_rts":"[2478,1825,1353,2288,1323,1943,1803]","trial_type":"fractal-mutation","trial_index":59,"time_elapsed":1277552,"internal_node_id":"0.0-5.0-5.0"},{"group":"hexagon_bi","fractal_assignment":["../images/blu_wht.png","../images/ylw_slt.png","../images/org_blu.png","../images/cyn_red.png","../images/pnk_blu.png","../images/gry_blk.png"],"mutagen_generator_assignment":[1,0],"goal":1,"start":4,"action_noise":0.15,"location_history":"[4,3,4,5,0,1]","action_history":"[1,0,1,0,1]","mutagen_history":"[0,1,0,1,0]","location_rts":"[9325,3255,2063,2152,1620]","trial_type":"fractal-mutation","trial_index":60,"time_elapsed":1304625,"internal_node_id":"0.0-5.0-6.0"},{"group":"hexagon_bi","fractal_assignment":["../images/blu_wht.png","../images/ylw_slt.png","../images/org_blu.png","../images/cyn_red.png","../images/pnk_blu.png","../images/gry_blk.png"],"mutagen_generator_assignment":[1,0],"goal":5,"start":1,"action_noise":0.15,"location_history":"[1,2,1,0,5]","action_history":"[0,0,1,0]","mutagen_history":"[1,1,0,1]","location_rts":"[4067,2329,5317,4055]","trial_type":"fractal-mutation","trial_index":61,"time_elapsed":1328025,"internal_node_id":"0.0-5.0-7.0"},{"group":"hexagon_bi","fractal_assignment":["../images/blu_wht.png","../images/ylw_slt.png","../images/org_blu.png","../images/cyn_red.png","../images/pnk_blu.png","../images/gry_blk.png"],"mutagen_generator_assignment":[1,0],"goal":0,"start":5,"action_noise":0.15,"location_history":"[5,4,5,0]","action_history":"[1,1,0]","mutagen_history":"[0,0,1]","location_rts":"[3707,2672,828]","trial_type":"fractal-mutation","trial_index":62,"time_elapsed":1341817,"internal_node_id":"0.0-5.0-8.0"},{"group":"hexagon_bi","fractal_assignment":["../images/blu_wht.png","../images/ylw_slt.png","../images/org_blu.png","../images/cyn_red.png","../images/pnk_blu.png","../images/gry_blk.png"],"mutagen_generator_assignment":[1,0],"goal":2,"start":0,"action_noise":0.15,"location_history":"[0,1,2]","action_history":"[1,0]","mutagen_history":"[0,1]","location_rts":"[2491,1756]","trial_type":"fractal-mutation","trial_index":63,"time_elapsed":1351633,"internal_node_id":"0.0-5.0-9.0"},{"group":"hexagon_bi","fractal_assignment":["../images/blu_wht.png","../images/ylw_slt.png","../images/org_blu.png","../images/cyn_red.png","../images/pnk_blu.png","../images/gry_blk.png"],"mutagen_generator_assignment":[1,0],"goal":3,"start":2,"action_noise":0.15,"location_history":"[2,1,0,1,2,3]","action_history":"[0,0,1,0,1]","mutagen_history":"[1,1,0,1,0]","location_rts":"[2499,1654,876,2261,1949]","trial_type":"fractal-mutation","trial_index":64,"time_elapsed":1369537,"internal_node_id":"0.0-5.0-10.0"},{"group":"hexagon_bi","fractal_assignment":["../images/blu_wht.png","../images/ylw_slt.png","../images/org_blu.png","../images/cyn_red.png","../images/pnk_blu.png","../images/gry_blk.png"],"mutagen_generator_assignment":[1,0],"goal":0,"start":3,"action_noise":0.15,"location_history":"[3,4,3,4,5,0]","action_history":"[1,0,0,1,0]","mutagen_history":"[0,1,1,0,1]","location_rts":"[6731,576,2299,1094,2505]","trial_type":"fractal-mutation","trial_index":65,"time_elapsed":1391380,"internal_node_id":"0.0-5.0-11.0"},{"group":"hexagon_bi","fractal_assignment":["../images/blu_wht.png","../images/ylw_slt.png","../images/org_blu.png","../images/cyn_red.png","../images/pnk_blu.png","../images/gry_blk.png"],"mutagen_generator_assignment":[1,0],"goal":2,"start":0,"action_noise":0.15,"location_history":"[0,5,4,3,2]","action_history":"[0,1,0,1]","mutagen_history":"[1,0,1,0]","location_rts":"[4296,1329,1843,2235]","trial_type":"fractal-mutation","trial_index":66,"time_elapsed":1408691,"internal_node_id":"0.0-5.0-12.0"},{"group":"hexagon_bi","fractal_assignment":["../images/blu_wht.png","../images/ylw_slt.png","../images/org_blu.png","../images/cyn_red.png","../images/pnk_blu.png","../images/gry_blk.png"],"mutagen_generator_assignment":[1,0],"goal":5,"start":2,"action_noise":0.15,"location_history":"[2,3,2,1,0,5]","action_history":"[1,1,0,1,0]","mutagen_history":"[0,0,1,0,1]","location_rts":"[2864,2397,466,1686,1424]","trial_type":"fractal-mutation","trial_index":67,"time_elapsed":1426197,"internal_node_id":"0.0-5.0-13.0"},{"group":"hexagon_bi","fractal_assignment":["../images/blu_wht.png","../images/ylw_slt.png","../images/org_blu.png","../images/cyn_red.png","../images/pnk_blu.png","../images/gry_blk.png"],"mutagen_generator_assignment":[1,0],"goal":4,"start":5,"action_noise":0.15,"location_history":"[5,4]","action_history":"[1]","mutagen_history":"[0]","location_rts":"[5196]","trial_type":"fractal-mutation","trial_index":68,"time_elapsed":1435924,"internal_node_id":"0.0-5.0-14.0"},{"group":"hexagon_bi","fractal_assignment":["../images/blu_wht.png","../images/ylw_slt.png","../images/org_blu.png","../images/cyn_red.png","../images/pnk_blu.png","../images/gry_blk.png"],"mutagen_generator_assignment":[1,0],"goal":3,"start":4,"action_noise":0.15,"location_history":"[4,5,0,1,2,1,0,5,0,5,0,1,0,5,4,3]","action_history":"[0,0,1,0,1,1,0,0,0,1,1,1,0,1,0]","mutagen_history":"[1,1,0,1,0,0,1,1,1,0,0,0,1,0,1]","location_rts":"[2230,1154,778,1891,1936,1293,764,987,473,968,2018,921,549,1518,1095]","trial_type":"fractal-mutation","trial_index":69,"time_elapsed":1473468,"internal_node_id":"0.0-5.0-15.0"},{"group":"hexagon_bi","fractal_assignment":["../images/blu_wht.png","../images/ylw_slt.png","../images/org_blu.png","../images/cyn_red.png","../images/pnk_blu.png","../images/gry_blk.png"],"mutagen_generator_assignment":[1,0],"goal":1,"start":3,"action_noise":0.15,"location_history":"[3,2,1]","action_history":"[1,0]","mutagen_history":"[0,1]","location_rts":"[2136,1101]","trial_type":"fractal-mutation","trial_index":70,"time_elapsed":1482258,"internal_node_id":"0.0-5.0-16.0"},{"group":"hexagon_bi","fractal_assignment":["../images/blu_wht.png","../images/ylw_slt.png","../images/org_blu.png","../images/cyn_red.png","../images/pnk_blu.png","../images/gry_blk.png"],"mutagen_generator_assignment":[1,0],"goal":5,"start":1,"action_noise":0.15,"location_history":"[1,2,1,0,5]","action_history":"[0,0,1,0]","mutagen_history":"[1,1,0,1]","location_rts":"[2622,843,443,1470]","trial_type":"fractal-mutation","trial_index":71,"time_elapsed":1495280,"internal_node_id":"0.0-5.0-17.0"},{"group":"hexagon_bi","fractal_assignment":["../images/blu_wht.png","../images/ylw_slt.png","../images/org_blu.png","../images/cyn_red.png","../images/pnk_blu.png","../images/gry_blk.png"],"mutagen_generator_assignment":[1,0],"goal":4,"start":5,"action_noise":0.15,"location_history":"[5,4]","action_history":"[0]","mutagen_history":"[1]","location_rts":"[1727]","trial_type":"fractal-mutation","trial_index":72,"time_elapsed":1501542,"internal_node_id":"0.0-5.0-18.0"},{"group":"hexagon_bi","fractal_assignment":["../images/blu_wht.png","../images/ylw_slt.png","../images/org_blu.png","../images/cyn_red.png","../images/pnk_blu.png","../images/gry_blk.png"],"mutagen_generator_assignment":[1,0],"goal":0,"start":4,"action_noise":0.15,"location_history":"[4,3,4,5,4,5,0]","action_history":"[0,1,0,1,0,1]","mutagen_history":"[1,0,1,0,1,0]","location_rts":"[1502,1224,2000,2912,2343,2111]","trial_type":"fractal-mutation","trial_index":73,"time_elapsed":1523341,"internal_node_id":"0.0-5.0-19.0"},{"group":"hexagon_bi","fractal_assignment":["../images/blu_wht.png","../images/ylw_slt.png","../images/org_blu.png","../images/cyn_red.png","../images/pnk_blu.png","../images/gry_blk.png"],"mutagen_generator_assignment":[1,0],"goal":1,"start":0,"action_noise":0.15,"location_history":"[0,1]","action_history":"[0]","mutagen_history":"[1]","location_rts":"[2470]","trial_type":"fractal-mutation","trial_index":74,"time_elapsed":1530357,"internal_node_id":"0.0-5.0-20.0"},{"group":"hexagon_bi","fractal_assignment":["../images/blu_wht.png","../images/ylw_slt.png","../images/org_blu.png","../images/cyn_red.png","../images/pnk_blu.png","../images/gry_blk.png"],"mutagen_generator_assignment":[1,0],"goal":3,"start":1,"action_noise":0.15,"location_history":"[1,2,1,2,3]","action_history":"[1,0,0,1]","mutagen_history":"[0,1,1,0]","location_rts":"[2085,1951,1582,574]","trial_type":"fractal-mutation","trial_index":75,"time_elapsed":1544167,"internal_node_id":"0.0-5.0-21.0"},{"group":"hexagon_bi","fractal_assignment":["../images/blu_wht.png","../images/ylw_slt.png","../images/org_blu.png","../images/cyn_red.png","../images/pnk_blu.png","../images/gry_blk.png"],"mutagen_generator_assignment":[1,0],"goal":2,"start":3,"action_noise":0.15,"location_history":"[3,2]","action_history":"[1]","mutagen_history":"[0]","location_rts":"[2316]","trial_type":"fractal-mutation","trial_index":76,"time_elapsed":1551023,"internal_node_id":"0.0-5.0-22.0"},{"group":"hexagon_bi","fractal_assignment":["../images/blu_wht.png","../images/ylw_slt.png","../images/org_blu.png","../images/cyn_red.png","../images/pnk_blu.png","../images/gry_blk.png"],"mutagen_generator_assignment":[1,0],"goal":0,"start":2,"action_noise":0.15,"location_history":"[2,1,2,1,0]","action_history":"[1,0,0,1]","mutagen_history":"[0,1,1,0]","location_rts":"[3084,529,1137,1501]","trial_type":"fractal-mutation","trial_index":77,"time_elapsed":1564908,"internal_node_id":"0.0-5.0-23.0"},{"group":"hexagon_bi","fractal_assignment":["../images/blu_wht.png","../images/ylw_slt.png","../images/org_blu.png","../images/cyn_red.png","../images/pnk_blu.png","../images/gry_blk.png"],"mutagen_generator_assignment":[1,0],"goal":3,"start":0,"action_noise":0.15,"location_history":"[0,5,4,5,4,5,4,3]","action_history":"[0,1,1,1,0,1,0]","mutagen_history":"[1,0,0,0,1,0,1]","location_rts":"[1313,942,1124,860,344,2028,1212]","trial_type":"fractal-mutation","trial_index":78,"time_elapsed":1583451,"internal_node_id":"0.0-5.0-24.0"},{"group":"hexagon_bi","fractal_assignment":["../images/blu_wht.png","../images/ylw_slt.png","../images/org_blu.png","../images/cyn_red.png","../images/pnk_blu.png","../images/gry_blk.png"],"mutagen_generator_assignment":[1,0],"goal":1,"start":3,"action_noise":0.15,"location_history":"[3,2,1]","action_history":"[1,0]","mutagen_history":"[0,1]","location_rts":"[2487,2003]","trial_type":"fractal-mutation","trial_index":79,"time_elapsed":1593523,"internal_node_id":"0.0-5.0-25.0"},{"group":"hexagon_bi","fractal_assignment":["../images/blu_wht.png","../images/ylw_slt.png","../images/org_blu.png","../images/cyn_red.png","../images/pnk_blu.png","../images/gry_blk.png"],"mutagen_generator_assignment":[1,0],"goal":2,"start":1,"action_noise":0.15,"location_history":"[1,2]","action_history":"[0]","mutagen_history":"[1]","location_rts":"[1670]","trial_type":"fractal-mutation","trial_index":80,"time_elapsed":1599734,"internal_node_id":"0.0-5.0-26.0"},{"group":"hexagon_bi","fractal_assignment":["../images/blu_wht.png","../images/ylw_slt.png","../images/org_blu.png","../images/cyn_red.png","../images/pnk_blu.png","../images/gry_blk.png"],"mutagen_generator_assignment":[1,0],"goal":5,"start":2,"action_noise":0.15,"location_history":"[2,3,4,5]","action_history":"[1,0,0]","mutagen_history":"[0,1,1]","location_rts":"[2461,1010,1311]","trial_type":"fractal-mutation","trial_index":81,"time_elapsed":1611103,"internal_node_id":"0.0-5.0-27.0"},{"group":"hexagon_bi","fractal_assignment":["../images/blu_wht.png","../images/ylw_slt.png","../images/org_blu.png","../images/cyn_red.png","../images/pnk_blu.png","../images/gry_blk.png"],"mutagen_generator_assignment":[1,0],"goal":4,"start":5,"action_noise":0.15,"location_history":"[5,0,1,0,5,0,5,4]","action_history":"[0,1,1,1,0,0,0]","mutagen_history":"[1,0,0,0,1,1,1]","location_rts":"[1534,676,2342,759,1009,862,807]","trial_type":"fractal-mutation","trial_index":82,"time_elapsed":1629827,"internal_node_id":"0.0-5.0-28.0"},{"group":"hexagon_bi","fractal_assignment":["../images/blu_wht.png","../images/ylw_slt.png","../images/org_blu.png","../images/cyn_red.png","../images/pnk_blu.png","../images/gry_blk.png"],"mutagen_generator_assignment":[1,0],"goal":5,"start":4,"action_noise":0.15,"location_history":"[4,3,2,3,4,5]","action_history":"[0,1,0,0,1]","mutagen_history":"[1,0,1,1,0]","location_rts":"[1968,2800,1047,616,1768]","trial_type":"fractal-mutation","trial_index":83,"time_elapsed":1646692,"internal_node_id":"0.0-5.0-29.0"},{"group":"hexagon_bi","fractal_assignment":["../images/blu_wht.png","../images/ylw_slt.png","../images/org_blu.png","../images/cyn_red.png","../images/pnk_blu.png","../images/gry_blk.png"],"mutagen_generator_assignment":[1,0],"goal":3,"start":5,"action_noise":0.15,"location_history":"[5,0,1,2,3]","action_history":"[0,1,0,1]","mutagen_history":"[1,0,1,0]","location_rts":"[4550,1606,27980,1516]","trial_type":"fractal-mutation","trial_index":84,"time_elapsed":1689977,"internal_node_id":"0.0-5.0-30.0"},{"group":"hexagon_bi","fractal_assignment":["../images/blu_wht.png","../images/ylw_slt.png","../images/org_blu.png","../images/cyn_red.png","../images/pnk_blu.png","../images/gry_blk.png"],"mutagen_generator_assignment":[1,0],"goal":0,"start":3,"action_noise":0.15,"location_history":"[3,4,5,0]","action_history":"[0,1,0]","mutagen_history":"[1,0,1]","location_rts":"[34339,1447,3007]","trial_type":"fractal-mutation","trial_index":85,"time_elapsed":1735370,"internal_node_id":"0.0-5.0-31.0"},{"group":"hexagon_bi","fractal_assignment":["../images/blu_wht.png","../images/ylw_slt.png","../images/org_blu.png","../images/cyn_red.png","../images/pnk_blu.png","../images/gry_blk.png"],"mutagen_generator_assignment":[1,0],"goal":4,"start":0,"action_noise":0.15,"location_history":"[0,5,4]","action_history":"[0,1]","mutagen_history":"[1,0]","location_rts":"[7715,1597]","trial_type":"fractal-mutation","trial_index":86,"time_elapsed":1750240,"internal_node_id":"0.0-5.0-32.0"},{"group":"hexagon_bi","fractal_assignment":["../images/blu_wht.png","../images/ylw_slt.png","../images/org_blu.png","../images/cyn_red.png","../images/pnk_blu.png","../images/gry_blk.png"],"mutagen_generator_assignment":[1,0],"goal":1,"start":4,"action_noise":0.15,"location_history":"[4,3,2,1]","action_history":"[0,1,0]","mutagen_history":"[1,0,1]","location_rts":"[1955,42450,1649]","trial_type":"fractal-mutation","trial_index":87,"time_elapsed":1802901,"internal_node_id":"0.0-5.0-33.0"},{"group":"hexagon_bi","fractal_assignment":["../images/blu_wht.png","../images/ylw_slt.png","../images/org_blu.png","../images/cyn_red.png","../images/pnk_blu.png","../images/gry_blk.png"],"mutagen_generator_assignment":[1,0],"goal":2,"start":1,"action_noise":0.15,"location_history":"[1,2]","action_history":"[0]","mutagen_history":"[1]","location_rts":"[29510]","trial_type":"fractal-mutation","trial_index":88,"time_elapsed":1836951,"internal_node_id":"0.0-5.0-34.0"},{"group":"hexagon_bi","fractal_assignment":["../images/blu_wht.png","../images/ylw_slt.png","../images/org_blu.png","../images/cyn_red.png","../images/pnk_blu.png","../images/gry_blk.png"],"mutagen_generator_assignment":[1,0],"goal":0,"start":2,"action_noise":0.15,"location_history":"[2,1,0]","action_history":"[0,1]","mutagen_history":"[1,0]","location_rts":"[1665,1553]","trial_type":"fractal-mutation","trial_index":89,"time_elapsed":1845741,"internal_node_id":"0.0-5.0-35.0"},{"group":"hexagon_bi","fractal_assignment":["../images/blu_wht.png","../images/ylw_slt.png","../images/org_blu.png","../images/cyn_red.png","../images/pnk_blu.png","../images/gry_blk.png"],"mutagen_generator_assignment":[1,0],"goal":5,"start":0,"action_noise":0.15,"location_history":"[0,5]","action_history":"[0]","mutagen_history":"[1]","location_rts":"[10118]","trial_type":"fractal-mutation","trial_index":90,"time_elapsed":1860398,"internal_node_id":"0.0-5.0-36.0"},{"group":"hexagon_bi","fractal_assignment":["../images/blu_wht.png","../images/ylw_slt.png","../images/org_blu.png","../images/cyn_red.png","../images/pnk_blu.png","../images/gry_blk.png"],"mutagen_generator_assignment":[1,0],"goal":2,"start":5,"action_noise":0.15,"location_history":"[5,4,3,2]","action_history":"[1,0,1]","mutagen_history":"[0,1,0]","location_rts":"[1565,3123,1960]","trial_type":"fractal-mutation","trial_index":91,"time_elapsed":1873635,"internal_node_id":"0.0-5.0-37.0"},{"group":"hexagon_bi","fractal_assignment":["../images/blu_wht.png","../images/ylw_slt.png","../images/org_blu.png","../images/cyn_red.png","../images/pnk_blu.png","../images/gry_blk.png"],"mutagen_generator_assignment":[1,0],"goal":1,"start":2,"action_noise":0.15,"location_history":"[2,1]","action_history":"[0]","mutagen_history":"[1]","location_rts":"[11101]","trial_type":"fractal-mutation","trial_index":92,"time_elapsed":1889270,"internal_node_id":"0.0-5.0-38.0"},{"group":"hexagon_bi","fractal_assignment":["../images/blu_wht.png","../images/ylw_slt.png","../images/org_blu.png","../images/cyn_red.png","../images/pnk_blu.png","../images/gry_blk.png"],"mutagen_generator_assignment":[1,0],"goal":4,"start":1,"action_noise":0.15,"location_history":"[1,0,5,4]","action_history":"[1,0,1]","mutagen_history":"[0,1,0]","location_rts":"[2797,2913,2326]","trial_type":"fractal-mutation","trial_index":93,"time_elapsed":1903915,"internal_node_id":"0.0-5.0-39.0"},{"group":"hexagon_bi","fractal_assignment":["../images/blu_wht.png","../images/ylw_slt.png","../images/org_blu.png","../images/cyn_red.png","../images/pnk_blu.png","../images/gry_blk.png"],"mutagen_generator_assignment":[1,0],"goal":3,"start":4,"action_noise":0.15,"location_history":"[4,5,4,5,0,1,0,1,0,5,0,5,0,1,2,3]","action_history":"[1,0,0,0,1,0,1,0,1,0,0,0,1,0,1]","mutagen_history":"[0,1,1,1,0,1,0,1,0,1,1,1,0,1,0]","location_rts":"[7327,1508,977,665,986,1505,2249,1349,1311,1043,958,1135,419,3339,1528]","trial_type":"fractal-mutation","trial_index":94,"time_elapsed":1949193,"internal_node_id":"0.0-5.0-40.0"},{"group":"hexagon_bi","fractal_assignment":["../images/blu_wht.png","../images/ylw_slt.png","../images/org_blu.png","../images/cyn_red.png","../images/pnk_blu.png","../images/gry_blk.png"],"mutagen_generator_assignment":[1,0],"goal":5,"start":3,"action_noise":0.15,"location_history":"[3,4,3,2,1,0,5]","action_history":"[0,0,1,0,1,0]","mutagen_history":"[1,1,0,1,0,1]","location_rts":"[17732,10286,1655,1403,1726,1560]","trial_type":"fractal-mutation","trial_index":95,"time_elapsed":1993248,"internal_node_id":"0.0-5.0-41.0"},{"group":"hexagon_bi","fractal_assignment":["../images/blu_wht.png","../images/ylw_slt.png","../images/org_blu.png","../images/cyn_red.png","../images/pnk_blu.png","../images/gry_blk.png"],"mutagen_generator_assignment":[1,0],"goal":3,"start":5,"action_noise":0.15,"location_history":"[5,0,1,0,5,0,5,0,5,4,5,0,1,2,3]","action_history":"[0,1,0,1,0,1,0,0,1,0,0,1,0,1]","mutagen_history":"[1,0,1,0,1,0,1,1,0,1,1,0,1,0]","location_rts":"[1281,726,1748,1446,2107,2005,613,449,1668,2010,1358,702,1228,2436]","trial_type":"fractal-mutation","trial_index":96,"time_elapsed":2030970,"internal_node_id":"0.0-5.0-42.0"},{"group":"hexagon_bi","fractal_assignment":["../images/blu_wht.png","../images/ylw_slt.png","../images/org_blu.png","../images/cyn_red.png","../images/pnk_blu.png","../images/gry_blk.png"],"mutagen_generator_assignment":[1,0],"goal":0,"start":3,"action_noise":0.15,"location_history":"[3,4,5,0]","action_history":"[0,1,0]","mutagen_history":"[1,0,1]","location_rts":"[1873,2740,1571]","trial_type":"fractal-mutation","trial_index":97,"time_elapsed":2043775,"internal_node_id":"0.0-5.0-43.0"},{"group":"hexagon_bi","fractal_assignment":["../images/blu_wht.png","../images/ylw_slt.png","../images/org_blu.png","../images/cyn_red.png","../images/pnk_blu.png","../images/gry_blk.png"],"mutagen_generator_assignment":[1,0],"goal":2,"start":0,"action_noise":0.15,"location_history":"[0,5,4,3,4,5,0,1,2]","action_history":"[0,1,1,0,1,0,1,1]","mutagen_history":"[1,0,0,1,0,1,0,0]","location_rts":"[1179,1995,2834,1255,1625,1101,739,638]","trial_type":"fractal-mutation","trial_index":98,"time_elapsed":2066878,"internal_node_id":"0.0-5.0-44.0"},{"group":"hexagon_bi","fractal_assignment":["../images/blu_wht.png","../images/ylw_slt.png","../images/org_blu.png","../images/cyn_red.png","../images/pnk_blu.png","../images/gry_blk.png"],"mutagen_generator_assignment":[1,0],"goal":4,"start":2,"action_noise":0.15,"location_history":"[2,1,0,1,0,5,4]","action_history":"[0,1,1,1,0,1]","mutagen_history":"[1,0,0,0,1,0]","location_rts":"[1988,1372,903,572,1302,1511]","trial_type":"fractal-mutation","trial_index":99,"time_elapsed":2084213,"internal_node_id":"0.0-5.0-45.0"},{"group":"hexagon_bi","fractal_assignment":["../images/blu_wht.png","../images/ylw_slt.png","../images/org_blu.png","../images/cyn_red.png","../images/pnk_blu.png","../images/gry_blk.png"],"mutagen_generator_assignment":[1,0],"goal":1,"start":4,"action_noise":0.15,"location_history":"[4,3,2,1]","action_history":"[0,1,0]","mutagen_history":"[1,0,1]","location_rts":"[1227,1386,879]","trial_type":"fractal-mutation","trial_index":100,"time_elapsed":2094301,"internal_node_id":"0.0-5.0-46.0"},{"group":"hexagon_bi","fractal_assignment":["../images/blu_wht.png","../images/ylw_slt.png","../images/org_blu.png","../images/cyn_red.png","../images/pnk_blu.png","../images/gry_blk.png"],"mutagen_generator_assignment":[1,0],"goal":4,"start":1,"action_noise":0.15,"location_history":"[1,2,3,4]","action_history":"[0,1,0]","mutagen_history":"[1,0,1]","location_rts":"[1189,854,1471]","trial_type":"fractal-mutation","trial_index":101,"time_elapsed":2104409,"internal_node_id":"0.0-5.0-47.0"},{"group":"hexagon_bi","fractal_assignment":["../images/blu_wht.png","../images/ylw_slt.png","../images/org_blu.png","../images/cyn_red.png","../images/pnk_blu.png","../images/gry_blk.png"],"mutagen_generator_assignment":[1,0],"goal":3,"start":4,"action_noise":0.15,"location_history":"[4,3]","action_history":"[0]","mutagen_history":"[1]","location_rts":"[1625]","trial_type":"fractal-mutation","trial_index":102,"time_elapsed":2110570,"internal_node_id":"0.0-5.0-48.0"},{"group":"hexagon_bi","fractal_assignment":["../images/blu_wht.png","../images/ylw_slt.png","../images/org_blu.png","../images/cyn_red.png","../images/pnk_blu.png","../images/gry_blk.png"],"mutagen_generator_assignment":[1,0],"goal":5,"start":3,"action_noise":0.15,"location_history":"[3,2,1,0,5]","action_history":"[1,0,1,0]","mutagen_history":"[0,1,0,1]","location_rts":"[2467,1434,1645,681]","trial_type":"fractal-mutation","trial_index":103,"time_elapsed":2124420,"internal_node_id":"0.0-5.0-49.0"},{"view_history":"[{\"page_index\":0,\"viewing_time\":10551}]","rt":10551,"trial_type":"instructions","trial_index":104,"time_elapsed":2135972,"internal_node_id":"0.0-6.0"},{"rt":20467,"responses":"{\"Q0\":\"Was interesting and different. And thank you for being accurate with time estimates, it is appreciated! \"}","trial_type":"survey-text","trial_index":105,"time_elapsed":2157445,"internal_node_id":"0.0-7.0"}]