[{"view_history":"[{\"page_index\":0,\"viewing_time\":10272},{\"page_index\":1,\"viewing_time\":15700},{\"page_index\":2,\"viewing_time\":30397},{\"page_index\":3,\"viewing_time\":9841}]","rt":66211,"trial_type":"instructions","trial_index":0,"time_elapsed":66211,"internal_node_id":"0.0-0.0"},{"view_history":"[{\"page_index\":0,\"viewing_time\":7843},{\"page_index\":1,\"viewing_time\":41673}]","rt":49516,"trial_type":"instructions","trial_index":1,"time_elapsed":116729,"internal_node_id":"0.0-1.0"},{"group":"hexagon_tri","room_assignment":["blue","purple","green","grey","yellow","red"],"door_color_assignment":["white","black"],"door_generator_assignment":[0,1],"goal":4,"start":0,"action_noise":0.15,"location_history":"[0,5,0,1,5,0,5,4]","action_history":"[1,1,1,1,0,0,0]","door_history":"[1,1,1,1,0,0,0]","location_rts":"[4982,5878,1586,1608,1780,1663,1329]","trial_type":"two-door-navigation","trial_index":2,"time_elapsed":146251,"internal_node_id":"0.0-2.0-0.0"},{"group":"hexagon_tri","room_assignment":["blue","purple","green","grey","yellow","red"],"door_color_assignment":["white","black"],"door_generator_assignment":[0,1],"goal":3,"start":4,"action_noise":0.15,"location_history":"[4,2,3]","action_history":"[1,1]","door_history":"[1,1]","location_rts":"[3839,3232]","trial_type":"two-door-navigation","trial_index":3,"time_elapsed":158880,"internal_node_id":"0.0-2.0-1.0"},{"group":"hexagon_tri","room_assignment":["blue","purple","green","grey","yellow","red"],"door_color_assignment":["white","black"],"door_generator_assignment":[0,1],"goal":5,"start":3,"action_noise":0.15,"location_history":"[3,2,1,3,4,2,3,2,1,5]","action_history":"[0,0,0,1,1,1,0,1,1]","door_history":"[0,0,0,1,1,1,0,1,1]","location_rts":"[1405,1280,1635,1143,1629,885,1336,2521,1279]","trial_type":"two-door-navigation","trial_index":4,"time_elapsed":184741,"internal_node_id":"0.0-2.0-2.0"},{"group":"hexagon_tri","room_assignment":["blue","purple","green","grey","yellow","red"],"door_color_assignment":["white","black"],"door_generator_assignment":[0,1],"goal":2,"start":5,"action_noise":0.15,"location_history":"[5,4,0,1,3,4,2]","action_history":"[0,0,1,1,1,1]","door_history":"[0,0,1,1,1,1]","location_rts":"[1733,3177,2114,1075,1254,896]","trial_type":"two-door-navigation","trial_index":5,"time_elapsed":204641,"internal_node_id":"0.0-2.0-3.0"},{"group":"hexagon_tri","room_assignment":["blue","purple","green","grey","yellow","red"],"door_color_assignment":["white","black"],"door_generator_assignment":[0,1],"goal":1,"start":2,"action_noise":0.15,"location_history":"[2,3,4,2,1]","action_history":"[1,1,1,0]","door_history":"[1,1,1,0]","location_rts":"[2089,1520,1095,1130]","trial_type":"two-door-navigation","trial_index":6,"time_elapsed":218079,"internal_node_id":"0.0-2.0-4.0"},{"group":"hexagon_tri","room_assignment":["blue","purple","green","grey","yellow","red"],"door_color_assignment":["white","black"],"door_generator_assignment":[0,1],"goal":4,"start":1,"action_noise":0.15,"location_history":"[1,5,4]","action_history":"[1,1]","door_history":"[1,1]","location_rts":"[2350,1082]","trial_type":"two-door-navigation","trial_index":7,"time_elapsed":227063,"internal_node_id":"0.0-2.0-5.0"},{"group":"hexagon_tri","room_assignment":["blue","purple","green","grey","yellow","red"],"door_color_assignment":["white","black"],"door_generator_assignment":[0,1],"goal":1,"start":4,"action_noise":0.15,"location_history":"[4,2,1]","action_history":"[1,0]","door_history":"[1,0]","location_rts":"[2310,1318]","trial_type":"two-door-navigation","trial_index":8,"time_elapsed":236240,"internal_node_id":"0.0-2.0-6.0"},{"group":"hexagon_tri","room_assignment":["blue","purple","green","grey","yellow","red"],"door_color_assignment":["white","black"],"door_generator_assignment":[0,1],"goal":5,"start":1,"action_noise":0.15,"location_history":"[1,5]","action_history":"[1]","door_history":"[1]","location_rts":"[2740]","trial_type":"two-door-navigation","trial_index":9,"time_elapsed":243511,"internal_node_id":"0.0-2.0-7.0"},{"group":"hexagon_tri","room_assignment":["blue","purple","green","grey","yellow","red"],"door_color_assignment":["white","black"],"door_generator_assignment":[0,1],"goal":0,"start":5,"action_noise":0.15,"location_history":"[5,4,0]","action_history":"[0,0]","door_history":"[0,0]","location_rts":"[1826,1542]","trial_type":"two-door-navigation","trial_index":10,"time_elapsed":252428,"internal_node_id":"0.0-2.0-8.0"},{"group":"hexagon_tri","room_assignment":["blue","purple","green","grey","yellow","red"],"door_color_assignment":["white","black"],"door_generator_assignment":[0,1],"goal":2,"start":0,"action_noise":0.15,"location_history":"[0,5,0,1,5,4,0,1,3,2]","action_history":"[1,1,1,1,0,0,1,0,0]","door_history":"[1,1,1,1,0,0,1,0,0]","location_rts":"[1948,1117,1144,903,694,1269,759,918,744]","trial_type":"two-door-navigation","trial_index":11,"time_elapsed":274648,"internal_node_id":"0.0-2.0-9.0"},{"group":"hexagon_tri","room_assignment":["blue","purple","green","grey","yellow","red"],"door_color_assignment":["white","black"],"door_generator_assignment":[0,1],"goal":3,"start":2,"action_noise":0.15,"location_history":"[2,3]","action_history":"[1]","door_history":"[1]","location_rts":"[1079]","trial_type":"two-door-navigation","trial_index":12,"time_elapsed":280256,"internal_node_id":"0.0-2.0-10.0"},{"group":"hexagon_tri","room_assignment":["blue","purple","green","grey","yellow","red"],"door_color_assignment":["white","black"],"door_generator_assignment":[0,1],"goal":0,"start":3,"action_noise":0.15,"location_history":"[3,4,2,3,4,0]","action_history":"[1,1,1,1,0]","door_history":"[1,1,1,1,0]","location_rts":"[4468,553,600,974,1623]","trial_type":"two-door-navigation","trial_index":13,"time_elapsed":297101,"internal_node_id":"0.0-2.0-11.0"},{"group":"hexagon_tri","room_assignment":["blue","purple","green","grey","yellow","red"],"door_color_assignment":["white","black"],"door_generator_assignment":[0,1],"goal":2,"start":0,"action_noise":0.15,"location_history":"[0,1,5,0,1,3,2]","action_history":"[1,1,1,1,0,0]","door_history":"[1,1,1,1,0,0]","location_rts":"[1943,1440,834,1179,592,809]","trial_type":"two-door-navigation","trial_index":14,"time_elapsed":313556,"internal_node_id":"0.0-2.0-12.0"},{"group":"hexagon_tri","room_assignment":["blue","purple","green","grey","yellow","red"],"door_color_assignment":["white","black"],"door_generator_assignment":[0,1],"goal":5,"start":2,"action_noise":0.15,"location_history":"[2,3,4,2,3,4,0,1,3,4,0,1,3,4,2,1,5]","action_history":"[1,1,0,0,0,0,0,1,1,1,1,1,1,1,1,0]","door_history":"[1,1,0,0,0,0,0,1,1,1,1,1,1,1,1,0]","location_rts":"[1226,992,649,984,827,699,659,1014,854,719,509,2005,628,506,1041,974]","trial_type":"two-door-navigation","trial_index":15,"time_elapsed":347754,"internal_node_id":"0.0-2.0-13.0"},{"group":"hexagon_tri","room_assignment":["blue","purple","green","grey","yellow","red"],"door_color_assignment":["white","black"],"door_generator_assignment":[0,1],"goal":4,"start":5,"action_noise":0.15,"location_history":"[5,4]","action_history":"[0]","door_history":"[0]","location_rts":"[1500]","trial_type":"two-door-navigation","trial_index":16,"time_elapsed":353788,"internal_node_id":"0.0-2.0-14.0"},{"group":"hexagon_tri","room_assignment":["blue","purple","green","grey","yellow","red"],"door_color_assignment":["white","black"],"door_generator_assignment":[0,1],"goal":3,"start":4,"action_noise":0.15,"location_history":"[4,2,1,3]","action_history":"[1,1,1]","door_history":"[1,1,1]","location_rts":"[6358,1644,823]","trial_type":"two-door-navigation","trial_index":17,"time_elapsed":369189,"internal_node_id":"0.0-2.0-15.0"},{"group":"hexagon_tri","room_assignment":["blue","purple","green","grey","yellow","red"],"door_color_assignment":["white","black"],"door_generator_assignment":[0,1],"goal":1,"start":3,"action_noise":0.15,"location_history":"[3,2,3,4,0,5,4,2,3,4,0,5,4,2,3,4,0,5,4,0,5,4,0,1]","action_history":"[1,1,1,0,0,1,1,1,1,0,1,1,1,1,1,0,0,0,0,0,0,0,1]","door_history":"[1,1,1,0,0,1,1,1,1,0,1,1,1,1,1,0,0,0,0,0,0,0,1]","location_rts":"[1548,816,1602,657,526,675,783,987,947,2132,1827,1863,592,607,703,549,514,536,538,556,455,540,759]","trial_type":"two-door-navigation","trial_index":18,"time_elapsed":416964,"internal_node_id":"0.0-2.0-16.0"},{"group":"hexagon_tri","room_assignment":["blue","purple","green","grey","yellow","red"],"door_color_assignment":["white","black"],"door_generator_assignment":[0,1],"goal":5,"start":1,"action_noise":0.15,"location_history":"[1,3,2,3,4,2,3,4,2,3,2,3,4,2,1,3,4,2,1,3,2,1,3,4,2,3,4,2,1,3,2,1,3,2,3,4,0,5]","action_history":"[0,0,0,1,1,1,1,1,1,1,1,1,0,0,0,1,1,1,0,1,0,0,1,1,1,1,1,0,0,0,0,0,0,1,1,1,0]","door_history":"[0,0,0,1,1,1,1,1,1,1,1,1,0,0,0,1,1,1,0,1,0,0,1,1,1,1,1,0,0,0,0,0,0,1,1,1,0]","location_rts":"[2503,1427,685,979,593,749,616,658,622,482,521,595,475,563,1241,470,577,514,679,596,791,676,843,1006,491,560,483,1666,866,516,562,833,541,635,511,510,424]","trial_type":"two-door-navigation","trial_index":19,"time_elapsed":485839,"internal_node_id":"0.0-2.0-17.0"},{"group":"hexagon_tri","room_assignment":["blue","purple","green","grey","yellow","red"],"door_color_assignment":["white","black"],"door_generator_assignment":[0,1],"goal":4,"start":5,"action_noise":0.15,"location_history":"[5,0,5,0,1,3,4]","action_history":"[1,1,1,0,0,1]","door_history":"[1,1,1,0,0,1]","location_rts":"[1172,524,620,570,1051,1021]","trial_type":"two-door-navigation","trial_index":20,"time_elapsed":500448,"internal_node_id":"0.0-2.0-18.0"},{"group":"hexagon_tri","room_assignment":["blue","purple","green","grey","yellow","red"],"door_color_assignment":["white","black"],"door_generator_assignment":[0,1],"goal":0,"start":4,"action_noise":0.15,"location_history":"[4,2,3,2,3,2,1,5,0]","action_history":"[1,1,0,1,0,1,1,1]","door_history":"[1,1,0,1,0,1,1,1]","location_rts":"[758,911,463,486,603,678,959,1814]","trial_type":"two-door-navigation","trial_index":21,"time_elapsed":518845,"internal_node_id":"0.0-2.0-19.0"},{"group":"hexagon_tri","room_assignment":["blue","purple","green","grey","yellow","red"],"door_color_assignment":["white","black"],"door_generator_assignment":[0,1],"goal":1,"start":0,"action_noise":0.15,"location_history":"[0,1]","action_history":"[1]","door_history":"[1]","location_rts":"[823]","trial_type":"two-door-navigation","trial_index":22,"time_elapsed":524196,"internal_node_id":"0.0-2.0-20.0"},{"group":"hexagon_tri","room_assignment":["blue","purple","green","grey","yellow","red"],"door_color_assignment":["white","black"],"door_generator_assignment":[0,1],"goal":3,"start":1,"action_noise":0.15,"location_history":"[1,5,0,1,5,4,2,1,5,0,5,4,2,1,3]","action_history":"[1,1,1,0,1,1,1,1,1,0,0,1,0,0]","door_history":"[1,1,1,0,1,1,1,1,1,0,0,1,0,0]","location_rts":"[1090,570,585,656,554,781,770,2131,813,496,433,585,482,433]","trial_type":"two-door-navigation","trial_index":23,"time_elapsed":552427,"internal_node_id":"0.0-2.0-21.0"},{"group":"hexagon_tri","room_assignment":["blue","purple","green","grey","yellow","red"],"door_color_assignment":["white","black"],"door_generator_assignment":[0,1],"goal":2,"start":3,"action_noise":0.15,"location_history":"[3,2]","action_history":"[0]","door_history":"[0]","location_rts":"[1735]","trial_type":"two-door-navigation","trial_index":24,"time_elapsed":558695,"internal_node_id":"0.0-2.0-22.0"},{"group":"hexagon_tri","room_assignment":["blue","purple","green","grey","yellow","red"],"door_color_assignment":["white","black"],"door_generator_assignment":[0,1],"goal":0,"start":2,"action_noise":0.15,"location_history":"[2,1,3,2,3,2,1,3,2,3,2,3,4,2,3,2,3,2,1,5,0]","action_history":"[0,0,1,1,0,0,0,0,1,1,1,1,1,1,0,1,0,0,1,1]","door_history":"[0,0,1,1,0,0,0,0,1,1,1,1,1,1,0,1,0,0,1,1]","location_rts":"[1250,757,609,555,1399,1287,702,1907,1954,3023,877,835,812,551,478,1122,855,585,1196,1352]","trial_type":"two-door-navigation","trial_index":25,"time_elapsed":604809,"internal_node_id":"0.0-2.0-23.0"},{"group":"hexagon_tri","room_assignment":["blue","purple","green","grey","yellow","red"],"door_color_assignment":["white","black"],"door_generator_assignment":[0,1],"goal":3,"start":0,"action_noise":0.15,"location_history":"[0,5,0,1,5,4,0,1,5,0,5,4,0,1,5,4,0,5,4,0,1,5,4,2,1,3]","action_history":"[0,1,1,1,0,0,1,1,0,0,0,0,1,1,0,0,0,0,0,1,1,0,1,0,0]","door_history":"[0,1,1,1,0,0,1,1,0,0,0,0,1,1,0,0,0,0,0,1,1,0,1,0,0]","location_rts":"[1219,3478,1504,794,687,450,482,864,540,415,493,488,25,802,498,485,390,427,553,439,488,23,472,491,578]","trial_type":"two-door-navigation","trial_index":26,"time_elapsed":650989,"internal_node_id":"0.0-2.0-24.0"},{"group":"hexagon_tri","room_assignment":["blue","purple","green","grey","yellow","red"],"door_color_assignment":["white","black"],"door_generator_assignment":[0,1],"goal":1,"start":3,"action_noise":0.15,"location_history":"[3,4,2,3,4,2,3,2,3,2,1]","action_history":"[1,1,1,1,1,1,0,1,0,0]","door_history":"[1,1,1,1,1,1,0,1,0,0]","location_rts":"[884,646,567,788,572,503,562,799,775,447]","trial_type":"two-door-navigation","trial_index":27,"time_elapsed":671271,"internal_node_id":"0.0-2.0-25.0"},{"group":"hexagon_tri","room_assignment":["blue","purple","green","grey","yellow","red"],"door_color_assignment":["white","black"],"door_generator_assignment":[0,1],"goal":2,"start":1,"action_noise":0.15,"location_history":"[1,3,2]","action_history":"[0,1]","door_history":"[0,1]","location_rts":"[1105,1273]","trial_type":"two-door-navigation","trial_index":28,"time_elapsed":679195,"internal_node_id":"0.0-2.0-26.0"},{"group":"hexagon_tri","room_assignment":["blue","purple","green","grey","yellow","red"],"door_color_assignment":["white","black"],"door_generator_assignment":[0,1],"goal":5,"start":2,"action_noise":0.15,"location_history":"[2,1,3,4,2,3,4,2,1,3,2,3,2,1,5]","action_history":"[0,0,1,1,0,1,1,0,0,1,1,0,0,0]","door_history":"[0,0,1,1,0,1,1,0,0,1,1,0,0,0]","location_rts":"[1169,544,608,610,681,672,831,1269,1299,738,2045,508,610,1033]","trial_type":"two-door-navigation","trial_index":29,"time_elapsed":709661,"internal_node_id":"0.0-2.0-27.0"},{"group":"hexagon_tri","room_assignment":["blue","purple","green","grey","yellow","red"],"door_color_assignment":["white","black"],"door_generator_assignment":[0,1],"goal":4,"start":5,"action_noise":0.15,"location_history":"[5,4]","action_history":"[1]","door_history":"[1]","location_rts":"[1464]","trial_type":"two-door-navigation","trial_index":30,"time_elapsed":715652,"internal_node_id":"0.0-2.0-28.0"},{"group":"hexagon_tri","room_assignment":["blue","purple","green","grey","yellow","red"],"door_color_assignment":["white","black"],"door_generator_assignment":[0,1],"goal":5,"start":4,"action_noise":0.15,"location_history":"[4,0,1,3,2,3,2,3,4,0,5]","action_history":"[0,1,1,0,1,1,1,1,0,0]","door_history":"[0,1,1,0,1,1,1,1,0,0]","location_rts":"[1854,1096,614,705,785,957,2799,1171,769,380]","trial_type":"two-door-navigation","trial_index":31,"time_elapsed":740518,"internal_node_id":"0.0-2.0-29.0"},{"group":"hexagon_tri","room_assignment":["blue","purple","green","grey","yellow","red"],"door_color_assignment":["white","black"],"door_generator_assignment":[0,1],"goal":3,"start":5,"action_noise":0.15,"location_history":"[5,0,5,4,2,3]","action_history":"[0,0,1,1,1]","door_history":"[0,0,1,1,1]","location_rts":"[1142,670,1261,550,549]","trial_type":"two-door-navigation","trial_index":32,"time_elapsed":753314,"internal_node_id":"0.0-2.0-30.0"},{"group":"hexagon_tri","room_assignment":["blue","purple","green","grey","yellow","red"],"door_color_assignment":["white","black"],"door_generator_assignment":[0,1],"goal":0,"start":3,"action_noise":0.15,"location_history":"[3,4,0]","action_history":"[1,0]","door_history":"[1,0]","location_rts":"[1337,886]","trial_type":"two-door-navigation","trial_index":33,"time_elapsed":761096,"internal_node_id":"0.0-2.0-31.0"},{"group":"hexagon_tri","room_assignment":["blue","purple","green","grey","yellow","red"],"door_color_assignment":["white","black"],"door_generator_assignment":[0,1],"goal":4,"start":0,"action_noise":0.15,"location_history":"[0,1,3,4]","action_history":"[0,0,1]","door_history":"[0,0,1]","location_rts":"[826,1222,1036]","trial_type":"two-door-navigation","trial_index":34,"time_elapsed":770766,"internal_node_id":"0.0-2.0-32.0"},{"group":"hexagon_tri","room_assignment":["blue","purple","green","grey","yellow","red"],"door_color_assignment":["white","black"],"door_generator_assignment":[0,1],"goal":1,"start":4,"action_noise":0.15,"location_history":"[4,0,1]","action_history":"[0,0]","door_history":"[0,0]","location_rts":"[3431,749]","trial_type":"two-door-navigation","trial_index":35,"time_elapsed":780498,"internal_node_id":"0.0-2.0-33.0"},{"group":"hexagon_tri","room_assignment":["blue","purple","green","grey","yellow","red"],"door_color_assignment":["white","black"],"door_generator_assignment":[0,1],"goal":2,"start":1,"action_noise":0.15,"location_history":"[1,3,4,0,1,5,0,1,3,2]","action_history":"[0,1,1,1,1,1,1,0,0]","door_history":"[0,1,1,1,1,1,1,0,0]","location_rts":"[1040,1200,991,615,815,1338,1569,501,452]","trial_type":"two-door-navigation","trial_index":36,"time_elapsed":801751,"internal_node_id":"0.0-2.0-34.0"},{"group":"hexagon_tri","room_assignment":["blue","purple","green","grey","yellow","red"],"door_color_assignment":["white","black"],"door_generator_assignment":[0,1],"goal":0,"start":2,"action_noise":0.15,"location_history":"[2,1,3,2,1,5,4,0]","action_history":"[0,0,0,0,1,0,1]","door_history":"[0,0,0,0,1,0,1]","location_rts":"[690,619,527,591,443,562,1333]","trial_type":"two-door-navigation","trial_index":37,"time_elapsed":817173,"internal_node_id":"0.0-2.0-35.0"},{"group":"hexagon_tri","room_assignment":["blue","purple","green","grey","yellow","red"],"door_color_assignment":["white","black"],"door_generator_assignment":[0,1],"goal":5,"start":0,"action_noise":0.15,"location_history":"[0,1,3,2,1,5]","action_history":"[1,1,0,0,0]","door_history":"[1,1,0,0,0]","location_rts":"[656,958,679,625,1097]","trial_type":"two-door-navigation","trial_index":38,"time_elapsed":829814,"internal_node_id":"0.0-2.0-36.0"},{"group":"hexagon_tri","room_assignment":["blue","purple","green","grey","yellow","red"],"door_color_assignment":["white","black"],"door_generator_assignment":[0,1],"goal":2,"start":5,"action_noise":0.15,"location_history":"[5,0,1,3,4,0,5,4,2]","action_history":"[1,1,0,1,0,0,0,1]","door_history":"[1,1,0,1,0,0,0,1]","location_rts":"[1174,822,821,543,890,585,566,569]","trial_type":"two-door-navigation","trial_index":39,"time_elapsed":847474,"internal_node_id":"0.0-2.0-37.0"},{"group":"hexagon_tri","room_assignment":["blue","purple","green","grey","yellow","red"],"door_color_assignment":["white","black"],"door_generator_assignment":[0,1],"goal":1,"start":2,"action_noise":0.15,"location_history":"[2,3,4,2,3,2,1]","action_history":"[1,1,1,1,0,0]","door_history":"[1,1,1,1,0,0]","location_rts":"[831,1308,648,507,648,452]","trial_type":"two-door-navigation","trial_index":40,"time_elapsed":861514,"internal_node_id":"0.0-2.0-38.0"},{"group":"hexagon_tri","room_assignment":["blue","purple","green","grey","yellow","red"],"door_color_assignment":["white","black"],"door_generator_assignment":[0,1],"goal":4,"start":1,"action_noise":0.15,"location_history":"[1,3,4]","action_history":"[0,1]","door_history":"[0,1]","location_rts":"[691,1678]","trial_type":"two-door-navigation","trial_index":41,"time_elapsed":869437,"internal_node_id":"0.0-2.0-39.0"},{"group":"hexagon_tri","room_assignment":["blue","purple","green","grey","yellow","red"],"door_color_assignment":["white","black"],"door_generator_assignment":[0,1],"goal":3,"start":4,"action_noise":0.15,"location_history":"[4,2,1,3]","action_history":"[1,0,0]","door_history":"[1,0,0]","location_rts":"[1100,782,205]","trial_type":"two-door-navigation","trial_index":42,"time_elapsed":878105,"internal_node_id":"0.0-2.0-40.0"},{"group":"hexagon_tri","room_assignment":["blue","purple","green","grey","yellow","red"],"door_color_assignment":["white","black"],"door_generator_assignment":[0,1],"goal":5,"start":3,"action_noise":0.15,"location_history":"[3,4,0,5]","action_history":"[1,0,0]","door_history":"[1,0,0]","location_rts":"[664,616,560]","trial_type":"two-door-navigation","trial_index":43,"time_elapsed":886530,"internal_node_id":"0.0-2.0-41.0"},{"group":"hexagon_tri","room_assignment":["blue","purple","green","grey","yellow","red"],"door_color_assignment":["white","black"],"door_generator_assignment":[0,1],"goal":3,"start":5,"action_noise":0.15,"location_history":"[5,0,5,0,1,3]","action_history":"[1,0,1,1,0]","door_history":"[1,0,1,1,0]","location_rts":"[2054,612,508,596,1240]","trial_type":"two-door-navigation","trial_index":44,"time_elapsed":900181,"internal_node_id":"0.0-2.0-42.0"},{"group":"hexagon_tri","room_assignment":["blue","purple","green","grey","yellow","red"],"door_color_assignment":["white","black"],"door_generator_assignment":[0,1],"goal":0,"start":3,"action_noise":0.15,"location_history":"[3,4,0]","action_history":"[1,0]","door_history":"[1,0]","location_rts":"[823,598]","trial_type":"two-door-navigation","trial_index":45,"time_elapsed":907154,"internal_node_id":"0.0-2.0-43.0"},{"group":"hexagon_tri","room_assignment":["blue","purple","green","grey","yellow","red"],"door_color_assignment":["white","black"],"door_generator_assignment":[0,1],"goal":2,"start":0,"action_noise":0.15,"location_history":"[0,5,4,2]","action_history":"[0,0,1]","door_history":"[0,0,1]","location_rts":"[411,561,584]","trial_type":"two-door-navigation","trial_index":46,"time_elapsed":915286,"internal_node_id":"0.0-2.0-44.0"},{"group":"hexagon_tri","room_assignment":["blue","purple","green","grey","yellow","red"],"door_color_assignment":["white","black"],"door_generator_assignment":[0,1],"goal":4,"start":2,"action_noise":0.15,"location_history":"[2,3,2,3,2,3,4]","action_history":"[0,0,1,0,1,1]","door_history":"[0,0,1,0,1,1]","location_rts":"[1217,698,715,751,888,642]","trial_type":"two-door-navigation","trial_index":47,"time_elapsed":929854,"internal_node_id":"0.0-2.0-45.0"},{"group":"hexagon_tri","room_assignment":["blue","purple","green","grey","yellow","red"],"door_color_assignment":["white","black"],"door_generator_assignment":[0,1],"goal":1,"start":4,"action_noise":0.15,"location_history":"[4,2,3,2,1]","action_history":"[1,1,0,0]","door_history":"[1,1,0,0]","location_rts":"[683,1278,629,775]","trial_type":"two-door-navigation","trial_index":48,"time_elapsed":940830,"internal_node_id":"0.0-2.0-46.0"},{"group":"hexagon_tri","room_assignment":["blue","purple","green","grey","yellow","red"],"door_color_assignment":["white","black"],"door_generator_assignment":[0,1],"goal":4,"start":1,"action_noise":0.15,"location_history":"[1,5,0,1,3,2,3,2,3,2,3,2,1,3,4]","action_history":"[1,1,0,0,1,0,0,1,1,1,1,0,0,1]","door_history":"[1,1,0,0,1,0,0,1,1,1,1,0,0,1]","location_rts":"[1898,836,1208,602,571,946,417,711,623,701,631,409,482,689]","trial_type":"two-door-navigation","trial_index":49,"time_elapsed":969410,"internal_node_id":"0.0-2.0-47.0"},{"group":"hexagon_tri","room_assignment":["blue","purple","green","grey","yellow","red"],"door_color_assignment":["white","black"],"door_generator_assignment":[0,1],"goal":3,"start":4,"action_noise":0.15,"location_history":"[4,0,1,5,4,2,1,5,4,0,1,3]","action_history":"[0,0,1,0,1,0,1,0,0,0,1]","door_history":"[0,0,1,0,1,0,1,0,0,0,1]","location_rts":"[1045,612,141,750,445,367,284,549,409,432,183]","trial_type":"two-door-navigation","trial_index":50,"time_elapsed":989402,"internal_node_id":"0.0-2.0-48.0"},{"group":"hexagon_tri","room_assignment":["blue","purple","green","grey","yellow","red"],"door_color_assignment":["white","black"],"door_generator_assignment":[0,1],"goal":5,"start":3,"action_noise":0.15,"location_history":"[3,4,0,5]","action_history":"[1,0,0]","door_history":"[1,0,0]","location_rts":"[733,886,1062]","trial_type":"two-door-navigation","trial_index":51,"time_elapsed":998658,"internal_node_id":"0.0-2.0-49.0"},{"view_history":"[{\"page_index\":0,\"viewing_time\":10188}]","rt":10188,"trial_type":"instructions","trial_index":52,"time_elapsed":1009846,"internal_node_id":"0.0-3.0"},{"view_history":"[{\"page_index\":0,\"viewing_time\":362713},{\"page_index\":1,\"viewing_time\":196622}]","rt":559335,"trial_type":"instructions","trial_index":53,"time_elapsed":1570185,"internal_node_id":"0.0-4.0"},{"group":"hexagon_tri","fractal_assignment":["../images/pnk_blu.png","../images/cyn_red.png","../images/org_blu.png","../images/blu_wht.png","../images/gry_blk.png","../images/ylw_slt.png"],"mutagen_generator_assignment":[0,1],"goal":4,"start":0,"action_noise":0.15,"location_history":"[0,5,4]","action_history":"[0,0]","mutagen_history":"[0,0]","location_rts":"[13147,4602]","trial_type":"fractal-mutation","trial_index":54,"time_elapsed":1593630,"internal_node_id":"0.0-5.0-0.0"},{"group":"hexagon_tri","fractal_assignment":["../images/pnk_blu.png","../images/cyn_red.png","../images/org_blu.png","../images/blu_wht.png","../images/gry_blk.png","../images/ylw_slt.png"],"mutagen_generator_assignment":[0,1],"goal":3,"start":4,"action_noise":0.15,"location_history":"[4,2,1,5,4,2,1,3]","action_history":"[1,1,1,0,0,0,0]","mutagen_history":"[1,1,1,0,0,0,0]","location_rts":"[8371,12007,3280,1826,956,615,133]","trial_type":"fractal-mutation","trial_index":55,"time_elapsed":1631953,"internal_node_id":"0.0-5.0-1.0"},{"group":"hexagon_tri","fractal_assignment":["../images/pnk_blu.png","../images/cyn_red.png","../images/org_blu.png","../images/blu_wht.png","../images/gry_blk.png","../images/ylw_slt.png"],"mutagen_generator_assignment":[0,1],"goal":5,"start":3,"action_noise":0.15,"location_history":"[3,2,3,4,2,3,4,2,1,3,2,3,4,2,3,2,1,5]","action_history":"[0,0,1,1,1,1,1,0,0,0,1,1,1,1,0,0,1]","mutagen_history":"[0,0,1,1,1,1,1,0,0,0,1,1,1,1,0,0,1]","location_rts":"[48013,1248,1726,1244,627,695,883,841,599,791,854,766,848,2045,1030,1205,1322]","trial_type":"fractal-mutation","trial_index":56,"time_elapsed":1718564,"internal_node_id":"0.0-5.0-2.0"},{"group":"hexagon_tri","fractal_assignment":["../images/pnk_blu.png","../images/cyn_red.png","../images/org_blu.png","../images/blu_wht.png","../images/gry_blk.png","../images/ylw_slt.png"],"mutagen_generator_assignment":[0,1],"goal":2,"start":5,"action_noise":0.15,"location_history":"[5,0,1,3,2]","action_history":"[1,1,0,0]","mutagen_history":"[1,1,0,0]","location_rts":"[177551,909,637,854]","trial_type":"fractal-mutation","trial_index":57,"time_elapsed":1906365,"internal_node_id":"0.0-5.0-3.0"},{"group":"hexagon_tri","fractal_assignment":["../images/pnk_blu.png","../images/cyn_red.png","../images/org_blu.png","../images/blu_wht.png","../images/gry_blk.png","../images/ylw_slt.png"],"mutagen_generator_assignment":[0,1],"goal":1,"start":2,"action_noise":0.15,"location_history":"[2,3,2,1]","action_history":"[1,0,0]","mutagen_history":"[1,0,0]","location_rts":"[584,1053,765]","trial_type":"fractal-mutation","trial_index":58,"time_elapsed":1915524,"internal_node_id":"0.0-5.0-4.0"},{"group":"hexagon_tri","fractal_assignment":["../images/pnk_blu.png","../images/cyn_red.png","../images/org_blu.png","../images/blu_wht.png","../images/gry_blk.png","../images/ylw_slt.png"],"mutagen_generator_assignment":[0,1],"goal":4,"start":1,"action_noise":0.15,"location_history":"[1,3,2,3,2,3,4]","action_history":"[0,0,1,0,0,0]","mutagen_history":"[0,0,1,0,0,0]","location_rts":"[1473,691,1033,609,852,697]","trial_type":"fractal-mutation","trial_index":59,"time_elapsed":1930878,"internal_node_id":"0.0-5.0-5.0"},{"group":"hexagon_tri","fractal_assignment":["../images/pnk_blu.png","../images/cyn_red.png","../images/org_blu.png","../images/blu_wht.png","../images/gry_blk.png","../images/ylw_slt.png"],"mutagen_generator_assignment":[0,1],"goal":1,"start":4,"action_noise":0.15,"location_history":"[4,2,3,4,2,3,2,1]","action_history":"[1,1,0,1,1,1,0]","mutagen_history":"[1,1,0,1,1,1,0]","location_rts":"[1017,691,930,504,480,1030,763]","trial_type":"fractal-mutation","trial_index":60,"time_elapsed":1947430,"internal_node_id":"0.0-5.0-6.0"},{"group":"hexagon_tri","fractal_assignment":["../images/pnk_blu.png","../images/cyn_red.png","../images/org_blu.png","../images/blu_wht.png","../images/gry_blk.png","../images/ylw_slt.png"],"mutagen_generator_assignment":[0,1],"goal":5,"start":1,"action_noise":0.15,"location_history":"[1,3,2,3,2,3,4,2,3,4,0,1,5]","action_history":"[0,0,0,0,1,1,1,1,1,0,1,1]","mutagen_history":"[0,0,0,0,1,1,1,1,1,0,1,1]","location_rts":"[5876,755,587,633,1542,825,1046,475,649,958,1604,1310]","trial_type":"fractal-mutation","trial_index":61,"time_elapsed":1980162,"internal_node_id":"0.0-5.0-7.0"},{"group":"hexagon_tri","fractal_assignment":["../images/pnk_blu.png","../images/cyn_red.png","../images/org_blu.png","../images/blu_wht.png","../images/gry_blk.png","../images/ylw_slt.png"],"mutagen_generator_assignment":[0,1],"goal":0,"start":5,"action_noise":0.15,"location_history":"[5,0]","action_history":"[0]","mutagen_history":"[0]","location_rts":"[23903]","trial_type":"fractal-mutation","trial_index":62,"time_elapsed":2008651,"internal_node_id":"0.0-5.0-8.0"},{"group":"hexagon_tri","fractal_assignment":["../images/pnk_blu.png","../images/cyn_red.png","../images/org_blu.png","../images/blu_wht.png","../images/gry_blk.png","../images/ylw_slt.png"],"mutagen_generator_assignment":[0,1],"goal":2,"start":0,"action_noise":0.15,"location_history":"[0,1,3,2]","action_history":"[0,0,1]","mutagen_history":"[0,0,1]","location_rts":"[794,611,502]","trial_type":"fractal-mutation","trial_index":63,"time_elapsed":2017304,"internal_node_id":"0.0-5.0-9.0"},{"group":"hexagon_tri","fractal_assignment":["../images/pnk_blu.png","../images/cyn_red.png","../images/org_blu.png","../images/blu_wht.png","../images/gry_blk.png","../images/ylw_slt.png"],"mutagen_generator_assignment":[0,1],"goal":3,"start":2,"action_noise":0.15,"location_history":"[2,1,5,0,1,5,0,5,4,2,1,3]","action_history":"[0,1,1,1,1,1,0,0,1,0,0]","mutagen_history":"[0,1,1,1,1,1,0,0,1,0,0]","location_rts":"[18695,2433,772,632,748,857,1354,506,488,466,926]","trial_type":"fractal-mutation","trial_index":64,"time_elapsed":2060598,"internal_node_id":"0.0-5.0-10.0"},{"group":"hexagon_tri","fractal_assignment":["../images/pnk_blu.png","../images/cyn_red.png","../images/org_blu.png","../images/blu_wht.png","../images/gry_blk.png","../images/ylw_slt.png"],"mutagen_generator_assignment":[0,1],"goal":0,"start":3,"action_noise":0.15,"location_history":"[3,2,1,5,4,2,1,5,4,2,3,4,0]","action_history":"[0,0,1,1,1,0,1,0,1,1,1,0]","mutagen_history":"[0,0,1,1,1,0,1,0,1,1,1,0]","location_rts":"[1139,631,612,745,732,395,682,1368,707,699,866,445]","trial_type":"fractal-mutation","trial_index":65,"time_elapsed":2086041,"internal_node_id":"0.0-5.0-11.0"},{"group":"hexagon_tri","fractal_assignment":["../images/pnk_blu.png","../images/cyn_red.png","../images/org_blu.png","../images/blu_wht.png","../images/gry_blk.png","../images/ylw_slt.png"],"mutagen_generator_assignment":[0,1],"goal":2,"start":0,"action_noise":0.15,"location_history":"[0,1,3,2]","action_history":"[0,0,0]","mutagen_history":"[0,0,0]","location_rts":"[1061,949,786]","trial_type":"fractal-mutation","trial_index":66,"time_elapsed":2095546,"internal_node_id":"0.0-5.0-12.0"},{"group":"hexagon_tri","fractal_assignment":["../images/pnk_blu.png","../images/cyn_red.png","../images/org_blu.png","../images/blu_wht.png","../images/gry_blk.png","../images/ylw_slt.png"],"mutagen_generator_assignment":[0,1],"goal":5,"start":2,"action_noise":0.15,"location_history":"[2,3,2,1,5]","action_history":"[1,0,1,1]","mutagen_history":"[1,0,1,1]","location_rts":"[1012,639,864,654]","trial_type":"fractal-mutation","trial_index":67,"time_elapsed":2106610,"internal_node_id":"0.0-5.0-13.0"},{"group":"hexagon_tri","fractal_assignment":["../images/pnk_blu.png","../images/cyn_red.png","../images/org_blu.png","../images/blu_wht.png","../images/gry_blk.png","../images/ylw_slt.png"],"mutagen_generator_assignment":[0,1],"goal":4,"start":5,"action_noise":0.15,"location_history":"[5,4]","action_history":"[0]","mutagen_history":"[0]","location_rts":"[3080]","trial_type":"fractal-mutation","trial_index":68,"time_elapsed":2114279,"internal_node_id":"0.0-5.0-14.0"},{"group":"hexagon_tri","fractal_assignment":["../images/pnk_blu.png","../images/cyn_red.png","../images/org_blu.png","../images/blu_wht.png","../images/gry_blk.png","../images/ylw_slt.png"],"mutagen_generator_assignment":[0,1],"goal":3,"start":4,"action_noise":0.15,"location_history":"[4,2,3]","action_history":"[1,1]","mutagen_history":"[1,1]","location_rts":"[7078,681]","trial_type":"fractal-mutation","trial_index":69,"time_elapsed":2127757,"internal_node_id":"0.0-5.0-15.0"},{"group":"hexagon_tri","fractal_assignment":["../images/pnk_blu.png","../images/cyn_red.png","../images/org_blu.png","../images/blu_wht.png","../images/gry_blk.png","../images/ylw_slt.png"],"mutagen_generator_assignment":[0,1],"goal":1,"start":3,"action_noise":0.15,"location_history":"[3,2,1]","action_history":"[0,0]","mutagen_history":"[0,0]","location_rts":"[2473,9496]","trial_type":"fractal-mutation","trial_index":70,"time_elapsed":2145392,"internal_node_id":"0.0-5.0-16.0"},{"group":"hexagon_tri","fractal_assignment":["../images/pnk_blu.png","../images/cyn_red.png","../images/org_blu.png","../images/blu_wht.png","../images/gry_blk.png","../images/ylw_slt.png"],"mutagen_generator_assignment":[0,1],"goal":5,"start":1,"action_noise":0.15,"location_history":"[1,5]","action_history":"[1]","mutagen_history":"[1]","location_rts":"[409]","trial_type":"fractal-mutation","trial_index":71,"time_elapsed":2150425,"internal_node_id":"0.0-5.0-17.0"},{"group":"hexagon_tri","fractal_assignment":["../images/pnk_blu.png","../images/cyn_red.png","../images/org_blu.png","../images/blu_wht.png","../images/gry_blk.png","../images/ylw_slt.png"],"mutagen_generator_assignment":[0,1],"goal":4,"start":5,"action_noise":0.15,"location_history":"[5,4]","action_history":"[0]","mutagen_history":"[0]","location_rts":"[581]","trial_type":"fractal-mutation","trial_index":72,"time_elapsed":2155578,"internal_node_id":"0.0-5.0-18.0"},{"group":"hexagon_tri","fractal_assignment":["../images/pnk_blu.png","../images/cyn_red.png","../images/org_blu.png","../images/blu_wht.png","../images/gry_blk.png","../images/ylw_slt.png"],"mutagen_generator_assignment":[0,1],"goal":0,"start":4,"action_noise":0.15,"location_history":"[4,2,1,3,2,1,3,2,1,3,2,3,4,0]","action_history":"[1,0,0,1,1,0,0,0,0,0,1,1,0]","mutagen_history":"[1,0,0,1,1,0,0,0,0,0,1,1,0]","location_rts":"[736,623,820,551,392,300,463,351,966,841,358,533,272]","trial_type":"fractal-mutation","trial_index":73,"time_elapsed":2180389,"internal_node_id":"0.0-5.0-19.0"},{"group":"hexagon_tri","fractal_assignment":["../images/pnk_blu.png","../images/cyn_red.png","../images/org_blu.png","../images/blu_wht.png","../images/gry_blk.png","../images/ylw_slt.png"],"mutagen_generator_assignment":[0,1],"goal":1,"start":0,"action_noise":0.15,"location_history":"[0,1]","action_history":"[0]","mutagen_history":"[0]","location_rts":"[5763]","trial_type":"fractal-mutation","trial_index":74,"time_elapsed":2190725,"internal_node_id":"0.0-5.0-20.0"},{"group":"hexagon_tri","fractal_assignment":["../images/pnk_blu.png","../images/cyn_red.png","../images/org_blu.png","../images/blu_wht.png","../images/gry_blk.png","../images/ylw_slt.png"],"mutagen_generator_assignment":[0,1],"goal":3,"start":1,"action_noise":0.15,"location_history":"[1,5,4,2,3]","action_history":"[0,0,1,1]","mutagen_history":"[0,0,1,1]","location_rts":"[3437,545,407,586]","trial_type":"fractal-mutation","trial_index":75,"time_elapsed":2203528,"internal_node_id":"0.0-5.0-21.0"},{"group":"hexagon_tri","fractal_assignment":["../images/pnk_blu.png","../images/cyn_red.png","../images/org_blu.png","../images/blu_wht.png","../images/gry_blk.png","../images/ylw_slt.png"],"mutagen_generator_assignment":[0,1],"goal":2,"start":3,"action_noise":0.15,"location_history":"[3,2]","action_history":"[0]","mutagen_history":"[0]","location_rts":"[510]","trial_type":"fractal-mutation","trial_index":76,"time_elapsed":2208619,"internal_node_id":"0.0-5.0-22.0"},{"group":"hexagon_tri","fractal_assignment":["../images/pnk_blu.png","../images/cyn_red.png","../images/org_blu.png","../images/blu_wht.png","../images/gry_blk.png","../images/ylw_slt.png"],"mutagen_generator_assignment":[0,1],"goal":0,"start":2,"action_noise":0.15,"location_history":"[2,3,4,0]","action_history":"[1,1,0]","mutagen_history":"[1,1,0]","location_rts":"[789,769,282]","trial_type":"fractal-mutation","trial_index":77,"time_elapsed":2217237,"internal_node_id":"0.0-5.0-23.0"},{"group":"hexagon_tri","fractal_assignment":["../images/pnk_blu.png","../images/cyn_red.png","../images/org_blu.png","../images/blu_wht.png","../images/gry_blk.png","../images/ylw_slt.png"],"mutagen_generator_assignment":[0,1],"goal":3,"start":0,"action_noise":0.15,"location_history":"[0,1,3]","action_history":"[1,0]","mutagen_history":"[1,0]","location_rts":"[912,535]","trial_type":"fractal-mutation","trial_index":78,"time_elapsed":2224363,"internal_node_id":"0.0-5.0-24.0"},{"group":"hexagon_tri","fractal_assignment":["../images/pnk_blu.png","../images/cyn_red.png","../images/org_blu.png","../images/blu_wht.png","../images/gry_blk.png","../images/ylw_slt.png"],"mutagen_generator_assignment":[0,1],"goal":1,"start":3,"action_noise":0.15,"location_history":"[3,4,2,1]","action_history":"[1,1,0]","mutagen_history":"[1,1,0]","location_rts":"[1083,521,686]","trial_type":"fractal-mutation","trial_index":79,"time_elapsed":2233414,"internal_node_id":"0.0-5.0-25.0"},{"group":"hexagon_tri","fractal_assignment":["../images/pnk_blu.png","../images/cyn_red.png","../images/org_blu.png","../images/blu_wht.png","../images/gry_blk.png","../images/ylw_slt.png"],"mutagen_generator_assignment":[0,1],"goal":2,"start":1,"action_noise":0.15,"location_history":"[1,5,0,1,5,0,5,4,2]","action_history":"[0,1,1,1,1,0,0,1]","mutagen_history":"[0,1,1,1,1,0,0,1]","location_rts":"[1089,676,557,888,841,633,733,279]","trial_type":"fractal-mutation","trial_index":80,"time_elapsed":2251276,"internal_node_id":"0.0-5.0-26.0"},{"group":"hexagon_tri","fractal_assignment":["../images/pnk_blu.png","../images/cyn_red.png","../images/org_blu.png","../images/blu_wht.png","../images/gry_blk.png","../images/ylw_slt.png"],"mutagen_generator_assignment":[0,1],"goal":5,"start":2,"action_noise":0.15,"location_history":"[2,3,2,1,3,2,3,2,1,3,4,2,3,2,3,4,2,3,2,1,3,4,2,1,5]","action_history":"[1,0,0,0,1,0,0,0,0,1,1,1,0,1,1,1,1,0,0,0,1,0,1,1]","mutagen_history":"[1,0,0,0,1,0,0,0,0,1,1,1,0,1,1,1,1,0,0,0,1,0,1,1]","location_rts":"[911,503,370,612,458,399,583,379,635,472,333,593,466,753,484,321,532,351,303,312,426,473,302,635]","trial_type":"fractal-mutation","trial_index":81,"time_elapsed":2292360,"internal_node_id":"0.0-5.0-27.0"},{"group":"hexagon_tri","fractal_assignment":["../images/pnk_blu.png","../images/cyn_red.png","../images/org_blu.png","../images/blu_wht.png","../images/gry_blk.png","../images/ylw_slt.png"],"mutagen_generator_assignment":[0,1],"goal":4,"start":5,"action_noise":0.15,"location_history":"[5,0,1,3,4]","action_history":"[1,1,0,0]","mutagen_history":"[1,1,0,0]","location_rts":"[1189,872,649,659]","trial_type":"fractal-mutation","trial_index":82,"time_elapsed":2303568,"internal_node_id":"0.0-5.0-28.0"},{"group":"hexagon_tri","fractal_assignment":["../images/pnk_blu.png","../images/cyn_red.png","../images/org_blu.png","../images/blu_wht.png","../images/gry_blk.png","../images/ylw_slt.png"],"mutagen_generator_assignment":[0,1],"goal":5,"start":4,"action_noise":0.15,"location_history":"[4,2,1,5]","action_history":"[0,0,1]","mutagen_history":"[0,0,1]","location_rts":"[489,553,372]","trial_type":"fractal-mutation","trial_index":83,"time_elapsed":2311727,"internal_node_id":"0.0-5.0-29.0"},{"group":"hexagon_tri","fractal_assignment":["../images/pnk_blu.png","../images/cyn_red.png","../images/org_blu.png","../images/blu_wht.png","../images/gry_blk.png","../images/ylw_slt.png"],"mutagen_generator_assignment":[0,1],"goal":3,"start":5,"action_noise":0.15,"location_history":"[5,4,2,3]","action_history":"[0,1,1]","mutagen_history":"[0,1,1]","location_rts":"[350,883,618]","trial_type":"fractal-mutation","trial_index":84,"time_elapsed":2320323,"internal_node_id":"0.0-5.0-30.0"},{"group":"hexagon_tri","fractal_assignment":["../images/pnk_blu.png","../images/cyn_red.png","../images/org_blu.png","../images/blu_wht.png","../images/gry_blk.png","../images/ylw_slt.png"],"mutagen_generator_assignment":[0,1],"goal":0,"start":3,"action_noise":0.15,"location_history":"[3,4,0]","action_history":"[1,0]","mutagen_history":"[1,0]","location_rts":"[523,479]","trial_type":"fractal-mutation","trial_index":85,"time_elapsed":2326984,"internal_node_id":"0.0-5.0-31.0"},{"group":"hexagon_tri","fractal_assignment":["../images/pnk_blu.png","../images/cyn_red.png","../images/org_blu.png","../images/blu_wht.png","../images/gry_blk.png","../images/ylw_slt.png"],"mutagen_generator_assignment":[0,1],"goal":4,"start":0,"action_noise":0.15,"location_history":"[0,1,3,4]","action_history":"[1,0,1]","mutagen_history":"[1,0,1]","location_rts":"[301,376,403]","trial_type":"fractal-mutation","trial_index":86,"time_elapsed":2334821,"internal_node_id":"0.0-5.0-32.0"},{"group":"hexagon_tri","fractal_assignment":["../images/pnk_blu.png","../images/cyn_red.png","../images/org_blu.png","../images/blu_wht.png","../images/gry_blk.png","../images/ylw_slt.png"],"mutagen_generator_assignment":[0,1],"goal":1,"start":4,"action_noise":0.15,"location_history":"[4,0,1]","action_history":"[0,1]","mutagen_history":"[0,1]","location_rts":"[451,276]","trial_type":"fractal-mutation","trial_index":87,"time_elapsed":2341203,"internal_node_id":"0.0-5.0-33.0"},{"group":"hexagon_tri","fractal_assignment":["../images/pnk_blu.png","../images/cyn_red.png","../images/org_blu.png","../images/blu_wht.png","../images/gry_blk.png","../images/ylw_slt.png"],"mutagen_generator_assignment":[0,1],"goal":2,"start":1,"action_noise":0.15,"location_history":"[1,5,4,0,5,4,0,5,0,1,5,0,5,0,1,5,4,0,1,5,4,0,1,5,0,1,3,4,0,1,5,4,2]","action_history":"[1,0,0,0,0,0,1,1,1,1,1,0,0,1,1,0,0,1,1,0,0,1,1,1,1,0,1,0,1,1,0,1]","mutagen_history":"[1,0,0,0,0,0,1,1,1,1,1,0,0,1,1,0,0,1,1,0,0,1,1,1,1,0,1,0,1,1,0,1]","location_rts":"[411,642,536,526,631,443,442,544,311,394,555,309,424,323,610,643,904,559,314,269,3607,460,422,597,557,325,1238,1513,816,319,511,312]","trial_type":"fractal-mutation","trial_index":88,"time_elapsed":2399846,"internal_node_id":"0.0-5.0-34.0"},{"group":"hexagon_tri","fractal_assignment":["../images/pnk_blu.png","../images/cyn_red.png","../images/org_blu.png","../images/blu_wht.png","../images/gry_blk.png","../images/ylw_slt.png"],"mutagen_generator_assignment":[0,1],"goal":0,"start":2,"action_noise":0.15,"location_history":"[2,3,2,1,3,4,0]","action_history":"[1,1,0,0,1,1]","mutagen_history":"[1,1,0,0,1,1]","location_rts":"[897,720,710,801,482,377]","trial_type":"fractal-mutation","trial_index":89,"time_elapsed":2413802,"internal_node_id":"0.0-5.0-35.0"},{"group":"hexagon_tri","fractal_assignment":["../images/pnk_blu.png","../images/cyn_red.png","../images/org_blu.png","../images/blu_wht.png","../images/gry_blk.png","../images/ylw_slt.png"],"mutagen_generator_assignment":[0,1],"goal":5,"start":0,"action_noise":0.15,"location_history":"[0,1,5]","action_history":"[1,1]","mutagen_history":"[1,1]","location_rts":"[829,458]","trial_type":"fractal-mutation","trial_index":90,"time_elapsed":2420755,"internal_node_id":"0.0-5.0-36.0"},{"group":"hexagon_tri","fractal_assignment":["../images/pnk_blu.png","../images/cyn_red.png","../images/org_blu.png","../images/blu_wht.png","../images/gry_blk.png","../images/ylw_slt.png"],"mutagen_generator_assignment":[0,1],"goal":2,"start":5,"action_noise":0.15,"location_history":"[5,0,5,4,2]","action_history":"[1,0,1,1]","mutagen_history":"[1,0,1,1]","location_rts":"[397,354,406,808]","trial_type":"fractal-mutation","trial_index":91,"time_elapsed":2430558,"internal_node_id":"0.0-5.0-37.0"},{"group":"hexagon_tri","fractal_assignment":["../images/pnk_blu.png","../images/cyn_red.png","../images/org_blu.png","../images/blu_wht.png","../images/gry_blk.png","../images/ylw_slt.png"],"mutagen_generator_assignment":[0,1],"goal":1,"start":2,"action_noise":0.15,"location_history":"[2,3,4,0,5,0,5,4,2,3,4,2,3,2,1]","action_history":"[1,1,0,0,0,0,0,0,1,1,1,1,0,0]","mutagen_history":"[1,1,0,0,0,0,0,0,1,1,1,1,0,0]","location_rts":"[392,429,360,583,391,433,505,578,453,712,591,636,493,286]","trial_type":"fractal-mutation","trial_index":92,"time_elapsed":2456061,"internal_node_id":"0.0-5.0-38.0"},{"group":"hexagon_tri","fractal_assignment":["../images/pnk_blu.png","../images/cyn_red.png","../images/org_blu.png","../images/blu_wht.png","../images/gry_blk.png","../images/ylw_slt.png"],"mutagen_generator_assignment":[0,1],"goal":4,"start":1,"action_noise":0.15,"location_history":"[1,3,4]","action_history":"[0,0]","mutagen_history":"[0,0]","location_rts":"[310,518]","trial_type":"fractal-mutation","trial_index":93,"time_elapsed":2462549,"internal_node_id":"0.0-5.0-39.0"},{"group":"hexagon_tri","fractal_assignment":["../images/pnk_blu.png","../images/cyn_red.png","../images/org_blu.png","../images/blu_wht.png","../images/gry_blk.png","../images/ylw_slt.png"],"mutagen_generator_assignment":[0,1],"goal":3,"start":4,"action_noise":0.15,"location_history":"[4,0,1,3]","action_history":"[1,1,0]","mutagen_history":"[1,1,0]","location_rts":"[532,478,524]","trial_type":"fractal-mutation","trial_index":94,"time_elapsed":2470824,"internal_node_id":"0.0-5.0-40.0"},{"group":"hexagon_tri","fractal_assignment":["../images/pnk_blu.png","../images/cyn_red.png","../images/org_blu.png","../images/blu_wht.png","../images/gry_blk.png","../images/ylw_slt.png"],"mutagen_generator_assignment":[0,1],"goal":5,"start":3,"action_noise":0.15,"location_history":"[3,4,2,1,5]","action_history":"[1,1,0,1]","mutagen_history":"[1,1,0,1]","location_rts":"[391,383,514,477]","trial_type":"fractal-mutation","trial_index":95,"time_elapsed":2480441,"internal_node_id":"0.0-5.0-41.0"},{"group":"hexagon_tri","fractal_assignment":["../images/pnk_blu.png","../images/cyn_red.png","../images/org_blu.png","../images/blu_wht.png","../images/gry_blk.png","../images/ylw_slt.png"],"mutagen_generator_assignment":[0,1],"goal":3,"start":5,"action_noise":0.15,"location_history":"[5,0,1,5,4,2,1,5,0,1,3]","action_history":"[0,1,1,0,0,0,1,1,1,1]","mutagen_history":"[0,1,1,0,0,0,1,1,1,1]","location_rts":"[371,461,674,424,329,483,293,721,468,359]","trial_type":"fractal-mutation","trial_index":96,"time_elapsed":2499436,"internal_node_id":"0.0-5.0-42.0"},{"group":"hexagon_tri","fractal_assignment":["../images/pnk_blu.png","../images/cyn_red.png","../images/org_blu.png","../images/blu_wht.png","../images/gry_blk.png","../images/ylw_slt.png"],"mutagen_generator_assignment":[0,1],"goal":0,"start":3,"action_noise":0.15,"location_history":"[3,2,1,3,4,0]","action_history":"[1,0,0,1,0]","mutagen_history":"[1,0,0,1,0]","location_rts":"[13068,480,198,31,352]","trial_type":"fractal-mutation","trial_index":97,"time_elapsed":2522486,"internal_node_id":"0.0-5.0-43.0"},{"group":"hexagon_tri","fractal_assignment":["../images/pnk_blu.png","../images/cyn_red.png","../images/org_blu.png","../images/blu_wht.png","../images/gry_blk.png","../images/ylw_slt.png"],"mutagen_generator_assignment":[0,1],"goal":2,"start":0,"action_noise":0.15,"location_history":"[0,1,5,0,5,0,1,3,4,2]","action_history":"[1,1,1,0,1,1,0,1,1]","mutagen_history":"[1,1,1,0,1,1,0,1,1]","location_rts":"[726,506,590,693,329,337,429,363,308]","trial_type":"fractal-mutation","trial_index":98,"time_elapsed":2540124,"internal_node_id":"0.0-5.0-44.0"},{"group":"hexagon_tri","fractal_assignment":["../images/pnk_blu.png","../images/cyn_red.png","../images/org_blu.png","../images/blu_wht.png","../images/gry_blk.png","../images/ylw_slt.png"],"mutagen_generator_assignment":[0,1],"goal":4,"start":2,"action_noise":0.15,"location_history":"[2,3,2,1,5,4]","action_history":"[1,0,0,1,0]","mutagen_history":"[1,0,0,1,0]","location_rts":"[553,713,466,615,593]","trial_type":"fractal-mutation","trial_index":99,"time_elapsed":2551967,"internal_node_id":"0.0-5.0-45.0"},{"group":"hexagon_tri","fractal_assignment":["../images/pnk_blu.png","../images/cyn_red.png","../images/org_blu.png","../images/blu_wht.png","../images/gry_blk.png","../images/ylw_slt.png"],"mutagen_generator_assignment":[0,1],"goal":1,"start":4,"action_noise":0.15,"location_history":"[4,0,5,4,2,1]","action_history":"[0,0,0,1,0]","mutagen_history":"[0,0,0,1,0]","location_rts":"[6926,622,371,277,604]","trial_type":"fractal-mutation","trial_index":100,"time_elapsed":2569651,"internal_node_id":"0.0-5.0-46.0"},{"group":"hexagon_tri","fractal_assignment":["../images/pnk_blu.png","../images/cyn_red.png","../images/org_blu.png","../images/blu_wht.png","../images/gry_blk.png","../images/ylw_slt.png"],"mutagen_generator_assignment":[0,1],"goal":4,"start":1,"action_noise":0.15,"location_history":"[1,3,4]","action_history":"[0,0]","mutagen_history":"[0,0]","location_rts":"[453,480]","trial_type":"fractal-mutation","trial_index":101,"time_elapsed":2576243,"internal_node_id":"0.0-5.0-47.0"},{"group":"hexagon_tri","fractal_assignment":["../images/pnk_blu.png","../images/cyn_red.png","../images/org_blu.png","../images/blu_wht.png","../images/gry_blk.png","../images/ylw_slt.png"],"mutagen_generator_assignment":[0,1],"goal":3,"start":4,"action_noise":0.15,"location_history":"[4,0,5,4,2,3]","action_history":"[0,1,0,1,0]","mutagen_history":"[0,1,0,1,0]","location_rts":"[400,260,417,348,360]","trial_type":"fractal-mutation","trial_index":102,"time_elapsed":2586963,"internal_node_id":"0.0-5.0-48.0"},{"group":"hexagon_tri","fractal_assignment":["../images/pnk_blu.png","../images/cyn_red.png","../images/org_blu.png","../images/blu_wht.png","../images/gry_blk.png","../images/ylw_slt.png"],"mutagen_generator_assignment":[0,1],"goal":5,"start":3,"action_noise":0.15,"location_history":"[3,2,1,3,2,3,4,2,3,4,2,1,3,4,2,3,4,2,3,4,2,3,2,1,3,2,1,3,4,2,3,4,2,3,4,0,1,3,4,2,3,2,1,3,2,1,5]","action_history":"[0,0,1,0,0,0,1,1,1,1,1,0,1,1,1,1,1,1,0,1,1,0,0,0,1,0,0,1,1,0,1,1,1,1,0,1,0,1,1,1,0,0,1,0,0,1]","mutagen_history":"[0,0,1,0,0,0,1,1,1,1,1,0,1,1,1,1,1,1,0,1,1,0,0,0,1,0,0,1,1,0,1,1,1,1,0,1,0,1,1,1,0,0,1,0,0,1]","location_rts":"[397,353,358,347,352,326,303,440,652,741,440,515,485,238,357,327,314,999,612,341,708,578,293,1070,478,277,451,337,333,372,508,324,600,695,322,356,949,587,471,457,327,353,333,627,37,396]","trial_type":"fractal-mutation","trial_index":103,"time_elapsed":2661380,"internal_node_id":"0.0-5.0-49.0"},{"view_history":"[{\"page_index\":0,\"viewing_time\":12758}]","rt":12758,"trial_type":"instructions","trial_index":104,"time_elapsed":2675139,"internal_node_id":"0.0-6.0"},{"rt":4577,"responses":"{\"Q0\":\"No\"}","trial_type":"survey-text","trial_index":105,"time_elapsed":2680722,"internal_node_id":"0.0-7.0"}]