[{"view_history":"[{\"page_index\":0,\"viewing_time\":57747},{\"page_index\":1,\"viewing_time\":15956},{\"page_index\":2,\"viewing_time\":34638},{\"page_index\":3,\"viewing_time\":7744}]","rt":116086,"trial_type":"instructions","trial_index":0,"time_elapsed":116088,"internal_node_id":"0.0-0.0"},{"view_history":"[{\"page_index\":0,\"viewing_time\":38803},{\"page_index\":1,\"viewing_time\":26939}]","rt":65744,"trial_type":"instructions","trial_index":1,"time_elapsed":182834,"internal_node_id":"0.0-1.0"},{"group":"hexagon_tri","room_assignment":["green","grey","blue","red","purple","yellow"],"door_color_assignment":["black","white"],"door_generator_assignment":[0,1],"goal":4,"start":0,"action_noise":0.15,"location_history":"[0,1,3,2,3,4]","action_history":"[1,0,1,0,1]","door_history":"[1,0,1,0,1]","location_rts":"[9595,6742,5953,4120,2612]","trial_type":"two-door-navigation","trial_index":2,"time_elapsed":220520,"internal_node_id":"0.0-2.0-0.0"},{"group":"hexagon_tri","room_assignment":["green","grey","blue","red","purple","yellow"],"door_color_assignment":["black","white"],"door_generator_assignment":[0,1],"goal":3,"start":4,"action_noise":0.15,"location_history":"[4,2,1,5,4,2,3]","action_history":"[1,0,1,0,1,0]","door_history":"[1,0,1,0,1,0]","location_rts":"[7212,661,1599,1390,1054,1305]","trial_type":"two-door-navigation","trial_index":3,"time_elapsed":243412,"internal_node_id":"0.0-2.0-1.0"},{"group":"hexagon_tri","room_assignment":["green","grey","blue","red","purple","yellow"],"door_color_assignment":["black","white"],"door_generator_assignment":[0,1],"goal":5,"start":3,"action_noise":0.15,"location_history":"[3,2,3,2,1,5]","action_history":"[0,0,0,0,1]","door_history":"[0,0,0,0,1]","location_rts":"[2907,2168,2119,1296,1472]","trial_type":"two-door-navigation","trial_index":4,"time_elapsed":262019,"internal_node_id":"0.0-2.0-2.0"},{"group":"hexagon_tri","room_assignment":["green","grey","blue","red","purple","yellow"],"door_color_assignment":["black","white"],"door_generator_assignment":[0,1],"goal":2,"start":5,"action_noise":0.15,"location_history":"[5,0,5,0,5,0,5,0,1,5,0,1,5,0,5,4,0,5,4,0,1,5,0,1,5,4,2]","action_history":"[1,0,1,0,1,0,1,1,1,1,1,1,1,0,0,0,0,1,0,1,1,1,1,1,1,0]","door_history":"[1,0,1,0,1,0,1,1,1,1,1,1,1,0,0,0,0,1,0,1,1,1,1,1,1,0]","location_rts":"[2670,1267,1230,1261,997,1296,1194,1419,1130,953,966,804,490,922,446,930,717,850,1072,1650,655,776,673,743,943,754]","trial_type":"two-door-navigation","trial_index":5,"time_elapsed":319048,"internal_node_id":"0.0-2.0-3.0"},{"group":"hexagon_tri","room_assignment":["green","grey","blue","red","purple","yellow"],"door_color_assignment":["black","white"],"door_generator_assignment":[0,1],"goal":1,"start":2,"action_noise":0.15,"location_history":"[2,3,4,2,3,4,0,1]","action_history":"[1,1,1,1,1,0,0]","door_history":"[1,1,1,1,1,0,0]","location_rts":"[2325,1360,1184,913,824,635,609]","trial_type":"two-door-navigation","trial_index":6,"time_elapsed":337601,"internal_node_id":"0.0-2.0-4.0"},{"group":"hexagon_tri","room_assignment":["green","grey","blue","red","purple","yellow"],"door_color_assignment":["black","white"],"door_generator_assignment":[0,1],"goal":4,"start":1,"action_noise":0.15,"location_history":"[1,5,4]","action_history":"[1,0]","door_history":"[1,0]","location_rts":"[2116,787]","trial_type":"two-door-navigation","trial_index":7,"time_elapsed":346066,"internal_node_id":"0.0-2.0-5.0"},{"group":"hexagon_tri","room_assignment":["green","grey","blue","red","purple","yellow"],"door_color_assignment":["black","white"],"door_generator_assignment":[0,1],"goal":1,"start":4,"action_noise":0.15,"location_history":"[4,2,3,4,2,3,2,1]","action_history":"[0,1,1,1,1,0,0]","door_history":"[0,1,1,1,1,0,0]","location_rts":"[2513,1145,831,761,506,443,452]","trial_type":"two-door-navigation","trial_index":8,"time_elapsed":363423,"internal_node_id":"0.0-2.0-6.0"},{"group":"hexagon_tri","room_assignment":["green","grey","blue","red","purple","yellow"],"door_color_assignment":["black","white"],"door_generator_assignment":[0,1],"goal":5,"start":1,"action_noise":0.15,"location_history":"[1,5]","action_history":"[1]","door_history":"[1]","location_rts":"[779]","trial_type":"two-door-navigation","trial_index":9,"time_elapsed":368739,"internal_node_id":"0.0-2.0-7.0"},{"group":"hexagon_tri","room_assignment":["green","grey","blue","red","purple","yellow"],"door_color_assignment":["black","white"],"door_generator_assignment":[0,1],"goal":0,"start":5,"action_noise":0.15,"location_history":"[5,0]","action_history":"[0]","door_history":"[0]","location_rts":"[2523]","trial_type":"two-door-navigation","trial_index":10,"time_elapsed":375799,"internal_node_id":"0.0-2.0-8.0"},{"group":"hexagon_tri","room_assignment":["green","grey","blue","red","purple","yellow"],"door_color_assignment":["black","white"],"door_generator_assignment":[0,1],"goal":2,"start":0,"action_noise":0.15,"location_history":"[0,5,4,2]","action_history":"[0,0,0]","door_history":"[0,0,0]","location_rts":"[2045,1889,1182]","trial_type":"two-door-navigation","trial_index":11,"time_elapsed":387498,"internal_node_id":"0.0-2.0-9.0"},{"group":"hexagon_tri","room_assignment":["green","grey","blue","red","purple","yellow"],"door_color_assignment":["black","white"],"door_generator_assignment":[0,1],"goal":3,"start":2,"action_noise":0.15,"location_history":"[2,3]","action_history":"[1]","door_history":"[1]","location_rts":"[1216]","trial_type":"two-door-navigation","trial_index":12,"time_elapsed":393246,"internal_node_id":"0.0-2.0-10.0"},{"group":"hexagon_tri","room_assignment":["green","grey","blue","red","purple","yellow"],"door_color_assignment":["black","white"],"door_generator_assignment":[0,1],"goal":0,"start":3,"action_noise":0.15,"location_history":"[3,4,0]","action_history":"[0,0]","door_history":"[0,0]","location_rts":"[2148,1263]","trial_type":"two-door-navigation","trial_index":13,"time_elapsed":402217,"internal_node_id":"0.0-2.0-11.0"},{"group":"hexagon_tri","room_assignment":["green","grey","blue","red","purple","yellow"],"door_color_assignment":["black","white"],"door_generator_assignment":[0,1],"goal":2,"start":0,"action_noise":0.15,"location_history":"[0,5,0,5,4,0,5,0,1,5,0,1,5,0,5,4,0,5,4,2]","action_history":"[0,0,0,0,0,0,1,1,1,1,1,1,1,0,0,0,0,0,0]","door_history":"[0,0,0,0,0,0,1,1,1,1,1,1,1,0,0,0,0,0,0]","location_rts":"[1089,493,507,425,536,382,780,547,518,409,599,486,534,610,475,532,431,427,440]","trial_type":"two-door-navigation","trial_index":14,"time_elapsed":435462,"internal_node_id":"0.0-2.0-12.0"},{"group":"hexagon_tri","room_assignment":["green","grey","blue","red","purple","yellow"],"door_color_assignment":["black","white"],"door_generator_assignment":[0,1],"goal":5,"start":2,"action_noise":0.15,"location_history":"[2,3,4,2,3,4,0,5]","action_history":"[1,1,1,1,1,0,0]","door_history":"[1,1,1,1,1,0,0]","location_rts":"[10991,748,531,536,1189,420,453]","trial_type":"two-door-navigation","trial_index":15,"time_elapsed":461032,"internal_node_id":"0.0-2.0-13.0"},{"group":"hexagon_tri","room_assignment":["green","grey","blue","red","purple","yellow"],"door_color_assignment":["black","white"],"door_generator_assignment":[0,1],"goal":4,"start":5,"action_noise":0.15,"location_history":"[5,0,1,5,4]","action_history":"[1,1,1,1]","door_history":"[1,1,1,1]","location_rts":"[1100,967,842,1860]","trial_type":"two-door-navigation","trial_index":16,"time_elapsed":473415,"internal_node_id":"0.0-2.0-14.0"},{"group":"hexagon_tri","room_assignment":["green","grey","blue","red","purple","yellow"],"door_color_assignment":["black","white"],"door_generator_assignment":[0,1],"goal":3,"start":4,"action_noise":0.15,"location_history":"[4,0,1,5,0,5,4,0,5,4,0,5,4,0,1,5,0,1,5,0,1,3]","action_history":"[1,1,1,1,0,0,1,1,0,0,0,0,0,0,1,1,1,1,1,1,0]","door_history":"[1,1,1,1,0,0,1,1,0,0,0,0,0,0,1,1,1,1,1,1,0]","location_rts":"[2505,725,779,630,1351,499,1504,562,452,606,999,591,688,469,427,488,547,633,807,1110,781]","trial_type":"two-door-navigation","trial_index":17,"time_elapsed":515594,"internal_node_id":"0.0-2.0-15.0"},{"group":"hexagon_tri","room_assignment":["green","grey","blue","red","purple","yellow"],"door_color_assignment":["black","white"],"door_generator_assignment":[0,1],"goal":1,"start":3,"action_noise":0.15,"location_history":"[3,2,3,4,2,1]","action_history":"[1,1,1,1,1]","door_history":"[1,1,1,1,1]","location_rts":"[2359,844,740,468,545]","trial_type":"two-door-navigation","trial_index":18,"time_elapsed":529202,"internal_node_id":"0.0-2.0-16.0"},{"group":"hexagon_tri","room_assignment":["green","grey","blue","red","purple","yellow"],"door_color_assignment":["black","white"],"door_generator_assignment":[0,1],"goal":5,"start":1,"action_noise":0.15,"location_history":"[1,5]","action_history":"[1]","door_history":"[1]","location_rts":"[1945]","trial_type":"two-door-navigation","trial_index":19,"time_elapsed":535673,"internal_node_id":"0.0-2.0-17.0"},{"group":"hexagon_tri","room_assignment":["green","grey","blue","red","purple","yellow"],"door_color_assignment":["black","white"],"door_generator_assignment":[0,1],"goal":4,"start":5,"action_noise":0.15,"location_history":"[5,4]","action_history":"[0]","door_history":"[0]","location_rts":"[1643]","trial_type":"two-door-navigation","trial_index":20,"time_elapsed":541848,"internal_node_id":"0.0-2.0-18.0"},{"group":"hexagon_tri","room_assignment":["green","grey","blue","red","purple","yellow"],"door_color_assignment":["black","white"],"door_generator_assignment":[0,1],"goal":0,"start":4,"action_noise":0.15,"location_history":"[4,0]","action_history":"[0]","door_history":"[0]","location_rts":"[1507]","trial_type":"two-door-navigation","trial_index":21,"time_elapsed":547882,"internal_node_id":"0.0-2.0-19.0"},{"group":"hexagon_tri","room_assignment":["green","grey","blue","red","purple","yellow"],"door_color_assignment":["black","white"],"door_generator_assignment":[0,1],"goal":1,"start":0,"action_noise":0.15,"location_history":"[0,1]","action_history":"[1]","door_history":"[1]","location_rts":"[1623]","trial_type":"two-door-navigation","trial_index":22,"time_elapsed":554036,"internal_node_id":"0.0-2.0-20.0"},{"group":"hexagon_tri","room_assignment":["green","grey","blue","red","purple","yellow"],"door_color_assignment":["black","white"],"door_generator_assignment":[0,1],"goal":3,"start":1,"action_noise":0.15,"location_history":"[1,5,0,5,0,5,0,1,5,4,0,1,3]","action_history":"[0,1,1,0,0,1,1,1,0,0,0,0]","door_history":"[0,1,1,0,0,1,1,1,0,0,0,0]","location_rts":"[1950,1463,1373,544,1072,895,1438,608,381,597,525,402]","trial_type":"two-door-navigation","trial_index":23,"time_elapsed":581118,"internal_node_id":"0.0-2.0-21.0"},{"group":"hexagon_tri","room_assignment":["green","grey","blue","red","purple","yellow"],"door_color_assignment":["black","white"],"door_generator_assignment":[0,1],"goal":2,"start":3,"action_noise":0.15,"location_history":"[3,4,2]","action_history":"[1,1]","door_history":"[1,1]","location_rts":"[784,583]","trial_type":"two-door-navigation","trial_index":24,"time_elapsed":588047,"internal_node_id":"0.0-2.0-22.0"},{"group":"hexagon_tri","room_assignment":["green","grey","blue","red","purple","yellow"],"door_color_assignment":["black","white"],"door_generator_assignment":[0,1],"goal":0,"start":2,"action_noise":0.15,"location_history":"[2,3,2,1,5,4,2,3,4,2,3,2,1,5,4,2,1,5,0]","action_history":"[1,0,0,0,0,1,1,1,1,1,0,0,0,0,1,1,1,1]","door_history":"[1,0,0,0,0,1,1,1,1,1,0,0,0,0,1,1,1,1]","location_rts":"[1524,371,768,512,616,450,484,464,615,507,417,425,952,476,1138,497,359,487]","trial_type":"two-door-navigation","trial_index":25,"time_elapsed":621114,"internal_node_id":"0.0-2.0-23.0"},{"group":"hexagon_tri","room_assignment":["green","grey","blue","red","purple","yellow"],"door_color_assignment":["black","white"],"door_generator_assignment":[0,1],"goal":3,"start":0,"action_noise":0.15,"location_history":"[0,1,5,4,0,5,0,5,0,1,5,0,5,0,5,4,0,1,5,0,5,0,5,4,2,3]","action_history":"[1,0,1,0,0,0,0,1,1,0,1,1,1,0,0,0,0,1,1,0,0,0,0,1,1]","door_history":"[1,0,1,0,0,0,0,1,1,0,1,1,1,0,0,0,0,1,1,0,0,0,0,1,1]","location_rts":"[3559,395,617,524,363,445,542,355,492,821,800,541,589,406,434,714,476,1007,435,783,355,587,402,366,294]","trial_type":"two-door-navigation","trial_index":26,"time_elapsed":666624,"internal_node_id":"0.0-2.0-24.0"},{"group":"hexagon_tri","room_assignment":["green","grey","blue","red","purple","yellow"],"door_color_assignment":["black","white"],"door_generator_assignment":[0,1],"goal":1,"start":3,"action_noise":0.15,"location_history":"[3,4,0,1]","action_history":"[1,1,1]","door_history":"[1,1,1]","location_rts":"[1489,710,609]","trial_type":"two-door-navigation","trial_index":27,"time_elapsed":676022,"internal_node_id":"0.0-2.0-25.0"},{"group":"hexagon_tri","room_assignment":["green","grey","blue","red","purple","yellow"],"door_color_assignment":["black","white"],"door_generator_assignment":[0,1],"goal":2,"start":1,"action_noise":0.15,"location_history":"[1,5,0,1,3,2]","action_history":"[1,1,1,0,0]","door_history":"[1,1,1,0,0]","location_rts":"[1614,613,1226,2930,975]","trial_type":"two-door-navigation","trial_index":28,"time_elapsed":692016,"internal_node_id":"0.0-2.0-26.0"},{"group":"hexagon_tri","room_assignment":["green","grey","blue","red","purple","yellow"],"door_color_assignment":["black","white"],"door_generator_assignment":[0,1],"goal":5,"start":2,"action_noise":0.15,"location_history":"[2,1,5]","action_history":"[1,1]","door_history":"[1,1]","location_rts":"[1342,725]","trial_type":"two-door-navigation","trial_index":29,"time_elapsed":699646,"internal_node_id":"0.0-2.0-27.0"},{"group":"hexagon_tri","room_assignment":["green","grey","blue","red","purple","yellow"],"door_color_assignment":["black","white"],"door_generator_assignment":[0,1],"goal":4,"start":5,"action_noise":0.15,"location_history":"[5,4]","action_history":"[0]","door_history":"[0]","location_rts":"[2351]","trial_type":"two-door-navigation","trial_index":30,"time_elapsed":706533,"internal_node_id":"0.0-2.0-28.0"},{"group":"hexagon_tri","room_assignment":["green","grey","blue","red","purple","yellow"],"door_color_assignment":["black","white"],"door_generator_assignment":[0,1],"goal":5,"start":4,"action_noise":0.15,"location_history":"[4,0,5]","action_history":"[0,0]","door_history":"[0,0]","location_rts":"[3302,1504]","trial_type":"two-door-navigation","trial_index":31,"time_elapsed":716895,"internal_node_id":"0.0-2.0-29.0"},{"group":"hexagon_tri","room_assignment":["green","grey","blue","red","purple","yellow"],"door_color_assignment":["black","white"],"door_generator_assignment":[0,1],"goal":3,"start":5,"action_noise":0.15,"location_history":"[5,0,5,0,5,0,1,5,0,1,5,4,0,5,0,5,4,2,1,5,4,2,3]","action_history":"[1,0,1,0,1,1,1,1,1,0,0,0,0,1,0,0,1,0,1,0,1,0]","door_history":"[1,0,1,0,1,1,1,1,1,0,0,0,0,1,0,0,1,0,1,0,1,0]","location_rts":"[2685,1397,7815,506,425,459,575,508,506,667,408,464,448,803,545,655,6746,376,380,364,512,622]","trial_type":"two-door-navigation","trial_index":32,"time_elapsed":770857,"internal_node_id":"0.0-2.0-30.0"},{"group":"hexagon_tri","room_assignment":["green","grey","blue","red","purple","yellow"],"door_color_assignment":["black","white"],"door_generator_assignment":[0,1],"goal":0,"start":3,"action_noise":0.15,"location_history":"[3,4,2,3,4,2,1,3,2,1,3,2,3,4,2,3,4,2,3,4,0]","action_history":"[1,1,1,1,0,0,0,0,0,0,0,1,1,1,1,1,1,1,1,0]","door_history":"[1,1,1,1,0,0,0,0,0,0,0,1,1,1,1,1,1,1,1,0]","location_rts":"[996,1693,423,523,383,508,521,733,426,433,424,535,100,171,195,346,237,495,430,3683]","trial_type":"two-door-navigation","trial_index":33,"time_elapsed":808161,"internal_node_id":"0.0-2.0-31.0"},{"group":"hexagon_tri","room_assignment":["green","grey","blue","red","purple","yellow"],"door_color_assignment":["black","white"],"door_generator_assignment":[0,1],"goal":4,"start":0,"action_noise":0.15,"location_history":"[0,1,3,4]","action_history":"[1,1,1]","door_history":"[1,1,1]","location_rts":"[11375,1406,620]","trial_type":"two-door-navigation","trial_index":34,"time_elapsed":828151,"internal_node_id":"0.0-2.0-32.0"},{"group":"hexagon_tri","room_assignment":["green","grey","blue","red","purple","yellow"],"door_color_assignment":["black","white"],"door_generator_assignment":[0,1],"goal":1,"start":4,"action_noise":0.15,"location_history":"[4,0,1]","action_history":"[0,0]","door_history":"[0,0]","location_rts":"[2414,4644]","trial_type":"two-door-navigation","trial_index":35,"time_elapsed":840767,"internal_node_id":"0.0-2.0-33.0"},{"group":"hexagon_tri","room_assignment":["green","grey","blue","red","purple","yellow"],"door_color_assignment":["black","white"],"door_generator_assignment":[0,1],"goal":2,"start":1,"action_noise":0.15,"location_history":"[1,3,4,2]","action_history":"[1,1,1]","door_history":"[1,1,1]","location_rts":"[468,447,612]","trial_type":"two-door-navigation","trial_index":36,"time_elapsed":848873,"internal_node_id":"0.0-2.0-34.0"},{"group":"hexagon_tri","room_assignment":["green","grey","blue","red","purple","yellow"],"door_color_assignment":["black","white"],"door_generator_assignment":[0,1],"goal":0,"start":2,"action_noise":0.15,"location_history":"[2,3,4,2,3,2,1,3,2,3,4,2,1,3,4,2,1,3,4,0]","action_history":"[1,1,1,1,0,0,0,0,1,1,1,0,0,0,0,0,0,1,1]","door_history":"[1,1,1,1,0,0,0,0,1,1,1,0,0,0,0,0,0,1,1]","location_rts":"[941,446,419,878,451,459,456,487,464,445,460,462,744,595,691,696,1141,378,439]","trial_type":"two-door-navigation","trial_index":37,"time_elapsed":882932,"internal_node_id":"0.0-2.0-35.0"},{"group":"hexagon_tri","room_assignment":["green","grey","blue","red","purple","yellow"],"door_color_assignment":["black","white"],"door_generator_assignment":[0,1],"goal":5,"start":0,"action_noise":0.15,"location_history":"[0,1,5]","action_history":"[1,1]","door_history":"[1,1]","location_rts":"[3249,1477]","trial_type":"two-door-navigation","trial_index":38,"time_elapsed":893223,"internal_node_id":"0.0-2.0-36.0"},{"group":"hexagon_tri","room_assignment":["green","grey","blue","red","purple","yellow"],"door_color_assignment":["black","white"],"door_generator_assignment":[0,1],"goal":2,"start":5,"action_noise":0.15,"location_history":"[5,4,0,5,4,0,5,0,5,0,1,5,4,0,5,4,0,1,5,0,5,4,0,5,4,2]","action_history":"[0,0,0,0,0,1,1,1,1,1,1,0,0,0,0,0,1,1,1,1,0,0,0,0,0]","door_history":"[0,0,0,0,0,1,1,1,1,1,1,0,0,0,0,0,1,1,1,1,0,0,0,0,0]","location_rts":"[2908,1292,3159,1118,896,1471,912,648,605,671,1435,9707,532,435,527,485,411,446,391,523,375,288,421,423,565]","trial_type":"two-door-navigation","trial_index":39,"time_elapsed":953063,"internal_node_id":"0.0-2.0-37.0"},{"group":"hexagon_tri","room_assignment":["green","grey","blue","red","purple","yellow"],"door_color_assignment":["black","white"],"door_generator_assignment":[0,1],"goal":1,"start":2,"action_noise":0.15,"location_history":"[2,3,4,2,3,4,0,5,0,1]","action_history":"[1,1,1,1,0,0,0,1,1]","door_history":"[1,1,1,1,0,0,0,1,1]","location_rts":"[992,1514,1129,846,802,665,819,6980,1064]","trial_type":"two-door-navigation","trial_index":40,"time_elapsed":980631,"internal_node_id":"0.0-2.0-38.0"},{"group":"hexagon_tri","room_assignment":["green","grey","blue","red","purple","yellow"],"door_color_assignment":["black","white"],"door_generator_assignment":[0,1],"goal":4,"start":1,"action_noise":0.15,"location_history":"[1,3,4]","action_history":"[0,1]","door_history":"[0,1]","location_rts":"[1880,1151]","trial_type":"two-door-navigation","trial_index":41,"time_elapsed":989223,"internal_node_id":"0.0-2.0-39.0"},{"group":"hexagon_tri","room_assignment":["green","grey","blue","red","purple","yellow"],"door_color_assignment":["black","white"],"door_generator_assignment":[0,1],"goal":3,"start":4,"action_noise":0.15,"location_history":"[4,0,5,0,5,4,2,1,5,0,5,4,0,5,0,1,5,0,5,4,2,3]","action_history":"[0,0,1,1,0,1,1,1,1,0,0,0,0,0,1,1,1,0,0,1,1]","door_history":"[0,0,1,1,0,1,1,1,1,0,0,0,0,0,1,1,1,0,0,1,1]","location_rts":"[1453,1772,471,440,744,954,10680,562,708,457,419,484,519,473,369,402,402,8636,475,324,275]","trial_type":"two-door-navigation","trial_index":42,"time_elapsed":1045320,"internal_node_id":"0.0-2.0-40.0"},{"group":"hexagon_tri","room_assignment":["green","grey","blue","red","purple","yellow"],"door_color_assignment":["black","white"],"door_generator_assignment":[0,1],"goal":5,"start":3,"action_noise":0.15,"location_history":"[3,4,0,1,3,2,1,3,4,2,3,2,1,5]","action_history":"[1,1,1,0,0,0,0,1,1,1,0,0,1]","door_history":"[1,1,1,0,0,0,0,1,1,1,0,0,1]","location_rts":"[1644,2002,582,408,441,410,392,785,432,463,8579,422,341]","trial_type":"two-door-navigation","trial_index":43,"time_elapsed":1079085,"internal_node_id":"0.0-2.0-41.0"},{"group":"hexagon_tri","room_assignment":["green","grey","blue","red","purple","yellow"],"door_color_assignment":["black","white"],"door_generator_assignment":[0,1],"goal":3,"start":5,"action_noise":0.15,"location_history":"[5,4,2,1,5,4,2,3]","action_history":"[1,1,0,0,1,0,1]","door_history":"[1,1,0,0,1,0,1]","location_rts":"[1253,592,2846,435,874,773,519]","trial_type":"two-door-navigation","trial_index":44,"time_elapsed":1097075,"internal_node_id":"0.0-2.0-42.0"},{"group":"hexagon_tri","room_assignment":["green","grey","blue","red","purple","yellow"],"door_color_assignment":["black","white"],"door_generator_assignment":[0,1],"goal":0,"start":3,"action_noise":0.15,"location_history":"[3,4,0]","action_history":"[1,0]","door_history":"[1,0]","location_rts":"[715,1289]","trial_type":"two-door-navigation","trial_index":45,"time_elapsed":1104634,"internal_node_id":"0.0-2.0-43.0"},{"group":"hexagon_tri","room_assignment":["green","grey","blue","red","purple","yellow"],"door_color_assignment":["black","white"],"door_generator_assignment":[0,1],"goal":2,"start":0,"action_noise":0.15,"location_history":"[0,5,0,5,0,1,3,4,0,1,5,0,1,5,4,2]","action_history":"[0,1,0,1,1,0,1,0,1,0,1,1,1,1,0]","door_history":"[0,1,0,1,1,0,1,0,1,0,1,1,1,1,0]","location_rts":"[1438,807,2356,1956,11812,935,998,1024,879,775,1060,900,608,608,582]","trial_type":"two-door-navigation","trial_index":46,"time_elapsed":1150293,"internal_node_id":"0.0-2.0-44.0"},{"group":"hexagon_tri","room_assignment":["green","grey","blue","red","purple","yellow"],"door_color_assignment":["black","white"],"door_generator_assignment":[0,1],"goal":4,"start":2,"action_noise":0.15,"location_history":"[2,3,2,3,4]","action_history":"[1,1,1,1]","door_history":"[1,1,1,1]","location_rts":"[1073,4167,607,566]","trial_type":"two-door-navigation","trial_index":47,"time_elapsed":1164329,"internal_node_id":"0.0-2.0-45.0"},{"group":"hexagon_tri","room_assignment":["green","grey","blue","red","purple","yellow"],"door_color_assignment":["black","white"],"door_generator_assignment":[0,1],"goal":1,"start":4,"action_noise":0.15,"location_history":"[4,2,3,4,0,5,4,2,3,4,2,3,2,3,2,1]","action_history":"[1,1,1,0,0,0,1,1,1,1,1,0,0,0,0]","door_history":"[1,1,1,0,0,0,1,1,1,1,1,0,0,0,0]","location_rts":"[1703,539,811,660,7245,784,383,407,423,423,387,293,340,353,423]","trial_type":"two-door-navigation","trial_index":48,"time_elapsed":1198424,"internal_node_id":"0.0-2.0-46.0"},{"group":"hexagon_tri","room_assignment":["green","grey","blue","red","purple","yellow"],"door_color_assignment":["black","white"],"door_generator_assignment":[0,1],"goal":4,"start":1,"action_noise":0.15,"location_history":"[1,5,0,5,4]","action_history":"[1,0,0,0]","door_history":"[1,0,0,0]","location_rts":"[685,1170,755,1438]","trial_type":"two-door-navigation","trial_index":49,"time_elapsed":1210087,"internal_node_id":"0.0-2.0-47.0"},{"group":"hexagon_tri","room_assignment":["green","grey","blue","red","purple","yellow"],"door_color_assignment":["black","white"],"door_generator_assignment":[0,1],"goal":3,"start":4,"action_noise":0.15,"location_history":"[4,2,3]","action_history":"[1,1]","door_history":"[1,1]","location_rts":"[487,807]","trial_type":"two-door-navigation","trial_index":50,"time_elapsed":1216941,"internal_node_id":"0.0-2.0-48.0"},{"group":"hexagon_tri","room_assignment":["green","grey","blue","red","purple","yellow"],"door_color_assignment":["black","white"],"door_generator_assignment":[0,1],"goal":5,"start":3,"action_noise":0.15,"location_history":"[3,2,3,4,0,1,3,2,3,4,2,1,5]","action_history":"[1,1,1,0,0,0,0,1,1,1,1,1]","door_history":"[1,1,1,0,0,0,0,1,1,1,1,1]","location_rts":"[7137,554,467,372,491,616,749,373,390,404,553,6251]","trial_type":"two-door-navigation","trial_index":51,"time_elapsed":1251117,"internal_node_id":"0.0-2.0-49.0"},{"view_history":"[{\"page_index\":0,\"viewing_time\":8046}]","rt":8046,"trial_type":"instructions","trial_index":52,"time_elapsed":1260163,"internal_node_id":"0.0-3.0"},{"view_history":"[{\"page_index\":0,\"viewing_time\":24339},{\"page_index\":1,\"viewing_time\":62788}]","rt":87127,"trial_type":"instructions","trial_index":53,"time_elapsed":1348291,"internal_node_id":"0.0-4.0"},{"group":"hexagon_bi","fractal_assignment":["../images/ylw_slt.png","../images/org_blu.png","../images/cyn_red.png","../images/pnk_blu.png","../images/blu_wht.png","../images/gry_blk.png"],"mutagen_generator_assignment":[0,1],"goal":4,"start":0,"action_noise":0.15,"location_history":"[0,1,2,3,2,3,2,3,2,3,4]","action_history":"[1,0,1,1,1,1,1,1,0,0]","mutagen_history":"[1,0,1,1,1,1,1,1,0,0]","location_rts":"[8858,13731,14537,1082,2250,1038,2326,729,2357,702]","trial_type":"fractal-mutation","trial_index":54,"time_elapsed":1409922,"internal_node_id":"0.0-5.0-0.0"},{"group":"hexagon_bi","fractal_assignment":["../images/ylw_slt.png","../images/org_blu.png","../images/cyn_red.png","../images/pnk_blu.png","../images/blu_wht.png","../images/gry_blk.png"],"mutagen_generator_assignment":[0,1],"goal":3,"start":4,"action_noise":0.15,"location_history":"[4,5,4,5,0,1,0,1,2,1,2,1,2,1,2,3]","action_history":"[1,1,1,1,1,1,1,0,0,0,0,0,0,0,1]","mutagen_history":"[1,1,1,1,1,1,1,0,0,0,0,0,0,0,1]","location_rts":"[5951,1569,1260,1264,1342,1971,1556,1862,1089,637,776,563,520,487,1693]","trial_type":"fractal-mutation","trial_index":55,"time_elapsed":1451628,"internal_node_id":"0.0-5.0-1.0"},{"group":"hexagon_bi","fractal_assignment":["../images/ylw_slt.png","../images/org_blu.png","../images/cyn_red.png","../images/pnk_blu.png","../images/blu_wht.png","../images/gry_blk.png"],"mutagen_generator_assignment":[0,1],"goal":5,"start":3,"action_noise":0.15,"location_history":"[3,4,3,4,3,4,5]","action_history":"[0,0,0,0,0,1]","mutagen_history":"[0,0,0,0,0,1]","location_rts":"[4610,977,658,981,1337,1759]","trial_type":"fractal-mutation","trial_index":56,"time_elapsed":1471684,"internal_node_id":"0.0-5.0-2.0"},{"group":"hexagon_bi","fractal_assignment":["../images/ylw_slt.png","../images/org_blu.png","../images/cyn_red.png","../images/pnk_blu.png","../images/blu_wht.png","../images/gry_blk.png"],"mutagen_generator_assignment":[0,1],"goal":2,"start":5,"action_noise":0.15,"location_history":"[5,4,5,4,3,4,5,4,5,4,5,4,5,4,5,0,5,0,5,0,5,4,5,4,5,0,5,0,5,4,5,4,3,2]","action_history":"[1,1,1,1,1,1,1,1,1,1,1,1,1,1,0,0,0,0,0,0,1,1,1,1,0,0,0,0,1,0,1,0,1]","mutagen_history":"[1,1,1,1,1,1,1,1,1,1,1,1,1,1,0,0,0,0,0,0,1,1,1,1,0,0,0,0,1,0,1,0,1]","location_rts":"[2647,9146,2278,2946,3010,1516,1894,1326,9514,1436,904,571,1129,1180,7027,3129,1703,4742,2077,1868,3923,2281,1686,1978,2394,1549,2353,1683,2455,5517,1537,1581,3176]","trial_type":"fractal-mutation","trial_index":57,"time_elapsed":1601773,"internal_node_id":"0.0-5.0-3.0"},{"group":"hexagon_bi","fractal_assignment":["../images/ylw_slt.png","../images/org_blu.png","../images/cyn_red.png","../images/pnk_blu.png","../images/blu_wht.png","../images/gry_blk.png"],"mutagen_generator_assignment":[0,1],"goal":1,"start":2,"action_noise":0.15,"location_history":"[2,3,2,3,2,1]","action_history":"[1,1,1,1,0]","mutagen_history":"[1,1,1,1,0]","location_rts":"[4850,3012,1845,1583,1560]","trial_type":"fractal-mutation","trial_index":58,"time_elapsed":1623349,"internal_node_id":"0.0-5.0-4.0"},{"group":"hexagon_bi","fractal_assignment":["../images/ylw_slt.png","../images/org_blu.png","../images/cyn_red.png","../images/pnk_blu.png","../images/blu_wht.png","../images/gry_blk.png"],"mutagen_generator_assignment":[0,1],"goal":4,"start":1,"action_noise":0.15,"location_history":"[1,0,1,0,1,2,1,2,1,0,1,0,1,0,5,4]","action_history":"[1,1,1,0,0,0,0,0,1,1,1,1,1,1,1]","mutagen_history":"[1,1,1,0,0,0,0,0,1,1,1,1,1,1,1]","location_rts":"[3012,1589,2620,4275,1603,1778,1198,1470,2634,1619,998,958,797,565,1335]","trial_type":"fractal-mutation","trial_index":59,"time_elapsed":1668974,"internal_node_id":"0.0-5.0-5.0"},{"group":"hexagon_bi","fractal_assignment":["../images/ylw_slt.png","../images/org_blu.png","../images/cyn_red.png","../images/pnk_blu.png","../images/blu_wht.png","../images/gry_blk.png"],"mutagen_generator_assignment":[0,1],"goal":1,"start":4,"action_noise":0.15,"location_history":"[4,3,4,5,0,1]","action_history":"[1,0,1,0,1]","mutagen_history":"[1,0,1,0,1]","location_rts":"[3627,2990,1234,1477,1164]","trial_type":"fractal-mutation","trial_index":60,"time_elapsed":1688191,"internal_node_id":"0.0-5.0-6.0"},{"group":"hexagon_bi","fractal_assignment":["../images/ylw_slt.png","../images/org_blu.png","../images/cyn_red.png","../images/pnk_blu.png","../images/blu_wht.png","../images/gry_blk.png"],"mutagen_generator_assignment":[0,1],"goal":5,"start":1,"action_noise":0.15,"location_history":"[1,0,5]","action_history":"[1,0]","mutagen_history":"[1,0]","location_rts":"[1695,1238]","trial_type":"fractal-mutation","trial_index":61,"time_elapsed":1696718,"internal_node_id":"0.0-5.0-7.0"},{"group":"hexagon_bi","fractal_assignment":["../images/ylw_slt.png","../images/org_blu.png","../images/cyn_red.png","../images/pnk_blu.png","../images/blu_wht.png","../images/gry_blk.png"],"mutagen_generator_assignment":[0,1],"goal":0,"start":5,"action_noise":0.15,"location_history":"[5,0]","action_history":"[1]","mutagen_history":"[1]","location_rts":"[1874]","trial_type":"fractal-mutation","trial_index":62,"time_elapsed":1703153,"internal_node_id":"0.0-5.0-8.0"},{"group":"hexagon_bi","fractal_assignment":["../images/ylw_slt.png","../images/org_blu.png","../images/cyn_red.png","../images/pnk_blu.png","../images/blu_wht.png","../images/gry_blk.png"],"mutagen_generator_assignment":[0,1],"goal":2,"start":0,"action_noise":0.15,"location_history":"[0,5,0,5,0,1,0,1,0,5,4,5,4,5,4,3,4,3,2]","action_history":"[0,0,0,1,1,1,0,0,0,1,1,1,1,1,1,0,0,0]","mutagen_history":"[0,0,0,1,1,1,0,0,0,1,1,1,1,1,1,0,0,0]","location_rts":"[1964,1082,2422,722,618,741,591,571,776,652,1606,594,884,530,812,866,757,625]","trial_type":"fractal-mutation","trial_index":63,"time_elapsed":1742237,"internal_node_id":"0.0-5.0-9.0"},{"group":"hexagon_bi","fractal_assignment":["../images/ylw_slt.png","../images/org_blu.png","../images/cyn_red.png","../images/pnk_blu.png","../images/blu_wht.png","../images/gry_blk.png"],"mutagen_generator_assignment":[0,1],"goal":3,"start":2,"action_noise":0.15,"location_history":"[2,3]","action_history":"[1]","mutagen_history":"[1]","location_rts":"[846]","trial_type":"fractal-mutation","trial_index":64,"time_elapsed":1747638,"internal_node_id":"0.0-5.0-10.0"},{"group":"hexagon_bi","fractal_assignment":["../images/ylw_slt.png","../images/org_blu.png","../images/cyn_red.png","../images/pnk_blu.png","../images/blu_wht.png","../images/gry_blk.png"],"mutagen_generator_assignment":[0,1],"goal":0,"start":3,"action_noise":0.15,"location_history":"[3,4,3,2,3,2,3,4,3,4,5,0]","action_history":"[0,0,0,1,1,1,0,0,1,1,0]","mutagen_history":"[0,0,0,1,1,1,0,0,1,1,0]","location_rts":"[569,1112,637,476,464,502,531,1318,651,532,533]","trial_type":"fractal-mutation","trial_index":65,"time_elapsed":1769937,"internal_node_id":"0.0-5.0-11.0"},{"group":"hexagon_bi","fractal_assignment":["../images/ylw_slt.png","../images/org_blu.png","../images/cyn_red.png","../images/pnk_blu.png","../images/blu_wht.png","../images/gry_blk.png"],"mutagen_generator_assignment":[0,1],"goal":2,"start":0,"action_noise":0.15,"location_history":"[0,5,4,5,4,5,4,3,2]","action_history":"[1,1,0,0,1,1,0,1]","mutagen_history":"[1,1,0,0,1,1,0,1]","location_rts":"[1733,765,996,535,1025,604,943,733]","trial_type":"fractal-mutation","trial_index":66,"time_elapsed":1789098,"internal_node_id":"0.0-5.0-12.0"},{"group":"hexagon_bi","fractal_assignment":["../images/ylw_slt.png","../images/org_blu.png","../images/cyn_red.png","../images/pnk_blu.png","../images/blu_wht.png","../images/gry_blk.png"],"mutagen_generator_assignment":[0,1],"goal":5,"start":2,"action_noise":0.15,"location_history":"[2,1,0,5]","action_history":"[0,1,1]","mutagen_history":"[0,1,1]","location_rts":"[586,776,766]","trial_type":"fractal-mutation","trial_index":67,"time_elapsed":1797870,"internal_node_id":"0.0-5.0-13.0"},{"group":"hexagon_bi","fractal_assignment":["../images/ylw_slt.png","../images/org_blu.png","../images/cyn_red.png","../images/pnk_blu.png","../images/blu_wht.png","../images/gry_blk.png"],"mutagen_generator_assignment":[0,1],"goal":4,"start":5,"action_noise":0.15,"location_history":"[5,4]","action_history":"[1]","mutagen_history":"[1]","location_rts":"[1295]","trial_type":"fractal-mutation","trial_index":68,"time_elapsed":1803725,"internal_node_id":"0.0-5.0-14.0"},{"group":"hexagon_bi","fractal_assignment":["../images/ylw_slt.png","../images/org_blu.png","../images/cyn_red.png","../images/pnk_blu.png","../images/blu_wht.png","../images/gry_blk.png"],"mutagen_generator_assignment":[0,1],"goal":3,"start":4,"action_noise":0.15,"location_history":"[4,3]","action_history":"[0]","mutagen_history":"[0]","location_rts":"[855]","trial_type":"fractal-mutation","trial_index":69,"time_elapsed":1809120,"internal_node_id":"0.0-5.0-15.0"},{"group":"hexagon_bi","fractal_assignment":["../images/ylw_slt.png","../images/org_blu.png","../images/cyn_red.png","../images/pnk_blu.png","../images/blu_wht.png","../images/gry_blk.png"],"mutagen_generator_assignment":[0,1],"goal":1,"start":3,"action_noise":0.15,"location_history":"[3,2,3,2,3,4,3,4,3,2,1]","action_history":"[1,1,1,0,0,0,1,1,1,0]","mutagen_history":"[1,1,1,0,0,0,1,1,1,0]","location_rts":"[1039,1165,940,545,610,2418,1312,937,861,757]","trial_type":"fractal-mutation","trial_index":70,"time_elapsed":1833672,"internal_node_id":"0.0-5.0-16.0"},{"group":"hexagon_bi","fractal_assignment":["../images/ylw_slt.png","../images/org_blu.png","../images/cyn_red.png","../images/pnk_blu.png","../images/blu_wht.png","../images/gry_blk.png"],"mutagen_generator_assignment":[0,1],"goal":5,"start":1,"action_noise":0.15,"location_history":"[1,2,1,2,1,0,5]","action_history":"[1,1,0,0,0,0]","mutagen_history":"[1,1,0,0,0,0]","location_rts":"[1877,496,487,1358,1148,946]","trial_type":"fractal-mutation","trial_index":71,"time_elapsed":1849728,"internal_node_id":"0.0-5.0-17.0"},{"group":"hexagon_bi","fractal_assignment":["../images/ylw_slt.png","../images/org_blu.png","../images/cyn_red.png","../images/pnk_blu.png","../images/blu_wht.png","../images/gry_blk.png"],"mutagen_generator_assignment":[0,1],"goal":4,"start":5,"action_noise":0.15,"location_history":"[5,4]","action_history":"[1]","mutagen_history":"[1]","location_rts":"[625]","trial_type":"fractal-mutation","trial_index":72,"time_elapsed":1854910,"internal_node_id":"0.0-5.0-18.0"},{"group":"hexagon_bi","fractal_assignment":["../images/ylw_slt.png","../images/org_blu.png","../images/cyn_red.png","../images/pnk_blu.png","../images/blu_wht.png","../images/gry_blk.png"],"mutagen_generator_assignment":[0,1],"goal":0,"start":4,"action_noise":0.15,"location_history":"[4,5,4,5,0]","action_history":"[1,1,1,0]","mutagen_history":"[1,1,1,0]","location_rts":"[1712,845,1289,2884]","trial_type":"fractal-mutation","trial_index":73,"time_elapsed":1869319,"internal_node_id":"0.0-5.0-19.0"},{"group":"hexagon_bi","fractal_assignment":["../images/ylw_slt.png","../images/org_blu.png","../images/cyn_red.png","../images/pnk_blu.png","../images/blu_wht.png","../images/gry_blk.png"],"mutagen_generator_assignment":[0,1],"goal":1,"start":0,"action_noise":0.15,"location_history":"[0,1]","action_history":"[1]","mutagen_history":"[1]","location_rts":"[2294]","trial_type":"fractal-mutation","trial_index":74,"time_elapsed":1876170,"internal_node_id":"0.0-5.0-20.0"},{"group":"hexagon_bi","fractal_assignment":["../images/ylw_slt.png","../images/org_blu.png","../images/cyn_red.png","../images/pnk_blu.png","../images/blu_wht.png","../images/gry_blk.png"],"mutagen_generator_assignment":[0,1],"goal":3,"start":1,"action_noise":0.15,"location_history":"[1,0,1,2,1,0,1,0,5,0,1,0,1,2,3]","action_history":"[1,1,0,0,1,1,1,0,0,1,1,1,0,1]","mutagen_history":"[1,1,0,0,1,1,1,0,0,1,1,1,0,1]","location_rts":"[795,1190,407,638,642,447,461,405,485,762,852,497,463,682]","trial_type":"fractal-mutation","trial_index":75,"time_elapsed":1903007,"internal_node_id":"0.0-5.0-21.0"},{"group":"hexagon_bi","fractal_assignment":["../images/ylw_slt.png","../images/org_blu.png","../images/cyn_red.png","../images/pnk_blu.png","../images/blu_wht.png","../images/gry_blk.png"],"mutagen_generator_assignment":[0,1],"goal":2,"start":3,"action_noise":0.15,"location_history":"[3,2]","action_history":"[1]","mutagen_history":"[1]","location_rts":"[7]","trial_type":"fractal-mutation","trial_index":76,"time_elapsed":1907570,"internal_node_id":"0.0-5.0-22.0"},{"group":"hexagon_bi","fractal_assignment":["../images/ylw_slt.png","../images/org_blu.png","../images/cyn_red.png","../images/pnk_blu.png","../images/blu_wht.png","../images/gry_blk.png"],"mutagen_generator_assignment":[0,1],"goal":0,"start":2,"action_noise":0.15,"location_history":"[2,3,2,1,2,1,0]","action_history":"[0,0,0,0,0,1]","mutagen_history":"[0,0,0,0,0,1]","location_rts":"[1609,853,1041,925,721,906]","trial_type":"fractal-mutation","trial_index":77,"time_elapsed":1923362,"internal_node_id":"0.0-5.0-23.0"},{"group":"hexagon_bi","fractal_assignment":["../images/ylw_slt.png","../images/org_blu.png","../images/cyn_red.png","../images/pnk_blu.png","../images/blu_wht.png","../images/gry_blk.png"],"mutagen_generator_assignment":[0,1],"goal":3,"start":0,"action_noise":0.15,"location_history":"[0,1,0,1,0,1,2,3]","action_history":"[1,1,1,1,1,0,1]","mutagen_history":"[1,1,1,1,1,0,1]","location_rts":"[1197,506,603,584,496,1026,862]","trial_type":"fractal-mutation","trial_index":78,"time_elapsed":1939487,"internal_node_id":"0.0-5.0-24.0"},{"group":"hexagon_bi","fractal_assignment":["../images/ylw_slt.png","../images/org_blu.png","../images/cyn_red.png","../images/pnk_blu.png","../images/blu_wht.png","../images/gry_blk.png"],"mutagen_generator_assignment":[0,1],"goal":1,"start":3,"action_noise":0.15,"location_history":"[3,2,3,4,5,4,5,0,1]","action_history":"[1,1,1,1,1,1,1,1]","mutagen_history":"[1,1,1,1,1,1,1,1]","location_rts":"[543,674,1246,897,4064,1032,5978,641]","trial_type":"fractal-mutation","trial_index":79,"time_elapsed":1966458,"internal_node_id":"0.0-5.0-25.0"},{"group":"hexagon_bi","fractal_assignment":["../images/ylw_slt.png","../images/org_blu.png","../images/cyn_red.png","../images/pnk_blu.png","../images/blu_wht.png","../images/gry_blk.png"],"mutagen_generator_assignment":[0,1],"goal":2,"start":1,"action_noise":0.15,"location_history":"[1,2]","action_history":"[0]","mutagen_history":"[0]","location_rts":"[661]","trial_type":"fractal-mutation","trial_index":80,"time_elapsed":1971664,"internal_node_id":"0.0-5.0-26.0"},{"group":"hexagon_bi","fractal_assignment":["../images/ylw_slt.png","../images/org_blu.png","../images/cyn_red.png","../images/pnk_blu.png","../images/blu_wht.png","../images/gry_blk.png"],"mutagen_generator_assignment":[0,1],"goal":5,"start":2,"action_noise":0.15,"location_history":"[2,3,2,3,4,3,2,1,0,5]","action_history":"[1,1,1,0,0,0,0,1,1]","mutagen_history":"[1,1,1,0,0,0,0,1,1]","location_rts":"[442,639,1067,1141,492,420,457,403,444]","trial_type":"fractal-mutation","trial_index":81,"time_elapsed":1990077,"internal_node_id":"0.0-5.0-27.0"},{"group":"hexagon_bi","fractal_assignment":["../images/ylw_slt.png","../images/org_blu.png","../images/cyn_red.png","../images/pnk_blu.png","../images/blu_wht.png","../images/gry_blk.png"],"mutagen_generator_assignment":[0,1],"goal":4,"start":5,"action_noise":0.15,"location_history":"[5,4]","action_history":"[1]","mutagen_history":"[1]","location_rts":"[808]","trial_type":"fractal-mutation","trial_index":82,"time_elapsed":1995435,"internal_node_id":"0.0-5.0-28.0"},{"group":"hexagon_bi","fractal_assignment":["../images/ylw_slt.png","../images/org_blu.png","../images/cyn_red.png","../images/pnk_blu.png","../images/blu_wht.png","../images/gry_blk.png"],"mutagen_generator_assignment":[0,1],"goal":5,"start":4,"action_noise":0.15,"location_history":"[4,5]","action_history":"[1]","mutagen_history":"[1]","location_rts":"[675]","trial_type":"fractal-mutation","trial_index":83,"time_elapsed":2000660,"internal_node_id":"0.0-5.0-29.0"},{"group":"hexagon_bi","fractal_assignment":["../images/ylw_slt.png","../images/org_blu.png","../images/cyn_red.png","../images/pnk_blu.png","../images/blu_wht.png","../images/gry_blk.png"],"mutagen_generator_assignment":[0,1],"goal":3,"start":5,"action_noise":0.15,"location_history":"[5,4,3]","action_history":"[1,1]","mutagen_history":"[1,1]","location_rts":"[1824,479]","trial_type":"fractal-mutation","trial_index":84,"time_elapsed":2008563,"internal_node_id":"0.0-5.0-30.0"},{"group":"hexagon_bi","fractal_assignment":["../images/ylw_slt.png","../images/org_blu.png","../images/cyn_red.png","../images/pnk_blu.png","../images/blu_wht.png","../images/gry_blk.png"],"mutagen_generator_assignment":[0,1],"goal":0,"start":3,"action_noise":0.15,"location_history":"[3,4,3,2,3,2,1,2,1,0]","action_history":"[0,0,0,1,1,0,0,0,1]","mutagen_history":"[0,0,0,1,1,0,0,0,1]","location_rts":"[1656,682,718,6871,623,454,449,510,462]","trial_type":"fractal-mutation","trial_index":85,"time_elapsed":2033852,"internal_node_id":"0.0-5.0-31.0"},{"group":"hexagon_bi","fractal_assignment":["../images/ylw_slt.png","../images/org_blu.png","../images/cyn_red.png","../images/pnk_blu.png","../images/blu_wht.png","../images/gry_blk.png"],"mutagen_generator_assignment":[0,1],"goal":4,"start":0,"action_noise":0.15,"location_history":"[0,1,0,5,4]","action_history":"[1,1,0,0]","mutagen_history":"[1,1,0,0]","location_rts":"[1159,545,412,491]","trial_type":"fractal-mutation","trial_index":86,"time_elapsed":2044130,"internal_node_id":"0.0-5.0-32.0"},{"group":"hexagon_bi","fractal_assignment":["../images/ylw_slt.png","../images/org_blu.png","../images/cyn_red.png","../images/pnk_blu.png","../images/blu_wht.png","../images/gry_blk.png"],"mutagen_generator_assignment":[0,1],"goal":1,"start":4,"action_noise":0.15,"location_history":"[4,5,4,5,4,3,4,3,2,3,4,5,0,1]","action_history":"[1,1,1,1,1,0,0,1,1,0,0,0,1]","mutagen_history":"[1,1,1,1,1,0,0,1,1,0,0,0,1]","location_rts":"[1275,630,1871,8227,595,594,541,661,705,665,562,585,457]","trial_type":"fractal-mutation","trial_index":87,"time_elapsed":2078599,"internal_node_id":"0.0-5.0-33.0"},{"group":"hexagon_bi","fractal_assignment":["../images/ylw_slt.png","../images/org_blu.png","../images/cyn_red.png","../images/pnk_blu.png","../images/blu_wht.png","../images/gry_blk.png"],"mutagen_generator_assignment":[0,1],"goal":2,"start":1,"action_noise":0.15,"location_history":"[1,0,5,4,3,2]","action_history":"[1,1,1,0,0]","mutagen_history":"[1,1,1,0,0]","location_rts":"[508,853,824,1559,768]","trial_type":"fractal-mutation","trial_index":88,"time_elapsed":2091831,"internal_node_id":"0.0-5.0-34.0"},{"group":"hexagon_bi","fractal_assignment":["../images/ylw_slt.png","../images/org_blu.png","../images/cyn_red.png","../images/pnk_blu.png","../images/blu_wht.png","../images/gry_blk.png"],"mutagen_generator_assignment":[0,1],"goal":0,"start":2,"action_noise":0.15,"location_history":"[2,3,2,3,4,3,4,3,4,5,4,5,0]","action_history":"[1,1,1,0,0,0,0,0,1,1,1,0]","mutagen_history":"[1,1,1,0,0,0,0,0,1,1,1,0]","location_rts":"[1049,522,717,375,1115,538,516,571,466,689,734,512]","trial_type":"fractal-mutation","trial_index":89,"time_elapsed":2115643,"internal_node_id":"0.0-5.0-35.0"},{"group":"hexagon_bi","fractal_assignment":["../images/ylw_slt.png","../images/org_blu.png","../images/cyn_red.png","../images/pnk_blu.png","../images/blu_wht.png","../images/gry_blk.png"],"mutagen_generator_assignment":[0,1],"goal":5,"start":0,"action_noise":0.15,"location_history":"[0,1,0,1,0,5]","action_history":"[1,1,1,1,0]","mutagen_history":"[1,1,1,1,0]","location_rts":"[3360,2056,975,1129,529]","trial_type":"fractal-mutation","trial_index":90,"time_elapsed":2132426,"internal_node_id":"0.0-5.0-36.0"},{"group":"hexagon_bi","fractal_assignment":["../images/ylw_slt.png","../images/org_blu.png","../images/cyn_red.png","../images/pnk_blu.png","../images/blu_wht.png","../images/gry_blk.png"],"mutagen_generator_assignment":[0,1],"goal":2,"start":5,"action_noise":0.15,"location_history":"[5,4,5,0,1,0,5,0,5,0,1,0,5,4,3,2]","action_history":"[1,1,0,1,1,0,1,1,0,1,1,0,1,0,1]","mutagen_history":"[1,1,0,1,1,0,1,1,0,1,1,0,1,0,1]","location_rts":"[1053,468,446,469,568,366,1188,1306,789,813,519,429,1054,558,502]","trial_type":"fractal-mutation","trial_index":91,"time_elapsed":2162133,"internal_node_id":"0.0-5.0-37.0"},{"group":"hexagon_bi","fractal_assignment":["../images/ylw_slt.png","../images/org_blu.png","../images/cyn_red.png","../images/pnk_blu.png","../images/blu_wht.png","../images/gry_blk.png"],"mutagen_generator_assignment":[0,1],"goal":1,"start":2,"action_noise":0.15,"location_history":"[2,3,2,1]","action_history":"[1,1,0]","mutagen_history":"[1,1,0]","location_rts":"[453,541,512]","trial_type":"fractal-mutation","trial_index":92,"time_elapsed":2170283,"internal_node_id":"0.0-5.0-38.0"},{"group":"hexagon_bi","fractal_assignment":["../images/ylw_slt.png","../images/org_blu.png","../images/cyn_red.png","../images/pnk_blu.png","../images/blu_wht.png","../images/gry_blk.png"],"mutagen_generator_assignment":[0,1],"goal":4,"start":1,"action_noise":0.15,"location_history":"[1,2,3,4]","action_history":"[0,1,0]","mutagen_history":"[0,1,0]","location_rts":"[1270,1430,624]","trial_type":"fractal-mutation","trial_index":93,"time_elapsed":2180239,"internal_node_id":"0.0-5.0-39.0"},{"group":"hexagon_bi","fractal_assignment":["../images/ylw_slt.png","../images/org_blu.png","../images/cyn_red.png","../images/pnk_blu.png","../images/blu_wht.png","../images/gry_blk.png"],"mutagen_generator_assignment":[0,1],"goal":3,"start":4,"action_noise":0.15,"location_history":"[4,5,4,5,0,1,2,3]","action_history":"[1,1,1,0,0,0,1]","mutagen_history":"[1,1,1,0,0,0,1]","location_rts":"[575,524,501,573,436,705,451]","trial_type":"fractal-mutation","trial_index":94,"time_elapsed":2194798,"internal_node_id":"0.0-5.0-40.0"},{"group":"hexagon_bi","fractal_assignment":["../images/ylw_slt.png","../images/org_blu.png","../images/cyn_red.png","../images/pnk_blu.png","../images/blu_wht.png","../images/gry_blk.png"],"mutagen_generator_assignment":[0,1],"goal":5,"start":3,"action_noise":0.15,"location_history":"[3,2,3,2,1,0,1,0,1,2,1,2,3,2,3,2,1,2,1,2,3,2,3,2,3,4,5]","action_history":"[1,1,1,0,1,1,1,1,0,0,0,1,1,1,1,0,0,0,0,1,1,1,1,0,0,1]","mutagen_history":"[1,1,1,0,1,1,1,1,0,0,0,1,1,1,1,0,0,0,0,1,1,1,1,0,0,1]","location_rts":"[1254,635,531,707,3356,661,608,823,460,497,710,408,594,558,465,498,703,562,1365,589,564,760,764,2499,516,738]","trial_type":"fractal-mutation","trial_index":95,"time_elapsed":2247230,"internal_node_id":"0.0-5.0-41.0"},{"group":"hexagon_bi","fractal_assignment":["../images/ylw_slt.png","../images/org_blu.png","../images/cyn_red.png","../images/pnk_blu.png","../images/blu_wht.png","../images/gry_blk.png"],"mutagen_generator_assignment":[0,1],"goal":3,"start":5,"action_noise":0.15,"location_history":"[5,4,5,4,3]","action_history":"[1,1,0,0]","mutagen_history":"[1,1,0,0]","location_rts":"[538,565,523,705]","trial_type":"fractal-mutation","trial_index":96,"time_elapsed":2257226,"internal_node_id":"0.0-5.0-42.0"},{"group":"hexagon_bi","fractal_assignment":["../images/ylw_slt.png","../images/org_blu.png","../images/cyn_red.png","../images/pnk_blu.png","../images/blu_wht.png","../images/gry_blk.png"],"mutagen_generator_assignment":[0,1],"goal":0,"start":3,"action_noise":0.15,"location_history":"[3,2,1,0]","action_history":"[1,1,0]","mutagen_history":"[1,1,0]","location_rts":"[454,548,486]","trial_type":"fractal-mutation","trial_index":97,"time_elapsed":2265352,"internal_node_id":"0.0-5.0-43.0"},{"group":"hexagon_bi","fractal_assignment":["../images/ylw_slt.png","../images/org_blu.png","../images/cyn_red.png","../images/pnk_blu.png","../images/blu_wht.png","../images/gry_blk.png"],"mutagen_generator_assignment":[0,1],"goal":2,"start":0,"action_noise":0.15,"location_history":"[0,1,2]","action_history":"[1,1]","mutagen_history":"[1,1]","location_rts":"[11253,519]","trial_type":"fractal-mutation","trial_index":98,"time_elapsed":2282724,"internal_node_id":"0.0-5.0-44.0"},{"group":"hexagon_bi","fractal_assignment":["../images/ylw_slt.png","../images/org_blu.png","../images/cyn_red.png","../images/pnk_blu.png","../images/blu_wht.png","../images/gry_blk.png"],"mutagen_generator_assignment":[0,1],"goal":4,"start":2,"action_noise":0.15,"location_history":"[2,1,2,1,0,1,2,3,2,3,4]","action_history":"[0,0,0,1,1,0,1,1,1,0]","mutagen_history":"[0,0,0,1,1,0,1,1,1,0]","location_rts":"[431,550,1795,504,519,9172,1039,457,816,556]","trial_type":"fractal-mutation","trial_index":99,"time_elapsed":2312498,"internal_node_id":"0.0-5.0-45.0"},{"group":"hexagon_bi","fractal_assignment":["../images/ylw_slt.png","../images/org_blu.png","../images/cyn_red.png","../images/pnk_blu.png","../images/blu_wht.png","../images/gry_blk.png"],"mutagen_generator_assignment":[0,1],"goal":1,"start":4,"action_noise":0.15,"location_history":"[4,5,4,5,0,1]","action_history":"[1,1,1,0,0]","mutagen_history":"[1,1,1,0,0]","location_rts":"[702,623,585,782,555]","trial_type":"fractal-mutation","trial_index":100,"time_elapsed":2324475,"internal_node_id":"0.0-5.0-46.0"},{"group":"hexagon_bi","fractal_assignment":["../images/ylw_slt.png","../images/org_blu.png","../images/cyn_red.png","../images/pnk_blu.png","../images/blu_wht.png","../images/gry_blk.png"],"mutagen_generator_assignment":[0,1],"goal":4,"start":1,"action_noise":0.15,"location_history":"[1,0,1,0,5,4]","action_history":"[1,1,1,0,0]","mutagen_history":"[1,1,1,0,0]","location_rts":"[372,247,560,590,507]","trial_type":"fractal-mutation","trial_index":101,"time_elapsed":2335474,"internal_node_id":"0.0-5.0-47.0"},{"group":"hexagon_bi","fractal_assignment":["../images/ylw_slt.png","../images/org_blu.png","../images/cyn_red.png","../images/pnk_blu.png","../images/blu_wht.png","../images/gry_blk.png"],"mutagen_generator_assignment":[0,1],"goal":3,"start":4,"action_noise":0.15,"location_history":"[4,5,4,5,0,5,0,1,2,1,2,1,2,3]","action_history":"[1,1,1,0,0,0,1,1,0,0,1,0,1]","mutagen_history":"[1,1,1,0,0,0,1,1,0,0,1,0,1]","location_rts":"[9131,716,440,465,444,452,413,496,454,548,440,445,633]","trial_type":"fractal-mutation","trial_index":102,"time_elapsed":2367624,"internal_node_id":"0.0-5.0-48.0"},{"group":"hexagon_bi","fractal_assignment":["../images/ylw_slt.png","../images/org_blu.png","../images/cyn_red.png","../images/pnk_blu.png","../images/blu_wht.png","../images/gry_blk.png"],"mutagen_generator_assignment":[0,1],"goal":5,"start":3,"action_noise":0.15,"location_history":"[3,2,1,0,5]","action_history":"[1,1,1,0]","mutagen_history":"[1,1,1,0]","location_rts":"[1990,6143,495,425]","trial_type":"fractal-mutation","trial_index":103,"time_elapsed":2384388,"internal_node_id":"0.0-5.0-49.0"},{"view_history":"[{\"page_index\":0,\"viewing_time\":12052}]","rt":12052,"trial_type":"instructions","trial_index":104,"time_elapsed":2397441,"internal_node_id":"0.0-6.0"},{"rt":29722,"responses":"{\"Q0\":\"I have no where to put in a code so I hope you have my info?\"}","trial_type":"survey-text","trial_index":105,"time_elapsed":2428172,"internal_node_id":"0.0-7.0"}]