[{"view_history":"[{\"page_index\":0,\"viewing_time\":3770},{\"page_index\":1,\"viewing_time\":10309},{\"page_index\":2,\"viewing_time\":21768},{\"page_index\":3,\"viewing_time\":159073}]","rt":194922,"trial_type":"instructions","trial_index":0,"time_elapsed":194926,"internal_node_id":"0.0-0.0"},{"view_history":"[{\"page_index\":0,\"viewing_time\":2027},{\"page_index\":1,\"viewing_time\":31744}]","rt":33772,"trial_type":"instructions","trial_index":1,"time_elapsed":229699,"internal_node_id":"0.0-1.0"},{"group":"hexagon_tri","room_assignment":["red","purple","grey","blue","yellow","green"],"door_color_assignment":["white","black"],"door_generator_assignment":[0,1],"goal":4,"start":0,"action_noise":0.15,"location_history":"[0,1,5,0,1,3,2,1,3,4]","action_history":"[1,1,1,1,0,0,0,0,1]","door_history":"[1,1,1,1,0,0,0,0,1]","location_rts":"[3619,4511,3010,2187,1476,1247,2090,1884,703]","trial_type":"two-door-navigation","trial_index":2,"time_elapsed":263526,"internal_node_id":"0.0-2.0-0.0"},{"group":"hexagon_tri","room_assignment":["red","purple","grey","blue","yellow","green"],"door_color_assignment":["white","black"],"door_generator_assignment":[0,1],"goal":3,"start":4,"action_noise":0.15,"location_history":"[4,0,1,5,0,5,4,0,1,5,0,5,0,1,3]","action_history":"[0,1,1,1,0,0,0,1,1,0,0,1,1,0]","door_history":"[0,1,1,1,0,0,0,1,1,0,0,1,1,0]","location_rts":"[4490,603,918,741,1297,1577,2028,572,1077,1707,1649,1222,700,1471]","trial_type":"two-door-navigation","trial_index":3,"time_elapsed":301977,"internal_node_id":"0.0-2.0-1.0"},{"group":"hexagon_tri","room_assignment":["red","purple","grey","blue","yellow","green"],"door_color_assignment":["white","black"],"door_generator_assignment":[0,1],"goal":5,"start":3,"action_noise":0.15,"location_history":"[3,2,3,4,2,3,2,1,5]","action_history":"[0,1,1,1,0,0,0,1]","door_history":"[0,1,1,1,0,0,0,1]","location_rts":"[4395,1339,726,968,1378,1148,1156,1020]","trial_type":"two-door-navigation","trial_index":4,"time_elapsed":326021,"internal_node_id":"0.0-2.0-2.0"},{"group":"hexagon_tri","room_assignment":["red","purple","grey","blue","yellow","green"],"door_color_assignment":["white","black"],"door_generator_assignment":[0,1],"goal":2,"start":5,"action_noise":0.15,"location_history":"[5,0,5,0,5,0,5,4,0,1,3,2]","action_history":"[1,0,1,1,1,0,0,1,1,1,0]","door_history":"[1,0,1,1,1,0,0,1,1,1,0]","location_rts":"[5844,1003,989,1097,1725,407,927,1882,829,2442,1127]","trial_type":"two-door-navigation","trial_index":5,"time_elapsed":359529,"internal_node_id":"0.0-2.0-3.0"},{"group":"hexagon_tri","room_assignment":["red","purple","grey","blue","yellow","green"],"door_color_assignment":["white","black"],"door_generator_assignment":[0,1],"goal":1,"start":2,"action_noise":0.15,"location_history":"[2,1]","action_history":"[0]","door_history":"[0]","location_rts":"[2768]","trial_type":"two-door-navigation","trial_index":6,"time_elapsed":366862,"internal_node_id":"0.0-2.0-4.0"},{"group":"hexagon_tri","room_assignment":["red","purple","grey","blue","yellow","green"],"door_color_assignment":["white","black"],"door_generator_assignment":[0,1],"goal":4,"start":1,"action_noise":0.15,"location_history":"[1,5,4]","action_history":"[1,0]","door_history":"[1,0]","location_rts":"[2563,1189]","trial_type":"two-door-navigation","trial_index":7,"time_elapsed":376288,"internal_node_id":"0.0-2.0-5.0"},{"group":"hexagon_tri","room_assignment":["red","purple","grey","blue","yellow","green"],"door_color_assignment":["white","black"],"door_generator_assignment":[0,1],"goal":1,"start":4,"action_noise":0.15,"location_history":"[4,2,3,4,2,1]","action_history":"[0,1,1,1,0]","door_history":"[0,1,1,1,0]","location_rts":"[3201,500,846,2018,972]","trial_type":"two-door-navigation","trial_index":8,"time_elapsed":392730,"internal_node_id":"0.0-2.0-6.0"},{"group":"hexagon_tri","room_assignment":["red","purple","grey","blue","yellow","green"],"door_color_assignment":["white","black"],"door_generator_assignment":[0,1],"goal":5,"start":1,"action_noise":0.15,"location_history":"[1,5]","action_history":"[1]","door_history":"[1]","location_rts":"[1775]","trial_type":"two-door-navigation","trial_index":9,"time_elapsed":399079,"internal_node_id":"0.0-2.0-7.0"},{"group":"hexagon_tri","room_assignment":["red","purple","grey","blue","yellow","green"],"door_color_assignment":["white","black"],"door_generator_assignment":[0,1],"goal":0,"start":5,"action_noise":0.15,"location_history":"[5,0]","action_history":"[1]","door_history":"[1]","location_rts":"[1737]","trial_type":"two-door-navigation","trial_index":10,"time_elapsed":405453,"internal_node_id":"0.0-2.0-8.0"},{"group":"hexagon_tri","room_assignment":["red","purple","grey","blue","yellow","green"],"door_color_assignment":["white","black"],"door_generator_assignment":[0,1],"goal":2,"start":0,"action_noise":0.15,"location_history":"[0,5,4,0,5,4,2]","action_history":"[0,0,0,0,0,1]","door_history":"[0,0,0,0,0,1]","location_rts":"[2963,1804,889,669,2093,468]","trial_type":"two-door-navigation","trial_index":11,"time_elapsed":424318,"internal_node_id":"0.0-2.0-9.0"},{"group":"hexagon_tri","room_assignment":["red","purple","grey","blue","yellow","green"],"door_color_assignment":["white","black"],"door_generator_assignment":[0,1],"goal":3,"start":2,"action_noise":0.15,"location_history":"[2,3]","action_history":"[1]","door_history":"[1]","location_rts":"[3265]","trial_type":"two-door-navigation","trial_index":12,"time_elapsed":432123,"internal_node_id":"0.0-2.0-10.0"},{"group":"hexagon_tri","room_assignment":["red","purple","grey","blue","yellow","green"],"door_color_assignment":["white","black"],"door_generator_assignment":[0,1],"goal":0,"start":3,"action_noise":0.15,"location_history":"[3,2,1,5,0]","action_history":"[0,0,1,1]","door_history":"[0,0,1,1]","location_rts":"[3031,1677,697,473]","trial_type":"two-door-navigation","trial_index":13,"time_elapsed":445699,"internal_node_id":"0.0-2.0-11.0"},{"group":"hexagon_tri","room_assignment":["red","purple","grey","blue","yellow","green"],"door_color_assignment":["white","black"],"door_generator_assignment":[0,1],"goal":2,"start":0,"action_noise":0.15,"location_history":"[0,1,3,4,0,1,5,4,2]","action_history":"[1,0,0,0,0,1,0,1]","door_history":"[1,0,0,0,0,1,0,1]","location_rts":"[3656,974,1726,1060,1858,746,871,1721]","trial_type":"two-door-navigation","trial_index":14,"time_elapsed":470192,"internal_node_id":"0.0-2.0-12.0"},{"group":"hexagon_tri","room_assignment":["red","purple","grey","blue","yellow","green"],"door_color_assignment":["white","black"],"door_generator_assignment":[0,1],"goal":5,"start":2,"action_noise":0.15,"location_history":"[2,1,5]","action_history":"[1,1]","door_history":"[1,1]","location_rts":"[2753,2096]","trial_type":"two-door-navigation","trial_index":15,"time_elapsed":480625,"internal_node_id":"0.0-2.0-13.0"},{"group":"hexagon_tri","room_assignment":["red","purple","grey","blue","yellow","green"],"door_color_assignment":["white","black"],"door_generator_assignment":[0,1],"goal":4,"start":5,"action_noise":0.15,"location_history":"[5,4]","action_history":"[0]","door_history":"[0]","location_rts":"[15318]","trial_type":"two-door-navigation","trial_index":16,"time_elapsed":500493,"internal_node_id":"0.0-2.0-14.0"},{"group":"hexagon_tri","room_assignment":["red","purple","grey","blue","yellow","green"],"door_color_assignment":["white","black"],"door_generator_assignment":[0,1],"goal":3,"start":4,"action_noise":0.15,"location_history":"[4,0,5,0,1,5,0,5,0,5,4,2,3]","action_history":"[0,0,1,1,1,1,0,1,0,0,1,1]","door_history":"[0,0,1,1,1,1,0,1,0,0,1,1]","location_rts":"[3371,558,1238,824,954,1264,1280,1922,1212,516,1396,659]","trial_type":"two-door-navigation","trial_index":17,"time_elapsed":531962,"internal_node_id":"0.0-2.0-15.0"},{"group":"hexagon_tri","room_assignment":["red","purple","grey","blue","yellow","green"],"door_color_assignment":["white","black"],"door_generator_assignment":[0,1],"goal":1,"start":3,"action_noise":0.15,"location_history":"[3,4,0,1]","action_history":"[1,0,1]","door_history":"[1,0,1]","location_rts":"[1519,2411,1040]","trial_type":"two-door-navigation","trial_index":18,"time_elapsed":543620,"internal_node_id":"0.0-2.0-16.0"},{"group":"hexagon_tri","room_assignment":["red","purple","grey","blue","yellow","green"],"door_color_assignment":["white","black"],"door_generator_assignment":[0,1],"goal":5,"start":1,"action_noise":0.15,"location_history":"[1,3,4,0,5]","action_history":"[1,1,0,1]","door_history":"[1,1,0,1]","location_rts":"[2893,544,1857,894]","trial_type":"two-door-navigation","trial_index":19,"time_elapsed":557581,"internal_node_id":"0.0-2.0-17.0"},{"group":"hexagon_tri","room_assignment":["red","purple","grey","blue","yellow","green"],"door_color_assignment":["white","black"],"door_generator_assignment":[0,1],"goal":4,"start":5,"action_noise":0.15,"location_history":"[5,4]","action_history":"[0]","door_history":"[0]","location_rts":"[2948]","trial_type":"two-door-navigation","trial_index":20,"time_elapsed":565190,"internal_node_id":"0.0-2.0-18.0"},{"group":"hexagon_tri","room_assignment":["red","purple","grey","blue","yellow","green"],"door_color_assignment":["white","black"],"door_generator_assignment":[0,1],"goal":0,"start":4,"action_noise":0.15,"location_history":"[4,0]","action_history":"[1]","door_history":"[1]","location_rts":"[4252]","trial_type":"two-door-navigation","trial_index":21,"time_elapsed":574041,"internal_node_id":"0.0-2.0-19.0"},{"group":"hexagon_tri","room_assignment":["red","purple","grey","blue","yellow","green"],"door_color_assignment":["white","black"],"door_generator_assignment":[0,1],"goal":1,"start":0,"action_noise":0.15,"location_history":"[0,1]","action_history":"[1]","door_history":"[1]","location_rts":"[2207]","trial_type":"two-door-navigation","trial_index":22,"time_elapsed":580795,"internal_node_id":"0.0-2.0-20.0"},{"group":"hexagon_tri","room_assignment":["red","purple","grey","blue","yellow","green"],"door_color_assignment":["white","black"],"door_generator_assignment":[0,1],"goal":3,"start":1,"action_noise":0.15,"location_history":"[1,3]","action_history":"[0]","door_history":"[0]","location_rts":"[2342]","trial_type":"two-door-navigation","trial_index":23,"time_elapsed":587708,"internal_node_id":"0.0-2.0-21.0"},{"group":"hexagon_tri","room_assignment":["red","purple","grey","blue","yellow","green"],"door_color_assignment":["white","black"],"door_generator_assignment":[0,1],"goal":2,"start":3,"action_noise":0.15,"location_history":"[3,2]","action_history":"[0]","door_history":"[0]","location_rts":"[3052]","trial_type":"two-door-navigation","trial_index":24,"time_elapsed":595320,"internal_node_id":"0.0-2.0-22.0"},{"group":"hexagon_tri","room_assignment":["red","purple","grey","blue","yellow","green"],"door_color_assignment":["white","black"],"door_generator_assignment":[0,1],"goal":0,"start":2,"action_noise":0.15,"location_history":"[2,3,4,2,3,4,2,1,5,0]","action_history":"[1,1,0,1,1,1,0,1,1]","door_history":"[1,1,0,1,1,1,0,1,1]","location_rts":"[3376,596,873,507,709,688,769,530,421]","trial_type":"two-door-navigation","trial_index":25,"time_elapsed":616887,"internal_node_id":"0.0-2.0-23.0"},{"group":"hexagon_tri","room_assignment":["red","purple","grey","blue","yellow","green"],"door_color_assignment":["white","black"],"door_generator_assignment":[0,1],"goal":3,"start":0,"action_noise":0.15,"location_history":"[0,5,0,5,0,5,4,2,3]","action_history":"[1,1,0,1,0,0,1,1]","door_history":"[1,1,0,1,0,0,1,1]","location_rts":"[6234,523,935,1932,1446,446,2366,783]","trial_type":"two-door-navigation","trial_index":26,"time_elapsed":643549,"internal_node_id":"0.0-2.0-24.0"},{"group":"hexagon_tri","room_assignment":["red","purple","grey","blue","yellow","green"],"door_color_assignment":["white","black"],"door_generator_assignment":[0,1],"goal":1,"start":3,"action_noise":0.15,"location_history":"[3,4,0,1]","action_history":"[1,0,1]","door_history":"[1,0,1]","location_rts":"[1531,1520,744]","trial_type":"two-door-navigation","trial_index":27,"time_elapsed":654033,"internal_node_id":"0.0-2.0-25.0"},{"group":"hexagon_tri","room_assignment":["red","purple","grey","blue","yellow","green"],"door_color_assignment":["white","black"],"door_generator_assignment":[0,1],"goal":2,"start":1,"action_noise":0.15,"location_history":"[1,5,0,5,4,0,5,4,2]","action_history":"[1,1,0,0,0,0,1,1]","door_history":"[1,1,0,0,0,0,1,1]","location_rts":"[926,561,939,1229,744,2043,351,1772]","trial_type":"two-door-navigation","trial_index":28,"time_elapsed":674641,"internal_node_id":"0.0-2.0-26.0"},{"group":"hexagon_tri","room_assignment":["red","purple","grey","blue","yellow","green"],"door_color_assignment":["white","black"],"door_generator_assignment":[0,1],"goal":5,"start":2,"action_noise":0.15,"location_history":"[2,1,5]","action_history":"[0,0]","door_history":"[0,0]","location_rts":"[2959,551]","trial_type":"two-door-navigation","trial_index":29,"time_elapsed":683762,"internal_node_id":"0.0-2.0-27.0"},{"group":"hexagon_tri","room_assignment":["red","purple","grey","blue","yellow","green"],"door_color_assignment":["white","black"],"door_generator_assignment":[0,1],"goal":4,"start":5,"action_noise":0.15,"location_history":"[5,4]","action_history":"[0]","door_history":"[0]","location_rts":"[1663]","trial_type":"two-door-navigation","trial_index":30,"time_elapsed":689974,"internal_node_id":"0.0-2.0-28.0"},{"group":"hexagon_tri","room_assignment":["red","purple","grey","blue","yellow","green"],"door_color_assignment":["white","black"],"door_generator_assignment":[0,1],"goal":5,"start":4,"action_noise":0.15,"location_history":"[4,0,5]","action_history":"[0,0]","door_history":"[0,0]","location_rts":"[1858,457]","trial_type":"two-door-navigation","trial_index":31,"time_elapsed":697917,"internal_node_id":"0.0-2.0-29.0"},{"group":"hexagon_tri","room_assignment":["red","purple","grey","blue","yellow","green"],"door_color_assignment":["white","black"],"door_generator_assignment":[0,1],"goal":3,"start":5,"action_noise":0.15,"location_history":"[5,0,1,5,4,2,1,5,0,5,0,1,3]","action_history":"[1,1,1,0,1,1,1,1,0,1,1,0]","door_history":"[1,1,1,0,1,1,1,1,0,1,1,0]","location_rts":"[2667,1282,822,2116,393,635,825,1453,385,978,516,1703]","trial_type":"two-door-navigation","trial_index":32,"time_elapsed":728113,"internal_node_id":"0.0-2.0-30.0"},{"group":"hexagon_tri","room_assignment":["red","purple","grey","blue","yellow","green"],"door_color_assignment":["white","black"],"door_generator_assignment":[0,1],"goal":0,"start":3,"action_noise":0.15,"location_history":"[3,2,1,3,2,3,4,2,3,2,1,5,0]","action_history":"[1,0,0,0,1,1,1,1,0,0,1,1]","door_history":"[1,0,0,0,1,1,1,1,0,0,1,1]","location_rts":"[4935,1340,1102,1062,1166,449,467,1053,461,1531,1432,524]","trial_type":"two-door-navigation","trial_index":33,"time_elapsed":759944,"internal_node_id":"0.0-2.0-31.0"},{"group":"hexagon_tri","room_assignment":["red","purple","grey","blue","yellow","green"],"door_color_assignment":["white","black"],"door_generator_assignment":[0,1],"goal":4,"start":0,"action_noise":0.15,"location_history":"[0,1,3,2,1,3,4]","action_history":"[1,0,0,0,0,1]","door_history":"[1,0,0,0,0,1]","location_rts":"[7457,446,854,808,630,1567]","trial_type":"two-door-navigation","trial_index":34,"time_elapsed":781600,"internal_node_id":"0.0-2.0-32.0"},{"group":"hexagon_tri","room_assignment":["red","purple","grey","blue","yellow","green"],"door_color_assignment":["white","black"],"door_generator_assignment":[0,1],"goal":1,"start":4,"action_noise":0.15,"location_history":"[4,0,5,0,5,0,1]","action_history":"[0,1,1,0,1,1]","door_history":"[0,1,1,0,1,1]","location_rts":"[800,2023,587,1416,759,530]","trial_type":"two-door-navigation","trial_index":35,"time_elapsed":797676,"internal_node_id":"0.0-2.0-33.0"},{"group":"hexagon_tri","room_assignment":["red","purple","grey","blue","yellow","green"],"door_color_assignment":["white","black"],"door_generator_assignment":[0,1],"goal":2,"start":1,"action_noise":0.15,"location_history":"[1,5,0,5,4,0,5,4,2]","action_history":"[1,0,0,0,0,0,0,1]","door_history":"[1,0,0,0,0,0,0,1]","location_rts":"[3244,1065,1648,1314,1704,1198,406,1014]","trial_type":"two-door-navigation","trial_index":36,"time_elapsed":821235,"internal_node_id":"0.0-2.0-34.0"},{"group":"hexagon_tri","room_assignment":["red","purple","grey","blue","yellow","green"],"door_color_assignment":["white","black"],"door_generator_assignment":[0,1],"goal":0,"start":2,"action_noise":0.15,"location_history":"[2,3,2,1,5,0]","action_history":"[1,0,0,1,1]","door_history":"[1,0,0,1,1]","location_rts":"[3270,2261,1417,905,522]","trial_type":"two-door-navigation","trial_index":37,"time_elapsed":838393,"internal_node_id":"0.0-2.0-35.0"},{"group":"hexagon_tri","room_assignment":["red","purple","grey","blue","yellow","green"],"door_color_assignment":["white","black"],"door_generator_assignment":[0,1],"goal":5,"start":0,"action_noise":0.15,"location_history":"[0,1,5]","action_history":"[1,1]","door_history":"[1,1]","location_rts":"[2393,600]","trial_type":"two-door-navigation","trial_index":38,"time_elapsed":847069,"internal_node_id":"0.0-2.0-36.0"},{"group":"hexagon_tri","room_assignment":["red","purple","grey","blue","yellow","green"],"door_color_assignment":["white","black"],"door_generator_assignment":[0,1],"goal":2,"start":5,"action_noise":0.15,"location_history":"[5,0,1,5,0,1,3,4,0,1,3,2]","action_history":"[1,1,0,1,1,0,0,0,0,0,1]","door_history":"[1,1,0,1,1,0,0,0,0,0,1]","location_rts":"[2487,1283,1031,1845,917,1811,2425,476,463,677,488]","trial_type":"two-door-navigation","trial_index":39,"time_elapsed":876044,"internal_node_id":"0.0-2.0-37.0"},{"group":"hexagon_tri","room_assignment":["red","purple","grey","blue","yellow","green"],"door_color_assignment":["white","black"],"door_generator_assignment":[0,1],"goal":1,"start":2,"action_noise":0.15,"location_history":"[2,3,4,0,1]","action_history":"[1,1,1,1]","door_history":"[1,1,1,1]","location_rts":"[1669,2286,2903,1660]","trial_type":"two-door-navigation","trial_index":40,"time_elapsed":892450,"internal_node_id":"0.0-2.0-38.0"},{"group":"hexagon_tri","room_assignment":["red","purple","grey","blue","yellow","green"],"door_color_assignment":["white","black"],"door_generator_assignment":[0,1],"goal":4,"start":1,"action_noise":0.15,"location_history":"[1,3,2,3,2,3,4]","action_history":"[0,0,0,0,1,1]","door_history":"[0,0,0,0,1,1]","location_rts":"[5127,1231,723,1163,854,1195]","trial_type":"two-door-navigation","trial_index":41,"time_elapsed":912687,"internal_node_id":"0.0-2.0-39.0"},{"group":"hexagon_tri","room_assignment":["red","purple","grey","blue","yellow","green"],"door_color_assignment":["white","black"],"door_generator_assignment":[0,1],"goal":3,"start":4,"action_noise":0.15,"location_history":"[4,2,1,5,4,2,3]","action_history":"[0,0,0,0,1,1]","door_history":"[0,0,0,0,1,1]","location_rts":"[3698,771,814,1611,596,2179]","trial_type":"two-door-navigation","trial_index":42,"time_elapsed":932325,"internal_node_id":"0.0-2.0-40.0"},{"group":"hexagon_tri","room_assignment":["red","purple","grey","blue","yellow","green"],"door_color_assignment":["white","black"],"door_generator_assignment":[0,1],"goal":5,"start":3,"action_noise":0.15,"location_history":"[3,4,0,5]","action_history":"[1,0,0]","door_history":"[1,0,0]","location_rts":"[4781,1914,1221]","trial_type":"two-door-navigation","trial_index":43,"time_elapsed":946967,"internal_node_id":"0.0-2.0-41.0"},{"group":"hexagon_tri","room_assignment":["red","purple","grey","blue","yellow","green"],"door_color_assignment":["white","black"],"door_generator_assignment":[0,1],"goal":3,"start":5,"action_noise":0.15,"location_history":"[5,0,5,0,1,3]","action_history":"[0,1,1,1,0]","door_history":"[0,1,1,1,0]","location_rts":"[2761,919,1515,1174,1540]","trial_type":"two-door-navigation","trial_index":44,"time_elapsed":963663,"internal_node_id":"0.0-2.0-42.0"},{"group":"hexagon_tri","room_assignment":["red","purple","grey","blue","yellow","green"],"door_color_assignment":["white","black"],"door_generator_assignment":[0,1],"goal":0,"start":3,"action_noise":0.15,"location_history":"[3,2,1,5,0]","action_history":"[0,0,1,1]","door_history":"[0,0,1,1]","location_rts":"[2697,1519,807,1671]","trial_type":"two-door-navigation","trial_index":45,"time_elapsed":978126,"internal_node_id":"0.0-2.0-43.0"},{"group":"hexagon_tri","room_assignment":["red","purple","grey","blue","yellow","green"],"door_color_assignment":["white","black"],"door_generator_assignment":[0,1],"goal":2,"start":0,"action_noise":0.15,"location_history":"[0,1,3,2]","action_history":"[1,0,0]","door_history":"[1,0,0]","location_rts":"[2800,742,1446]","trial_type":"two-door-navigation","trial_index":46,"time_elapsed":989778,"internal_node_id":"0.0-2.0-44.0"},{"group":"hexagon_tri","room_assignment":["red","purple","grey","blue","yellow","green"],"door_color_assignment":["white","black"],"door_generator_assignment":[0,1],"goal":4,"start":2,"action_noise":0.15,"location_history":"[2,1,3,4]","action_history":"[0,0,1]","door_history":"[0,0,1]","location_rts":"[2647,1380,2588]","trial_type":"two-door-navigation","trial_index":47,"time_elapsed":1003170,"internal_node_id":"0.0-2.0-45.0"},{"group":"hexagon_tri","room_assignment":["red","purple","grey","blue","yellow","green"],"door_color_assignment":["white","black"],"door_generator_assignment":[0,1],"goal":1,"start":4,"action_noise":0.15,"location_history":"[4,2,3,2,1]","action_history":"[1,1,0,0]","door_history":"[1,1,0,0]","location_rts":"[3279,1968,893,1408]","trial_type":"two-door-navigation","trial_index":48,"time_elapsed":1018412,"internal_node_id":"0.0-2.0-46.0"},{"group":"hexagon_tri","room_assignment":["red","purple","grey","blue","yellow","green"],"door_color_assignment":["white","black"],"door_generator_assignment":[0,1],"goal":4,"start":1,"action_noise":0.15,"location_history":"[1,3,2,3,4]","action_history":"[0,0,1,0]","door_history":"[0,0,1,0]","location_rts":"[1852,1652,1016,1145]","trial_type":"two-door-navigation","trial_index":49,"time_elapsed":1031828,"internal_node_id":"0.0-2.0-47.0"},{"group":"hexagon_tri","room_assignment":["red","purple","grey","blue","yellow","green"],"door_color_assignment":["white","black"],"door_generator_assignment":[0,1],"goal":3,"start":4,"action_noise":0.15,"location_history":"[4,0,1,5,4,2,3]","action_history":"[0,1,1,0,1,1]","door_history":"[0,1,1,0,1,1]","location_rts":"[5130,1268,843,724,1609,1421]","trial_type":"two-door-navigation","trial_index":50,"time_elapsed":1052780,"internal_node_id":"0.0-2.0-48.0"},{"group":"hexagon_tri","room_assignment":["red","purple","grey","blue","yellow","green"],"door_color_assignment":["white","black"],"door_generator_assignment":[0,1],"goal":5,"start":3,"action_noise":0.15,"location_history":"[3,2,3,4,0,5]","action_history":"[0,1,1,0,1]","door_history":"[0,1,1,0,1]","location_rts":"[3732,948,653,1214,1465]","trial_type":"two-door-navigation","trial_index":51,"time_elapsed":1069721,"internal_node_id":"0.0-2.0-49.0"},{"view_history":"[{\"page_index\":0,\"viewing_time\":3141}]","rt":3142,"trial_type":"instructions","trial_index":52,"time_elapsed":1073864,"internal_node_id":"0.0-3.0"},{"view_history":"[{\"page_index\":0,\"viewing_time\":4939},{\"page_index\":1,\"viewing_time\":39511}]","rt":44451,"trial_type":"instructions","trial_index":53,"time_elapsed":1119315,"internal_node_id":"0.0-4.0"},{"group":"hexagon_tri","fractal_assignment":["../images/org_blu.png","../images/blu_wht.png","../images/pnk_blu.png","../images/gry_blk.png","../images/ylw_slt.png","../images/cyn_red.png"],"mutagen_generator_assignment":[1,0],"goal":4,"start":0,"action_noise":0.15,"location_history":"[0,1,5,0,5,4]","action_history":"[1,1,1,0,1]","mutagen_history":"[0,0,0,1,0]","location_rts":"[9968,6429,3391,1533,1671]","trial_type":"fractal-mutation","trial_index":54,"time_elapsed":1151141,"internal_node_id":"0.0-5.0-0.0"},{"group":"hexagon_tri","fractal_assignment":["../images/org_blu.png","../images/blu_wht.png","../images/pnk_blu.png","../images/gry_blk.png","../images/ylw_slt.png","../images/cyn_red.png"],"mutagen_generator_assignment":[1,0],"goal":3,"start":4,"action_noise":0.15,"location_history":"[4,2,3]","action_history":"[0,1]","mutagen_history":"[1,0]","location_rts":"[3132,2275]","trial_type":"fractal-mutation","trial_index":55,"time_elapsed":1162248,"internal_node_id":"0.0-5.0-1.0"},{"group":"hexagon_tri","fractal_assignment":["../images/org_blu.png","../images/blu_wht.png","../images/pnk_blu.png","../images/gry_blk.png","../images/ylw_slt.png","../images/cyn_red.png"],"mutagen_generator_assignment":[1,0],"goal":5,"start":3,"action_noise":0.15,"location_history":"[3,4,0,1,3,4,0,1,3,2,1,3,4,2,3,2,3,2,1,3,2,3,4,2,1,3,4,0,5]","action_history":"[0,1,1,1,1,0,1,0,0,0,0,1,1,1,0,1,0,0,0,0,1,1,1,0,0,1,0,0]","mutagen_history":"[1,0,0,0,0,1,0,1,1,1,1,0,0,0,1,0,1,1,1,1,0,0,0,1,1,0,1,1]","location_rts":"[3474,1044,752,684,2879,775,2696,1500,1315,1713,1352,962,1731,1474,1917,927,795,704,1431,1398,681,448,4556,1403,2216,2270,932,2183]","trial_type":"fractal-mutation","trial_index":56,"time_elapsed":1239507,"internal_node_id":"0.0-5.0-2.0"},{"group":"hexagon_tri","fractal_assignment":["../images/org_blu.png","../images/blu_wht.png","../images/pnk_blu.png","../images/gry_blk.png","../images/ylw_slt.png","../images/cyn_red.png"],"mutagen_generator_assignment":[1,0],"goal":2,"start":5,"action_noise":0.15,"location_history":"[5,4,2]","action_history":"[0,1]","mutagen_history":"[1,0]","location_rts":"[2471,1448]","trial_type":"fractal-mutation","trial_index":57,"time_elapsed":1249022,"internal_node_id":"0.0-5.0-3.0"},{"group":"hexagon_tri","fractal_assignment":["../images/org_blu.png","../images/blu_wht.png","../images/pnk_blu.png","../images/gry_blk.png","../images/ylw_slt.png","../images/cyn_red.png"],"mutagen_generator_assignment":[1,0],"goal":1,"start":2,"action_noise":0.15,"location_history":"[2,3,4,0,1]","action_history":"[1,1,1,1]","mutagen_history":"[0,0,0,0]","location_rts":"[3182,704,788,918]","trial_type":"fractal-mutation","trial_index":58,"time_elapsed":1262350,"internal_node_id":"0.0-5.0-4.0"},{"group":"hexagon_tri","fractal_assignment":["../images/org_blu.png","../images/blu_wht.png","../images/pnk_blu.png","../images/gry_blk.png","../images/ylw_slt.png","../images/cyn_red.png"],"mutagen_generator_assignment":[1,0],"goal":4,"start":1,"action_noise":0.15,"location_history":"[1,5,0,1,3,4]","action_history":"[1,1,1,0,1]","mutagen_history":"[0,0,0,1,0]","location_rts":"[1413,518,521,1728,1310]","trial_type":"fractal-mutation","trial_index":59,"time_elapsed":1276640,"internal_node_id":"0.0-5.0-5.0"},{"group":"hexagon_tri","fractal_assignment":["../images/org_blu.png","../images/blu_wht.png","../images/pnk_blu.png","../images/gry_blk.png","../images/ylw_slt.png","../images/cyn_red.png"],"mutagen_generator_assignment":[1,0],"goal":1,"start":4,"action_noise":0.15,"location_history":"[4,2,3,4,2,3,2,1]","action_history":"[0,1,1,1,1,0,0]","mutagen_history":"[1,0,0,0,0,1,1]","location_rts":"[5841,684,621,1406,1509,622,1778]","trial_type":"fractal-mutation","trial_index":60,"time_elapsed":1299905,"internal_node_id":"0.0-5.0-6.0"},{"group":"hexagon_tri","fractal_assignment":["../images/org_blu.png","../images/blu_wht.png","../images/pnk_blu.png","../images/gry_blk.png","../images/ylw_slt.png","../images/cyn_red.png"],"mutagen_generator_assignment":[1,0],"goal":5,"start":1,"action_noise":0.15,"location_history":"[1,5]","action_history":"[1]","mutagen_history":"[0]","location_rts":"[3681]","trial_type":"fractal-mutation","trial_index":61,"time_elapsed":1308148,"internal_node_id":"0.0-5.0-7.0"},{"group":"hexagon_tri","fractal_assignment":["../images/org_blu.png","../images/blu_wht.png","../images/pnk_blu.png","../images/gry_blk.png","../images/ylw_slt.png","../images/cyn_red.png"],"mutagen_generator_assignment":[1,0],"goal":0,"start":5,"action_noise":0.15,"location_history":"[5,0]","action_history":"[1]","mutagen_history":"[0]","location_rts":"[2998]","trial_type":"fractal-mutation","trial_index":62,"time_elapsed":1315701,"internal_node_id":"0.0-5.0-8.0"},{"group":"hexagon_tri","fractal_assignment":["../images/org_blu.png","../images/blu_wht.png","../images/pnk_blu.png","../images/gry_blk.png","../images/ylw_slt.png","../images/cyn_red.png"],"mutagen_generator_assignment":[1,0],"goal":2,"start":0,"action_noise":0.15,"location_history":"[0,1,3,2]","action_history":"[1,0,1]","mutagen_history":"[0,1,0]","location_rts":"[2261,1194,1420]","trial_type":"fractal-mutation","trial_index":63,"time_elapsed":1327307,"internal_node_id":"0.0-5.0-9.0"},{"group":"hexagon_tri","fractal_assignment":["../images/org_blu.png","../images/blu_wht.png","../images/pnk_blu.png","../images/gry_blk.png","../images/ylw_slt.png","../images/cyn_red.png"],"mutagen_generator_assignment":[1,0],"goal":3,"start":2,"action_noise":0.15,"location_history":"[2,1,5,4,2,3]","action_history":"[1,1,1,0,1]","mutagen_history":"[0,0,0,1,0]","location_rts":"[1309,741,830,819,786]","trial_type":"fractal-mutation","trial_index":64,"time_elapsed":1340514,"internal_node_id":"0.0-5.0-10.0"},{"group":"hexagon_tri","fractal_assignment":["../images/org_blu.png","../images/blu_wht.png","../images/pnk_blu.png","../images/gry_blk.png","../images/ylw_slt.png","../images/cyn_red.png"],"mutagen_generator_assignment":[1,0],"goal":0,"start":3,"action_noise":0.15,"location_history":"[3,2,3,2,1,5,0]","action_history":"[1,1,0,0,1,1]","mutagen_history":"[0,0,1,1,0,0]","location_rts":"[1720,1770,944,634,528,962]","trial_type":"fractal-mutation","trial_index":65,"time_elapsed":1356924,"internal_node_id":"0.0-5.0-11.0"},{"group":"hexagon_tri","fractal_assignment":["../images/org_blu.png","../images/blu_wht.png","../images/pnk_blu.png","../images/gry_blk.png","../images/ylw_slt.png","../images/cyn_red.png"],"mutagen_generator_assignment":[1,0],"goal":2,"start":0,"action_noise":0.15,"location_history":"[0,1,5,0,5,4,2]","action_history":"[1,1,1,0,0,1]","mutagen_history":"[0,0,0,1,1,0]","location_rts":"[2028,836,659,786,998,658]","trial_type":"fractal-mutation","trial_index":66,"time_elapsed":1372698,"internal_node_id":"0.0-5.0-12.0"},{"group":"hexagon_tri","fractal_assignment":["../images/org_blu.png","../images/blu_wht.png","../images/pnk_blu.png","../images/gry_blk.png","../images/ylw_slt.png","../images/cyn_red.png"],"mutagen_generator_assignment":[1,0],"goal":5,"start":2,"action_noise":0.15,"location_history":"[2,3,4,0,5]","action_history":"[1,0,0,1]","mutagen_history":"[0,1,1,0]","location_rts":"[2489,942,1999,905]","trial_type":"fractal-mutation","trial_index":67,"time_elapsed":1386818,"internal_node_id":"0.0-5.0-13.0"},{"group":"hexagon_tri","fractal_assignment":["../images/org_blu.png","../images/blu_wht.png","../images/pnk_blu.png","../images/gry_blk.png","../images/ylw_slt.png","../images/cyn_red.png"],"mutagen_generator_assignment":[1,0],"goal":4,"start":5,"action_noise":0.15,"location_history":"[5,0,5,4]","action_history":"[1,0,0]","mutagen_history":"[0,1,1]","location_rts":"[1518,830,1548]","trial_type":"fractal-mutation","trial_index":68,"time_elapsed":1397460,"internal_node_id":"0.0-5.0-14.0"},{"group":"hexagon_tri","fractal_assignment":["../images/org_blu.png","../images/blu_wht.png","../images/pnk_blu.png","../images/gry_blk.png","../images/ylw_slt.png","../images/cyn_red.png"],"mutagen_generator_assignment":[1,0],"goal":3,"start":4,"action_noise":0.15,"location_history":"[4,2,3]","action_history":"[1,1]","mutagen_history":"[0,0]","location_rts":"[2094,532]","trial_type":"fractal-mutation","trial_index":69,"time_elapsed":1405646,"internal_node_id":"0.0-5.0-15.0"},{"group":"hexagon_tri","fractal_assignment":["../images/org_blu.png","../images/blu_wht.png","../images/pnk_blu.png","../images/gry_blk.png","../images/ylw_slt.png","../images/cyn_red.png"],"mutagen_generator_assignment":[1,0],"goal":1,"start":3,"action_noise":0.15,"location_history":"[3,2,1]","action_history":"[0,0]","mutagen_history":"[1,1]","location_rts":"[1575,734]","trial_type":"fractal-mutation","trial_index":70,"time_elapsed":1413597,"internal_node_id":"0.0-5.0-16.0"},{"group":"hexagon_tri","fractal_assignment":["../images/org_blu.png","../images/blu_wht.png","../images/pnk_blu.png","../images/gry_blk.png","../images/ylw_slt.png","../images/cyn_red.png"],"mutagen_generator_assignment":[1,0],"goal":5,"start":1,"action_noise":0.15,"location_history":"[1,5]","action_history":"[1]","mutagen_history":"[0]","location_rts":"[3349]","trial_type":"fractal-mutation","trial_index":71,"time_elapsed":1421466,"internal_node_id":"0.0-5.0-17.0"},{"group":"hexagon_tri","fractal_assignment":["../images/org_blu.png","../images/blu_wht.png","../images/pnk_blu.png","../images/gry_blk.png","../images/ylw_slt.png","../images/cyn_red.png"],"mutagen_generator_assignment":[1,0],"goal":4,"start":5,"action_noise":0.15,"location_history":"[5,0,5,0,1,5,4]","action_history":"[1,0,0,1,1,1]","mutagen_history":"[0,1,1,0,0,0]","location_rts":"[2664,959,1107,1112,899,1006]","trial_type":"fractal-mutation","trial_index":72,"time_elapsed":1438974,"internal_node_id":"0.0-5.0-18.0"},{"group":"hexagon_tri","fractal_assignment":["../images/org_blu.png","../images/blu_wht.png","../images/pnk_blu.png","../images/gry_blk.png","../images/ylw_slt.png","../images/cyn_red.png"],"mutagen_generator_assignment":[1,0],"goal":0,"start":4,"action_noise":0.15,"location_history":"[4,2,1,5,0]","action_history":"[1,0,0,1]","mutagen_history":"[0,1,1,0]","location_rts":"[1481,899,1755,779]","trial_type":"fractal-mutation","trial_index":73,"time_elapsed":1451633,"internal_node_id":"0.0-5.0-19.0"},{"group":"hexagon_tri","fractal_assignment":["../images/org_blu.png","../images/blu_wht.png","../images/pnk_blu.png","../images/gry_blk.png","../images/ylw_slt.png","../images/cyn_red.png"],"mutagen_generator_assignment":[1,0],"goal":1,"start":0,"action_noise":0.15,"location_history":"[0,1]","action_history":"[1]","mutagen_history":"[0]","location_rts":"[1993]","trial_type":"fractal-mutation","trial_index":74,"time_elapsed":1458202,"internal_node_id":"0.0-5.0-20.0"},{"group":"hexagon_tri","fractal_assignment":["../images/org_blu.png","../images/blu_wht.png","../images/pnk_blu.png","../images/gry_blk.png","../images/ylw_slt.png","../images/cyn_red.png"],"mutagen_generator_assignment":[1,0],"goal":3,"start":1,"action_noise":0.15,"location_history":"[1,3]","action_history":"[0]","mutagen_history":"[1]","location_rts":"[3121]","trial_type":"fractal-mutation","trial_index":75,"time_elapsed":1465882,"internal_node_id":"0.0-5.0-21.0"},{"group":"hexagon_tri","fractal_assignment":["../images/org_blu.png","../images/blu_wht.png","../images/pnk_blu.png","../images/gry_blk.png","../images/ylw_slt.png","../images/cyn_red.png"],"mutagen_generator_assignment":[1,0],"goal":2,"start":3,"action_noise":0.15,"location_history":"[3,2]","action_history":"[0]","mutagen_history":"[1]","location_rts":"[3443]","trial_type":"fractal-mutation","trial_index":76,"time_elapsed":1473888,"internal_node_id":"0.0-5.0-22.0"},{"group":"hexagon_tri","fractal_assignment":["../images/org_blu.png","../images/blu_wht.png","../images/pnk_blu.png","../images/gry_blk.png","../images/ylw_slt.png","../images/cyn_red.png"],"mutagen_generator_assignment":[1,0],"goal":0,"start":2,"action_noise":0.15,"location_history":"[2,3,4,2,1,3,2,3,4,0]","action_history":"[1,1,1,0,0,1,1,1,0]","mutagen_history":"[0,0,0,1,1,0,0,0,1]","location_rts":"[2236,706,1378,1029,1288,924,615,479,406]","trial_type":"fractal-mutation","trial_index":77,"time_elapsed":1495866,"internal_node_id":"0.0-5.0-23.0"},{"group":"hexagon_tri","fractal_assignment":["../images/org_blu.png","../images/blu_wht.png","../images/pnk_blu.png","../images/gry_blk.png","../images/ylw_slt.png","../images/cyn_red.png"],"mutagen_generator_assignment":[1,0],"goal":3,"start":0,"action_noise":0.15,"location_history":"[0,1,3]","action_history":"[1,0]","mutagen_history":"[0,1]","location_rts":"[1203,1047]","trial_type":"fractal-mutation","trial_index":78,"time_elapsed":1503723,"internal_node_id":"0.0-5.0-24.0"},{"group":"hexagon_tri","fractal_assignment":["../images/org_blu.png","../images/blu_wht.png","../images/pnk_blu.png","../images/gry_blk.png","../images/ylw_slt.png","../images/cyn_red.png"],"mutagen_generator_assignment":[1,0],"goal":1,"start":3,"action_noise":0.15,"location_history":"[3,2,1]","action_history":"[0,0]","mutagen_history":"[1,1]","location_rts":"[1987,859]","trial_type":"fractal-mutation","trial_index":79,"time_elapsed":1512241,"internal_node_id":"0.0-5.0-25.0"},{"group":"hexagon_tri","fractal_assignment":["../images/org_blu.png","../images/blu_wht.png","../images/pnk_blu.png","../images/gry_blk.png","../images/ylw_slt.png","../images/cyn_red.png"],"mutagen_generator_assignment":[1,0],"goal":2,"start":1,"action_noise":0.15,"location_history":"[1,5,0,1,5,4,2]","action_history":"[1,0,1,1,0,1]","mutagen_history":"[0,1,0,0,1,0]","location_rts":"[1375,823,1013,754,587,745]","trial_type":"fractal-mutation","trial_index":80,"time_elapsed":1527276,"internal_node_id":"0.0-5.0-26.0"},{"group":"hexagon_tri","fractal_assignment":["../images/org_blu.png","../images/blu_wht.png","../images/pnk_blu.png","../images/gry_blk.png","../images/ylw_slt.png","../images/cyn_red.png"],"mutagen_generator_assignment":[1,0],"goal":5,"start":2,"action_noise":0.15,"location_history":"[2,3,2,1,5]","action_history":"[1,0,0,1]","mutagen_history":"[0,1,1,0]","location_rts":"[1676,1080,605,717]","trial_type":"fractal-mutation","trial_index":81,"time_elapsed":1539182,"internal_node_id":"0.0-5.0-27.0"},{"group":"hexagon_tri","fractal_assignment":["../images/org_blu.png","../images/blu_wht.png","../images/pnk_blu.png","../images/gry_blk.png","../images/ylw_slt.png","../images/cyn_red.png"],"mutagen_generator_assignment":[1,0],"goal":4,"start":5,"action_noise":0.15,"location_history":"[5,0,5,4]","action_history":"[1,0,0]","mutagen_history":"[0,1,1]","location_rts":"[1057,1894,1025]","trial_type":"fractal-mutation","trial_index":82,"time_elapsed":1549909,"internal_node_id":"0.0-5.0-28.0"},{"group":"hexagon_tri","fractal_assignment":["../images/org_blu.png","../images/blu_wht.png","../images/pnk_blu.png","../images/gry_blk.png","../images/ylw_slt.png","../images/cyn_red.png"],"mutagen_generator_assignment":[1,0],"goal":5,"start":4,"action_noise":0.15,"location_history":"[4,2,1,5]","action_history":"[1,0,0]","mutagen_history":"[0,1,1]","location_rts":"[3506,1689,2639]","trial_type":"fractal-mutation","trial_index":83,"time_elapsed":1564407,"internal_node_id":"0.0-5.0-29.0"},{"group":"hexagon_tri","fractal_assignment":["../images/org_blu.png","../images/blu_wht.png","../images/pnk_blu.png","../images/gry_blk.png","../images/ylw_slt.png","../images/cyn_red.png"],"mutagen_generator_assignment":[1,0],"goal":3,"start":5,"action_noise":0.15,"location_history":"[5,4,0,5,0,1,5,0,1,5,4,2,1,5,4,0,1,5,0,5,0,5,4,0,5,4,2,1,3]","action_history":"[1,0,0,1,1,1,0,1,0,0,0,1,1,0,0,1,1,1,0,1,0,0,0,0,0,1,0,0]","mutagen_history":"[0,1,1,0,0,0,1,0,1,1,1,0,0,1,1,0,0,0,1,0,1,1,1,1,1,0,1,1]","location_rts":"[4506,1582,1120,1744,550,1579,1185,1017,1435,1120,1026,805,1320,1510,1511,865,1683,1325,933,1060,2023,384,475,943,1144,462,1405,1082]","trial_type":"fractal-mutation","trial_index":84,"time_elapsed":1633483,"internal_node_id":"0.0-5.0-30.0"},{"group":"hexagon_tri","fractal_assignment":["../images/org_blu.png","../images/blu_wht.png","../images/pnk_blu.png","../images/gry_blk.png","../images/ylw_slt.png","../images/cyn_red.png"],"mutagen_generator_assignment":[1,0],"goal":0,"start":3,"action_noise":0.15,"location_history":"[3,4,0]","action_history":"[1,1]","mutagen_history":"[0,0]","location_rts":"[2466,2000]","trial_type":"fractal-mutation","trial_index":85,"time_elapsed":1643601,"internal_node_id":"0.0-5.0-31.0"},{"group":"hexagon_tri","fractal_assignment":["../images/org_blu.png","../images/blu_wht.png","../images/pnk_blu.png","../images/gry_blk.png","../images/ylw_slt.png","../images/cyn_red.png"],"mutagen_generator_assignment":[1,0],"goal":4,"start":0,"action_noise":0.15,"location_history":"[0,1,3,2,3,4]","action_history":"[1,1,0,1,1]","mutagen_history":"[0,0,1,0,0]","location_rts":"[1260,1049,831,650,871]","trial_type":"fractal-mutation","trial_index":86,"time_elapsed":1657055,"internal_node_id":"0.0-5.0-32.0"},{"group":"hexagon_tri","fractal_assignment":["../images/org_blu.png","../images/blu_wht.png","../images/pnk_blu.png","../images/gry_blk.png","../images/ylw_slt.png","../images/cyn_red.png"],"mutagen_generator_assignment":[1,0],"goal":1,"start":4,"action_noise":0.15,"location_history":"[4,0,1]","action_history":"[0,1]","mutagen_history":"[1,0]","location_rts":"[2109,1030]","trial_type":"fractal-mutation","trial_index":87,"time_elapsed":1665747,"internal_node_id":"0.0-5.0-33.0"},{"group":"hexagon_tri","fractal_assignment":["../images/org_blu.png","../images/blu_wht.png","../images/pnk_blu.png","../images/gry_blk.png","../images/ylw_slt.png","../images/cyn_red.png"],"mutagen_generator_assignment":[1,0],"goal":2,"start":1,"action_noise":0.15,"location_history":"[1,3,2]","action_history":"[1,0]","mutagen_history":"[0,1]","location_rts":"[2953,1373]","trial_type":"fractal-mutation","trial_index":88,"time_elapsed":1675647,"internal_node_id":"0.0-5.0-34.0"},{"group":"hexagon_tri","fractal_assignment":["../images/org_blu.png","../images/blu_wht.png","../images/pnk_blu.png","../images/gry_blk.png","../images/ylw_slt.png","../images/cyn_red.png"],"mutagen_generator_assignment":[1,0],"goal":0,"start":2,"action_noise":0.15,"location_history":"[2,1,5,4,0]","action_history":"[0,1,1,0]","mutagen_history":"[1,0,0,1]","location_rts":"[1489,1133,1457,1852]","trial_type":"fractal-mutation","trial_index":89,"time_elapsed":1689286,"internal_node_id":"0.0-5.0-35.0"},{"group":"hexagon_tri","fractal_assignment":["../images/org_blu.png","../images/blu_wht.png","../images/pnk_blu.png","../images/gry_blk.png","../images/ylw_slt.png","../images/cyn_red.png"],"mutagen_generator_assignment":[1,0],"goal":5,"start":0,"action_noise":0.15,"location_history":"[0,1,5]","action_history":"[1,1]","mutagen_history":"[0,0]","location_rts":"[1434,958]","trial_type":"fractal-mutation","trial_index":90,"time_elapsed":1697308,"internal_node_id":"0.0-5.0-36.0"},{"group":"hexagon_tri","fractal_assignment":["../images/org_blu.png","../images/blu_wht.png","../images/pnk_blu.png","../images/gry_blk.png","../images/ylw_slt.png","../images/cyn_red.png"],"mutagen_generator_assignment":[1,0],"goal":2,"start":5,"action_noise":0.15,"location_history":"[5,4,2]","action_history":"[0,1]","mutagen_history":"[1,0]","location_rts":"[4194,837]","trial_type":"fractal-mutation","trial_index":91,"time_elapsed":1707973,"internal_node_id":"0.0-5.0-37.0"},{"group":"hexagon_tri","fractal_assignment":["../images/org_blu.png","../images/blu_wht.png","../images/pnk_blu.png","../images/gry_blk.png","../images/ylw_slt.png","../images/cyn_red.png"],"mutagen_generator_assignment":[1,0],"goal":1,"start":2,"action_noise":0.15,"location_history":"[2,3,2,1]","action_history":"[0,0,0]","mutagen_history":"[1,1,1]","location_rts":"[2168,1033,1353]","trial_type":"fractal-mutation","trial_index":92,"time_elapsed":1719263,"internal_node_id":"0.0-5.0-38.0"},{"group":"hexagon_tri","fractal_assignment":["../images/org_blu.png","../images/blu_wht.png","../images/pnk_blu.png","../images/gry_blk.png","../images/ylw_slt.png","../images/cyn_red.png"],"mutagen_generator_assignment":[1,0],"goal":4,"start":1,"action_noise":0.15,"location_history":"[1,3,4]","action_history":"[1,1]","mutagen_history":"[0,0]","location_rts":"[1068,772]","trial_type":"fractal-mutation","trial_index":93,"time_elapsed":1726658,"internal_node_id":"0.0-5.0-39.0"},{"group":"hexagon_tri","fractal_assignment":["../images/org_blu.png","../images/blu_wht.png","../images/pnk_blu.png","../images/gry_blk.png","../images/ylw_slt.png","../images/cyn_red.png"],"mutagen_generator_assignment":[1,0],"goal":3,"start":4,"action_noise":0.15,"location_history":"[4,2,3]","action_history":"[1,0]","mutagen_history":"[0,1]","location_rts":"[1747,1039]","trial_type":"fractal-mutation","trial_index":94,"time_elapsed":1735115,"internal_node_id":"0.0-5.0-40.0"},{"group":"hexagon_tri","fractal_assignment":["../images/org_blu.png","../images/blu_wht.png","../images/pnk_blu.png","../images/gry_blk.png","../images/ylw_slt.png","../images/cyn_red.png"],"mutagen_generator_assignment":[1,0],"goal":5,"start":3,"action_noise":0.15,"location_history":"[3,2,3,4,0,1,5]","action_history":"[0,1,0,0,1,1]","mutagen_history":"[1,0,1,1,0,0]","location_rts":"[1390,648,1745,511,642,719]","trial_type":"fractal-mutation","trial_index":95,"time_elapsed":1750649,"internal_node_id":"0.0-5.0-41.0"},{"group":"hexagon_tri","fractal_assignment":["../images/org_blu.png","../images/blu_wht.png","../images/pnk_blu.png","../images/gry_blk.png","../images/ylw_slt.png","../images/cyn_red.png"],"mutagen_generator_assignment":[1,0],"goal":3,"start":5,"action_noise":0.15,"location_history":"[5,0,5,0,5,4,2,3]","action_history":"[1,1,1,0,0,1,1]","mutagen_history":"[0,0,0,1,1,0,0]","location_rts":"[2399,820,1724,400,1463,1085,1439]","trial_type":"fractal-mutation","trial_index":96,"time_elapsed":1770994,"internal_node_id":"0.0-5.0-42.0"},{"group":"hexagon_tri","fractal_assignment":["../images/org_blu.png","../images/blu_wht.png","../images/pnk_blu.png","../images/gry_blk.png","../images/ylw_slt.png","../images/cyn_red.png"],"mutagen_generator_assignment":[1,0],"goal":0,"start":3,"action_noise":0.15,"location_history":"[3,4,0]","action_history":"[1,1]","mutagen_history":"[0,0]","location_rts":"[1436,692]","trial_type":"fractal-mutation","trial_index":97,"time_elapsed":1778686,"internal_node_id":"0.0-5.0-43.0"},{"group":"hexagon_tri","fractal_assignment":["../images/org_blu.png","../images/blu_wht.png","../images/pnk_blu.png","../images/gry_blk.png","../images/ylw_slt.png","../images/cyn_red.png"],"mutagen_generator_assignment":[1,0],"goal":2,"start":0,"action_noise":0.15,"location_history":"[0,5,0,1,5,4,0,1,3,2]","action_history":"[0,1,1,1,0,0,1,0,0]","mutagen_history":"[1,0,0,0,1,1,0,1,1]","location_rts":"[2087,1088,1803,1452,748,532,1199,1378,755]","trial_type":"fractal-mutation","trial_index":98,"time_elapsed":1802891,"internal_node_id":"0.0-5.0-44.0"},{"group":"hexagon_tri","fractal_assignment":["../images/org_blu.png","../images/blu_wht.png","../images/pnk_blu.png","../images/gry_blk.png","../images/ylw_slt.png","../images/cyn_red.png"],"mutagen_generator_assignment":[1,0],"goal":4,"start":2,"action_noise":0.15,"location_history":"[2,1,5,0,5,4]","action_history":"[0,1,1,0,0]","mutagen_history":"[1,0,0,1,1]","location_rts":"[5260,563,663,686,793]","trial_type":"fractal-mutation","trial_index":99,"time_elapsed":1819747,"internal_node_id":"0.0-5.0-45.0"},{"group":"hexagon_tri","fractal_assignment":["../images/org_blu.png","../images/blu_wht.png","../images/pnk_blu.png","../images/gry_blk.png","../images/ylw_slt.png","../images/cyn_red.png"],"mutagen_generator_assignment":[1,0],"goal":1,"start":4,"action_noise":0.15,"location_history":"[4,0,5,4,2,1]","action_history":"[1,1,0,1,1]","mutagen_history":"[0,0,1,0,0]","location_rts":"[10990,751,1270,1051,640]","trial_type":"fractal-mutation","trial_index":100,"time_elapsed":1843188,"internal_node_id":"0.0-5.0-46.0"},{"group":"hexagon_tri","fractal_assignment":["../images/org_blu.png","../images/blu_wht.png","../images/pnk_blu.png","../images/gry_blk.png","../images/ylw_slt.png","../images/cyn_red.png"],"mutagen_generator_assignment":[1,0],"goal":4,"start":1,"action_noise":0.15,"location_history":"[1,3,4]","action_history":"[1,0]","mutagen_history":"[0,1]","location_rts":"[693,1425]","trial_type":"fractal-mutation","trial_index":101,"time_elapsed":1850943,"internal_node_id":"0.0-5.0-47.0"},{"group":"hexagon_tri","fractal_assignment":["../images/org_blu.png","../images/blu_wht.png","../images/pnk_blu.png","../images/gry_blk.png","../images/ylw_slt.png","../images/cyn_red.png"],"mutagen_generator_assignment":[1,0],"goal":3,"start":4,"action_noise":0.15,"location_history":"[4,0,1,5,4,0,5,0,5,4,0,5,4,2,1,3]","action_history":"[0,1,1,0,0,0,1,1,0,0,0,0,1,1,0]","mutagen_history":"[1,0,0,1,1,1,0,0,1,1,1,1,0,0,1]","location_rts":"[1673,1822,625,950,393,744,592,2396,1989,824,934,2139,700,1506,1353]","trial_type":"fractal-mutation","trial_index":102,"time_elapsed":1888936,"internal_node_id":"0.0-5.0-48.0"},{"group":"hexagon_tri","fractal_assignment":["../images/org_blu.png","../images/blu_wht.png","../images/pnk_blu.png","../images/gry_blk.png","../images/ylw_slt.png","../images/cyn_red.png"],"mutagen_generator_assignment":[1,0],"goal":5,"start":3,"action_noise":0.15,"location_history":"[3,4,0,1,3,4,2,3,4,2,1,5]","action_history":"[1,0,1,0,1,1,1,1,0,0,1]","mutagen_history":"[0,1,0,1,0,0,0,0,1,1,0]","location_rts":"[1320,1315,798,2458,1153,658,779,1716,423,437,337]","trial_type":"fractal-mutation","trial_index":103,"time_elapsed":1915455,"internal_node_id":"0.0-5.0-49.0"},{"view_history":"[{\"page_index\":0,\"viewing_time\":42412}]","rt":42414,"trial_type":"instructions","trial_index":104,"time_elapsed":1958869,"internal_node_id":"0.0-6.0"},{"rt":3939,"responses":"{\"Q0\":\"\"}","trial_type":"survey-text","trial_index":105,"time_elapsed":1963856,"internal_node_id":"0.0-7.0"}]