[{"view_history":"[{\"page_index\":0,\"viewing_time\":171292},{\"page_index\":1,\"viewing_time\":4432},{\"page_index\":2,\"viewing_time\":2424},{\"page_index\":1,\"viewing_time\":3243},{\"page_index\":2,\"viewing_time\":11254},{\"page_index\":3,\"viewing_time\":3553}]","rt":196199,"trial_type":"instructions","trial_index":0,"time_elapsed":196200,"internal_node_id":"0.0-0.0"},{"view_history":"[{\"page_index\":0,\"viewing_time\":1155},{\"page_index\":1,\"viewing_time\":37887}]","rt":39044,"trial_type":"instructions","trial_index":1,"time_elapsed":236245,"internal_node_id":"0.0-1.0"},{"group":"hexagon_bi","room_assignment":["yellow","red","blue","grey","green","purple"],"door_color_assignment":["white","black"],"door_generator_assignment":[0,1],"goal":4,"start":0,"action_noise":0.15,"location_history":"[0,1,0,1,0,5,0,5,4]","action_history":"[1,1,1,1,0,0,0,1]","door_history":"[1,1,1,1,0,0,0,1]","location_rts":"[3333,1382,1440,775,1158,992,716,828]","trial_type":"two-door-navigation","trial_index":2,"time_elapsed":267476,"internal_node_id":"0.0-2.0-0.0"},{"group":"hexagon_bi","room_assignment":["yellow","red","blue","grey","green","purple"],"door_color_assignment":["white","black"],"door_generator_assignment":[0,1],"goal":3,"start":4,"action_noise":0.15,"location_history":"[4,5,0,1,0,1,0,1,2,1,0,5,4,5,4,3]","action_history":"[1,0,0,0,1,1,1,0,0,0,1,1,1,1,0]","door_history":"[1,0,0,0,1,1,1,0,0,0,1,1,1,1,0]","location_rts":"[2491,960,913,1640,871,727,704,542,845,780,634,788,918,789,765]","trial_type":"two-door-navigation","trial_index":3,"time_elapsed":308920,"internal_node_id":"0.0-2.0-1.0"},{"group":"hexagon_bi","room_assignment":["yellow","red","blue","grey","green","purple"],"door_color_assignment":["white","black"],"door_generator_assignment":[0,1],"goal":5,"start":3,"action_noise":0.15,"location_history":"[3,2,1,2,1,0,1,2,1,2,3,2,3,2,1,2,3,2,3,2,1,2,3,4,5]","action_history":"[1,0,0,0,1,0,0,0,0,1,1,1,1,0,0,1,1,0,0,0,0,0,0,0]","door_history":"[1,0,0,0,1,0,0,0,0,1,1,1,1,0,0,1,1,0,0,0,0,0,0,0]","location_rts":"[2817,1004,568,614,459,440,442,474,454,501,630,490,432,684,380,389,675,984,601,479,545,1008,606,768]","trial_type":"two-door-navigation","trial_index":4,"time_elapsed":379161,"internal_node_id":"0.0-2.0-2.0"},{"group":"hexagon_bi","room_assignment":["yellow","red","blue","grey","green","purple"],"door_color_assignment":["white","black"],"door_generator_assignment":[0,1],"goal":2,"start":5,"action_noise":0.15,"location_history":"[5,4,5,0,5,0,5,4,5,0,1,0,1,2]","action_history":"[1,1,1,0,0,0,1,1,1,1,1,1,0]","door_history":"[1,1,1,0,0,0,1,1,1,1,1,1,0]","location_rts":"[2600,997,1894,899,1441,2005,647,423,505,503,507,556,398]","trial_type":"two-door-navigation","trial_index":5,"time_elapsed":423585,"internal_node_id":"0.0-2.0-3.0"},{"group":"hexagon_bi","room_assignment":["yellow","red","blue","grey","green","purple"],"door_color_assignment":["white","black"],"door_generator_assignment":[0,1],"goal":1,"start":2,"action_noise":0.15,"location_history":"[2,3,4,5,0,1]","action_history":"[1,1,1,0,0]","door_history":"[1,1,1,0,0]","location_rts":"[2110,465,471,879,388]","trial_type":"two-door-navigation","trial_index":6,"time_elapsed":443510,"internal_node_id":"0.0-2.0-4.0"},{"group":"hexagon_bi","room_assignment":["yellow","red","blue","grey","green","purple"],"door_color_assignment":["white","black"],"door_generator_assignment":[0,1],"goal":4,"start":1,"action_noise":0.15,"location_history":"[1,2,3,2,1,2,1,0,1,0,1,2,1,2,3,4]","action_history":"[0,1,1,0,0,0,1,1,1,1,0,0,0,1,0]","door_history":"[0,1,1,0,0,0,1,1,1,1,0,0,0,1,0]","location_rts":"[419,524,892,460,367,427,359,488,465,643,569,477,921,621,1953]","trial_type":"two-door-navigation","trial_index":7,"time_elapsed":487879,"internal_node_id":"0.0-2.0-5.0"},{"group":"hexagon_bi","room_assignment":["yellow","red","blue","grey","green","purple"],"door_color_assignment":["white","black"],"door_generator_assignment":[0,1],"goal":1,"start":4,"action_noise":0.15,"location_history":"[4,5,4,5,0,5,0,5,4,5,0,1]","action_history":"[1,1,1,0,0,0,0,1,1,0,1]","door_history":"[1,1,1,0,0,0,0,1,1,0,1]","location_rts":"[1953,558,1196,351,422,474,538,383,609,690,961]","trial_type":"two-door-navigation","trial_index":8,"time_elapsed":524809,"internal_node_id":"0.0-2.0-6.0"},{"group":"hexagon_bi","room_assignment":["yellow","red","blue","grey","green","purple"],"door_color_assignment":["white","black"],"door_generator_assignment":[0,1],"goal":5,"start":1,"action_noise":0.15,"location_history":"[1,0,5]","action_history":"[1,0]","door_history":"[1,0]","location_rts":"[1244,1013]","trial_type":"two-door-navigation","trial_index":9,"time_elapsed":535097,"internal_node_id":"0.0-2.0-7.0"},{"group":"hexagon_bi","room_assignment":["yellow","red","blue","grey","green","purple"],"door_color_assignment":["white","black"],"door_generator_assignment":[0,1],"goal":0,"start":5,"action_noise":0.15,"location_history":"[5,4,5,0]","action_history":"[1,1,1]","door_history":"[1,1,1]","location_rts":"[1304,1104,1159]","trial_type":"two-door-navigation","trial_index":10,"time_elapsed":547162,"internal_node_id":"0.0-2.0-8.0"},{"group":"hexagon_bi","room_assignment":["yellow","red","blue","grey","green","purple"],"door_color_assignment":["white","black"],"door_generator_assignment":[0,1],"goal":2,"start":0,"action_noise":0.15,"location_history":"[0,1,2]","action_history":"[1,0]","door_history":"[1,0]","location_rts":"[621,500]","trial_type":"two-door-navigation","trial_index":11,"time_elapsed":556895,"internal_node_id":"0.0-2.0-9.0"},{"group":"hexagon_bi","room_assignment":["yellow","red","blue","grey","green","purple"],"door_color_assignment":["white","black"],"door_generator_assignment":[0,1],"goal":3,"start":2,"action_noise":0.15,"location_history":"[2,3]","action_history":"[1]","door_history":"[1]","location_rts":"[1853]","trial_type":"two-door-navigation","trial_index":12,"time_elapsed":565618,"internal_node_id":"0.0-2.0-10.0"},{"group":"hexagon_bi","room_assignment":["yellow","red","blue","grey","green","purple"],"door_color_assignment":["white","black"],"door_generator_assignment":[0,1],"goal":0,"start":3,"action_noise":0.15,"location_history":"[3,4,5,4,5,4,3,2,1,2,3,4,5,4,3,4,3,2,1,0]","action_history":"[0,1,1,1,1,0,0,0,0,1,1,1,0,0,0,0,1,0,1]","door_history":"[0,1,1,1,1,0,0,0,0,1,1,1,0,0,0,0,1,0,1]","location_rts":"[4170,435,639,447,462,380,372,359,418,509,433,466,611,459,443,581,378,482,407]","trial_type":"two-door-navigation","trial_index":13,"time_elapsed":618083,"internal_node_id":"0.0-2.0-11.0"},{"group":"hexagon_bi","room_assignment":["yellow","red","blue","grey","green","purple"],"door_color_assignment":["white","black"],"door_generator_assignment":[0,1],"goal":2,"start":0,"action_noise":0.15,"location_history":"[0,1,2]","action_history":"[1,0]","door_history":"[1,0]","location_rts":"[783,356]","trial_type":"two-door-navigation","trial_index":14,"time_elapsed":627553,"internal_node_id":"0.0-2.0-12.0"},{"group":"hexagon_bi","room_assignment":["yellow","red","blue","grey","green","purple"],"door_color_assignment":["white","black"],"door_generator_assignment":[0,1],"goal":5,"start":2,"action_noise":0.15,"location_history":"[2,3,4,5]","action_history":"[0,0,1]","door_history":"[0,0,1]","location_rts":"[1644,620,604]","trial_type":"two-door-navigation","trial_index":15,"time_elapsed":642120,"internal_node_id":"0.0-2.0-13.0"},{"group":"hexagon_bi","room_assignment":["yellow","red","blue","grey","green","purple"],"door_color_assignment":["white","black"],"door_generator_assignment":[0,1],"goal":4,"start":5,"action_noise":0.15,"location_history":"[5,4]","action_history":"[1]","door_history":"[1]","location_rts":"[2396]","trial_type":"two-door-navigation","trial_index":16,"time_elapsed":649674,"internal_node_id":"0.0-2.0-14.0"},{"group":"hexagon_bi","room_assignment":["yellow","red","blue","grey","green","purple"],"door_color_assignment":["white","black"],"door_generator_assignment":[0,1],"goal":3,"start":4,"action_noise":0.15,"location_history":"[4,3]","action_history":"[0]","door_history":"[0]","location_rts":"[1920]","trial_type":"two-door-navigation","trial_index":17,"time_elapsed":659650,"internal_node_id":"0.0-2.0-15.0"},{"group":"hexagon_bi","room_assignment":["yellow","red","blue","grey","green","purple"],"door_color_assignment":["white","black"],"door_generator_assignment":[0,1],"goal":1,"start":3,"action_noise":0.15,"location_history":"[3,2,1]","action_history":"[1,1]","door_history":"[1,1]","location_rts":"[1701,535]","trial_type":"two-door-navigation","trial_index":18,"time_elapsed":669605,"internal_node_id":"0.0-2.0-16.0"},{"group":"hexagon_bi","room_assignment":["yellow","red","blue","grey","green","purple"],"door_color_assignment":["white","black"],"door_generator_assignment":[0,1],"goal":5,"start":1,"action_noise":0.15,"location_history":"[1,2,3,4,5]","action_history":"[1,1,0,1]","door_history":"[1,1,0,1]","location_rts":"[835,1096,1296,584]","trial_type":"two-door-navigation","trial_index":19,"time_elapsed":689751,"internal_node_id":"0.0-2.0-17.0"},{"group":"hexagon_bi","room_assignment":["yellow","red","blue","grey","green","purple"],"door_color_assignment":["white","black"],"door_generator_assignment":[0,1],"goal":4,"start":5,"action_noise":0.15,"location_history":"[5,4]","action_history":"[1]","door_history":"[1]","location_rts":"[1551]","trial_type":"two-door-navigation","trial_index":20,"time_elapsed":698468,"internal_node_id":"0.0-2.0-18.0"},{"group":"hexagon_bi","room_assignment":["yellow","red","blue","grey","green","purple"],"door_color_assignment":["white","black"],"door_generator_assignment":[0,1],"goal":0,"start":4,"action_noise":0.15,"location_history":"[4,3,2,1,2,1,0]","action_history":"[1,1,0,0,0,1]","door_history":"[1,1,0,0,0,1]","location_rts":"[1422,476,518,419,490,506]","trial_type":"two-door-navigation","trial_index":21,"time_elapsed":719592,"internal_node_id":"0.0-2.0-19.0"},{"group":"hexagon_bi","room_assignment":["yellow","red","blue","grey","green","purple"],"door_color_assignment":["white","black"],"door_generator_assignment":[0,1],"goal":1,"start":0,"action_noise":0.15,"location_history":"[0,1]","action_history":"[1]","door_history":"[1]","location_rts":"[361]","trial_type":"two-door-navigation","trial_index":22,"time_elapsed":725502,"internal_node_id":"0.0-2.0-20.0"},{"group":"hexagon_bi","room_assignment":["yellow","red","blue","grey","green","purple"],"door_color_assignment":["white","black"],"door_generator_assignment":[0,1],"goal":3,"start":1,"action_noise":0.15,"location_history":"[1,2,1,0,1,2,1,2,1,0,1,0,1,2,3]","action_history":"[0,0,1,1,0,1,0,0,1,1,1,0,0,1]","door_history":"[0,0,1,1,0,1,0,0,1,1,1,0,0,1]","location_rts":"[1666,571,413,517,534,419,749,485,774,1626,1577,1498,1536,513]","trial_type":"two-door-navigation","trial_index":23,"time_elapsed":778358,"internal_node_id":"0.0-2.0-21.0"},{"group":"hexagon_bi","room_assignment":["yellow","red","blue","grey","green","purple"],"door_color_assignment":["white","black"],"door_generator_assignment":[0,1],"goal":2,"start":3,"action_noise":0.15,"location_history":"[3,4,5,0,1,0,1,0,1,0,1,0,5,0,5,4,3,4,5,4,5,4,5,4,3,4,3,2]","action_history":"[1,1,0,1,0,0,1,1,1,1,1,0,0,0,1,1,0,1,1,1,1,1,1,0,0,0,1]","door_history":"[1,1,0,1,0,0,1,1,1,1,1,0,0,0,1,1,0,1,1,1,1,1,1,0,0,0,1]","location_rts":"[402,1039,1153,3107,375,409,415,702,370,527,628,396,656,1792,604,473,516,946,456,408,451,614,620,401,1676,862,1492]","trial_type":"two-door-navigation","trial_index":24,"time_elapsed":859302,"internal_node_id":"0.0-2.0-22.0"},{"group":"hexagon_bi","room_assignment":["yellow","red","blue","grey","green","purple"],"door_color_assignment":["white","black"],"door_generator_assignment":[0,1],"goal":0,"start":2,"action_noise":0.15,"location_history":"[2,3,4,3,4,5,4,3,4,5,4,3,4,5,4,5,4,3,4,5,4,3,4,5,4,5,0]","action_history":"[1,0,1,1,1,0,0,0,1,1,0,0,1,1,1,1,1,0,1,0,0,1,1,1,1,0]","door_history":"[1,0,1,1,1,0,0,0,1,1,0,0,1,1,1,1,1,0,1,0,0,1,1,1,1,0]","location_rts":"[715,3176,861,1512,1436,384,616,1450,667,445,707,820,580,657,655,399,721,2003,679,413,1233,1468,849,963,468,455]","trial_type":"two-door-navigation","trial_index":25,"time_elapsed":944808,"internal_node_id":"0.0-2.0-23.0"},{"group":"hexagon_bi","room_assignment":["yellow","red","blue","grey","green","purple"],"door_color_assignment":["white","black"],"door_generator_assignment":[0,1],"goal":3,"start":0,"action_noise":0.15,"location_history":"[0,5,0,1,0,5,4,3]","action_history":"[0,0,0,1,1,1,0]","door_history":"[0,0,0,1,1,1,0]","location_rts":"[2173,960,2110,1594,1677,510,470]","trial_type":"two-door-navigation","trial_index":26,"time_elapsed":973855,"internal_node_id":"0.0-2.0-24.0"},{"group":"hexagon_bi","room_assignment":["yellow","red","blue","grey","green","purple"],"door_color_assignment":["white","black"],"door_generator_assignment":[0,1],"goal":1,"start":3,"action_noise":0.15,"location_history":"[3,2,3,2,1]","action_history":"[1,1,1,0]","door_history":"[1,1,1,0]","location_rts":"[608,9931,1818,3355]","trial_type":"two-door-navigation","trial_index":27,"time_elapsed":1003038,"internal_node_id":"0.0-2.0-25.0"},{"group":"hexagon_bi","room_assignment":["yellow","red","blue","grey","green","purple"],"door_color_assignment":["white","black"],"door_generator_assignment":[0,1],"goal":2,"start":1,"action_noise":0.15,"location_history":"[1,0,1,2]","action_history":"[1,1,0]","door_history":"[1,1,0]","location_rts":"[1941,1276,1054]","trial_type":"two-door-navigation","trial_index":28,"time_elapsed":1017619,"internal_node_id":"0.0-2.0-26.0"},{"group":"hexagon_bi","room_assignment":["yellow","red","blue","grey","green","purple"],"door_color_assignment":["white","black"],"door_generator_assignment":[0,1],"goal":5,"start":2,"action_noise":0.15,"location_history":"[2,3,2,3,4,5]","action_history":"[1,1,1,0,0]","door_history":"[1,1,1,0,0]","location_rts":"[2627,795,480,419,927]","trial_type":"two-door-navigation","trial_index":29,"time_elapsed":1034045,"internal_node_id":"0.0-2.0-27.0"},{"group":"hexagon_bi","room_assignment":["yellow","red","blue","grey","green","purple"],"door_color_assignment":["white","black"],"door_generator_assignment":[0,1],"goal":4,"start":5,"action_noise":0.15,"location_history":"[5,0,1,0,5,0,5,4]","action_history":"[0,1,1,1,0,0,1]","door_history":"[0,1,1,1,0,0,1]","location_rts":"[2787,1075,511,533,691,652,543]","trial_type":"two-door-navigation","trial_index":30,"time_elapsed":1054565,"internal_node_id":"0.0-2.0-28.0"},{"group":"hexagon_bi","room_assignment":["yellow","red","blue","grey","green","purple"],"door_color_assignment":["white","black"],"door_generator_assignment":[0,1],"goal":5,"start":4,"action_noise":0.15,"location_history":"[4,5]","action_history":"[1]","door_history":"[1]","location_rts":"[560]","trial_type":"two-door-navigation","trial_index":31,"time_elapsed":1059881,"internal_node_id":"0.0-2.0-29.0"},{"group":"hexagon_bi","room_assignment":["yellow","red","blue","grey","green","purple"],"door_color_assignment":["white","black"],"door_generator_assignment":[0,1],"goal":3,"start":5,"action_noise":0.15,"location_history":"[5,0,5,0,1,0,1,2,1,0,5,4,5,0,5,4,5,0,1,0,1,0,5,4,3]","action_history":"[0,0,0,0,1,1,0,0,1,0,1,1,1,0,1,1,1,1,1,1,0,0,1,0]","door_history":"[0,0,0,0,1,1,0,0,1,0,1,1,1,0,1,1,1,1,1,1,0,0,1,0]","location_rts":"[1687,1254,579,794,1021,533,611,1915,469,959,1882,972,894,2449,701,486,1059,1488,532,492,1181,1269,580,399]","trial_type":"two-door-navigation","trial_index":32,"time_elapsed":1136311,"internal_node_id":"0.0-2.0-30.0"},{"group":"hexagon_bi","room_assignment":["yellow","red","blue","grey","green","purple"],"door_color_assignment":["white","black"],"door_generator_assignment":[0,1],"goal":0,"start":3,"action_noise":0.15,"location_history":"[3,4,5,4,5,0]","action_history":"[0,1,1,1,0]","door_history":"[0,1,1,1,0]","location_rts":"[2381,1060,643,1129,316]","trial_type":"two-door-navigation","trial_index":33,"time_elapsed":1157364,"internal_node_id":"0.0-2.0-31.0"},{"group":"hexagon_bi","room_assignment":["yellow","red","blue","grey","green","purple"],"door_color_assignment":["white","black"],"door_generator_assignment":[0,1],"goal":4,"start":0,"action_noise":0.15,"location_history":"[0,1,2,1,2,1,0,5,4]","action_history":"[1,1,0,0,0,1,0,1]","door_history":"[1,1,0,0,0,1,0,1]","location_rts":"[3134,949,534,518,790,1235,1142,587]","trial_type":"two-door-navigation","trial_index":34,"time_elapsed":1191307,"internal_node_id":"0.0-2.0-32.0"},{"group":"hexagon_bi","room_assignment":["yellow","red","blue","grey","green","purple"],"door_color_assignment":["white","black"],"door_generator_assignment":[0,1],"goal":1,"start":4,"action_noise":0.15,"location_history":"[4,5,4,3,2,3,4,3,4,5,0,1]","action_history":"[0,0,0,1,1,0,0,0,0,0,1]","door_history":"[0,0,0,1,1,0,0,0,0,0,1]","location_rts":"[1879,1716,2388,1788,872,636,1095,1180,489,2150,2143]","trial_type":"two-door-navigation","trial_index":35,"time_elapsed":1238275,"internal_node_id":"0.0-2.0-33.0"},{"group":"hexagon_bi","room_assignment":["yellow","red","blue","grey","green","purple"],"door_color_assignment":["white","black"],"door_generator_assignment":[0,1],"goal":2,"start":1,"action_noise":0.15,"location_history":"[1,0,5,4,3,2]","action_history":"[1,1,1,0,0]","door_history":"[1,1,1,0,0]","location_rts":"[2053,769,1185,539,1266]","trial_type":"two-door-navigation","trial_index":36,"time_elapsed":1255684,"internal_node_id":"0.0-2.0-34.0"},{"group":"hexagon_bi","room_assignment":["yellow","red","blue","grey","green","purple"],"door_color_assignment":["white","black"],"door_generator_assignment":[0,1],"goal":0,"start":2,"action_noise":0.15,"location_history":"[2,1,2,1,0]","action_history":"[0,0,0,1]","door_history":"[0,0,0,1]","location_rts":"[1759,1137,1151,1173]","trial_type":"two-door-navigation","trial_index":37,"time_elapsed":1271104,"internal_node_id":"0.0-2.0-35.0"},{"group":"hexagon_bi","room_assignment":["yellow","red","blue","grey","green","purple"],"door_color_assignment":["white","black"],"door_generator_assignment":[0,1],"goal":5,"start":0,"action_noise":0.15,"location_history":"[0,1,2,3,2,1,2,1,0,5]","action_history":"[1,0,1,1,0,0,0,0,0]","door_history":"[1,0,1,1,0,0,0,0,0]","location_rts":"[1604,988,1146,1077,1476,561,566,516,708]","trial_type":"two-door-navigation","trial_index":38,"time_elapsed":1301021,"internal_node_id":"0.0-2.0-36.0"},{"group":"hexagon_bi","room_assignment":["yellow","red","blue","grey","green","purple"],"door_color_assignment":["white","black"],"door_generator_assignment":[0,1],"goal":2,"start":5,"action_noise":0.15,"location_history":"[5,0,5,0,1,0,1,2]","action_history":"[0,0,0,1,1,1,1]","door_history":"[0,0,0,1,1,1,1]","location_rts":"[1844,1246,401,1337,1026,738,1030]","trial_type":"two-door-navigation","trial_index":39,"time_elapsed":1324278,"internal_node_id":"0.0-2.0-37.0"},{"group":"hexagon_bi","room_assignment":["yellow","red","blue","grey","green","purple"],"door_color_assignment":["white","black"],"door_generator_assignment":[0,1],"goal":1,"start":2,"action_noise":0.15,"location_history":"[2,3,2,1]","action_history":"[1,1,0]","door_history":"[1,1,0]","location_rts":"[377,484,2216]","trial_type":"two-door-navigation","trial_index":40,"time_elapsed":1336346,"internal_node_id":"0.0-2.0-38.0"},{"group":"hexagon_bi","room_assignment":["yellow","red","blue","grey","green","purple"],"door_color_assignment":["white","black"],"door_generator_assignment":[0,1],"goal":4,"start":1,"action_noise":0.15,"location_history":"[1,0,5,4]","action_history":"[0,0,1]","door_history":"[0,0,1]","location_rts":"[2233,1093,1249]","trial_type":"two-door-navigation","trial_index":41,"time_elapsed":1350687,"internal_node_id":"0.0-2.0-39.0"},{"group":"hexagon_bi","room_assignment":["yellow","red","blue","grey","green","purple"],"door_color_assignment":["white","black"],"door_generator_assignment":[0,1],"goal":3,"start":4,"action_noise":0.15,"location_history":"[4,3]","action_history":"[0]","door_history":"[0]","location_rts":"[1612]","trial_type":"two-door-navigation","trial_index":42,"time_elapsed":1358390,"internal_node_id":"0.0-2.0-40.0"},{"group":"hexagon_bi","room_assignment":["yellow","red","blue","grey","green","purple"],"door_color_assignment":["white","black"],"door_generator_assignment":[0,1],"goal":5,"start":3,"action_noise":0.15,"location_history":"[3,4,5]","action_history":"[0,1]","door_history":"[0,1]","location_rts":"[2597,3104]","trial_type":"two-door-navigation","trial_index":43,"time_elapsed":1370487,"internal_node_id":"0.0-2.0-41.0"},{"group":"hexagon_bi","room_assignment":["yellow","red","blue","grey","green","purple"],"door_color_assignment":["white","black"],"door_generator_assignment":[0,1],"goal":3,"start":5,"action_noise":0.15,"location_history":"[5,4,5,0,5,4,3]","action_history":"[1,0,0,0,1,0]","door_history":"[1,0,0,0,1,0]","location_rts":"[8886,1282,782,536,525,302]","trial_type":"two-door-navigation","trial_index":44,"time_elapsed":1395869,"internal_node_id":"0.0-2.0-42.0"},{"group":"hexagon_bi","room_assignment":["yellow","red","blue","grey","green","purple"],"door_color_assignment":["white","black"],"door_generator_assignment":[0,1],"goal":0,"start":3,"action_noise":0.15,"location_history":"[3,2,1,0]","action_history":"[0,0,1]","door_history":"[0,0,1]","location_rts":"[2944,1460,731]","trial_type":"two-door-navigation","trial_index":45,"time_elapsed":1417666,"internal_node_id":"0.0-2.0-43.0"},{"group":"hexagon_bi","room_assignment":["yellow","red","blue","grey","green","purple"],"door_color_assignment":["white","black"],"door_generator_assignment":[0,1],"goal":2,"start":0,"action_noise":0.15,"location_history":"[0,1,0,5,0,5,0,1,2]","action_history":"[1,1,0,0,0,0,1,0]","door_history":"[1,1,0,0,0,0,1,0]","location_rts":"[2588,983,1061,1385,781,1023,1250,1233]","trial_type":"two-door-navigation","trial_index":46,"time_elapsed":1455158,"internal_node_id":"0.0-2.0-44.0"},{"group":"hexagon_bi","room_assignment":["yellow","red","blue","grey","green","purple"],"door_color_assignment":["white","black"],"door_generator_assignment":[0,1],"goal":4,"start":2,"action_noise":0.15,"location_history":"[2,3,2,1,2,1,2,3,2,3,4]","action_history":"[1,1,1,0,0,0,1,1,1,0]","door_history":"[1,1,1,0,0,0,1,1,1,0]","location_rts":"[1911,998,601,1956,653,728,392,897,555,668]","trial_type":"two-door-navigation","trial_index":47,"time_elapsed":1489957,"internal_node_id":"0.0-2.0-45.0"},{"group":"hexagon_bi","room_assignment":["yellow","red","blue","grey","green","purple"],"door_color_assignment":["white","black"],"door_generator_assignment":[0,1],"goal":1,"start":4,"action_noise":0.15,"location_history":"[4,5,4,3,2,3,4,3,4,5,0,1]","action_history":"[0,0,0,0,1,0,0,0,0,0,1]","door_history":"[0,0,0,0,1,0,0,0,0,0,1]","location_rts":"[1673,1328,2272,2615,906,607,839,1494,1614,2702,1819]","trial_type":"two-door-navigation","trial_index":48,"time_elapsed":1529373,"internal_node_id":"0.0-2.0-46.0"},{"group":"hexagon_bi","room_assignment":["yellow","red","blue","grey","green","purple"],"door_color_assignment":["white","black"],"door_generator_assignment":[0,1],"goal":4,"start":1,"action_noise":0.15,"location_history":"[1,0,1,2,1,0,1,0,1,2,1,2,3,2,1,2,3,4]","action_history":"[1,1,0,0,1,1,1,1,0,0,0,1,1,1,0,0,0]","door_history":"[1,1,0,0,1,1,1,1,0,0,0,1,1,1,0,0,0]","location_rts":"[1678,1424,2818,830,745,456,516,362,2036,1397,1575,1989,884,858,1471,1171,592]","trial_type":"two-door-navigation","trial_index":49,"time_elapsed":1591377,"internal_node_id":"0.0-2.0-47.0"},{"group":"hexagon_bi","room_assignment":["yellow","red","blue","grey","green","purple"],"door_color_assignment":["white","black"],"door_generator_assignment":[0,1],"goal":3,"start":4,"action_noise":0.15,"location_history":"[4,3]","action_history":"[0]","door_history":"[0]","location_rts":"[1942]","trial_type":"two-door-navigation","trial_index":50,"time_elapsed":1600359,"internal_node_id":"0.0-2.0-48.0"},{"group":"hexagon_bi","room_assignment":["yellow","red","blue","grey","green","purple"],"door_color_assignment":["white","black"],"door_generator_assignment":[0,1],"goal":5,"start":3,"action_noise":0.15,"location_history":"[3,2,3,2,1,0,5]","action_history":"[1,1,1,0,0,0]","door_history":"[1,1,1,0,0,0]","location_rts":"[2314,688,1402,1429,721,452]","trial_type":"two-door-navigation","trial_index":51,"time_elapsed":1626187,"internal_node_id":"0.0-2.0-49.0"},{"view_history":"[{\"page_index\":0,\"viewing_time\":3213}]","rt":3214,"trial_type":"instructions","trial_index":52,"time_elapsed":1630402,"internal_node_id":"0.0-3.0"},{"view_history":"[{\"page_index\":0,\"viewing_time\":9746},{\"page_index\":1,\"viewing_time\":70413}]","rt":80161,"trial_type":"instructions","trial_index":53,"time_elapsed":1712071,"internal_node_id":"0.0-4.0"},{"group":"hexagon_bi","fractal_assignment":["../images/ylw_slt.png","../images/pnk_blu.png","../images/org_blu.png","../images/cyn_red.png","../images/blu_wht.png","../images/gry_blk.png"],"mutagen_generator_assignment":[0,1],"goal":4,"start":0,"action_noise":0.15,"location_history":"[0,5,4]","action_history":"[0,0]","mutagen_history":"[0,0]","location_rts":"[3570,903]","trial_type":"fractal-mutation","trial_index":54,"time_elapsed":1724748,"internal_node_id":"0.0-5.0-0.0"},{"group":"hexagon_bi","fractal_assignment":["../images/ylw_slt.png","../images/pnk_blu.png","../images/org_blu.png","../images/cyn_red.png","../images/blu_wht.png","../images/gry_blk.png"],"mutagen_generator_assignment":[0,1],"goal":3,"start":4,"action_noise":0.15,"location_history":"[4,5,4,5,0,5,0,5,4,5,4,5,0,1,2,1,2,3]","action_history":"[1,1,1,0,0,0,0,1,1,1,1,0,0,0,0,0,1]","mutagen_history":"[1,1,1,0,0,0,0,1,1,1,1,0,0,0,0,0,1]","location_rts":"[2285,1392,2561,609,2121,648,1641,75,902,648,1074,695,1172,241,572,1530,762]","trial_type":"fractal-mutation","trial_index":55,"time_elapsed":1792470,"internal_node_id":"0.0-5.0-1.0"},{"group":"hexagon_bi","fractal_assignment":["../images/ylw_slt.png","../images/pnk_blu.png","../images/org_blu.png","../images/cyn_red.png","../images/blu_wht.png","../images/gry_blk.png"],"mutagen_generator_assignment":[0,1],"goal":5,"start":3,"action_noise":0.15,"location_history":"[3,2,1,2,1,0,1,0,5]","action_history":"[0,0,0,1,1,1,1,0]","mutagen_history":"[0,0,0,1,1,1,1,0]","location_rts":"[1395,834,1652,1493,553,556,614,506]","trial_type":"fractal-mutation","trial_index":56,"time_elapsed":1819461,"internal_node_id":"0.0-5.0-2.0"},{"group":"hexagon_bi","fractal_assignment":["../images/ylw_slt.png","../images/pnk_blu.png","../images/org_blu.png","../images/cyn_red.png","../images/blu_wht.png","../images/gry_blk.png"],"mutagen_generator_assignment":[0,1],"goal":2,"start":5,"action_noise":0.15,"location_history":"[5,0,5,4,5,4,3,4,3,4,5,4,5,0,5,0,1,0,1,2]","action_history":"[0,0,1,1,1,0,0,0,0,1,1,1,0,0,0,1,1,1,0]","mutagen_history":"[0,0,1,1,1,0,0,0,0,1,1,1,0,0,0,1,1,1,0]","location_rts":"[2044,768,1775,970,1113,545,1391,630,627,1063,2106,1055,669,809,695,747,637,482,533]","trial_type":"fractal-mutation","trial_index":57,"time_elapsed":1883066,"internal_node_id":"0.0-5.0-3.0"},{"group":"hexagon_bi","fractal_assignment":["../images/ylw_slt.png","../images/pnk_blu.png","../images/org_blu.png","../images/cyn_red.png","../images/blu_wht.png","../images/gry_blk.png"],"mutagen_generator_assignment":[0,1],"goal":1,"start":2,"action_noise":0.15,"location_history":"[2,1]","action_history":"[0]","mutagen_history":"[0]","location_rts":"[2077]","trial_type":"fractal-mutation","trial_index":58,"time_elapsed":1890749,"internal_node_id":"0.0-5.0-4.0"},{"group":"hexagon_bi","fractal_assignment":["../images/ylw_slt.png","../images/pnk_blu.png","../images/org_blu.png","../images/cyn_red.png","../images/blu_wht.png","../images/gry_blk.png"],"mutagen_generator_assignment":[0,1],"goal":4,"start":1,"action_noise":0.15,"location_history":"[1,0,1,0,1,2,3,4]","action_history":"[1,1,1,1,0,0,0]","mutagen_history":"[1,1,1,1,0,0,0]","location_rts":"[1696,761,681,405,493,538,727]","trial_type":"fractal-mutation","trial_index":59,"time_elapsed":1918670,"internal_node_id":"0.0-5.0-5.0"},{"group":"hexagon_bi","fractal_assignment":["../images/ylw_slt.png","../images/pnk_blu.png","../images/org_blu.png","../images/cyn_red.png","../images/blu_wht.png","../images/gry_blk.png"],"mutagen_generator_assignment":[0,1],"goal":1,"start":4,"action_noise":0.15,"location_history":"[4,3,2,1]","action_history":"[1,1,1]","mutagen_history":"[1,1,1]","location_rts":"[1592,746,1220]","trial_type":"fractal-mutation","trial_index":60,"time_elapsed":1933397,"internal_node_id":"0.0-5.0-6.0"},{"group":"hexagon_bi","fractal_assignment":["../images/ylw_slt.png","../images/pnk_blu.png","../images/org_blu.png","../images/cyn_red.png","../images/blu_wht.png","../images/gry_blk.png"],"mutagen_generator_assignment":[0,1],"goal":5,"start":1,"action_noise":0.15,"location_history":"[1,0,5]","action_history":"[0,0]","mutagen_history":"[0,0]","location_rts":"[1674,669]","trial_type":"fractal-mutation","trial_index":61,"time_elapsed":1945621,"internal_node_id":"0.0-5.0-7.0"},{"group":"hexagon_bi","fractal_assignment":["../images/ylw_slt.png","../images/pnk_blu.png","../images/org_blu.png","../images/cyn_red.png","../images/blu_wht.png","../images/gry_blk.png"],"mutagen_generator_assignment":[0,1],"goal":0,"start":5,"action_noise":0.15,"location_history":"[5,0]","action_history":"[0]","mutagen_history":"[0]","location_rts":"[1672]","trial_type":"fractal-mutation","trial_index":62,"time_elapsed":1952941,"internal_node_id":"0.0-5.0-8.0"},{"group":"hexagon_bi","fractal_assignment":["../images/ylw_slt.png","../images/pnk_blu.png","../images/org_blu.png","../images/cyn_red.png","../images/blu_wht.png","../images/gry_blk.png"],"mutagen_generator_assignment":[0,1],"goal":2,"start":0,"action_noise":0.15,"location_history":"[0,1,2]","action_history":"[1,0]","mutagen_history":"[1,0]","location_rts":"[1583,1252]","trial_type":"fractal-mutation","trial_index":63,"time_elapsed":1961685,"internal_node_id":"0.0-5.0-9.0"},{"group":"hexagon_bi","fractal_assignment":["../images/ylw_slt.png","../images/pnk_blu.png","../images/org_blu.png","../images/cyn_red.png","../images/blu_wht.png","../images/gry_blk.png"],"mutagen_generator_assignment":[0,1],"goal":3,"start":2,"action_noise":0.15,"location_history":"[2,3]","action_history":"[1]","mutagen_history":"[1]","location_rts":"[2748]","trial_type":"fractal-mutation","trial_index":64,"time_elapsed":1973283,"internal_node_id":"0.0-5.0-10.0"},{"group":"hexagon_bi","fractal_assignment":["../images/ylw_slt.png","../images/pnk_blu.png","../images/org_blu.png","../images/cyn_red.png","../images/blu_wht.png","../images/gry_blk.png"],"mutagen_generator_assignment":[0,1],"goal":0,"start":3,"action_noise":0.15,"location_history":"[3,4,5,0]","action_history":"[0,1,0]","mutagen_history":"[0,1,0]","location_rts":"[3165,1463,1566]","trial_type":"fractal-mutation","trial_index":65,"time_elapsed":1991134,"internal_node_id":"0.0-5.0-11.0"},{"group":"hexagon_bi","fractal_assignment":["../images/ylw_slt.png","../images/pnk_blu.png","../images/org_blu.png","../images/cyn_red.png","../images/blu_wht.png","../images/gry_blk.png"],"mutagen_generator_assignment":[0,1],"goal":2,"start":0,"action_noise":0.15,"location_history":"[0,5,0,1,2]","action_history":"[0,0,1,0]","mutagen_history":"[0,0,1,0]","location_rts":"[1279,952,571,1953]","trial_type":"fractal-mutation","trial_index":66,"time_elapsed":2007385,"internal_node_id":"0.0-5.0-12.0"},{"group":"hexagon_bi","fractal_assignment":["../images/ylw_slt.png","../images/pnk_blu.png","../images/org_blu.png","../images/cyn_red.png","../images/blu_wht.png","../images/gry_blk.png"],"mutagen_generator_assignment":[0,1],"goal":5,"start":2,"action_noise":0.15,"location_history":"[2,1,0,1,2,1,0,1,0,1,2,1,2,3,2,1,2,1,2,1,2,1,0,5]","action_history":"[0,1,0,0,0,1,1,1,0,0,0,0,1,1,1,0,0,0,0,0,0,1,0]","mutagen_history":"[0,1,0,0,0,1,1,1,0,0,0,0,1,1,1,0,0,0,0,0,0,1,0]","location_rts":"[1480,738,1017,1353,1157,571,1012,1164,703,1015,1057,1367,1065,2729,1019,633,585,870,3406,614,1048,903,1105]","trial_type":"fractal-mutation","trial_index":67,"time_elapsed":2092642,"internal_node_id":"0.0-5.0-13.0"},{"group":"hexagon_bi","fractal_assignment":["../images/ylw_slt.png","../images/pnk_blu.png","../images/org_blu.png","../images/cyn_red.png","../images/blu_wht.png","../images/gry_blk.png"],"mutagen_generator_assignment":[0,1],"goal":4,"start":5,"action_noise":0.15,"location_history":"[5,4]","action_history":"[1]","mutagen_history":"[1]","location_rts":"[1791]","trial_type":"fractal-mutation","trial_index":68,"time_elapsed":2102201,"internal_node_id":"0.0-5.0-14.0"},{"group":"hexagon_bi","fractal_assignment":["../images/ylw_slt.png","../images/pnk_blu.png","../images/org_blu.png","../images/cyn_red.png","../images/blu_wht.png","../images/gry_blk.png"],"mutagen_generator_assignment":[0,1],"goal":3,"start":4,"action_noise":0.15,"location_history":"[4,5,4,3]","action_history":"[1,1,0]","mutagen_history":"[1,1,0]","location_rts":"[2721,2239,657]","trial_type":"fractal-mutation","trial_index":69,"time_elapsed":2118415,"internal_node_id":"0.0-5.0-15.0"},{"group":"hexagon_bi","fractal_assignment":["../images/ylw_slt.png","../images/pnk_blu.png","../images/org_blu.png","../images/cyn_red.png","../images/blu_wht.png","../images/gry_blk.png"],"mutagen_generator_assignment":[0,1],"goal":1,"start":3,"action_noise":0.15,"location_history":"[3,4,3,4,3,2,1]","action_history":"[1,1,0,0,1,0]","mutagen_history":"[1,1,0,0,1,0]","location_rts":"[745,1952,1093,935,796,2892]","trial_type":"fractal-mutation","trial_index":70,"time_elapsed":2145922,"internal_node_id":"0.0-5.0-16.0"},{"group":"hexagon_bi","fractal_assignment":["../images/ylw_slt.png","../images/pnk_blu.png","../images/org_blu.png","../images/cyn_red.png","../images/blu_wht.png","../images/gry_blk.png"],"mutagen_generator_assignment":[0,1],"goal":5,"start":1,"action_noise":0.15,"location_history":"[1,0,5]","action_history":"[1,1]","mutagen_history":"[1,1]","location_rts":"[1994,1013]","trial_type":"fractal-mutation","trial_index":71,"time_elapsed":2157349,"internal_node_id":"0.0-5.0-17.0"},{"group":"hexagon_bi","fractal_assignment":["../images/ylw_slt.png","../images/pnk_blu.png","../images/org_blu.png","../images/cyn_red.png","../images/blu_wht.png","../images/gry_blk.png"],"mutagen_generator_assignment":[0,1],"goal":4,"start":5,"action_noise":0.15,"location_history":"[5,4]","action_history":"[1]","mutagen_history":"[1]","location_rts":"[1811]","trial_type":"fractal-mutation","trial_index":72,"time_elapsed":2167680,"internal_node_id":"0.0-5.0-18.0"},{"group":"hexagon_bi","fractal_assignment":["../images/ylw_slt.png","../images/pnk_blu.png","../images/org_blu.png","../images/cyn_red.png","../images/blu_wht.png","../images/gry_blk.png"],"mutagen_generator_assignment":[0,1],"goal":0,"start":4,"action_noise":0.15,"location_history":"[4,5,0]","action_history":"[1,0]","mutagen_history":"[1,0]","location_rts":"[3663,1009]","trial_type":"fractal-mutation","trial_index":73,"time_elapsed":2180093,"internal_node_id":"0.0-5.0-19.0"},{"group":"hexagon_bi","fractal_assignment":["../images/ylw_slt.png","../images/pnk_blu.png","../images/org_blu.png","../images/cyn_red.png","../images/blu_wht.png","../images/gry_blk.png"],"mutagen_generator_assignment":[0,1],"goal":1,"start":0,"action_noise":0.15,"location_history":"[0,1]","action_history":"[1]","mutagen_history":"[1]","location_rts":"[2187]","trial_type":"fractal-mutation","trial_index":74,"time_elapsed":2190896,"internal_node_id":"0.0-5.0-20.0"},{"group":"hexagon_bi","fractal_assignment":["../images/ylw_slt.png","../images/pnk_blu.png","../images/org_blu.png","../images/cyn_red.png","../images/blu_wht.png","../images/gry_blk.png"],"mutagen_generator_assignment":[0,1],"goal":3,"start":1,"action_noise":0.15,"location_history":"[1,2,3]","action_history":"[0,1]","mutagen_history":"[0,1]","location_rts":"[3531,523]","trial_type":"fractal-mutation","trial_index":75,"time_elapsed":2204665,"internal_node_id":"0.0-5.0-21.0"},{"group":"hexagon_bi","fractal_assignment":["../images/ylw_slt.png","../images/pnk_blu.png","../images/org_blu.png","../images/cyn_red.png","../images/blu_wht.png","../images/gry_blk.png"],"mutagen_generator_assignment":[0,1],"goal":2,"start":3,"action_noise":0.15,"location_history":"[3,4,5,0,1,2]","action_history":"[1,1,0,1,0]","mutagen_history":"[1,1,0,1,0]","location_rts":"[2273,1241,1738,2028,776]","trial_type":"fractal-mutation","trial_index":76,"time_elapsed":2228397,"internal_node_id":"0.0-5.0-22.0"},{"group":"hexagon_bi","fractal_assignment":["../images/ylw_slt.png","../images/pnk_blu.png","../images/org_blu.png","../images/cyn_red.png","../images/blu_wht.png","../images/gry_blk.png"],"mutagen_generator_assignment":[0,1],"goal":0,"start":2,"action_noise":0.15,"location_history":"[2,3,4,5,0]","action_history":"[1,1,1,0]","mutagen_history":"[1,1,1,0]","location_rts":"[2486,2158,812,1519]","trial_type":"fractal-mutation","trial_index":77,"time_elapsed":2248401,"internal_node_id":"0.0-5.0-23.0"},{"group":"hexagon_bi","fractal_assignment":["../images/ylw_slt.png","../images/pnk_blu.png","../images/org_blu.png","../images/cyn_red.png","../images/blu_wht.png","../images/gry_blk.png"],"mutagen_generator_assignment":[0,1],"goal":3,"start":0,"action_noise":0.15,"location_history":"[0,1,0,1,0,5,4,3]","action_history":"[1,1,1,1,1,1,0]","mutagen_history":"[1,1,1,1,1,1,0]","location_rts":"[43269,2241,2376,2145,2142,1796,802]","trial_type":"fractal-mutation","trial_index":78,"time_elapsed":2325677,"internal_node_id":"0.0-5.0-24.0"},{"group":"hexagon_bi","fractal_assignment":["../images/ylw_slt.png","../images/pnk_blu.png","../images/org_blu.png","../images/cyn_red.png","../images/blu_wht.png","../images/gry_blk.png"],"mutagen_generator_assignment":[0,1],"goal":1,"start":3,"action_noise":0.15,"location_history":"[3,4,5,0,1]","action_history":"[1,1,1,1]","mutagen_history":"[1,1,1,1]","location_rts":"[2073,761,1698,1007]","trial_type":"fractal-mutation","trial_index":79,"time_elapsed":2347190,"internal_node_id":"0.0-5.0-25.0"},{"group":"hexagon_bi","fractal_assignment":["../images/ylw_slt.png","../images/pnk_blu.png","../images/org_blu.png","../images/cyn_red.png","../images/blu_wht.png","../images/gry_blk.png"],"mutagen_generator_assignment":[0,1],"goal":2,"start":1,"action_noise":0.15,"location_history":"[1,2]","action_history":"[0]","mutagen_history":"[0]","location_rts":"[2776]","trial_type":"fractal-mutation","trial_index":80,"time_elapsed":2358702,"internal_node_id":"0.0-5.0-26.0"},{"group":"hexagon_bi","fractal_assignment":["../images/ylw_slt.png","../images/pnk_blu.png","../images/org_blu.png","../images/cyn_red.png","../images/blu_wht.png","../images/gry_blk.png"],"mutagen_generator_assignment":[0,1],"goal":5,"start":2,"action_noise":0.15,"location_history":"[2,1,2,3,4,5]","action_history":"[1,1,1,0,1]","mutagen_history":"[1,1,1,0,1]","location_rts":"[3230,961,2259,1197,1475]","trial_type":"fractal-mutation","trial_index":81,"time_elapsed":2389363,"internal_node_id":"0.0-5.0-27.0"},{"group":"hexagon_bi","fractal_assignment":["../images/ylw_slt.png","../images/pnk_blu.png","../images/org_blu.png","../images/cyn_red.png","../images/blu_wht.png","../images/gry_blk.png"],"mutagen_generator_assignment":[0,1],"goal":4,"start":5,"action_noise":0.15,"location_history":"[5,4]","action_history":"[1]","mutagen_history":"[1]","location_rts":"[1846]","trial_type":"fractal-mutation","trial_index":82,"time_elapsed":2402112,"internal_node_id":"0.0-5.0-28.0"},{"group":"hexagon_bi","fractal_assignment":["../images/ylw_slt.png","../images/pnk_blu.png","../images/org_blu.png","../images/cyn_red.png","../images/blu_wht.png","../images/gry_blk.png"],"mutagen_generator_assignment":[0,1],"goal":5,"start":4,"action_noise":0.15,"location_history":"[4,3,2,3,4,3,2,1,0,5]","action_history":"[0,1,1,0,0,1,1,1,0]","mutagen_history":"[0,1,1,0,0,1,1,1,0]","location_rts":"[2626,709,1946,2080,918,1797,2108,1125,1072]","trial_type":"fractal-mutation","trial_index":83,"time_elapsed":2442561,"internal_node_id":"0.0-5.0-29.0"},{"group":"hexagon_bi","fractal_assignment":["../images/ylw_slt.png","../images/pnk_blu.png","../images/org_blu.png","../images/cyn_red.png","../images/blu_wht.png","../images/gry_blk.png"],"mutagen_generator_assignment":[0,1],"goal":3,"start":5,"action_noise":0.15,"location_history":"[5,4,3]","action_history":"[1,0]","mutagen_history":"[1,0]","location_rts":"[2233,1170]","trial_type":"fractal-mutation","trial_index":84,"time_elapsed":2457587,"internal_node_id":"0.0-5.0-30.0"},{"group":"hexagon_bi","fractal_assignment":["../images/ylw_slt.png","../images/pnk_blu.png","../images/org_blu.png","../images/cyn_red.png","../images/blu_wht.png","../images/gry_blk.png"],"mutagen_generator_assignment":[0,1],"goal":0,"start":3,"action_noise":0.15,"location_history":"[3,2,3,4,3,4,5,4,3,2,3,2,1,0]","action_history":"[1,1,0,0,1,1,0,0,1,1,1,0,1]","mutagen_history":"[1,1,0,0,1,1,0,0,1,1,1,0,1]","location_rts":"[2379,1095,1636,985,1168,991,1274,1402,901,1363,1047,443,3173]","trial_type":"fractal-mutation","trial_index":85,"time_elapsed":2516752,"internal_node_id":"0.0-5.0-31.0"},{"group":"hexagon_bi","fractal_assignment":["../images/ylw_slt.png","../images/pnk_blu.png","../images/org_blu.png","../images/cyn_red.png","../images/blu_wht.png","../images/gry_blk.png"],"mutagen_generator_assignment":[0,1],"goal":4,"start":0,"action_noise":0.15,"location_history":"[0,1,0,1,0,1,0,1,0,1,2,1,2,3,2,3,4]","action_history":"[1,1,1,0,1,1,1,0,1,0,1,0,1,1,1,0]","mutagen_history":"[1,1,1,0,1,1,1,0,1,0,1,0,1,1,1,0]","location_rts":"[2529,1585,2952,735,1222,2779,1677,2680,711,1181,1828,2239,836,1615,620,334]","trial_type":"fractal-mutation","trial_index":86,"time_elapsed":2602301,"internal_node_id":"0.0-5.0-32.0"},{"group":"hexagon_bi","fractal_assignment":["../images/ylw_slt.png","../images/pnk_blu.png","../images/org_blu.png","../images/cyn_red.png","../images/blu_wht.png","../images/gry_blk.png"],"mutagen_generator_assignment":[0,1],"goal":1,"start":4,"action_noise":0.15,"location_history":"[4,5,4,5,4,3,4,5,4,3,2,1]","action_history":"[1,1,0,1,0,0,1,1,0,1,0]","mutagen_history":"[1,1,0,1,0,0,1,1,0,1,0]","location_rts":"[2478,866,345,1117,3900,1913,1332,2950,1037,842,2409]","trial_type":"fractal-mutation","trial_index":87,"time_elapsed":2659129,"internal_node_id":"0.0-5.0-33.0"},{"group":"hexagon_bi","fractal_assignment":["../images/ylw_slt.png","../images/pnk_blu.png","../images/org_blu.png","../images/cyn_red.png","../images/blu_wht.png","../images/gry_blk.png"],"mutagen_generator_assignment":[0,1],"goal":2,"start":1,"action_noise":0.15,"location_history":"[1,0,1,2]","action_history":"[0,1,0]","mutagen_history":"[0,1,0]","location_rts":"[3378,3294,1681]","trial_type":"fractal-mutation","trial_index":88,"time_elapsed":2681034,"internal_node_id":"0.0-5.0-34.0"},{"group":"hexagon_bi","fractal_assignment":["../images/ylw_slt.png","../images/pnk_blu.png","../images/org_blu.png","../images/cyn_red.png","../images/blu_wht.png","../images/gry_blk.png"],"mutagen_generator_assignment":[0,1],"goal":0,"start":2,"action_noise":0.15,"location_history":"[2,3,2,1,0]","action_history":"[1,1,0,1]","mutagen_history":"[1,1,0,1]","location_rts":"[3151,812,386,770]","trial_type":"fractal-mutation","trial_index":89,"time_elapsed":2705470,"internal_node_id":"0.0-5.0-35.0"},{"group":"hexagon_bi","fractal_assignment":["../images/ylw_slt.png","../images/pnk_blu.png","../images/org_blu.png","../images/cyn_red.png","../images/blu_wht.png","../images/gry_blk.png"],"mutagen_generator_assignment":[0,1],"goal":5,"start":0,"action_noise":0.15,"location_history":"[0,5]","action_history":"[0]","mutagen_history":"[0]","location_rts":"[2342]","trial_type":"fractal-mutation","trial_index":90,"time_elapsed":2716905,"internal_node_id":"0.0-5.0-36.0"},{"group":"hexagon_bi","fractal_assignment":["../images/ylw_slt.png","../images/pnk_blu.png","../images/org_blu.png","../images/cyn_red.png","../images/blu_wht.png","../images/gry_blk.png"],"mutagen_generator_assignment":[0,1],"goal":2,"start":5,"action_noise":0.15,"location_history":"[5,4,5,4,5,4,3,2]","action_history":"[1,1,0,1,1,0,1]","mutagen_history":"[1,1,0,1,1,0,1]","location_rts":"[1455,800,814,405,1524,276,1542]","trial_type":"fractal-mutation","trial_index":91,"time_elapsed":2751472,"internal_node_id":"0.0-5.0-37.0"},{"group":"hexagon_bi","fractal_assignment":["../images/ylw_slt.png","../images/pnk_blu.png","../images/org_blu.png","../images/cyn_red.png","../images/blu_wht.png","../images/gry_blk.png"],"mutagen_generator_assignment":[0,1],"goal":1,"start":2,"action_noise":0.15,"location_history":"[2,1]","action_history":"[0]","mutagen_history":"[0]","location_rts":"[1847]","trial_type":"fractal-mutation","trial_index":92,"time_elapsed":2761312,"internal_node_id":"0.0-5.0-38.0"},{"group":"hexagon_bi","fractal_assignment":["../images/ylw_slt.png","../images/pnk_blu.png","../images/org_blu.png","../images/cyn_red.png","../images/blu_wht.png","../images/gry_blk.png"],"mutagen_generator_assignment":[0,1],"goal":4,"start":1,"action_noise":0.15,"location_history":"[1,2,3,2,3,2,3,4]","action_history":"[0,1,1,1,0,1,0]","mutagen_history":"[0,1,1,1,0,1,0]","location_rts":"[3859,296,730,681,3205,1158,1939]","trial_type":"fractal-mutation","trial_index":93,"time_elapsed":2795858,"internal_node_id":"0.0-5.0-39.0"},{"group":"hexagon_bi","fractal_assignment":["../images/ylw_slt.png","../images/pnk_blu.png","../images/org_blu.png","../images/cyn_red.png","../images/blu_wht.png","../images/gry_blk.png"],"mutagen_generator_assignment":[0,1],"goal":3,"start":4,"action_noise":0.15,"location_history":"[4,5,4,3]","action_history":"[1,1,0]","mutagen_history":"[1,1,0]","location_rts":"[2309,1677,1312]","trial_type":"fractal-mutation","trial_index":94,"time_elapsed":2814719,"internal_node_id":"0.0-5.0-40.0"},{"group":"hexagon_bi","fractal_assignment":["../images/ylw_slt.png","../images/pnk_blu.png","../images/org_blu.png","../images/cyn_red.png","../images/blu_wht.png","../images/gry_blk.png"],"mutagen_generator_assignment":[0,1],"goal":5,"start":3,"action_noise":0.15,"location_history":"[3,2,3,4,5]","action_history":"[1,1,0,1]","mutagen_history":"[1,1,0,1]","location_rts":"[3218,1168,2865,622]","trial_type":"fractal-mutation","trial_index":95,"time_elapsed":2841330,"internal_node_id":"0.0-5.0-41.0"},{"group":"hexagon_bi","fractal_assignment":["../images/ylw_slt.png","../images/pnk_blu.png","../images/org_blu.png","../images/cyn_red.png","../images/blu_wht.png","../images/gry_blk.png"],"mutagen_generator_assignment":[0,1],"goal":3,"start":5,"action_noise":0.15,"location_history":"[5,4,3]","action_history":"[1,0]","mutagen_history":"[1,0]","location_rts":"[1783,1251]","trial_type":"fractal-mutation","trial_index":96,"time_elapsed":2854151,"internal_node_id":"0.0-5.0-42.0"},{"group":"hexagon_bi","fractal_assignment":["../images/ylw_slt.png","../images/pnk_blu.png","../images/org_blu.png","../images/cyn_red.png","../images/blu_wht.png","../images/gry_blk.png"],"mutagen_generator_assignment":[0,1],"goal":0,"start":3,"action_noise":0.15,"location_history":"[3,4,3,4,5,4,3,2,3,4,3,2,3,2,3,4,5,4,5,0]","action_history":"[1,0,1,1,0,0,1,1,1,0,1,1,0,1,0,1,0,1,1]","mutagen_history":"[1,0,1,1,0,0,1,1,1,0,1,1,0,1,0,1,0,1,1]","location_rts":"[1620,2616,805,1183,2030,3986,1261,1491,1197,906,771,1372,1434,1009,2813,1407,1147,1846,1979]","trial_type":"fractal-mutation","trial_index":97,"time_elapsed":2951685,"internal_node_id":"0.0-5.0-43.0"},{"group":"hexagon_bi","fractal_assignment":["../images/ylw_slt.png","../images/pnk_blu.png","../images/org_blu.png","../images/cyn_red.png","../images/blu_wht.png","../images/gry_blk.png"],"mutagen_generator_assignment":[0,1],"goal":2,"start":0,"action_noise":0.15,"location_history":"[0,5,4,3,4,5,4,3,4,5,0,5,0,5,4,5,0,5,4,5,4,3,2]","action_history":"[0,1,1,0,1,1,0,0,1,0,0,1,0,1,1,0,0,1,1,1,0,1]","mutagen_history":"[0,1,1,0,1,1,0,0,1,0,0,1,0,1,1,0,0,1,1,1,0,1]","location_rts":"[1927,789,1830,785,651,1348,1015,1161,329,1697,4041,487,2882,998,1101,664,2250,631,892,1319,305,2889]","trial_type":"fractal-mutation","trial_index":98,"time_elapsed":3041150,"internal_node_id":"0.0-5.0-44.0"},{"group":"hexagon_bi","fractal_assignment":["../images/ylw_slt.png","../images/pnk_blu.png","../images/org_blu.png","../images/cyn_red.png","../images/blu_wht.png","../images/gry_blk.png"],"mutagen_generator_assignment":[0,1],"goal":4,"start":2,"action_noise":0.15,"location_history":"[2,3,2,3,4]","action_history":"[1,1,1,0]","mutagen_history":"[1,1,1,0]","location_rts":"[2136,1567,1254,1744]","trial_type":"fractal-mutation","trial_index":99,"time_elapsed":3059514,"internal_node_id":"0.0-5.0-45.0"},{"group":"hexagon_bi","fractal_assignment":["../images/ylw_slt.png","../images/pnk_blu.png","../images/org_blu.png","../images/cyn_red.png","../images/blu_wht.png","../images/gry_blk.png"],"mutagen_generator_assignment":[0,1],"goal":1,"start":4,"action_noise":0.15,"location_history":"[4,3,2,3,4,3,2,1]","action_history":"[1,1,0,0,0,1,0]","mutagen_history":"[1,1,0,0,0,1,0]","location_rts":"[2411,2281,355,6579,1209,1131,745]","trial_type":"fractal-mutation","trial_index":100,"time_elapsed":3101286,"internal_node_id":"0.0-5.0-46.0"},{"group":"hexagon_bi","fractal_assignment":["../images/ylw_slt.png","../images/pnk_blu.png","../images/org_blu.png","../images/cyn_red.png","../images/blu_wht.png","../images/gry_blk.png"],"mutagen_generator_assignment":[0,1],"goal":4,"start":1,"action_noise":0.15,"location_history":"[1,0,1,2,3,2,3,4]","action_history":"[1,1,0,1,1,1,0]","mutagen_history":"[1,1,0,1,1,1,0]","location_rts":"[1543,1106,1216,551,1182,467,355]","trial_type":"fractal-mutation","trial_index":101,"time_elapsed":3127371,"internal_node_id":"0.0-5.0-47.0"},{"group":"hexagon_bi","fractal_assignment":["../images/ylw_slt.png","../images/pnk_blu.png","../images/org_blu.png","../images/cyn_red.png","../images/blu_wht.png","../images/gry_blk.png"],"mutagen_generator_assignment":[0,1],"goal":3,"start":4,"action_noise":0.15,"location_history":"[4,3]","action_history":"[0]","mutagen_history":"[0]","location_rts":"[2385]","trial_type":"fractal-mutation","trial_index":102,"time_elapsed":3135546,"internal_node_id":"0.0-5.0-48.0"},{"group":"hexagon_bi","fractal_assignment":["../images/ylw_slt.png","../images/pnk_blu.png","../images/org_blu.png","../images/cyn_red.png","../images/blu_wht.png","../images/gry_blk.png"],"mutagen_generator_assignment":[0,1],"goal":5,"start":3,"action_noise":0.15,"location_history":"[3,2,3,2,3,2,1,2,1,0,5]","action_history":"[1,0,1,1,1,0,1,0,1,0]","mutagen_history":"[1,0,1,1,1,0,1,0,1,0]","location_rts":"[1773,1880,364,1056,900,1107,796,724,670,741]","trial_type":"fractal-mutation","trial_index":103,"time_elapsed":3175503,"internal_node_id":"0.0-5.0-49.0"},{"view_history":"[{\"page_index\":0,\"viewing_time\":14390}]","rt":14391,"trial_type":"instructions","trial_index":104,"time_elapsed":3191810,"internal_node_id":"0.0-6.0"},{"rt":2942,"responses":"{\"Q0\":\"\"}","trial_type":"survey-text","trial_index":105,"time_elapsed":3195805,"internal_node_id":"0.0-7.0"}]