[{"view_history":"[{\"page_index\":0,\"viewing_time\":6563},{\"page_index\":1,\"viewing_time\":1660215},{\"page_index\":2,\"viewing_time\":67637},{\"page_index\":3,\"viewing_time\":8417}]","rt":1742833,"trial_type":"instructions","trial_index":0,"time_elapsed":1742834,"internal_node_id":"0.0-0.0"},{"view_history":"[{\"page_index\":0,\"viewing_time\":3297},{\"page_index\":1,\"viewing_time\":42359}]","rt":45657,"trial_type":"instructions","trial_index":1,"time_elapsed":1789490,"internal_node_id":"0.0-1.0"},{"group":"hexagon_bi","room_assignment":["red","purple","blue","green","yellow","grey"],"door_color_assignment":["black","white"],"door_generator_assignment":[1,0],"goal":4,"start":0,"action_noise":0.15,"location_history":"[0,5,4]","action_history":"[0,1]","door_history":"[1,0]","location_rts":"[2629,2483]","trial_type":"two-door-navigation","trial_index":2,"time_elapsed":1800119,"internal_node_id":"0.0-2.0-0.0"},{"group":"hexagon_bi","room_assignment":["red","purple","blue","green","yellow","grey"],"door_color_assignment":["black","white"],"door_generator_assignment":[1,0],"goal":3,"start":4,"action_noise":0.15,"location_history":"[4,3]","action_history":"[0]","door_history":"[1]","location_rts":"[2130]","trial_type":"two-door-navigation","trial_index":3,"time_elapsed":1806752,"internal_node_id":"0.0-2.0-1.0"},{"group":"hexagon_bi","room_assignment":["red","purple","blue","green","yellow","grey"],"door_color_assignment":["black","white"],"door_generator_assignment":[1,0],"goal":5,"start":3,"action_noise":0.15,"location_history":"[3,4,3,2,3,4,5]","action_history":"[1,0,0,1,0,1]","door_history":"[0,1,1,0,1,0]","location_rts":"[2146,2223,2154,984,896,762]","trial_type":"two-door-navigation","trial_index":4,"time_elapsed":1825460,"internal_node_id":"0.0-2.0-2.0"},{"group":"hexagon_bi","room_assignment":["red","purple","blue","green","yellow","grey"],"door_color_assignment":["black","white"],"door_generator_assignment":[1,0],"goal":2,"start":5,"action_noise":0.15,"location_history":"[5,0,5,0,5,4,3,2]","action_history":"[0,0,0,0,1,0,1]","door_history":"[1,1,1,1,0,1,0]","location_rts":"[2389,3948,1465,2603,964,1833,973]","trial_type":"two-door-navigation","trial_index":5,"time_elapsed":1850178,"internal_node_id":"0.0-2.0-3.0"},{"group":"hexagon_bi","room_assignment":["red","purple","blue","green","yellow","grey"],"door_color_assignment":["black","white"],"door_generator_assignment":[1,0],"goal":1,"start":2,"action_noise":0.15,"location_history":"[2,3,4,3,4,5,0,1]","action_history":"[0,0,0,0,1,0,1]","door_history":"[1,1,1,1,0,1,0]","location_rts":"[4047,27730,6004,995,489,4979,3333]","trial_type":"two-door-navigation","trial_index":6,"time_elapsed":1908294,"internal_node_id":"0.0-2.0-4.0"},{"group":"hexagon_bi","room_assignment":["red","purple","blue","green","yellow","grey"],"door_color_assignment":["black","white"],"door_generator_assignment":[1,0],"goal":4,"start":1,"action_noise":0.15,"location_history":"[1,0,5,0,1,0,5,4]","action_history":"[0,0,0,1,1,0,1]","door_history":"[1,1,1,0,0,1,0]","location_rts":"[4123,1978,5921,1297,1684,730,437]","trial_type":"two-door-navigation","trial_index":7,"time_elapsed":1935000,"internal_node_id":"0.0-2.0-5.0"},{"group":"hexagon_bi","room_assignment":["red","purple","blue","green","yellow","grey"],"door_color_assignment":["black","white"],"door_generator_assignment":[1,0],"goal":1,"start":4,"action_noise":0.15,"location_history":"[4,5,4,5,4,3,2,3,2,1]","action_history":"[1,1,1,1,0,1,0,1,0]","door_history":"[0,0,0,0,1,0,1,0,1]","location_rts":"[3128,523,403,370,697,799,667,629,690]","trial_type":"two-door-navigation","trial_index":8,"time_elapsed":1955459,"internal_node_id":"0.0-2.0-6.0"},{"group":"hexagon_bi","room_assignment":["red","purple","blue","green","yellow","grey"],"door_color_assignment":["black","white"],"door_generator_assignment":[1,0],"goal":5,"start":1,"action_noise":0.15,"location_history":"[1,0,5]","action_history":"[1,0]","door_history":"[0,1]","location_rts":"[2364,720]","trial_type":"two-door-navigation","trial_index":9,"time_elapsed":1964061,"internal_node_id":"0.0-2.0-7.0"},{"group":"hexagon_bi","room_assignment":["red","purple","blue","green","yellow","grey"],"door_color_assignment":["black","white"],"door_generator_assignment":[1,0],"goal":0,"start":5,"action_noise":0.15,"location_history":"[5,0]","action_history":"[0]","door_history":"[1]","location_rts":"[2604]","trial_type":"two-door-navigation","trial_index":10,"time_elapsed":1971171,"internal_node_id":"0.0-2.0-8.0"},{"group":"hexagon_bi","room_assignment":["red","purple","blue","green","yellow","grey"],"door_color_assignment":["black","white"],"door_generator_assignment":[1,0],"goal":2,"start":0,"action_noise":0.15,"location_history":"[0,1,0,5,4,3,2]","action_history":"[1,1,0,1,0,1]","door_history":"[0,0,1,0,1,0]","location_rts":"[2453,1481,919,580,769,1346]","trial_type":"two-door-navigation","trial_index":11,"time_elapsed":1988261,"internal_node_id":"0.0-2.0-9.0"},{"group":"hexagon_bi","room_assignment":["red","purple","blue","green","yellow","grey"],"door_color_assignment":["black","white"],"door_generator_assignment":[1,0],"goal":3,"start":2,"action_noise":0.15,"location_history":"[2,1,2,1,0,5,4,3]","action_history":"[1,1,0,0,0,1,0]","door_history":"[0,0,1,1,1,0,1]","location_rts":"[1980,1880,1277,1011,538,1537,1731]","trial_type":"two-door-navigation","trial_index":12,"time_elapsed":2008753,"internal_node_id":"0.0-2.0-10.0"},{"group":"hexagon_bi","room_assignment":["red","purple","blue","green","yellow","grey"],"door_color_assignment":["black","white"],"door_generator_assignment":[1,0],"goal":0,"start":3,"action_noise":0.15,"location_history":"[3,2,1,2,3,2,1,2,3,4,3,4,5,0]","action_history":"[1,0,0,1,1,0,0,1,0,0,0,1,0]","door_history":"[0,1,1,0,0,1,1,0,1,1,1,0,1]","location_rts":"[2798,924,1038,750,595,746,935,878,1360,3356,372,659,1131]","trial_type":"two-door-navigation","trial_index":13,"time_elapsed":2040876,"internal_node_id":"0.0-2.0-11.0"},{"group":"hexagon_bi","room_assignment":["red","purple","blue","green","yellow","grey"],"door_color_assignment":["black","white"],"door_generator_assignment":[1,0],"goal":2,"start":0,"action_noise":0.15,"location_history":"[0,1,2]","action_history":"[1,0]","door_history":"[0,1]","location_rts":"[2212,2146]","trial_type":"two-door-navigation","trial_index":14,"time_elapsed":2050748,"internal_node_id":"0.0-2.0-12.0"},{"group":"hexagon_bi","room_assignment":["red","purple","blue","green","yellow","grey"],"door_color_assignment":["black","white"],"door_generator_assignment":[1,0],"goal":5,"start":2,"action_noise":0.15,"location_history":"[2,1,0,5]","action_history":"[1,1,0]","door_history":"[0,0,1]","location_rts":"[3156,1586,1537]","trial_type":"two-door-navigation","trial_index":15,"time_elapsed":2063547,"internal_node_id":"0.0-2.0-13.0"},{"group":"hexagon_bi","room_assignment":["red","purple","blue","green","yellow","grey"],"door_color_assignment":["black","white"],"door_generator_assignment":[1,0],"goal":4,"start":5,"action_noise":0.15,"location_history":"[5,4]","action_history":"[1]","door_history":"[0]","location_rts":"[2022]","trial_type":"two-door-navigation","trial_index":16,"time_elapsed":2070077,"internal_node_id":"0.0-2.0-14.0"},{"group":"hexagon_bi","room_assignment":["red","purple","blue","green","yellow","grey"],"door_color_assignment":["black","white"],"door_generator_assignment":[1,0],"goal":3,"start":4,"action_noise":0.15,"location_history":"[4,3]","action_history":"[0]","door_history":"[1]","location_rts":"[1780]","trial_type":"two-door-navigation","trial_index":17,"time_elapsed":2076361,"internal_node_id":"0.0-2.0-15.0"},{"group":"hexagon_bi","room_assignment":["red","purple","blue","green","yellow","grey"],"door_color_assignment":["black","white"],"door_generator_assignment":[1,0],"goal":1,"start":3,"action_noise":0.15,"location_history":"[3,4,5,4,5,4,3,4,3,4,3,2,3,2,1]","action_history":"[1,0,0,1,1,0,1,0,0,1,1,1,1,0]","door_history":"[0,1,1,0,0,1,0,1,1,0,0,0,0,1]","location_rts":"[3392,3801,1634,889,920,467,1228,770,539,882,1024,1399,1185,1750]","trial_type":"two-door-navigation","trial_index":18,"time_elapsed":2113842,"internal_node_id":"0.0-2.0-16.0"},{"group":"hexagon_bi","room_assignment":["red","purple","blue","green","yellow","grey"],"door_color_assignment":["black","white"],"door_generator_assignment":[1,0],"goal":5,"start":1,"action_noise":0.15,"location_history":"[1,2,3,2,3,4,5]","action_history":"[1,1,1,1,0,1]","door_history":"[0,0,0,0,1,0]","location_rts":"[2997,1543,1434,756,312,1914]","trial_type":"two-door-navigation","trial_index":19,"time_elapsed":2132338,"internal_node_id":"0.0-2.0-17.0"},{"group":"hexagon_bi","room_assignment":["red","purple","blue","green","yellow","grey"],"door_color_assignment":["black","white"],"door_generator_assignment":[1,0],"goal":4,"start":5,"action_noise":0.15,"location_history":"[5,4]","action_history":"[1]","door_history":"[0]","location_rts":"[4550]","trial_type":"two-door-navigation","trial_index":20,"time_elapsed":2141397,"internal_node_id":"0.0-2.0-18.0"},{"group":"hexagon_bi","room_assignment":["red","purple","blue","green","yellow","grey"],"door_color_assignment":["black","white"],"door_generator_assignment":[1,0],"goal":0,"start":4,"action_noise":0.15,"location_history":"[4,5,0]","action_history":"[0,0]","door_history":"[1,1]","location_rts":"[2026,1701]","trial_type":"two-door-navigation","trial_index":21,"time_elapsed":2150637,"internal_node_id":"0.0-2.0-19.0"},{"group":"hexagon_bi","room_assignment":["red","purple","blue","green","yellow","grey"],"door_color_assignment":["black","white"],"door_generator_assignment":[1,0],"goal":1,"start":0,"action_noise":0.15,"location_history":"[0,1]","action_history":"[1]","door_history":"[0]","location_rts":"[2443]","trial_type":"two-door-navigation","trial_index":22,"time_elapsed":2157585,"internal_node_id":"0.0-2.0-20.0"},{"group":"hexagon_bi","room_assignment":["red","purple","blue","green","yellow","grey"],"door_color_assignment":["black","white"],"door_generator_assignment":[1,0],"goal":3,"start":1,"action_noise":0.15,"location_history":"[1,2,3]","action_history":"[0,1]","door_history":"[1,0]","location_rts":"[1927,783]","trial_type":"two-door-navigation","trial_index":23,"time_elapsed":2165812,"internal_node_id":"0.0-2.0-21.0"},{"group":"hexagon_bi","room_assignment":["red","purple","blue","green","yellow","grey"],"door_color_assignment":["black","white"],"door_generator_assignment":[1,0],"goal":2,"start":3,"action_noise":0.15,"location_history":"[3,2]","action_history":"[1]","door_history":"[0]","location_rts":"[5195]","trial_type":"two-door-navigation","trial_index":24,"time_elapsed":2175514,"internal_node_id":"0.0-2.0-22.0"},{"group":"hexagon_bi","room_assignment":["red","purple","blue","green","yellow","grey"],"door_color_assignment":["black","white"],"door_generator_assignment":[1,0],"goal":0,"start":2,"action_noise":0.15,"location_history":"[2,3,2,3,4,3,4,5,0]","action_history":"[1,0,0,0,0,0,1,0]","door_history":"[0,1,1,1,1,1,0,1]","location_rts":"[32538,774,7236,1260,732,762,713,473]","trial_type":"two-door-navigation","trial_index":25,"time_elapsed":2231834,"internal_node_id":"0.0-2.0-23.0"},{"group":"hexagon_bi","room_assignment":["red","purple","blue","green","yellow","grey"],"door_color_assignment":["black","white"],"door_generator_assignment":[1,0],"goal":3,"start":0,"action_noise":0.15,"location_history":"[0,5,4,5,0,5,0,1,2,3]","action_history":"[1,1,1,0,0,0,1,0,1]","door_history":"[0,0,0,1,1,1,0,1,0]","location_rts":"[3869,1038,1179,753,1229,1000,979,941,7827]","trial_type":"two-door-navigation","trial_index":26,"time_elapsed":2263200,"internal_node_id":"0.0-2.0-24.0"},{"group":"hexagon_bi","room_assignment":["red","purple","blue","green","yellow","grey"],"door_color_assignment":["black","white"],"door_generator_assignment":[1,0],"goal":1,"start":3,"action_noise":0.15,"location_history":"[3,2,3,2,3,4,3,4,5,4,3,4,5,0,1]","action_history":"[1,1,1,0,0,0,0,1,1,0,0,1,0,1]","door_history":"[0,0,0,1,1,1,1,0,0,1,1,0,1,0]","location_rts":"[7434,1020,470,155,811,976,573,321,1060,700,572,820,665,1074]","trial_type":"two-door-navigation","trial_index":27,"time_elapsed":2297432,"internal_node_id":"0.0-2.0-25.0"},{"group":"hexagon_bi","room_assignment":["red","purple","blue","green","yellow","grey"],"door_color_assignment":["black","white"],"door_generator_assignment":[1,0],"goal":2,"start":1,"action_noise":0.15,"location_history":"[1,2]","action_history":"[0]","door_history":"[1]","location_rts":"[2305]","trial_type":"two-door-navigation","trial_index":28,"time_elapsed":2304241,"internal_node_id":"0.0-2.0-26.0"},{"group":"hexagon_bi","room_assignment":["red","purple","blue","green","yellow","grey"],"door_color_assignment":["black","white"],"door_generator_assignment":[1,0],"goal":5,"start":2,"action_noise":0.15,"location_history":"[2,1,0,1,0,1,2,1,2,1,0,1,0,1,2,1,2,1,0,1,0,1,2,3,4,5]","action_history":"[0,1,0,1,1,0,0,0,0,1,1,1,0,0,0,0,0,1,1,1,0,0,1,0,0]","door_history":"[1,0,1,0,0,1,1,1,1,0,0,0,1,1,1,1,1,0,0,0,1,1,0,1,1]","location_rts":"[3367,1104,1293,775,421,1282,581,672,905,3315,1230,596,688,770,1288,890,377,682,1029,578,692,551,898,1209,1045]","trial_type":"two-door-navigation","trial_index":29,"time_elapsed":2359141,"internal_node_id":"0.0-2.0-27.0"},{"group":"hexagon_bi","room_assignment":["red","purple","blue","green","yellow","grey"],"door_color_assignment":["black","white"],"door_generator_assignment":[1,0],"goal":4,"start":5,"action_noise":0.15,"location_history":"[5,0,1,2,3,2,3,4]","action_history":"[0,0,0,1,1,1,0]","door_history":"[1,1,1,0,0,0,1]","location_rts":"[1955,1081,868,670,995,385,594]","trial_type":"two-door-navigation","trial_index":30,"time_elapsed":2376235,"internal_node_id":"0.0-2.0-28.0"},{"group":"hexagon_bi","room_assignment":["red","purple","blue","green","yellow","grey"],"door_color_assignment":["black","white"],"door_generator_assignment":[1,0],"goal":5,"start":4,"action_noise":0.15,"location_history":"[4,5]","action_history":"[1]","door_history":"[0]","location_rts":"[2030]","trial_type":"two-door-navigation","trial_index":31,"time_elapsed":2382769,"internal_node_id":"0.0-2.0-29.0"},{"group":"hexagon_bi","room_assignment":["red","purple","blue","green","yellow","grey"],"door_color_assignment":["black","white"],"door_generator_assignment":[1,0],"goal":3,"start":5,"action_noise":0.15,"location_history":"[5,4,3]","action_history":"[0,0]","door_history":"[1,1]","location_rts":"[2405,988]","trial_type":"two-door-navigation","trial_index":32,"time_elapsed":2391676,"internal_node_id":"0.0-2.0-30.0"},{"group":"hexagon_bi","room_assignment":["red","purple","blue","green","yellow","grey"],"door_color_assignment":["black","white"],"door_generator_assignment":[1,0],"goal":0,"start":3,"action_noise":0.15,"location_history":"[3,2,3,4,3,4,5,0]","action_history":"[1,1,0,0,0,1,0]","door_history":"[0,0,1,1,1,0,1]","location_rts":"[1909,1363,1219,701,692,294,292]","trial_type":"two-door-navigation","trial_index":33,"time_elapsed":2408685,"internal_node_id":"0.0-2.0-31.0"},{"group":"hexagon_bi","room_assignment":["red","purple","blue","green","yellow","grey"],"door_color_assignment":["black","white"],"door_generator_assignment":[1,0],"goal":4,"start":0,"action_noise":0.15,"location_history":"[0,1,2,1,0,1,0,5,0,5,4]","action_history":"[1,0,0,1,1,1,0,0,0,1]","door_history":"[0,1,1,0,0,0,1,1,1,0]","location_rts":"[2875,853,1188,1289,988,1066,1245,971,370,1368]","trial_type":"two-door-navigation","trial_index":34,"time_elapsed":2434460,"internal_node_id":"0.0-2.0-32.0"},{"group":"hexagon_bi","room_assignment":["red","purple","blue","green","yellow","grey"],"door_color_assignment":["black","white"],"door_generator_assignment":[1,0],"goal":1,"start":4,"action_noise":0.15,"location_history":"[4,3,2,1]","action_history":"[0,1,1]","door_history":"[1,0,0]","location_rts":"[3084,1181,945]","trial_type":"two-door-navigation","trial_index":35,"time_elapsed":2446807,"internal_node_id":"0.0-2.0-33.0"},{"group":"hexagon_bi","room_assignment":["red","purple","blue","green","yellow","grey"],"door_color_assignment":["black","white"],"door_generator_assignment":[1,0],"goal":2,"start":1,"action_noise":0.15,"location_history":"[1,2]","action_history":"[0]","door_history":"[1]","location_rts":"[3817]","trial_type":"two-door-navigation","trial_index":36,"time_elapsed":2455127,"internal_node_id":"0.0-2.0-34.0"},{"group":"hexagon_bi","room_assignment":["red","purple","blue","green","yellow","grey"],"door_color_assignment":["black","white"],"door_generator_assignment":[1,0],"goal":0,"start":2,"action_noise":0.15,"location_history":"[2,3,2,3,4,3,2,3,2,3,4,3,4,5,0]","action_history":"[1,1,1,0,0,0,1,1,1,0,0,0,1,0]","door_history":"[0,0,0,1,1,1,0,0,0,1,1,1,0,1]","location_rts":"[6434,1782,1805,297,2427,659,366,794,1268,3250,1077,872,349,1300]","trial_type":"two-door-navigation","trial_index":37,"time_elapsed":2496180,"internal_node_id":"0.0-2.0-35.0"},{"group":"hexagon_bi","room_assignment":["red","purple","blue","green","yellow","grey"],"door_color_assignment":["black","white"],"door_generator_assignment":[1,0],"goal":5,"start":0,"action_noise":0.15,"location_history":"[0,5]","action_history":"[0]","door_history":"[1]","location_rts":"[5645]","trial_type":"two-door-navigation","trial_index":38,"time_elapsed":2506807,"internal_node_id":"0.0-2.0-36.0"},{"group":"hexagon_bi","room_assignment":["red","purple","blue","green","yellow","grey"],"door_color_assignment":["black","white"],"door_generator_assignment":[1,0],"goal":2,"start":5,"action_noise":0.15,"location_history":"[5,0,5,0,1,2]","action_history":"[1,0,0,1,0]","door_history":"[0,1,1,0,1]","location_rts":"[3359,1413,902,770,914]","trial_type":"two-door-navigation","trial_index":39,"time_elapsed":2522689,"internal_node_id":"0.0-2.0-37.0"},{"group":"hexagon_bi","room_assignment":["red","purple","blue","green","yellow","grey"],"door_color_assignment":["black","white"],"door_generator_assignment":[1,0],"goal":1,"start":2,"action_noise":0.15,"location_history":"[2,1]","action_history":"[0]","door_history":"[1]","location_rts":"[11096]","trial_type":"two-door-navigation","trial_index":40,"time_elapsed":2538294,"internal_node_id":"0.0-2.0-38.0"},{"group":"hexagon_bi","room_assignment":["red","purple","blue","green","yellow","grey"],"door_color_assignment":["black","white"],"door_generator_assignment":[1,0],"goal":4,"start":1,"action_noise":0.15,"location_history":"[1,2,3,2,3,4]","action_history":"[0,1,1,1,0]","door_history":"[1,0,0,0,1]","location_rts":"[5435,20188,1487,640,306]","trial_type":"two-door-navigation","trial_index":41,"time_elapsed":2574881,"internal_node_id":"0.0-2.0-39.0"},{"group":"hexagon_bi","room_assignment":["red","purple","blue","green","yellow","grey"],"door_color_assignment":["black","white"],"door_generator_assignment":[1,0],"goal":3,"start":4,"action_noise":0.15,"location_history":"[4,3]","action_history":"[0]","door_history":"[1]","location_rts":"[4433]","trial_type":"two-door-navigation","trial_index":42,"time_elapsed":2583820,"internal_node_id":"0.0-2.0-40.0"},{"group":"hexagon_bi","room_assignment":["red","purple","blue","green","yellow","grey"],"door_color_assignment":["black","white"],"door_generator_assignment":[1,0],"goal":5,"start":3,"action_noise":0.15,"location_history":"[3,2,1,2,1,0,5]","action_history":"[1,0,0,1,1,0]","door_history":"[0,1,1,0,0,1]","location_rts":"[4836,1888,1165,3732,1135,1287]","trial_type":"two-door-navigation","trial_index":43,"time_elapsed":2607386,"internal_node_id":"0.0-2.0-41.0"},{"group":"hexagon_bi","room_assignment":["red","purple","blue","green","yellow","grey"],"door_color_assignment":["black","white"],"door_generator_assignment":[1,0],"goal":3,"start":5,"action_noise":0.15,"location_history":"[5,4,5,0,1,0,1,0,1,2,1,2,1,0,1,2,1,2,3]","action_history":"[1,1,1,1,1,1,1,0,0,1,0,0,0,1,0,0,0,1]","door_history":"[0,0,0,0,0,0,0,1,1,0,1,1,1,0,1,1,1,0]","location_rts":"[4038,3121,765,592,756,700,851,745,555,1392,679,436,958,457,715,867,482,1097]","trial_type":"two-door-navigation","trial_index":44,"time_elapsed":2648194,"internal_node_id":"0.0-2.0-42.0"},{"group":"hexagon_bi","room_assignment":["red","purple","blue","green","yellow","grey"],"door_color_assignment":["black","white"],"door_generator_assignment":[1,0],"goal":0,"start":3,"action_noise":0.15,"location_history":"[3,2,3,4,5,0]","action_history":"[0,1,0,1,0]","door_history":"[1,0,1,0,1]","location_rts":"[7334,1589,1306,685,706]","trial_type":"two-door-navigation","trial_index":45,"time_elapsed":2668341,"internal_node_id":"0.0-2.0-43.0"},{"group":"hexagon_bi","room_assignment":["red","purple","blue","green","yellow","grey"],"door_color_assignment":["black","white"],"door_generator_assignment":[1,0],"goal":2,"start":0,"action_noise":0.15,"location_history":"[0,5,4,3,4,5,0,1,2]","action_history":"[0,0,1,0,1,0,1,1]","door_history":"[1,1,0,1,0,1,0,0]","location_rts":"[2628,1106,1513,626,7887,628,550,922]","trial_type":"two-door-navigation","trial_index":46,"time_elapsed":2695738,"internal_node_id":"0.0-2.0-44.0"},{"group":"hexagon_bi","room_assignment":["red","purple","blue","green","yellow","grey"],"door_color_assignment":["black","white"],"door_generator_assignment":[1,0],"goal":4,"start":2,"action_noise":0.15,"location_history":"[2,1,0,5,4]","action_history":"[0,0,1,1]","door_history":"[1,1,0,0]","location_rts":"[1909,749,1143,612]","trial_type":"two-door-navigation","trial_index":47,"time_elapsed":2707671,"internal_node_id":"0.0-2.0-45.0"},{"group":"hexagon_bi","room_assignment":["red","purple","blue","green","yellow","grey"],"door_color_assignment":["black","white"],"door_generator_assignment":[1,0],"goal":1,"start":4,"action_noise":0.15,"location_history":"[4,3,4,3,2,3,2,1]","action_history":"[0,0,0,1,1,1,0]","door_history":"[1,1,1,0,0,0,1]","location_rts":"[1328,752,745,3406,5666,592,737]","trial_type":"two-door-navigation","trial_index":48,"time_elapsed":2731443,"internal_node_id":"0.0-2.0-46.0"},{"group":"hexagon_bi","room_assignment":["red","purple","blue","green","yellow","grey"],"door_color_assignment":["black","white"],"door_generator_assignment":[1,0],"goal":4,"start":1,"action_noise":0.15,"location_history":"[1,2,1,0,5,4]","action_history":"[0,0,1,0,1]","door_history":"[1,1,0,1,0]","location_rts":"[1669,908,818,929,1256]","trial_type":"two-door-navigation","trial_index":49,"time_elapsed":2745553,"internal_node_id":"0.0-2.0-47.0"},{"group":"hexagon_bi","room_assignment":["red","purple","blue","green","yellow","grey"],"door_color_assignment":["black","white"],"door_generator_assignment":[1,0],"goal":3,"start":4,"action_noise":0.15,"location_history":"[4,5,4,5,4,3]","action_history":"[1,1,0,1,0]","door_history":"[0,0,1,0,1]","location_rts":"[4278,2065,1189,534,555]","trial_type":"two-door-navigation","trial_index":50,"time_elapsed":2762705,"internal_node_id":"0.0-2.0-48.0"},{"group":"hexagon_bi","room_assignment":["red","purple","blue","green","yellow","grey"],"door_color_assignment":["black","white"],"door_generator_assignment":[1,0],"goal":5,"start":3,"action_noise":0.15,"location_history":"[3,4,3,4,3,2,3,4,5]","action_history":"[0,0,0,0,1,1,0,1]","door_history":"[1,1,1,1,0,0,1,0]","location_rts":"[1997,742,423,769,1750,1844,3453,861]","trial_type":"two-door-navigation","trial_index":51,"time_elapsed":2786089,"internal_node_id":"0.0-2.0-49.0"},{"view_history":"[{\"page_index\":0,\"viewing_time\":5886}]","rt":5886,"trial_type":"instructions","trial_index":52,"time_elapsed":2792976,"internal_node_id":"0.0-3.0"},{"view_history":"[{\"page_index\":0,\"viewing_time\":2296},{\"page_index\":1,\"viewing_time\":30112}]","rt":32408,"trial_type":"instructions","trial_index":53,"time_elapsed":2826384,"internal_node_id":"0.0-4.0"},{"group":"hexagon_tri","fractal_assignment":["../images/blu_wht.png","../images/org_blu.png","../images/cyn_red.png","../images/gry_blk.png","../images/pnk_blu.png","../images/ylw_slt.png"],"mutagen_generator_assignment":[0,1],"goal":4,"start":0,"action_noise":0.15,"location_history":"[0,5,0,5,4]","action_history":"[0,1,0,0]","mutagen_history":"[0,1,0,0]","location_rts":"[5030,2350,991,888]","trial_type":"fractal-mutation","trial_index":54,"time_elapsed":2843177,"internal_node_id":"0.0-5.0-0.0"},{"group":"hexagon_tri","fractal_assignment":["../images/blu_wht.png","../images/org_blu.png","../images/cyn_red.png","../images/gry_blk.png","../images/pnk_blu.png","../images/ylw_slt.png"],"mutagen_generator_assignment":[0,1],"goal":3,"start":4,"action_noise":0.15,"location_history":"[4,2,3]","action_history":"[1,1]","mutagen_history":"[1,1]","location_rts":"[1822,530]","trial_type":"fractal-mutation","trial_index":55,"time_elapsed":2851052,"internal_node_id":"0.0-5.0-1.0"},{"group":"hexagon_tri","fractal_assignment":["../images/blu_wht.png","../images/org_blu.png","../images/cyn_red.png","../images/gry_blk.png","../images/pnk_blu.png","../images/ylw_slt.png"],"mutagen_generator_assignment":[0,1],"goal":5,"start":3,"action_noise":0.15,"location_history":"[3,2,1,5]","action_history":"[0,0,0]","mutagen_history":"[0,0,0]","location_rts":"[1531,425,460]","trial_type":"fractal-mutation","trial_index":56,"time_elapsed":2859988,"internal_node_id":"0.0-5.0-2.0"},{"group":"hexagon_tri","fractal_assignment":["../images/blu_wht.png","../images/org_blu.png","../images/cyn_red.png","../images/gry_blk.png","../images/pnk_blu.png","../images/ylw_slt.png"],"mutagen_generator_assignment":[0,1],"goal":2,"start":5,"action_noise":0.15,"location_history":"[5,0,1,5,4,2]","action_history":"[1,1,1,1,1]","mutagen_history":"[1,1,1,1,1]","location_rts":"[1451,404,627,402,840]","trial_type":"fractal-mutation","trial_index":57,"time_elapsed":2872250,"internal_node_id":"0.0-5.0-3.0"},{"group":"hexagon_tri","fractal_assignment":["../images/blu_wht.png","../images/org_blu.png","../images/cyn_red.png","../images/gry_blk.png","../images/pnk_blu.png","../images/ylw_slt.png"],"mutagen_generator_assignment":[0,1],"goal":1,"start":2,"action_noise":0.15,"location_history":"[2,1]","action_history":"[0]","mutagen_history":"[0]","location_rts":"[1494]","trial_type":"fractal-mutation","trial_index":58,"time_elapsed":2878251,"internal_node_id":"0.0-5.0-4.0"},{"group":"hexagon_tri","fractal_assignment":["../images/blu_wht.png","../images/org_blu.png","../images/cyn_red.png","../images/gry_blk.png","../images/pnk_blu.png","../images/ylw_slt.png"],"mutagen_generator_assignment":[0,1],"goal":4,"start":1,"action_noise":0.15,"location_history":"[1,5,0,1,5,0,1,3,2,1,3,2,1,3,4]","action_history":"[1,1,1,1,1,1,0,0,0,0,0,0,0,1]","mutagen_history":"[1,1,1,1,1,1,0,0,0,0,0,0,0,1]","location_rts":"[2053,634,621,815,597,465,1017,703,464,537,559,820,659,480]","trial_type":"fractal-mutation","trial_index":59,"time_elapsed":2906295,"internal_node_id":"0.0-5.0-5.0"},{"group":"hexagon_tri","fractal_assignment":["../images/blu_wht.png","../images/org_blu.png","../images/cyn_red.png","../images/gry_blk.png","../images/pnk_blu.png","../images/ylw_slt.png"],"mutagen_generator_assignment":[0,1],"goal":1,"start":4,"action_noise":0.15,"location_history":"[4,2,3,4,0,1]","action_history":"[1,1,1,1,1]","mutagen_history":"[1,1,1,1,1]","location_rts":"[2975,554,758,1050,1382]","trial_type":"fractal-mutation","trial_index":60,"time_elapsed":2921558,"internal_node_id":"0.0-5.0-6.0"},{"group":"hexagon_tri","fractal_assignment":["../images/blu_wht.png","../images/org_blu.png","../images/cyn_red.png","../images/gry_blk.png","../images/pnk_blu.png","../images/ylw_slt.png"],"mutagen_generator_assignment":[0,1],"goal":5,"start":1,"action_noise":0.15,"location_history":"[1,3,2,1,3,2,3,4,2,1,3,2,1,5]","action_history":"[0,0,0,0,0,1,1,1,0,0,0,0,1]","mutagen_history":"[0,0,0,0,0,1,1,1,0,0,0,0,1]","location_rts":"[2514,647,2715,515,693,421,534,670,400,1667,512,642,1017]","trial_type":"fractal-mutation","trial_index":61,"time_elapsed":2951094,"internal_node_id":"0.0-5.0-7.0"},{"group":"hexagon_tri","fractal_assignment":["../images/blu_wht.png","../images/org_blu.png","../images/cyn_red.png","../images/gry_blk.png","../images/pnk_blu.png","../images/ylw_slt.png"],"mutagen_generator_assignment":[0,1],"goal":0,"start":5,"action_noise":0.15,"location_history":"[5,0]","action_history":"[1]","mutagen_history":"[1]","location_rts":"[3184]","trial_type":"fractal-mutation","trial_index":62,"time_elapsed":2958786,"internal_node_id":"0.0-5.0-8.0"},{"group":"hexagon_tri","fractal_assignment":["../images/blu_wht.png","../images/org_blu.png","../images/cyn_red.png","../images/gry_blk.png","../images/pnk_blu.png","../images/ylw_slt.png"],"mutagen_generator_assignment":[0,1],"goal":2,"start":0,"action_noise":0.15,"location_history":"[0,5,0,1,5,0,1,3,2]","action_history":"[0,1,1,1,1,1,0,0]","mutagen_history":"[0,1,1,1,1,1,0,0]","location_rts":"[2414,14876,428,439,511,638,440,432]","trial_type":"fractal-mutation","trial_index":63,"time_elapsed":2990529,"internal_node_id":"0.0-5.0-9.0"},{"group":"hexagon_tri","fractal_assignment":["../images/blu_wht.png","../images/org_blu.png","../images/cyn_red.png","../images/gry_blk.png","../images/pnk_blu.png","../images/ylw_slt.png"],"mutagen_generator_assignment":[0,1],"goal":3,"start":2,"action_noise":0.15,"location_history":"[2,3]","action_history":"[0]","mutagen_history":"[0]","location_rts":"[534]","trial_type":"fractal-mutation","trial_index":64,"time_elapsed":2995569,"internal_node_id":"0.0-5.0-10.0"},{"group":"hexagon_tri","fractal_assignment":["../images/blu_wht.png","../images/org_blu.png","../images/cyn_red.png","../images/gry_blk.png","../images/pnk_blu.png","../images/ylw_slt.png"],"mutagen_generator_assignment":[0,1],"goal":0,"start":3,"action_noise":0.15,"location_history":"[3,2,1,3,2,3,2,1,3,2,3,2,1,3,2,3,4,2,3,4,0]","action_history":"[0,0,1,1,1,0,0,0,0,0,0,0,0,0,1,1,1,1,1,0]","mutagen_history":"[0,0,1,1,1,0,0,0,0,0,0,0,0,0,1,1,1,1,1,0]","location_rts":"[479,1165,1417,457,1636,8064,7898,441,416,6084,25890,607,625,1016,2553,754,560,1033,1071,845]","trial_type":"fractal-mutation","trial_index":65,"time_elapsed":3082228,"internal_node_id":"0.0-5.0-11.0"},{"group":"hexagon_tri","fractal_assignment":["../images/blu_wht.png","../images/org_blu.png","../images/cyn_red.png","../images/gry_blk.png","../images/pnk_blu.png","../images/ylw_slt.png"],"mutagen_generator_assignment":[0,1],"goal":2,"start":0,"action_noise":0.15,"location_history":"[0,1,3,2]","action_history":"[0,0,1]","mutagen_history":"[0,0,1]","location_rts":"[187,7556,524]","trial_type":"fractal-mutation","trial_index":66,"time_elapsed":3097013,"internal_node_id":"0.0-5.0-12.0"},{"group":"hexagon_tri","fractal_assignment":["../images/blu_wht.png","../images/org_blu.png","../images/cyn_red.png","../images/gry_blk.png","../images/pnk_blu.png","../images/ylw_slt.png"],"mutagen_generator_assignment":[0,1],"goal":5,"start":2,"action_noise":0.15,"location_history":"[2,1,3,4,2,1,5]","action_history":"[0,1,1,1,1,1]","mutagen_history":"[0,1,1,1,1,1]","location_rts":"[2562,4338,436,427,395,389]","trial_type":"fractal-mutation","trial_index":67,"time_elapsed":3115122,"internal_node_id":"0.0-5.0-13.0"},{"group":"hexagon_tri","fractal_assignment":["../images/blu_wht.png","../images/org_blu.png","../images/cyn_red.png","../images/gry_blk.png","../images/pnk_blu.png","../images/ylw_slt.png"],"mutagen_generator_assignment":[0,1],"goal":4,"start":5,"action_noise":0.15,"location_history":"[5,4]","action_history":"[0]","mutagen_history":"[0]","location_rts":"[1389]","trial_type":"fractal-mutation","trial_index":68,"time_elapsed":3121024,"internal_node_id":"0.0-5.0-14.0"},{"group":"hexagon_tri","fractal_assignment":["../images/blu_wht.png","../images/org_blu.png","../images/cyn_red.png","../images/gry_blk.png","../images/pnk_blu.png","../images/ylw_slt.png"],"mutagen_generator_assignment":[0,1],"goal":3,"start":4,"action_noise":0.15,"location_history":"[4,0,1,5,0,5,4,0,5,4,2,1,3]","action_history":"[1,1,1,1,0,0,0,0,0,0,0,0]","mutagen_history":"[1,1,1,1,0,0,0,0,0,0,0,0]","location_rts":"[36646,475,426,414,590,1903,432,398,10237,465,430,455]","trial_type":"fractal-mutation","trial_index":69,"time_elapsed":3189475,"internal_node_id":"0.0-5.0-15.0"},{"group":"hexagon_tri","fractal_assignment":["../images/blu_wht.png","../images/org_blu.png","../images/cyn_red.png","../images/gry_blk.png","../images/pnk_blu.png","../images/ylw_slt.png"],"mutagen_generator_assignment":[0,1],"goal":1,"start":3,"action_noise":0.15,"location_history":"[3,2,1]","action_history":"[0,0]","mutagen_history":"[0,0]","location_rts":"[1965,594]","trial_type":"fractal-mutation","trial_index":70,"time_elapsed":3197546,"internal_node_id":"0.0-5.0-16.0"},{"group":"hexagon_tri","fractal_assignment":["../images/blu_wht.png","../images/org_blu.png","../images/cyn_red.png","../images/gry_blk.png","../images/pnk_blu.png","../images/ylw_slt.png"],"mutagen_generator_assignment":[0,1],"goal":5,"start":1,"action_noise":0.15,"location_history":"[1,5]","action_history":"[1]","mutagen_history":"[1]","location_rts":"[1517]","trial_type":"fractal-mutation","trial_index":71,"time_elapsed":3203577,"internal_node_id":"0.0-5.0-17.0"},{"group":"hexagon_tri","fractal_assignment":["../images/blu_wht.png","../images/org_blu.png","../images/cyn_red.png","../images/gry_blk.png","../images/pnk_blu.png","../images/ylw_slt.png"],"mutagen_generator_assignment":[0,1],"goal":4,"start":5,"action_noise":0.15,"location_history":"[5,4]","action_history":"[0]","mutagen_history":"[0]","location_rts":"[2591]","trial_type":"fractal-mutation","trial_index":72,"time_elapsed":3210675,"internal_node_id":"0.0-5.0-18.0"},{"group":"hexagon_tri","fractal_assignment":["../images/blu_wht.png","../images/org_blu.png","../images/cyn_red.png","../images/gry_blk.png","../images/pnk_blu.png","../images/ylw_slt.png"],"mutagen_generator_assignment":[0,1],"goal":0,"start":4,"action_noise":0.15,"location_history":"[4,2,1,5,4,2,3,2,1,5,4,2,1,3,4,2,3,2,1,5,0]","action_history":"[1,1,1,1,1,1,0,0,0,0,0,0,0,1,1,1,0,0,1,1]","mutagen_history":"[1,1,1,1,1,1,0,0,0,0,0,0,0,1,1,1,0,0,1,1]","location_rts":"[3212,412,442,642,447,442,1521,422,538,76,426,550,563,536,572,500,705,1651,486,555]","trial_type":"fractal-mutation","trial_index":73,"time_elapsed":3249080,"internal_node_id":"0.0-5.0-19.0"},{"group":"hexagon_tri","fractal_assignment":["../images/blu_wht.png","../images/org_blu.png","../images/cyn_red.png","../images/gry_blk.png","../images/pnk_blu.png","../images/ylw_slt.png"],"mutagen_generator_assignment":[0,1],"goal":1,"start":0,"action_noise":0.15,"location_history":"[0,1]","action_history":"[0]","mutagen_history":"[0]","location_rts":"[5150]","trial_type":"fractal-mutation","trial_index":74,"time_elapsed":3258740,"internal_node_id":"0.0-5.0-20.0"},{"group":"hexagon_tri","fractal_assignment":["../images/blu_wht.png","../images/org_blu.png","../images/cyn_red.png","../images/gry_blk.png","../images/pnk_blu.png","../images/ylw_slt.png"],"mutagen_generator_assignment":[0,1],"goal":3,"start":1,"action_noise":0.15,"location_history":"[1,3]","action_history":"[0]","mutagen_history":"[0]","location_rts":"[5138]","trial_type":"fractal-mutation","trial_index":75,"time_elapsed":3268386,"internal_node_id":"0.0-5.0-21.0"},{"group":"hexagon_tri","fractal_assignment":["../images/blu_wht.png","../images/org_blu.png","../images/cyn_red.png","../images/gry_blk.png","../images/pnk_blu.png","../images/ylw_slt.png"],"mutagen_generator_assignment":[0,1],"goal":2,"start":3,"action_noise":0.15,"location_history":"[3,4,0,5,0,5,0,5,0,5,4,0,5,4,2]","action_history":"[1,0,0,0,0,1,1,1,0,0,0,0,0,0]","mutagen_history":"[1,0,0,0,0,1,1,1,0,0,0,0,0,0]","location_rts":"[981,4979,368,557,1036,10283,483,398,575,482,432,493,625,10877]","trial_type":"fractal-mutation","trial_index":76,"time_elapsed":3318561,"internal_node_id":"0.0-5.0-22.0"},{"group":"hexagon_tri","fractal_assignment":["../images/blu_wht.png","../images/org_blu.png","../images/cyn_red.png","../images/gry_blk.png","../images/pnk_blu.png","../images/ylw_slt.png"],"mutagen_generator_assignment":[0,1],"goal":0,"start":2,"action_noise":0.15,"location_history":"[2,1,3,2,3,4,2,1,5,0]","action_history":"[0,0,0,1,1,1,1,1,1]","mutagen_history":"[0,0,0,1,1,1,1,1,1]","location_rts":"[3493,820,446,679,451,535,564,532,556]","trial_type":"fractal-mutation","trial_index":77,"time_elapsed":3339234,"internal_node_id":"0.0-5.0-23.0"},{"group":"hexagon_tri","fractal_assignment":["../images/blu_wht.png","../images/org_blu.png","../images/cyn_red.png","../images/gry_blk.png","../images/pnk_blu.png","../images/ylw_slt.png"],"mutagen_generator_assignment":[0,1],"goal":3,"start":0,"action_noise":0.15,"location_history":"[0,1,5,0,1,3]","action_history":"[1,1,1,1,0]","mutagen_history":"[1,1,1,1,0]","location_rts":"[972,899,1544,1771,3708]","trial_type":"fractal-mutation","trial_index":78,"time_elapsed":3356698,"internal_node_id":"0.0-5.0-24.0"},{"group":"hexagon_tri","fractal_assignment":["../images/blu_wht.png","../images/org_blu.png","../images/cyn_red.png","../images/gry_blk.png","../images/pnk_blu.png","../images/ylw_slt.png"],"mutagen_generator_assignment":[0,1],"goal":1,"start":3,"action_noise":0.15,"location_history":"[3,2,3,2,3,2,3,2,3,4,0,5,4,0,5,0,5,4,2,1]","action_history":"[1,1,0,1,0,1,0,1,1,0,0,0,0,0,1,0,0,0,1]","mutagen_history":"[1,1,0,1,0,1,0,1,1,0,0,0,0,0,1,0,0,0,1]","location_rts":"[2021,565,3519,883,4514,3036,3305,3519,6322,6726,383,14681,449,8885,4565,3692,718,581,1637]","trial_type":"fractal-mutation","trial_index":79,"time_elapsed":3449807,"internal_node_id":"0.0-5.0-25.0"},{"group":"hexagon_tri","fractal_assignment":["../images/blu_wht.png","../images/org_blu.png","../images/cyn_red.png","../images/gry_blk.png","../images/pnk_blu.png","../images/ylw_slt.png"],"mutagen_generator_assignment":[0,1],"goal":2,"start":1,"action_noise":0.15,"location_history":"[1,5,4,0,5,4,2]","action_history":"[0,0,1,1,1,1]","mutagen_history":"[0,0,1,1,1,1]","location_rts":"[1583,449,672,586,456,538]","trial_type":"fractal-mutation","trial_index":80,"time_elapsed":3463665,"internal_node_id":"0.0-5.0-26.0"},{"group":"hexagon_tri","fractal_assignment":["../images/blu_wht.png","../images/org_blu.png","../images/cyn_red.png","../images/gry_blk.png","../images/pnk_blu.png","../images/ylw_slt.png"],"mutagen_generator_assignment":[0,1],"goal":5,"start":2,"action_noise":0.15,"location_history":"[2,1,3,2,1,3,2,1,5]","action_history":"[0,0,0,0,0,0,0,1]","mutagen_history":"[0,0,0,0,0,0,0,1]","location_rts":"[1509,467,414,408,498,701,561,1176]","trial_type":"fractal-mutation","trial_index":81,"time_elapsed":3480954,"internal_node_id":"0.0-5.0-27.0"},{"group":"hexagon_tri","fractal_assignment":["../images/blu_wht.png","../images/org_blu.png","../images/cyn_red.png","../images/gry_blk.png","../images/pnk_blu.png","../images/ylw_slt.png"],"mutagen_generator_assignment":[0,1],"goal":4,"start":5,"action_noise":0.15,"location_history":"[5,0,1,3,2,1,5,4]","action_history":"[1,1,0,0,0,1,0]","mutagen_history":"[1,1,0,0,0,1,0]","location_rts":"[1244,518,4057,650,5740,1023,24140]","trial_type":"fractal-mutation","trial_index":82,"time_elapsed":3528888,"internal_node_id":"0.0-5.0-28.0"},{"group":"hexagon_tri","fractal_assignment":["../images/blu_wht.png","../images/org_blu.png","../images/cyn_red.png","../images/gry_blk.png","../images/pnk_blu.png","../images/ylw_slt.png"],"mutagen_generator_assignment":[0,1],"goal":5,"start":4,"action_noise":0.15,"location_history":"[4,0,5]","action_history":"[0,0]","mutagen_history":"[0,0]","location_rts":"[1174,560]","trial_type":"fractal-mutation","trial_index":83,"time_elapsed":3536138,"internal_node_id":"0.0-5.0-29.0"},{"group":"hexagon_tri","fractal_assignment":["../images/blu_wht.png","../images/org_blu.png","../images/cyn_red.png","../images/gry_blk.png","../images/pnk_blu.png","../images/ylw_slt.png"],"mutagen_generator_assignment":[0,1],"goal":3,"start":5,"action_noise":0.15,"location_history":"[5,4,0,1,3]","action_history":"[1,1,1,1]","mutagen_history":"[1,1,1,1]","location_rts":"[1212,455,390,445]","trial_type":"fractal-mutation","trial_index":84,"time_elapsed":3546191,"internal_node_id":"0.0-5.0-30.0"},{"group":"hexagon_tri","fractal_assignment":["../images/blu_wht.png","../images/org_blu.png","../images/cyn_red.png","../images/gry_blk.png","../images/pnk_blu.png","../images/ylw_slt.png"],"mutagen_generator_assignment":[0,1],"goal":0,"start":3,"action_noise":0.15,"location_history":"[3,4,2,1,5,0]","action_history":"[1,1,1,1,1]","mutagen_history":"[1,1,1,1,1]","location_rts":"[55783,2567,552,529,776]","trial_type":"fractal-mutation","trial_index":85,"time_elapsed":3614971,"internal_node_id":"0.0-5.0-31.0"},{"group":"hexagon_tri","fractal_assignment":["../images/blu_wht.png","../images/org_blu.png","../images/cyn_red.png","../images/gry_blk.png","../images/pnk_blu.png","../images/ylw_slt.png"],"mutagen_generator_assignment":[0,1],"goal":4,"start":0,"action_noise":0.15,"location_history":"[0,5,4]","action_history":"[0,0]","mutagen_history":"[0,0]","location_rts":"[1615,397]","trial_type":"fractal-mutation","trial_index":86,"time_elapsed":3623328,"internal_node_id":"0.0-5.0-32.0"},{"group":"hexagon_tri","fractal_assignment":["../images/blu_wht.png","../images/org_blu.png","../images/cyn_red.png","../images/gry_blk.png","../images/pnk_blu.png","../images/ylw_slt.png"],"mutagen_generator_assignment":[0,1],"goal":1,"start":4,"action_noise":0.15,"location_history":"[4,2,1]","action_history":"[0,0]","mutagen_history":"[0,0]","location_rts":"[1102,373]","trial_type":"fractal-mutation","trial_index":87,"time_elapsed":3630311,"internal_node_id":"0.0-5.0-33.0"},{"group":"hexagon_tri","fractal_assignment":["../images/blu_wht.png","../images/org_blu.png","../images/cyn_red.png","../images/gry_blk.png","../images/pnk_blu.png","../images/ylw_slt.png"],"mutagen_generator_assignment":[0,1],"goal":2,"start":1,"action_noise":0.15,"location_history":"[1,3,2]","action_history":"[0,0]","mutagen_history":"[0,0]","location_rts":"[1038,490]","trial_type":"fractal-mutation","trial_index":88,"time_elapsed":3637354,"internal_node_id":"0.0-5.0-34.0"},{"group":"hexagon_tri","fractal_assignment":["../images/blu_wht.png","../images/org_blu.png","../images/cyn_red.png","../images/gry_blk.png","../images/pnk_blu.png","../images/ylw_slt.png"],"mutagen_generator_assignment":[0,1],"goal":0,"start":2,"action_noise":0.15,"location_history":"[2,1,5,0]","action_history":"[0,0,0]","mutagen_history":"[0,0,0]","location_rts":"[1221,580,460]","trial_type":"fractal-mutation","trial_index":89,"time_elapsed":3646807,"internal_node_id":"0.0-5.0-35.0"},{"group":"hexagon_tri","fractal_assignment":["../images/blu_wht.png","../images/org_blu.png","../images/cyn_red.png","../images/gry_blk.png","../images/pnk_blu.png","../images/ylw_slt.png"],"mutagen_generator_assignment":[0,1],"goal":5,"start":0,"action_noise":0.15,"location_history":"[0,5]","action_history":"[0]","mutagen_history":"[0]","location_rts":"[3918]","trial_type":"fractal-mutation","trial_index":90,"time_elapsed":3655236,"internal_node_id":"0.0-5.0-36.0"},{"group":"hexagon_tri","fractal_assignment":["../images/blu_wht.png","../images/org_blu.png","../images/cyn_red.png","../images/gry_blk.png","../images/pnk_blu.png","../images/ylw_slt.png"],"mutagen_generator_assignment":[0,1],"goal":2,"start":5,"action_noise":0.15,"location_history":"[5,4,0,5,4,2]","action_history":"[0,0,0,0,0]","mutagen_history":"[0,0,0,0,0]","location_rts":"[1114,5245,394,419,378]","trial_type":"fractal-mutation","trial_index":91,"time_elapsed":3671894,"internal_node_id":"0.0-5.0-37.0"},{"group":"hexagon_tri","fractal_assignment":["../images/blu_wht.png","../images/org_blu.png","../images/cyn_red.png","../images/gry_blk.png","../images/pnk_blu.png","../images/ylw_slt.png"],"mutagen_generator_assignment":[0,1],"goal":1,"start":2,"action_noise":0.15,"location_history":"[2,1]","action_history":"[0]","mutagen_history":"[0]","location_rts":"[961]","trial_type":"fractal-mutation","trial_index":92,"time_elapsed":3677360,"internal_node_id":"0.0-5.0-38.0"},{"group":"hexagon_tri","fractal_assignment":["../images/blu_wht.png","../images/org_blu.png","../images/cyn_red.png","../images/gry_blk.png","../images/pnk_blu.png","../images/ylw_slt.png"],"mutagen_generator_assignment":[0,1],"goal":4,"start":1,"action_noise":0.15,"location_history":"[1,3,2,3,4]","action_history":"[0,0,0,0]","mutagen_history":"[0,0,0,0]","location_rts":"[1310,579,517,467]","trial_type":"fractal-mutation","trial_index":93,"time_elapsed":3687755,"internal_node_id":"0.0-5.0-39.0"},{"group":"hexagon_tri","fractal_assignment":["../images/blu_wht.png","../images/org_blu.png","../images/cyn_red.png","../images/gry_blk.png","../images/pnk_blu.png","../images/ylw_slt.png"],"mutagen_generator_assignment":[0,1],"goal":3,"start":4,"action_noise":0.15,"location_history":"[4,0,1,5,0,1,5,0,5,0,1,3]","action_history":"[1,1,1,1,1,1,1,0,0,0,0]","mutagen_history":"[1,1,1,1,1,1,1,0,0,0,0]","location_rts":"[948,443,480,475,698,640,535,410,395,344,379]","trial_type":"fractal-mutation","trial_index":94,"time_elapsed":3708134,"internal_node_id":"0.0-5.0-40.0"},{"group":"hexagon_tri","fractal_assignment":["../images/blu_wht.png","../images/org_blu.png","../images/cyn_red.png","../images/gry_blk.png","../images/pnk_blu.png","../images/ylw_slt.png"],"mutagen_generator_assignment":[0,1],"goal":5,"start":3,"action_noise":0.15,"location_history":"[3,2,3,4,0,5]","action_history":"[0,1,1,0,0]","mutagen_history":"[0,1,1,0,0]","location_rts":"[1360,990,1048,3000,497]","trial_type":"fractal-mutation","trial_index":95,"time_elapsed":3723570,"internal_node_id":"0.0-5.0-41.0"},{"group":"hexagon_tri","fractal_assignment":["../images/blu_wht.png","../images/org_blu.png","../images/cyn_red.png","../images/gry_blk.png","../images/pnk_blu.png","../images/ylw_slt.png"],"mutagen_generator_assignment":[0,1],"goal":3,"start":5,"action_noise":0.15,"location_history":"[5,4,2,1,3]","action_history":"[0,0,0,0]","mutagen_history":"[0,0,0,0]","location_rts":"[3492,7850,452,619]","trial_type":"fractal-mutation","trial_index":96,"time_elapsed":3744807,"internal_node_id":"0.0-5.0-42.0"},{"group":"hexagon_tri","fractal_assignment":["../images/blu_wht.png","../images/org_blu.png","../images/cyn_red.png","../images/gry_blk.png","../images/pnk_blu.png","../images/ylw_slt.png"],"mutagen_generator_assignment":[0,1],"goal":0,"start":3,"action_noise":0.15,"location_history":"[3,2,1,3,2,3,4,2,1,5,0]","action_history":"[0,0,0,0,1,1,1,1,1,1]","mutagen_history":"[0,0,0,0,1,1,1,1,1,1]","location_rts":"[2062,484,4795,534,26411,576,432,504,427,376]","trial_type":"fractal-mutation","trial_index":97,"time_elapsed":3795009,"internal_node_id":"0.0-5.0-43.0"},{"group":"hexagon_tri","fractal_assignment":["../images/blu_wht.png","../images/org_blu.png","../images/cyn_red.png","../images/gry_blk.png","../images/pnk_blu.png","../images/ylw_slt.png"],"mutagen_generator_assignment":[0,1],"goal":2,"start":0,"action_noise":0.15,"location_history":"[0,5,0,5,4,2]","action_history":"[0,0,0,0,0]","mutagen_history":"[0,0,0,0,0]","location_rts":"[1373,2940,8709,488,328]","trial_type":"fractal-mutation","trial_index":98,"time_elapsed":3817941,"internal_node_id":"0.0-5.0-44.0"},{"group":"hexagon_tri","fractal_assignment":["../images/blu_wht.png","../images/org_blu.png","../images/cyn_red.png","../images/gry_blk.png","../images/pnk_blu.png","../images/ylw_slt.png"],"mutagen_generator_assignment":[0,1],"goal":4,"start":2,"action_noise":0.15,"location_history":"[2,1,3,2,1,3,2,1,5,4]","action_history":"[0,0,0,0,0,0,0,0,0]","mutagen_history":"[0,0,0,0,0,0,0,0,0]","location_rts":"[1528,7091,533,386,506,1483,1621,2596,1881]","trial_type":"fractal-mutation","trial_index":99,"time_elapsed":3848113,"internal_node_id":"0.0-5.0-45.0"},{"group":"hexagon_tri","fractal_assignment":["../images/blu_wht.png","../images/org_blu.png","../images/cyn_red.png","../images/gry_blk.png","../images/pnk_blu.png","../images/ylw_slt.png"],"mutagen_generator_assignment":[0,1],"goal":1,"start":4,"action_noise":0.15,"location_history":"[4,2,3,2,3,4,0,5,0,1]","action_history":"[1,1,1,1,1,0,0,1,1]","mutagen_history":"[1,1,1,1,1,0,0,1,1]","location_rts":"[755,590,394,476,438,398,412,85,425]","trial_type":"fractal-mutation","trial_index":100,"time_elapsed":3864696,"internal_node_id":"0.0-5.0-46.0"},{"group":"hexagon_tri","fractal_assignment":["../images/blu_wht.png","../images/org_blu.png","../images/cyn_red.png","../images/gry_blk.png","../images/pnk_blu.png","../images/ylw_slt.png"],"mutagen_generator_assignment":[0,1],"goal":4,"start":1,"action_noise":0.15,"location_history":"[1,3,4]","action_history":"[0,1]","mutagen_history":"[0,1]","location_rts":"[1269,756]","trial_type":"fractal-mutation","trial_index":101,"time_elapsed":3872240,"internal_node_id":"0.0-5.0-47.0"},{"group":"hexagon_tri","fractal_assignment":["../images/blu_wht.png","../images/org_blu.png","../images/cyn_red.png","../images/gry_blk.png","../images/pnk_blu.png","../images/ylw_slt.png"],"mutagen_generator_assignment":[0,1],"goal":3,"start":4,"action_noise":0.15,"location_history":"[4,0,5,4,0,1,3]","action_history":"[0,0,0,0,0,0]","mutagen_history":"[0,0,0,0,0,0]","location_rts":"[3366,441,562,410,554,412]","trial_type":"fractal-mutation","trial_index":102,"time_elapsed":3888089,"internal_node_id":"0.0-5.0-48.0"},{"group":"hexagon_tri","fractal_assignment":["../images/blu_wht.png","../images/org_blu.png","../images/cyn_red.png","../images/gry_blk.png","../images/pnk_blu.png","../images/ylw_slt.png"],"mutagen_generator_assignment":[0,1],"goal":5,"start":3,"action_noise":0.15,"location_history":"[3,4,2,3,4,0,5]","action_history":"[1,1,1,1,0,0]","mutagen_history":"[1,1,1,1,0,0]","location_rts":"[1380,437,403,393,680,412]","trial_type":"fractal-mutation","trial_index":103,"time_elapsed":3901363,"internal_node_id":"0.0-5.0-49.0"},{"view_history":"[{\"page_index\":0,\"viewing_time\":9164}]","rt":9164,"trial_type":"instructions","trial_index":104,"time_elapsed":3911527,"internal_node_id":"0.0-6.0"},{"rt":4126,"responses":"{\"Q0\":\"thank you!\"}","trial_type":"survey-text","trial_index":105,"time_elapsed":3916657,"internal_node_id":"0.0-7.0"}]