[{"view_history":"[{\"page_index\":0,\"viewing_time\":5539},{\"page_index\":1,\"viewing_time\":14014},{\"page_index\":2,\"viewing_time\":23896},{\"page_index\":3,\"viewing_time\":6744}]","rt":50194,"trial_type":"instructions","trial_index":0,"time_elapsed":50194,"internal_node_id":"0.0-0.0"},{"view_history":"[{\"page_index\":0,\"viewing_time\":14070},{\"page_index\":1,\"viewing_time\":19199}]","rt":33271,"trial_type":"instructions","trial_index":1,"time_elapsed":84466,"internal_node_id":"0.0-1.0"},{"group":"hexagon_bi","room_assignment":["purple","blue","yellow","green","red","grey"],"door_color_assignment":["black","white"],"door_generator_assignment":[1,0],"goal":4,"start":0,"action_noise":0.15,"location_history":"[0,5,0,1,0,1,0,5,4]","action_history":"[0,0,1,1,1,0,0,1]","door_history":"[1,1,0,0,0,1,1,0]","location_rts":"[4932,2528,1773,1596,1290,519,1137,1361]","trial_type":"two-door-navigation","trial_index":2,"time_elapsed":111321,"internal_node_id":"0.0-2.0-0.0"},{"group":"hexagon_bi","room_assignment":["purple","blue","yellow","green","red","grey"],"door_color_assignment":["black","white"],"door_generator_assignment":[1,0],"goal":3,"start":4,"action_noise":0.15,"location_history":"[4,3]","action_history":"[0]","door_history":"[1]","location_rts":"[3761]","trial_type":"two-door-navigation","trial_index":3,"time_elapsed":119614,"internal_node_id":"0.0-2.0-1.0"},{"group":"hexagon_bi","room_assignment":["purple","blue","yellow","green","red","grey"],"door_color_assignment":["black","white"],"door_generator_assignment":[1,0],"goal":5,"start":3,"action_noise":0.15,"location_history":"[3,4,3,2,3,4,5]","action_history":"[0,0,1,1,0,1]","door_history":"[1,1,0,0,1,0]","location_rts":"[2084,1751,14652,972,826,5107]","trial_type":"two-door-navigation","trial_index":4,"time_elapsed":154673,"internal_node_id":"0.0-2.0-2.0"},{"group":"hexagon_bi","room_assignment":["purple","blue","yellow","green","red","grey"],"door_color_assignment":["black","white"],"door_generator_assignment":[1,0],"goal":2,"start":5,"action_noise":0.15,"location_history":"[5,4,5,0,5,0,1,2]","action_history":"[1,1,0,0,0,1,0]","door_history":"[0,0,1,1,1,0,1]","location_rts":"[1232,1119,1639,522,921,321,1225]","trial_type":"two-door-navigation","trial_index":5,"time_elapsed":172330,"internal_node_id":"0.0-2.0-3.0"},{"group":"hexagon_bi","room_assignment":["purple","blue","yellow","green","red","grey"],"door_color_assignment":["black","white"],"door_generator_assignment":[1,0],"goal":1,"start":2,"action_noise":0.15,"location_history":"[2,3,4,3,2,3,4,3,2,1]","action_history":"[1,0,0,1,1,0,0,0,0]","door_history":"[0,1,1,0,0,1,1,1,1]","location_rts":"[2303,1373,607,1086,501,782,588,615,542]","trial_type":"two-door-navigation","trial_index":6,"time_elapsed":193461,"internal_node_id":"0.0-2.0-4.0"},{"group":"hexagon_bi","room_assignment":["purple","blue","yellow","green","red","grey"],"door_color_assignment":["black","white"],"door_generator_assignment":[1,0],"goal":4,"start":1,"action_noise":0.15,"location_history":"[1,0,1,2,3,2,3,2,1,0,1,2,1,2,1,2,3,2,3,2,3,2,1,0,1,2,1,2,3,2,1,2,3,4]","action_history":"[1,0,1,1,1,1,1,0,0,1,0,0,0,0,0,1,0,1,1,1,1,0,0,1,0,0,0,1,1,0,0,1,0]","door_history":"[0,1,0,0,0,0,0,1,1,0,1,1,1,1,1,0,1,0,0,0,0,1,1,0,1,1,1,0,0,1,1,0,1]","location_rts":"[2109,912,834,448,472,464,2126,534,537,894,651,254,383,411,420,1821,1100,1003,361,587,509,300,514,882,529,502,553,847,443,923,936,1616,918]","trial_type":"two-door-navigation","trial_index":7,"time_elapsed":256596,"internal_node_id":"0.0-2.0-5.0"},{"group":"hexagon_bi","room_assignment":["purple","blue","yellow","green","red","grey"],"door_color_assignment":["black","white"],"door_generator_assignment":[1,0],"goal":1,"start":4,"action_noise":0.15,"location_history":"[4,5,4,3,2,1]","action_history":"[1,1,0,0,0]","door_history":"[0,0,1,1,1]","location_rts":"[2878,2109,649,1037,623]","trial_type":"two-door-navigation","trial_index":8,"time_elapsed":272522,"internal_node_id":"0.0-2.0-6.0"},{"group":"hexagon_bi","room_assignment":["purple","blue","yellow","green","red","grey"],"door_color_assignment":["black","white"],"door_generator_assignment":[1,0],"goal":5,"start":1,"action_noise":0.15,"location_history":"[1,0,1,0,5]","action_history":"[1,1,1,0]","door_history":"[0,0,0,1]","location_rts":"[2207,663,618,623]","trial_type":"two-door-navigation","trial_index":9,"time_elapsed":284235,"internal_node_id":"0.0-2.0-7.0"},{"group":"hexagon_bi","room_assignment":["purple","blue","yellow","green","red","grey"],"door_color_assignment":["black","white"],"door_generator_assignment":[1,0],"goal":0,"start":5,"action_noise":0.15,"location_history":"[5,0]","action_history":"[0]","door_history":"[1]","location_rts":"[879]","trial_type":"two-door-navigation","trial_index":10,"time_elapsed":289639,"internal_node_id":"0.0-2.0-8.0"},{"group":"hexagon_bi","room_assignment":["purple","blue","yellow","green","red","grey"],"door_color_assignment":["black","white"],"door_generator_assignment":[1,0],"goal":2,"start":0,"action_noise":0.15,"location_history":"[0,5,0,1,2]","action_history":"[1,0,1,1]","door_history":"[0,1,0,0]","location_rts":"[2115,1100,2063,454]","trial_type":"two-door-navigation","trial_index":11,"time_elapsed":302980,"internal_node_id":"0.0-2.0-9.0"},{"group":"hexagon_bi","room_assignment":["purple","blue","yellow","green","red","grey"],"door_color_assignment":["black","white"],"door_generator_assignment":[1,0],"goal":3,"start":2,"action_noise":0.15,"location_history":"[2,1,2,3]","action_history":"[0,0,1]","door_history":"[1,1,0]","location_rts":"[1678,782,1025]","trial_type":"two-door-navigation","trial_index":12,"time_elapsed":313042,"internal_node_id":"0.0-2.0-10.0"},{"group":"hexagon_bi","room_assignment":["purple","blue","yellow","green","red","grey"],"door_color_assignment":["black","white"],"door_generator_assignment":[1,0],"goal":0,"start":3,"action_noise":0.15,"location_history":"[3,4,5,0]","action_history":"[0,1,1]","door_history":"[1,0,0]","location_rts":"[23057,821,425]","trial_type":"two-door-navigation","trial_index":13,"time_elapsed":343921,"internal_node_id":"0.0-2.0-11.0"},{"group":"hexagon_bi","room_assignment":["purple","blue","yellow","green","red","grey"],"door_color_assignment":["black","white"],"door_generator_assignment":[1,0],"goal":2,"start":0,"action_noise":0.15,"location_history":"[0,5,0,5,0,1,2]","action_history":"[0,0,0,0,1,0]","door_history":"[1,1,1,1,0,1]","location_rts":"[1146,596,502,437,1090,1389]","trial_type":"two-door-navigation","trial_index":14,"time_elapsed":451532,"internal_node_id":"0.0-2.0-12.0"},{"group":"hexagon_bi","room_assignment":["purple","blue","yellow","green","red","grey"],"door_color_assignment":["black","white"],"door_generator_assignment":[1,0],"goal":5,"start":2,"action_noise":0.15,"location_history":"[2,1,2,3,4,5]","action_history":"[0,1,1,0,1]","door_history":"[1,0,0,1,0]","location_rts":"[1791,1008,495,1235,381]","trial_type":"two-door-navigation","trial_index":15,"time_elapsed":465072,"internal_node_id":"0.0-2.0-13.0"},{"group":"hexagon_bi","room_assignment":["purple","blue","yellow","green","red","grey"],"door_color_assignment":["black","white"],"door_generator_assignment":[1,0],"goal":4,"start":5,"action_noise":0.15,"location_history":"[5,0,1,2,1,2,1,0,1,2,3,2,3,4]","action_history":"[0,0,0,0,0,0,1,1,0,1,1,1,0]","door_history":"[1,1,1,1,1,1,0,0,1,0,0,0,1]","location_rts":"[874,483,324,396,392,371,432,510,333,783,391,392,1085]","trial_type":"two-door-navigation","trial_index":16,"time_elapsed":488666,"internal_node_id":"0.0-2.0-14.0"},{"group":"hexagon_bi","room_assignment":["purple","blue","yellow","green","red","grey"],"door_color_assignment":["black","white"],"door_generator_assignment":[1,0],"goal":3,"start":4,"action_noise":0.15,"location_history":"[4,3]","action_history":"[0]","door_history":"[1]","location_rts":"[1033]","trial_type":"two-door-navigation","trial_index":17,"time_elapsed":494224,"internal_node_id":"0.0-2.0-15.0"},{"group":"hexagon_bi","room_assignment":["purple","blue","yellow","green","red","grey"],"door_color_assignment":["black","white"],"door_generator_assignment":[1,0],"goal":1,"start":3,"action_noise":0.15,"location_history":"[3,2,1]","action_history":"[1,0]","door_history":"[0,1]","location_rts":"[2027,989]","trial_type":"two-door-navigation","trial_index":18,"time_elapsed":502795,"internal_node_id":"0.0-2.0-16.0"},{"group":"hexagon_bi","room_assignment":["purple","blue","yellow","green","red","grey"],"door_color_assignment":["black","white"],"door_generator_assignment":[1,0],"goal":5,"start":1,"action_noise":0.15,"location_history":"[1,2,1,0,1,2,1,0,5]","action_history":"[0,0,1,1,0,0,1,1]","door_history":"[1,1,0,0,1,1,0,0]","location_rts":"[3878,53902,673,1189,1376,363,360,453]","trial_type":"two-door-navigation","trial_index":19,"time_elapsed":576690,"internal_node_id":"0.0-2.0-17.0"},{"group":"hexagon_bi","room_assignment":["purple","blue","yellow","green","red","grey"],"door_color_assignment":["black","white"],"door_generator_assignment":[1,0],"goal":4,"start":5,"action_noise":0.15,"location_history":"[5,0,1,0,5,0,1,2,1,2,3,2,1,0,5,4]","action_history":"[0,1,1,0,0,0,0,0,0,1,1,0,0,0,1]","door_history":"[1,0,0,1,1,1,1,1,1,0,0,1,1,1,0]","location_rts":"[1825,1384,764,572,1016,809,513,550,624,856,804,503,356,377,325]","trial_type":"two-door-navigation","trial_index":20,"time_elapsed":606826,"internal_node_id":"0.0-2.0-18.0"},{"group":"hexagon_bi","room_assignment":["purple","blue","yellow","green","red","grey"],"door_color_assignment":["black","white"],"door_generator_assignment":[1,0],"goal":0,"start":4,"action_noise":0.15,"location_history":"[4,5,4,3,2,3,2,1,0]","action_history":"[1,1,0,1,1,1,0,1]","door_history":"[0,0,1,0,0,0,1,0]","location_rts":"[1777,453,584,1071,1468,1392,297,1182]","trial_type":"two-door-navigation","trial_index":21,"time_elapsed":626755,"internal_node_id":"0.0-2.0-19.0"},{"group":"hexagon_bi","room_assignment":["purple","blue","yellow","green","red","grey"],"door_color_assignment":["black","white"],"door_generator_assignment":[1,0],"goal":1,"start":0,"action_noise":0.15,"location_history":"[0,5,0,1]","action_history":"[0,0,1]","door_history":"[1,1,0]","location_rts":"[1769,808,1174]","trial_type":"two-door-navigation","trial_index":22,"time_elapsed":637086,"internal_node_id":"0.0-2.0-20.0"},{"group":"hexagon_bi","room_assignment":["purple","blue","yellow","green","red","grey"],"door_color_assignment":["black","white"],"door_generator_assignment":[1,0],"goal":3,"start":1,"action_noise":0.15,"location_history":"[1,2,1,2,3]","action_history":"[0,0,0,1]","door_history":"[1,1,1,0]","location_rts":"[1742,701,611,344]","trial_type":"two-door-navigation","trial_index":23,"time_elapsed":648092,"internal_node_id":"0.0-2.0-21.0"},{"group":"hexagon_bi","room_assignment":["purple","blue","yellow","green","red","grey"],"door_color_assignment":["black","white"],"door_generator_assignment":[1,0],"goal":2,"start":3,"action_noise":0.15,"location_history":"[3,4,5,4,5,0,5,0,1,0,5,4,3,4,5,0,5,4,5,4,3,2]","action_history":"[0,1,0,1,0,0,0,1,1,0,0,0,0,1,0,0,1,1,1,0,1]","door_history":"[1,0,1,0,1,1,1,0,0,1,1,1,1,0,1,1,0,0,0,1,0]","location_rts":"[1640,987,1737,1199,848,276,489,1007,1352,622,326,453,648,1250,881,448,521,472,486,2483,2923]","trial_type":"two-door-navigation","trial_index":24,"time_elapsed":694169,"internal_node_id":"0.0-2.0-22.0"},{"group":"hexagon_bi","room_assignment":["purple","blue","yellow","green","red","grey"],"door_color_assignment":["black","white"],"door_generator_assignment":[1,0],"goal":0,"start":2,"action_noise":0.15,"location_history":"[2,3,4,5,0]","action_history":"[1,0,1,0]","door_history":"[0,1,0,1]","location_rts":"[2034,3321,967,454]","trial_type":"two-door-navigation","trial_index":25,"time_elapsed":708554,"internal_node_id":"0.0-2.0-23.0"},{"group":"hexagon_bi","room_assignment":["purple","blue","yellow","green","red","grey"],"door_color_assignment":["black","white"],"door_generator_assignment":[1,0],"goal":3,"start":0,"action_noise":0.15,"location_history":"[0,1,2,1,2,3]","action_history":"[0,0,0,0,1]","door_history":"[1,1,1,1,0]","location_rts":"[1530,670,537,642,306]","trial_type":"two-door-navigation","trial_index":26,"time_elapsed":720857,"internal_node_id":"0.0-2.0-24.0"},{"group":"hexagon_bi","room_assignment":["purple","blue","yellow","green","red","grey"],"door_color_assignment":["black","white"],"door_generator_assignment":[1,0],"goal":1,"start":3,"action_noise":0.15,"location_history":"[3,4,5,0,1]","action_history":"[0,1,0,0]","door_history":"[1,0,1,1]","location_rts":"[1235,1288,806,581]","trial_type":"two-door-navigation","trial_index":27,"time_elapsed":732370,"internal_node_id":"0.0-2.0-25.0"},{"group":"hexagon_bi","room_assignment":["purple","blue","yellow","green","red","grey"],"door_color_assignment":["black","white"],"door_generator_assignment":[1,0],"goal":2,"start":1,"action_noise":0.15,"location_history":"[1,0,5,0,1,2]","action_history":"[1,0,0,1,1]","door_history":"[0,1,1,0,0]","location_rts":"[1585,1026,1904,903,495]","trial_type":"two-door-navigation","trial_index":28,"time_elapsed":746922,"internal_node_id":"0.0-2.0-26.0"},{"group":"hexagon_bi","room_assignment":["purple","blue","yellow","green","red","grey"],"door_color_assignment":["black","white"],"door_generator_assignment":[1,0],"goal":5,"start":2,"action_noise":0.15,"location_history":"[2,3,2,1,2,3,2,3,2,1,2,1,0,5]","action_history":"[1,1,0,0,1,1,1,1,0,0,0,1,0]","door_history":"[0,0,1,1,0,0,0,0,1,1,1,0,1]","location_rts":"[2138,1413,1379,762,552,356,466,462,361,315,312,521,342]","trial_type":"two-door-navigation","trial_index":29,"time_elapsed":773122,"internal_node_id":"0.0-2.0-27.0"},{"group":"hexagon_bi","room_assignment":["purple","blue","yellow","green","red","grey"],"door_color_assignment":["black","white"],"door_generator_assignment":[1,0],"goal":4,"start":5,"action_noise":0.15,"location_history":"[5,0,5,4]","action_history":"[0,0,1]","door_history":"[1,1,0]","location_rts":"[1969,792,1033]","trial_type":"two-door-navigation","trial_index":30,"time_elapsed":783492,"internal_node_id":"0.0-2.0-28.0"},{"group":"hexagon_bi","room_assignment":["purple","blue","yellow","green","red","grey"],"door_color_assignment":["black","white"],"door_generator_assignment":[1,0],"goal":5,"start":4,"action_noise":0.15,"location_history":"[4,5]","action_history":"[1]","door_history":"[0]","location_rts":"[1871]","trial_type":"two-door-navigation","trial_index":31,"time_elapsed":789890,"internal_node_id":"0.0-2.0-29.0"},{"group":"hexagon_bi","room_assignment":["purple","blue","yellow","green","red","grey"],"door_color_assignment":["black","white"],"door_generator_assignment":[1,0],"goal":3,"start":5,"action_noise":0.15,"location_history":"[5,4,5,0,5,4,3]","action_history":"[0,1,0,0,1,0]","door_history":"[1,0,1,1,0,1]","location_rts":"[2338,1562,803,406,806,411]","trial_type":"two-door-navigation","trial_index":32,"time_elapsed":805866,"internal_node_id":"0.0-2.0-30.0"},{"group":"hexagon_bi","room_assignment":["purple","blue","yellow","green","red","grey"],"door_color_assignment":["black","white"],"door_generator_assignment":[1,0],"goal":0,"start":3,"action_noise":0.15,"location_history":"[3,2,1,0]","action_history":"[1,0,1]","door_history":"[0,1,0]","location_rts":"[2684,927,757]","trial_type":"two-door-navigation","trial_index":33,"time_elapsed":816802,"internal_node_id":"0.0-2.0-31.0"},{"group":"hexagon_bi","room_assignment":["purple","blue","yellow","green","red","grey"],"door_color_assignment":["black","white"],"door_generator_assignment":[1,0],"goal":4,"start":0,"action_noise":0.15,"location_history":"[0,1,2,3,4]","action_history":"[1,0,0,0]","door_history":"[0,1,1,1]","location_rts":"[1801,1292,607,1136]","trial_type":"two-door-navigation","trial_index":34,"time_elapsed":829246,"internal_node_id":"0.0-2.0-32.0"},{"group":"hexagon_bi","room_assignment":["purple","blue","yellow","green","red","grey"],"door_color_assignment":["black","white"],"door_generator_assignment":[1,0],"goal":1,"start":4,"action_noise":0.15,"location_history":"[4,3,4,5,0,5,4,5,4,5,0,1]","action_history":"[0,0,1,0,0,1,1,1,0,0,1]","door_history":"[1,1,0,1,1,0,0,0,1,1,0]","location_rts":"[1358,1576,2007,551,381,409,347,1193,515,568,480]","trial_type":"two-door-navigation","trial_index":35,"time_elapsed":853387,"internal_node_id":"0.0-2.0-33.0"},{"group":"hexagon_bi","room_assignment":["purple","blue","yellow","green","red","grey"],"door_color_assignment":["black","white"],"door_generator_assignment":[1,0],"goal":2,"start":1,"action_noise":0.15,"location_history":"[1,2]","action_history":"[0]","door_history":"[1]","location_rts":"[985]","trial_type":"two-door-navigation","trial_index":36,"time_elapsed":858899,"internal_node_id":"0.0-2.0-34.0"},{"group":"hexagon_bi","room_assignment":["purple","blue","yellow","green","red","grey"],"door_color_assignment":["black","white"],"door_generator_assignment":[1,0],"goal":0,"start":2,"action_noise":0.15,"location_history":"[2,3,4,3,2,1,2,1,0]","action_history":"[1,1,0,1,0,0,0,1]","door_history":"[0,0,1,0,1,1,1,0]","location_rts":"[2121,1092,889,1089,358,364,387,551]","trial_type":"two-door-navigation","trial_index":37,"time_elapsed":877452,"internal_node_id":"0.0-2.0-35.0"},{"group":"hexagon_bi","room_assignment":["purple","blue","yellow","green","red","grey"],"door_color_assignment":["black","white"],"door_generator_assignment":[1,0],"goal":5,"start":0,"action_noise":0.15,"location_history":"[0,1,2,1,0,1,2,1,0,5]","action_history":"[1,1,0,1,1,0,0,0,0]","door_history":"[0,0,1,0,0,1,1,1,1]","location_rts":"[1568,1405,781,1307,1240,2006,812,682,526]","trial_type":"two-door-navigation","trial_index":38,"time_elapsed":900508,"internal_node_id":"0.0-2.0-36.0"},{"group":"hexagon_bi","room_assignment":["purple","blue","yellow","green","red","grey"],"door_color_assignment":["black","white"],"door_generator_assignment":[1,0],"goal":2,"start":5,"action_noise":0.15,"location_history":"[5,0,1,2]","action_history":"[0,1,0]","door_history":"[1,0,1]","location_rts":"[1874,978,600]","trial_type":"two-door-navigation","trial_index":39,"time_elapsed":910535,"internal_node_id":"0.0-2.0-37.0"},{"group":"hexagon_bi","room_assignment":["purple","blue","yellow","green","red","grey"],"door_color_assignment":["black","white"],"door_generator_assignment":[1,0],"goal":1,"start":2,"action_noise":0.15,"location_history":"[2,3,4,5,0,5,0,5,0,1]","action_history":"[0,0,1,0,0,0,1,1,1]","door_history":"[1,1,0,1,1,1,0,0,0]","location_rts":"[941,582,551,647,446,432,496,484,548]","trial_type":"two-door-navigation","trial_index":40,"time_elapsed":928393,"internal_node_id":"0.0-2.0-38.0"},{"group":"hexagon_bi","room_assignment":["purple","blue","yellow","green","red","grey"],"door_color_assignment":["black","white"],"door_generator_assignment":[1,0],"goal":4,"start":1,"action_noise":0.15,"location_history":"[1,2,1,2,1,0,1,2,1,0,5,4]","action_history":"[0,0,0,0,1,1,1,1,1,0,0]","door_history":"[1,1,1,1,0,0,0,0,0,1,1]","location_rts":"[1018,749,474,365,836,400,855,486,2882,814,661]","trial_type":"two-door-navigation","trial_index":41,"time_elapsed":952725,"internal_node_id":"0.0-2.0-39.0"},{"group":"hexagon_bi","room_assignment":["purple","blue","yellow","green","red","grey"],"door_color_assignment":["black","white"],"door_generator_assignment":[1,0],"goal":3,"start":4,"action_noise":0.15,"location_history":"[4,3]","action_history":"[1]","door_history":"[0]","location_rts":"[2009]","trial_type":"two-door-navigation","trial_index":42,"time_elapsed":959262,"internal_node_id":"0.0-2.0-40.0"},{"group":"hexagon_bi","room_assignment":["purple","blue","yellow","green","red","grey"],"door_color_assignment":["black","white"],"door_generator_assignment":[1,0],"goal":5,"start":3,"action_noise":0.15,"location_history":"[3,2,1,2,3,4,5]","action_history":"[1,0,0,1,0,1]","door_history":"[0,1,1,0,1,0]","location_rts":"[3199,1399,1204,557,887,578]","trial_type":"two-door-navigation","trial_index":43,"time_elapsed":976741,"internal_node_id":"0.0-2.0-41.0"},{"group":"hexagon_bi","room_assignment":["purple","blue","yellow","green","red","grey"],"door_color_assignment":["black","white"],"door_generator_assignment":[1,0],"goal":3,"start":5,"action_noise":0.15,"location_history":"[5,4,3]","action_history":"[1,0]","door_history":"[0,1]","location_rts":"[2016,561]","trial_type":"two-door-navigation","trial_index":44,"time_elapsed":984877,"internal_node_id":"0.0-2.0-42.0"},{"group":"hexagon_bi","room_assignment":["purple","blue","yellow","green","red","grey"],"door_color_assignment":["black","white"],"door_generator_assignment":[1,0],"goal":0,"start":3,"action_noise":0.15,"location_history":"[3,2,3,4,5,0]","action_history":"[0,0,0,1,0]","door_history":"[1,1,1,0,1]","location_rts":"[23240,29793,893,664,305]","trial_type":"two-door-navigation","trial_index":45,"time_elapsed":1048425,"internal_node_id":"0.0-2.0-43.0"},{"group":"hexagon_bi","room_assignment":["purple","blue","yellow","green","red","grey"],"door_color_assignment":["black","white"],"door_generator_assignment":[1,0],"goal":2,"start":0,"action_noise":0.15,"location_history":"[0,5,4,3,4,3,2]","action_history":"[0,1,0,0,0,1]","door_history":"[1,0,1,1,1,0]","location_rts":"[1093,1377,592,340,369,369]","trial_type":"two-door-navigation","trial_index":46,"time_elapsed":1062210,"internal_node_id":"0.0-2.0-44.0"},{"group":"hexagon_bi","room_assignment":["purple","blue","yellow","green","red","grey"],"door_color_assignment":["black","white"],"door_generator_assignment":[1,0],"goal":4,"start":2,"action_noise":0.15,"location_history":"[2,1,2,3,4]","action_history":"[0,0,1,0]","door_history":"[1,1,0,1]","location_rts":"[1147,463,1228,787]","trial_type":"two-door-navigation","trial_index":47,"time_elapsed":1073433,"internal_node_id":"0.0-2.0-45.0"},{"group":"hexagon_bi","room_assignment":["purple","blue","yellow","green","red","grey"],"door_color_assignment":["black","white"],"door_generator_assignment":[1,0],"goal":1,"start":4,"action_noise":0.15,"location_history":"[4,3,2,3,4,5,0,1]","action_history":"[0,0,1,0,0,0,1]","door_history":"[1,1,0,1,1,1,0]","location_rts":"[852,727,403,426,337,314,1131]","trial_type":"two-door-navigation","trial_index":48,"time_elapsed":1088294,"internal_node_id":"0.0-2.0-46.0"},{"group":"hexagon_bi","room_assignment":["purple","blue","yellow","green","red","grey"],"door_color_assignment":["black","white"],"door_generator_assignment":[1,0],"goal":4,"start":1,"action_noise":0.15,"location_history":"[1,2,3,4]","action_history":"[0,1,0]","door_history":"[1,0,1]","location_rts":"[921,750,625]","trial_type":"two-door-navigation","trial_index":49,"time_elapsed":1097167,"internal_node_id":"0.0-2.0-47.0"},{"group":"hexagon_bi","room_assignment":["purple","blue","yellow","green","red","grey"],"door_color_assignment":["black","white"],"door_generator_assignment":[1,0],"goal":3,"start":4,"action_noise":0.15,"location_history":"[4,3]","action_history":"[0]","door_history":"[1]","location_rts":"[831]","trial_type":"two-door-navigation","trial_index":50,"time_elapsed":1102526,"internal_node_id":"0.0-2.0-48.0"},{"group":"hexagon_bi","room_assignment":["purple","blue","yellow","green","red","grey"],"door_color_assignment":["black","white"],"door_generator_assignment":[1,0],"goal":5,"start":3,"action_noise":0.15,"location_history":"[3,2,1,2,3,2,1,2,3,4,3,4,5]","action_history":"[1,0,0,1,1,0,0,1,0,0,0,1]","door_history":"[0,1,1,0,0,1,1,0,1,1,1,0]","location_rts":"[1754,1163,749,679,393,518,484,256,414,251,418,430]","trial_type":"two-door-navigation","trial_index":51,"time_elapsed":1125850,"internal_node_id":"0.0-2.0-49.0"},{"view_history":"[{\"page_index\":0,\"viewing_time\":3107}]","rt":3107,"trial_type":"instructions","trial_index":52,"time_elapsed":1129959,"internal_node_id":"0.0-3.0"},{"view_history":"[{\"page_index\":0,\"viewing_time\":3174},{\"page_index\":1,\"viewing_time\":29529}]","rt":32703,"trial_type":"instructions","trial_index":53,"time_elapsed":1163663,"internal_node_id":"0.0-4.0"},{"group":"hexagon_bi","fractal_assignment":["../images/ylw_slt.png","../images/cyn_red.png","../images/blu_wht.png","../images/org_blu.png","../images/gry_blk.png","../images/pnk_blu.png"],"mutagen_generator_assignment":[0,1],"goal":4,"start":0,"action_noise":0.15,"location_history":"[0,1,0,1,2,1,0,1,0,5,4]","action_history":"[0,1,1,0,0,1,1,1,0,1]","mutagen_history":"[0,1,1,0,0,1,1,1,0,1]","location_rts":"[9035,2400,1254,1785,1138,987,656,150,914,1368]","trial_type":"fractal-mutation","trial_index":54,"time_elapsed":1197163,"internal_node_id":"0.0-5.0-0.0"},{"group":"hexagon_bi","fractal_assignment":["../images/ylw_slt.png","../images/cyn_red.png","../images/blu_wht.png","../images/org_blu.png","../images/gry_blk.png","../images/pnk_blu.png"],"mutagen_generator_assignment":[0,1],"goal":3,"start":4,"action_noise":0.15,"location_history":"[4,5,4,3]","action_history":"[1,1,1]","mutagen_history":"[1,1,1]","location_rts":"[66475,889,107]","trial_type":"fractal-mutation","trial_index":55,"time_elapsed":1271235,"internal_node_id":"0.0-5.0-1.0"},{"group":"hexagon_bi","fractal_assignment":["../images/ylw_slt.png","../images/cyn_red.png","../images/blu_wht.png","../images/org_blu.png","../images/gry_blk.png","../images/pnk_blu.png"],"mutagen_generator_assignment":[0,1],"goal":5,"start":3,"action_noise":0.15,"location_history":"[3,4,3,2,3,4,3,2,3,2,1,0,5]","action_history":"[0,0,1,1,0,0,1,1,1,0,0,0]","mutagen_history":"[0,0,1,1,0,0,1,1,1,0,0,0]","location_rts":"[1129,1090,878,939,839,677,662,2076,1625,987,849,721]","trial_type":"fractal-mutation","trial_index":56,"time_elapsed":1299582,"internal_node_id":"0.0-5.0-2.0"},{"group":"hexagon_bi","fractal_assignment":["../images/ylw_slt.png","../images/cyn_red.png","../images/blu_wht.png","../images/org_blu.png","../images/gry_blk.png","../images/pnk_blu.png"],"mutagen_generator_assignment":[0,1],"goal":2,"start":5,"action_noise":0.15,"location_history":"[5,4,3,4,3,4,3,2]","action_history":"[1,0,0,0,0,0,1]","mutagen_history":"[1,0,0,0,0,0,1]","location_rts":"[2780,753,553,499,580,620,589]","trial_type":"fractal-mutation","trial_index":57,"time_elapsed":1316655,"internal_node_id":"0.0-5.0-3.0"},{"group":"hexagon_bi","fractal_assignment":["../images/ylw_slt.png","../images/cyn_red.png","../images/blu_wht.png","../images/org_blu.png","../images/gry_blk.png","../images/pnk_blu.png"],"mutagen_generator_assignment":[0,1],"goal":1,"start":2,"action_noise":0.15,"location_history":"[2,1]","action_history":"[0]","mutagen_history":"[0]","location_rts":"[1088]","trial_type":"fractal-mutation","trial_index":58,"time_elapsed":1322276,"internal_node_id":"0.0-5.0-4.0"},{"group":"hexagon_bi","fractal_assignment":["../images/ylw_slt.png","../images/cyn_red.png","../images/blu_wht.png","../images/org_blu.png","../images/gry_blk.png","../images/pnk_blu.png"],"mutagen_generator_assignment":[0,1],"goal":4,"start":1,"action_noise":0.15,"location_history":"[1,2,3,2,3,4]","action_history":"[0,1,1,1,0]","mutagen_history":"[0,1,1,1,0]","location_rts":"[787,766,664,615,721]","trial_type":"fractal-mutation","trial_index":59,"time_elapsed":1334484,"internal_node_id":"0.0-5.0-5.0"},{"group":"hexagon_bi","fractal_assignment":["../images/ylw_slt.png","../images/cyn_red.png","../images/blu_wht.png","../images/org_blu.png","../images/gry_blk.png","../images/pnk_blu.png"],"mutagen_generator_assignment":[0,1],"goal":1,"start":4,"action_noise":0.15,"location_history":"[4,5,4,5,0,5,4,3,2,3,4,3,2,1]","action_history":"[1,1,1,0,0,0,0,1,1,0,0,0,0]","mutagen_history":"[1,1,1,0,0,0,0,1,1,0,0,0,0]","location_rts":"[3029,948,911,443,466,2555,893,652,791,723,501,480,889]","trial_type":"fractal-mutation","trial_index":60,"time_elapsed":1364657,"internal_node_id":"0.0-5.0-6.0"},{"group":"hexagon_bi","fractal_assignment":["../images/ylw_slt.png","../images/cyn_red.png","../images/blu_wht.png","../images/org_blu.png","../images/gry_blk.png","../images/pnk_blu.png"],"mutagen_generator_assignment":[0,1],"goal":5,"start":1,"action_noise":0.15,"location_history":"[1,2,1,2,3,4,3,2,3,2,3,4,5]","action_history":"[0,0,1,1,0,0,1,1,1,1,0,1]","mutagen_history":"[0,0,1,1,0,0,1,1,1,1,0,1]","location_rts":"[109643,1053,546,619,332,361,325,494,418,483,396,721]","trial_type":"fractal-mutation","trial_index":61,"time_elapsed":1495892,"internal_node_id":"0.0-5.0-7.0"},{"group":"hexagon_bi","fractal_assignment":["../images/ylw_slt.png","../images/cyn_red.png","../images/blu_wht.png","../images/org_blu.png","../images/gry_blk.png","../images/pnk_blu.png"],"mutagen_generator_assignment":[0,1],"goal":0,"start":5,"action_noise":0.15,"location_history":"[5,0]","action_history":"[0]","mutagen_history":"[0]","location_rts":"[1531]","trial_type":"fractal-mutation","trial_index":62,"time_elapsed":1501955,"internal_node_id":"0.0-5.0-8.0"},{"group":"hexagon_bi","fractal_assignment":["../images/ylw_slt.png","../images/cyn_red.png","../images/blu_wht.png","../images/org_blu.png","../images/gry_blk.png","../images/pnk_blu.png"],"mutagen_generator_assignment":[0,1],"goal":2,"start":0,"action_noise":0.15,"location_history":"[0,1,2]","action_history":"[1,0]","mutagen_history":"[1,0]","location_rts":"[1453,759]","trial_type":"fractal-mutation","trial_index":63,"time_elapsed":1509725,"internal_node_id":"0.0-5.0-9.0"},{"group":"hexagon_bi","fractal_assignment":["../images/ylw_slt.png","../images/cyn_red.png","../images/blu_wht.png","../images/org_blu.png","../images/gry_blk.png","../images/pnk_blu.png"],"mutagen_generator_assignment":[0,1],"goal":3,"start":2,"action_noise":0.15,"location_history":"[2,1,2,3]","action_history":"[0,0,1]","mutagen_history":"[0,0,1]","location_rts":"[995,597,477]","trial_type":"fractal-mutation","trial_index":64,"time_elapsed":1518384,"internal_node_id":"0.0-5.0-10.0"},{"group":"hexagon_bi","fractal_assignment":["../images/ylw_slt.png","../images/cyn_red.png","../images/blu_wht.png","../images/org_blu.png","../images/gry_blk.png","../images/pnk_blu.png"],"mutagen_generator_assignment":[0,1],"goal":0,"start":3,"action_noise":0.15,"location_history":"[3,4,3,2,3,2,1,0]","action_history":"[0,0,1,1,1,0,1]","mutagen_history":"[0,0,1,1,1,0,1]","location_rts":"[220226,2017,557,747,487,384,846]","trial_type":"fractal-mutation","trial_index":65,"time_elapsed":1754377,"internal_node_id":"0.0-5.0-11.0"},{"group":"hexagon_bi","fractal_assignment":["../images/ylw_slt.png","../images/cyn_red.png","../images/blu_wht.png","../images/org_blu.png","../images/gry_blk.png","../images/pnk_blu.png"],"mutagen_generator_assignment":[0,1],"goal":2,"start":0,"action_noise":0.15,"location_history":"[0,1,2]","action_history":"[1,0]","mutagen_history":"[1,0]","location_rts":"[1434,727]","trial_type":"fractal-mutation","trial_index":66,"time_elapsed":1762107,"internal_node_id":"0.0-5.0-12.0"},{"group":"hexagon_bi","fractal_assignment":["../images/ylw_slt.png","../images/cyn_red.png","../images/blu_wht.png","../images/org_blu.png","../images/gry_blk.png","../images/pnk_blu.png"],"mutagen_generator_assignment":[0,1],"goal":5,"start":2,"action_noise":0.15,"location_history":"[2,1,2,3,4,3,2,3,2,3,4,3,2,3,2,1,2,3,2,1,2,3,4,3,2,3,4,5]","action_history":"[0,0,1,0,0,1,1,1,1,0,0,1,1,1,0,0,1,0,0,0,0,0,0,1,1,0,0]","mutagen_history":"[0,0,1,0,0,1,1,1,1,0,0,1,1,1,0,0,1,0,0,0,0,0,0,1,1,0,0]","location_rts":"[303436,621,1610,556,773,1052,515,386,525,520,765,463,336,376,721,580,496,389,257,451,458,1043,536,427,756,662,793]","trial_type":"fractal-mutation","trial_index":67,"time_elapsed":2112920,"internal_node_id":"0.0-5.0-13.0"},{"group":"hexagon_bi","fractal_assignment":["../images/ylw_slt.png","../images/cyn_red.png","../images/blu_wht.png","../images/org_blu.png","../images/gry_blk.png","../images/pnk_blu.png"],"mutagen_generator_assignment":[0,1],"goal":4,"start":5,"action_noise":0.15,"location_history":"[5,0,1,2,1,2,1,0,5,4]","action_history":"[0,1,1,1,0,0,1,1,0]","mutagen_history":"[0,1,1,1,0,0,1,1,0]","location_rts":"[41917,1307,599,573,515,854,532,1220,440]","trial_type":"fractal-mutation","trial_index":68,"time_elapsed":2173680,"internal_node_id":"0.0-5.0-14.0"},{"group":"hexagon_bi","fractal_assignment":["../images/ylw_slt.png","../images/cyn_red.png","../images/blu_wht.png","../images/org_blu.png","../images/gry_blk.png","../images/pnk_blu.png"],"mutagen_generator_assignment":[0,1],"goal":3,"start":4,"action_noise":0.15,"location_history":"[4,3]","action_history":"[0]","mutagen_history":"[0]","location_rts":"[1219]","trial_type":"fractal-mutation","trial_index":69,"time_elapsed":2179432,"internal_node_id":"0.0-5.0-15.0"},{"group":"hexagon_bi","fractal_assignment":["../images/ylw_slt.png","../images/cyn_red.png","../images/blu_wht.png","../images/org_blu.png","../images/gry_blk.png","../images/pnk_blu.png"],"mutagen_generator_assignment":[0,1],"goal":1,"start":3,"action_noise":0.15,"location_history":"[3,4,5,4,3,2,1]","action_history":"[0,1,1,0,1,0]","mutagen_history":"[0,1,1,0,1,0]","location_rts":"[727,815,479,602,1159,78230]","trial_type":"fractal-mutation","trial_index":70,"time_elapsed":2271126,"internal_node_id":"0.0-5.0-16.0"},{"group":"hexagon_bi","fractal_assignment":["../images/ylw_slt.png","../images/cyn_red.png","../images/blu_wht.png","../images/org_blu.png","../images/gry_blk.png","../images/pnk_blu.png"],"mutagen_generator_assignment":[0,1],"goal":5,"start":1,"action_noise":0.15,"location_history":"[1,0,1,0,5]","action_history":"[1,1,1,0]","mutagen_history":"[1,1,1,0]","location_rts":"[852,616,506,638]","trial_type":"fractal-mutation","trial_index":71,"time_elapsed":2281365,"internal_node_id":"0.0-5.0-17.0"},{"group":"hexagon_bi","fractal_assignment":["../images/ylw_slt.png","../images/cyn_red.png","../images/blu_wht.png","../images/org_blu.png","../images/gry_blk.png","../images/pnk_blu.png"],"mutagen_generator_assignment":[0,1],"goal":4,"start":5,"action_noise":0.15,"location_history":"[5,0,5,0,5,0,1,0,1,2,1,2,1,0,5,4]","action_history":"[1,1,0,0,0,0,1,1,0,0,0,1,1,1,0]","mutagen_history":"[1,1,0,0,0,0,1,1,0,0,0,1,1,1,0]","location_rts":"[1472,798,469,591,696,573,368,473,663,550,521,466,472,448,791]","trial_type":"fractal-mutation","trial_index":72,"time_elapsed":2312388,"internal_node_id":"0.0-5.0-18.0"},{"group":"hexagon_bi","fractal_assignment":["../images/ylw_slt.png","../images/cyn_red.png","../images/blu_wht.png","../images/org_blu.png","../images/gry_blk.png","../images/pnk_blu.png"],"mutagen_generator_assignment":[0,1],"goal":0,"start":4,"action_noise":0.15,"location_history":"[4,3,2,3,2,3,2,3,4,5,0]","action_history":"[0,1,1,1,0,0,1,1,0,0]","mutagen_history":"[0,1,1,1,0,0,1,1,0,0]","location_rts":"[110585,11079,485,536,365,374,298,408,1136,398]","trial_type":"fractal-mutation","trial_index":73,"time_elapsed":2452711,"internal_node_id":"0.0-5.0-19.0"},{"group":"hexagon_bi","fractal_assignment":["../images/ylw_slt.png","../images/cyn_red.png","../images/blu_wht.png","../images/org_blu.png","../images/gry_blk.png","../images/pnk_blu.png"],"mutagen_generator_assignment":[0,1],"goal":1,"start":0,"action_noise":0.15,"location_history":"[0,5,4,5,4,3,2,1]","action_history":"[0,0,1,1,0,1,0]","mutagen_history":"[0,0,1,1,0,1,0]","location_rts":"[1768,817,607,777,691,539,456]","trial_type":"fractal-mutation","trial_index":74,"time_elapsed":2469079,"internal_node_id":"0.0-5.0-20.0"},{"group":"hexagon_bi","fractal_assignment":["../images/ylw_slt.png","../images/cyn_red.png","../images/blu_wht.png","../images/org_blu.png","../images/gry_blk.png","../images/pnk_blu.png"],"mutagen_generator_assignment":[0,1],"goal":3,"start":1,"action_noise":0.15,"location_history":"[1,2,3]","action_history":"[0,1]","mutagen_history":"[0,1]","location_rts":"[837,491]","trial_type":"fractal-mutation","trial_index":75,"time_elapsed":2475972,"internal_node_id":"0.0-5.0-21.0"},{"group":"hexagon_bi","fractal_assignment":["../images/ylw_slt.png","../images/cyn_red.png","../images/blu_wht.png","../images/org_blu.png","../images/gry_blk.png","../images/pnk_blu.png"],"mutagen_generator_assignment":[0,1],"goal":2,"start":3,"action_noise":0.15,"location_history":"[3,2]","action_history":"[0]","mutagen_history":"[0]","location_rts":"[380]","trial_type":"fractal-mutation","trial_index":76,"time_elapsed":2480886,"internal_node_id":"0.0-5.0-22.0"},{"group":"hexagon_bi","fractal_assignment":["../images/ylw_slt.png","../images/cyn_red.png","../images/blu_wht.png","../images/org_blu.png","../images/gry_blk.png","../images/pnk_blu.png"],"mutagen_generator_assignment":[0,1],"goal":0,"start":2,"action_noise":0.15,"location_history":"[2,1,2,3,2,3,4,5,4,5,0]","action_history":"[0,0,1,1,1,0,0,1,1,0]","mutagen_history":"[0,0,1,1,1,0,0,1,1,0]","location_rts":"[470,516,561,516,1511,382,386,350,266,259]","trial_type":"fractal-mutation","trial_index":77,"time_elapsed":2499929,"internal_node_id":"0.0-5.0-23.0"},{"group":"hexagon_bi","fractal_assignment":["../images/ylw_slt.png","../images/cyn_red.png","../images/blu_wht.png","../images/org_blu.png","../images/gry_blk.png","../images/pnk_blu.png"],"mutagen_generator_assignment":[0,1],"goal":3,"start":0,"action_noise":0.15,"location_history":"[0,5,0,1,0,5,4,5,4,3]","action_history":"[0,0,1,1,0,1,1,0,0]","mutagen_history":"[0,0,1,1,0,1,1,0,0]","location_rts":"[376,436,315,533,196573,1308,662,369,372]","trial_type":"fractal-mutation","trial_index":78,"time_elapsed":2713638,"internal_node_id":"0.0-5.0-24.0"},{"group":"hexagon_bi","fractal_assignment":["../images/ylw_slt.png","../images/cyn_red.png","../images/blu_wht.png","../images/org_blu.png","../images/gry_blk.png","../images/pnk_blu.png"],"mutagen_generator_assignment":[0,1],"goal":1,"start":3,"action_noise":0.15,"location_history":"[3,4,5,4,3,2,3,4,3,2,3,2,1]","action_history":"[0,1,1,0,0,1,0,0,1,1,1,0]","mutagen_history":"[0,1,1,0,0,1,0,0,1,1,1,0]","location_rts":"[26492,1041,541,399,437,1035,1340,329,282,524,584,414]","trial_type":"fractal-mutation","trial_index":79,"time_elapsed":2763493,"internal_node_id":"0.0-5.0-25.0"},{"group":"hexagon_bi","fractal_assignment":["../images/ylw_slt.png","../images/cyn_red.png","../images/blu_wht.png","../images/org_blu.png","../images/gry_blk.png","../images/pnk_blu.png"],"mutagen_generator_assignment":[0,1],"goal":2,"start":1,"action_noise":0.15,"location_history":"[1,2]","action_history":"[0]","mutagen_history":"[0]","location_rts":"[178786]","trial_type":"fractal-mutation","trial_index":80,"time_elapsed":2946812,"internal_node_id":"0.0-5.0-26.0"},{"group":"hexagon_bi","fractal_assignment":["../images/ylw_slt.png","../images/cyn_red.png","../images/blu_wht.png","../images/org_blu.png","../images/gry_blk.png","../images/pnk_blu.png"],"mutagen_generator_assignment":[0,1],"goal":5,"start":2,"action_noise":0.15,"location_history":"[2,1,0,1,0,1,2,3,2,3,4,5]","action_history":"[0,0,1,1,1,0,0,1,0,0,0]","mutagen_history":"[0,0,1,1,1,0,0,1,0,0,0]","location_rts":"[1218,747,683,471,388,312,436,389,450,396,384]","trial_type":"fractal-mutation","trial_index":81,"time_elapsed":2967507,"internal_node_id":"0.0-5.0-27.0"},{"group":"hexagon_bi","fractal_assignment":["../images/ylw_slt.png","../images/cyn_red.png","../images/blu_wht.png","../images/org_blu.png","../images/gry_blk.png","../images/pnk_blu.png"],"mutagen_generator_assignment":[0,1],"goal":4,"start":5,"action_noise":0.15,"location_history":"[5,0,1,0,1,0,5,0,5,4]","action_history":"[0,1,1,1,0,0,0,0,1]","mutagen_history":"[0,1,1,1,0,0,0,0,1]","location_rts":"[1592,521,566,383,328,312,376,294,20]","trial_type":"fractal-mutation","trial_index":82,"time_elapsed":2984658,"internal_node_id":"0.0-5.0-28.0"},{"group":"hexagon_bi","fractal_assignment":["../images/ylw_slt.png","../images/cyn_red.png","../images/blu_wht.png","../images/org_blu.png","../images/gry_blk.png","../images/pnk_blu.png"],"mutagen_generator_assignment":[0,1],"goal":5,"start":4,"action_noise":0.15,"location_history":"[4,5]","action_history":"[1]","mutagen_history":"[1]","location_rts":"[765]","trial_type":"fractal-mutation","trial_index":83,"time_elapsed":2989954,"internal_node_id":"0.0-5.0-29.0"},{"group":"hexagon_bi","fractal_assignment":["../images/ylw_slt.png","../images/cyn_red.png","../images/blu_wht.png","../images/org_blu.png","../images/gry_blk.png","../images/pnk_blu.png"],"mutagen_generator_assignment":[0,1],"goal":3,"start":5,"action_noise":0.15,"location_history":"[5,4,3]","action_history":"[1,0]","mutagen_history":"[1,0]","location_rts":"[756,495]","trial_type":"fractal-mutation","trial_index":84,"time_elapsed":2996764,"internal_node_id":"0.0-5.0-30.0"},{"group":"hexagon_bi","fractal_assignment":["../images/ylw_slt.png","../images/cyn_red.png","../images/blu_wht.png","../images/org_blu.png","../images/gry_blk.png","../images/pnk_blu.png"],"mutagen_generator_assignment":[0,1],"goal":0,"start":3,"action_noise":0.15,"location_history":"[3,4,3,2,1,2,3,2,3,4,3,2,1,0]","action_history":"[0,0,1,0,0,1,1,1,0,0,1,1,0]","mutagen_history":"[0,0,1,0,0,1,1,1,0,0,1,1,0]","location_rts":"[924,696,555,620,566,406,419,480,714,473,261,298,416]","trial_type":"fractal-mutation","trial_index":85,"time_elapsed":3020475,"internal_node_id":"0.0-5.0-31.0"},{"group":"hexagon_bi","fractal_assignment":["../images/ylw_slt.png","../images/cyn_red.png","../images/blu_wht.png","../images/org_blu.png","../images/gry_blk.png","../images/pnk_blu.png"],"mutagen_generator_assignment":[0,1],"goal":4,"start":0,"action_noise":0.15,"location_history":"[0,5,0,1,0,5,0,1,0,1,2,1,2,3,2,3,4]","action_history":"[0,0,1,1,0,0,1,1,1,0,0,0,1,1,1,0]","mutagen_history":"[0,0,1,1,0,0,1,1,1,0,0,0,1,1,1,0]","location_rts":"[23659,1544,461,567,592,460,724,400,427,353,518,533,436,518,513,367]","trial_type":"fractal-mutation","trial_index":86,"time_elapsed":3072526,"internal_node_id":"0.0-5.0-32.0"},{"group":"hexagon_bi","fractal_assignment":["../images/ylw_slt.png","../images/cyn_red.png","../images/blu_wht.png","../images/org_blu.png","../images/gry_blk.png","../images/pnk_blu.png"],"mutagen_generator_assignment":[0,1],"goal":1,"start":4,"action_noise":0.15,"location_history":"[4,3,2,1]","action_history":"[0,1,0]","mutagen_history":"[0,1,0]","location_rts":"[677,645,537]","trial_type":"fractal-mutation","trial_index":87,"time_elapsed":3080976,"internal_node_id":"0.0-5.0-33.0"},{"group":"hexagon_bi","fractal_assignment":["../images/ylw_slt.png","../images/cyn_red.png","../images/blu_wht.png","../images/org_blu.png","../images/gry_blk.png","../images/pnk_blu.png"],"mutagen_generator_assignment":[0,1],"goal":2,"start":1,"action_noise":0.15,"location_history":"[1,2]","action_history":"[0]","mutagen_history":"[0]","location_rts":"[517]","trial_type":"fractal-mutation","trial_index":88,"time_elapsed":3086027,"internal_node_id":"0.0-5.0-34.0"},{"group":"hexagon_bi","fractal_assignment":["../images/ylw_slt.png","../images/cyn_red.png","../images/blu_wht.png","../images/org_blu.png","../images/gry_blk.png","../images/pnk_blu.png"],"mutagen_generator_assignment":[0,1],"goal":0,"start":2,"action_noise":0.15,"location_history":"[2,1,2,1,2,3,2,3,2,1,2,1,2,3,2,1,0]","action_history":"[0,1,0,1,1,1,1,0,0,0,0,0,1,1,0,0]","mutagen_history":"[0,1,0,1,1,1,1,0,0,0,0,0,1,1,0,0]","location_rts":"[410,492,428,333,255,352,320,332,347,246,454,364,220,546,519,440]","trial_type":"fractal-mutation","trial_index":89,"time_elapsed":3112046,"internal_node_id":"0.0-5.0-35.0"},{"group":"hexagon_bi","fractal_assignment":["../images/ylw_slt.png","../images/cyn_red.png","../images/blu_wht.png","../images/org_blu.png","../images/gry_blk.png","../images/pnk_blu.png"],"mutagen_generator_assignment":[0,1],"goal":5,"start":0,"action_noise":0.15,"location_history":"[0,1,0,5]","action_history":"[1,1,0]","mutagen_history":"[1,1,0]","location_rts":"[267973,650,544]","trial_type":"fractal-mutation","trial_index":90,"time_elapsed":3387821,"internal_node_id":"0.0-5.0-36.0"},{"group":"hexagon_bi","fractal_assignment":["../images/ylw_slt.png","../images/cyn_red.png","../images/blu_wht.png","../images/org_blu.png","../images/gry_blk.png","../images/pnk_blu.png"],"mutagen_generator_assignment":[0,1],"goal":2,"start":5,"action_noise":0.15,"location_history":"[5,0,5,4,5,4,3,4,5,4,3,2]","action_history":"[0,0,1,1,0,0,0,1,1,0,1]","mutagen_history":"[0,0,1,1,0,0,0,1,1,0,1]","location_rts":"[1417,611,399,371,370,275,286,383,703,815,892]","trial_type":"fractal-mutation","trial_index":91,"time_elapsed":3409195,"internal_node_id":"0.0-5.0-37.0"},{"group":"hexagon_bi","fractal_assignment":["../images/ylw_slt.png","../images/cyn_red.png","../images/blu_wht.png","../images/org_blu.png","../images/gry_blk.png","../images/pnk_blu.png"],"mutagen_generator_assignment":[0,1],"goal":1,"start":2,"action_noise":0.15,"location_history":"[2,3,4,3,4,5,4,5,0,5,4,5,0,5,0,5,0,1]","action_history":"[1,0,0,0,1,1,1,0,0,1,1,0,0,0,0,0,1]","mutagen_history":"[1,0,0,0,1,1,1,0,0,1,1,0,0,0,0,0,1]","location_rts":"[1523,783,457,452,614,583,703,478,365,569,521,415,262,417,306,331,409]","trial_type":"fractal-mutation","trial_index":92,"time_elapsed":3439391,"internal_node_id":"0.0-5.0-38.0"},{"group":"hexagon_bi","fractal_assignment":["../images/ylw_slt.png","../images/cyn_red.png","../images/blu_wht.png","../images/org_blu.png","../images/gry_blk.png","../images/pnk_blu.png"],"mutagen_generator_assignment":[0,1],"goal":4,"start":1,"action_noise":0.15,"location_history":"[1,0,1,0,1,2,3,2,3,4]","action_history":"[0,1,1,1,0,1,1,0,0]","mutagen_history":"[0,1,1,1,0,1,1,0,0]","location_rts":"[2030,633,660,2724,161742,855,483,561,383]","trial_type":"fractal-mutation","trial_index":93,"time_elapsed":3622247,"internal_node_id":"0.0-5.0-39.0"},{"group":"hexagon_bi","fractal_assignment":["../images/ylw_slt.png","../images/cyn_red.png","../images/blu_wht.png","../images/org_blu.png","../images/gry_blk.png","../images/pnk_blu.png"],"mutagen_generator_assignment":[0,1],"goal":3,"start":4,"action_noise":0.15,"location_history":"[4,3]","action_history":"[0]","mutagen_history":"[0]","location_rts":"[9601]","trial_type":"fractal-mutation","trial_index":94,"time_elapsed":3636379,"internal_node_id":"0.0-5.0-40.0"},{"group":"hexagon_bi","fractal_assignment":["../images/ylw_slt.png","../images/cyn_red.png","../images/blu_wht.png","../images/org_blu.png","../images/gry_blk.png","../images/pnk_blu.png"],"mutagen_generator_assignment":[0,1],"goal":5,"start":3,"action_noise":0.15,"location_history":"[3,2,3,2,3,4,3,4,5]","action_history":"[0,1,1,1,0,0,0,1]","mutagen_history":"[0,1,1,1,0,0,0,1]","location_rts":"[859,642,373,442,281,428,307,257]","trial_type":"fractal-mutation","trial_index":95,"time_elapsed":3651706,"internal_node_id":"0.0-5.0-41.0"},{"group":"hexagon_bi","fractal_assignment":["../images/ylw_slt.png","../images/cyn_red.png","../images/blu_wht.png","../images/org_blu.png","../images/gry_blk.png","../images/pnk_blu.png"],"mutagen_generator_assignment":[0,1],"goal":3,"start":5,"action_noise":0.15,"location_history":"[5,0,5,0,1,2,3]","action_history":"[0,0,0,1,1,1]","mutagen_history":"[0,0,0,1,1,1]","location_rts":"[315,498,323,97,288,317]","trial_type":"fractal-mutation","trial_index":96,"time_elapsed":3663217,"internal_node_id":"0.0-5.0-42.0"},{"group":"hexagon_bi","fractal_assignment":["../images/ylw_slt.png","../images/cyn_red.png","../images/blu_wht.png","../images/org_blu.png","../images/gry_blk.png","../images/pnk_blu.png"],"mutagen_generator_assignment":[0,1],"goal":0,"start":3,"action_noise":0.15,"location_history":"[3,4,5,4,3,2,1,2,3,4,3,2,1,2,1,0]","action_history":"[0,1,1,0,0,0,1,1,0,0,0,0,1,1,1]","mutagen_history":"[0,1,1,0,0,0,1,1,0,0,0,0,1,1,1]","location_rts":"[408,507,348,272,254,233,217,183,30,283,283,602,273,383,276]","trial_type":"fractal-mutation","trial_index":97,"time_elapsed":3686699,"internal_node_id":"0.0-5.0-43.0"},{"group":"hexagon_bi","fractal_assignment":["../images/ylw_slt.png","../images/cyn_red.png","../images/blu_wht.png","../images/org_blu.png","../images/gry_blk.png","../images/pnk_blu.png"],"mutagen_generator_assignment":[0,1],"goal":2,"start":0,"action_noise":0.15,"location_history":"[0,5,4,5,0,5,4,3,2]","action_history":"[0,1,1,0,0,1,0,0]","mutagen_history":"[0,1,1,0,0,1,0,0]","location_rts":"[531,488,658,551,458,777,542,415]","trial_type":"fractal-mutation","trial_index":98,"time_elapsed":3702843,"internal_node_id":"0.0-5.0-44.0"},{"group":"hexagon_bi","fractal_assignment":["../images/ylw_slt.png","../images/cyn_red.png","../images/blu_wht.png","../images/org_blu.png","../images/gry_blk.png","../images/pnk_blu.png"],"mutagen_generator_assignment":[0,1],"goal":4,"start":2,"action_noise":0.15,"location_history":"[2,1,0,1,0,5,0,5,0,5,4]","action_history":"[0,1,1,1,0,0,0,0,1,1]","mutagen_history":"[0,1,1,1,0,0,0,0,1,1]","location_rts":"[533,473,392,435,360,302,426,330,306,1028]","trial_type":"fractal-mutation","trial_index":99,"time_elapsed":3721221,"internal_node_id":"0.0-5.0-45.0"},{"group":"hexagon_bi","fractal_assignment":["../images/ylw_slt.png","../images/cyn_red.png","../images/blu_wht.png","../images/org_blu.png","../images/gry_blk.png","../images/pnk_blu.png"],"mutagen_generator_assignment":[0,1],"goal":1,"start":4,"action_noise":0.15,"location_history":"[4,3,2,3,4,3,4,3,2,1]","action_history":"[0,1,1,0,0,0,0,1,1]","mutagen_history":"[0,1,1,0,0,0,0,1,1]","location_rts":"[876,451,382,323,143,312,273,87,317]","trial_type":"fractal-mutation","trial_index":100,"time_elapsed":3737151,"internal_node_id":"0.0-5.0-46.0"},{"group":"hexagon_bi","fractal_assignment":["../images/ylw_slt.png","../images/cyn_red.png","../images/blu_wht.png","../images/org_blu.png","../images/gry_blk.png","../images/pnk_blu.png"],"mutagen_generator_assignment":[0,1],"goal":4,"start":1,"action_noise":0.15,"location_history":"[1,2,1,0,1,0,5,0,1,0,5,4]","action_history":"[0,0,1,1,0,0,0,1,1,0,1]","mutagen_history":"[0,0,1,1,0,0,0,1,1,0,1]","location_rts":"[1519,532,285,262,225,372,1464,285,253,1000,508]","trial_type":"fractal-mutation","trial_index":101,"time_elapsed":3758702,"internal_node_id":"0.0-5.0-47.0"},{"group":"hexagon_bi","fractal_assignment":["../images/ylw_slt.png","../images/cyn_red.png","../images/blu_wht.png","../images/org_blu.png","../images/gry_blk.png","../images/pnk_blu.png"],"mutagen_generator_assignment":[0,1],"goal":3,"start":4,"action_noise":0.15,"location_history":"[4,3]","action_history":"[0]","mutagen_history":"[0]","location_rts":"[775]","trial_type":"fractal-mutation","trial_index":102,"time_elapsed":3764004,"internal_node_id":"0.0-5.0-48.0"},{"group":"hexagon_bi","fractal_assignment":["../images/ylw_slt.png","../images/cyn_red.png","../images/blu_wht.png","../images/org_blu.png","../images/gry_blk.png","../images/pnk_blu.png"],"mutagen_generator_assignment":[0,1],"goal":5,"start":3,"action_noise":0.15,"location_history":"[3,2,3,2,3,4,5]","action_history":"[0,1,1,0,0,1]","mutagen_history":"[0,1,1,0,0,1]","location_rts":"[606,427,535,543,480,292]","trial_type":"fractal-mutation","trial_index":103,"time_elapsed":3776560,"internal_node_id":"0.0-5.0-49.0"},{"view_history":"[{\"page_index\":0,\"viewing_time\":13335}]","rt":13335,"trial_type":"instructions","trial_index":104,"time_elapsed":3790896,"internal_node_id":"0.0-6.0"},{"rt":114127,"responses":"{\"Q0\":\"I don't have anything to say but what the others reviewing this hit on T.O. have already said. \"}","trial_type":"survey-text","trial_index":105,"time_elapsed":3906027,"internal_node_id":"0.0-7.0"}]