[{"view_history":"[{\"page_index\":0,\"viewing_time\":4585},{\"page_index\":1,\"viewing_time\":12048},{\"page_index\":2,\"viewing_time\":49934},{\"page_index\":3,\"viewing_time\":7282}]","rt":73850,"trial_type":"instructions","trial_index":0,"time_elapsed":73850,"internal_node_id":"0.0-0.0"},{"view_history":"[{\"page_index\":0,\"viewing_time\":3193},{\"page_index\":1,\"viewing_time\":24673}]","rt":27866,"trial_type":"instructions","trial_index":1,"time_elapsed":102718,"internal_node_id":"0.0-1.0"},{"group":"hexagon_bi","room_assignment":["grey","red","yellow","green","purple","blue"],"door_color_assignment":["black","white"],"door_generator_assignment":[0,1],"goal":4,"start":0,"action_noise":0.15,"location_history":"[0,1,0,1,0,5,0,5,4]","action_history":"[1,1,1,1,0,0,0,1]","door_history":"[1,1,1,1,0,0,0,1]","location_rts":"[1937,5417,1686,1634,1464,1015,2192,1240]","trial_type":"two-door-navigation","trial_index":2,"time_elapsed":130937,"internal_node_id":"0.0-2.0-0.0"},{"group":"hexagon_bi","room_assignment":["grey","red","yellow","green","purple","blue"],"door_color_assignment":["black","white"],"door_generator_assignment":[0,1],"goal":3,"start":4,"action_noise":0.15,"location_history":"[4,5,4,3]","action_history":"[1,1,0]","door_history":"[1,1,0]","location_rts":"[2422,1783,1345]","trial_type":"two-door-navigation","trial_index":3,"time_elapsed":143010,"internal_node_id":"0.0-2.0-1.0"},{"group":"hexagon_bi","room_assignment":["grey","red","yellow","green","purple","blue"],"door_color_assignment":["black","white"],"door_generator_assignment":[0,1],"goal":5,"start":3,"action_noise":0.15,"location_history":"[3,4,3,4,5]","action_history":"[0,0,1,1]","door_history":"[0,0,1,1]","location_rts":"[3585,1280,1083,775]","trial_type":"two-door-navigation","trial_index":4,"time_elapsed":157268,"internal_node_id":"0.0-2.0-2.0"},{"group":"hexagon_bi","room_assignment":["grey","red","yellow","green","purple","blue"],"door_color_assignment":["black","white"],"door_generator_assignment":[0,1],"goal":2,"start":5,"action_noise":0.15,"location_history":"[5,4,5,0,5,4,5,4,5,4,3,4,3,2]","action_history":"[1,1,0,0,1,0,1,1,1,0,0,0,1]","door_history":"[1,1,0,0,1,0,1,1,1,0,0,0,1]","location_rts":"[1993,1405,822,634,1897,1332,1400,960,856,1265,959,659,965]","trial_type":"two-door-navigation","trial_index":5,"time_elapsed":189047,"internal_node_id":"0.0-2.0-3.0"},{"group":"hexagon_bi","room_assignment":["grey","red","yellow","green","purple","blue"],"door_color_assignment":["black","white"],"door_generator_assignment":[0,1],"goal":1,"start":2,"action_noise":0.15,"location_history":"[2,3,2,1]","action_history":"[1,1,0]","door_history":"[1,1,0]","location_rts":"[2301,881,1220]","trial_type":"two-door-navigation","trial_index":6,"time_elapsed":199983,"internal_node_id":"0.0-2.0-4.0"},{"group":"hexagon_bi","room_assignment":["grey","red","yellow","green","purple","blue"],"door_color_assignment":["black","white"],"door_generator_assignment":[0,1],"goal":4,"start":1,"action_noise":0.15,"location_history":"[1,2,1,2,3,2,3,4]","action_history":"[0,0,0,1,1,1,0]","door_history":"[0,0,0,1,1,1,0]","location_rts":"[3366,740,700,534,674,1731,487]","trial_type":"two-door-navigation","trial_index":7,"time_elapsed":218811,"internal_node_id":"0.0-2.0-5.0"},{"group":"hexagon_bi","room_assignment":["grey","red","yellow","green","purple","blue"],"door_color_assignment":["black","white"],"door_generator_assignment":[0,1],"goal":1,"start":4,"action_noise":0.15,"location_history":"[4,5,0,5,4,3,4,3,2,3,2,1]","action_history":"[1,0,0,1,0,0,0,1,1,1,0]","door_history":"[1,0,0,1,0,0,0,1,1,1,0]","location_rts":"[3374,1527,804,1008,971,746,613,490,766,967,893]","trial_type":"two-door-navigation","trial_index":8,"time_elapsed":245629,"internal_node_id":"0.0-2.0-6.0"},{"group":"hexagon_bi","room_assignment":["grey","red","yellow","green","purple","blue"],"door_color_assignment":["black","white"],"door_generator_assignment":[0,1],"goal":5,"start":1,"action_noise":0.15,"location_history":"[1,2,3,2,3,4,3,4,5]","action_history":"[0,1,1,1,0,0,0,1]","door_history":"[0,1,1,1,0,0,0,1]","location_rts":"[1230,1767,698,638,501,795,779,648]","trial_type":"two-door-navigation","trial_index":9,"time_elapsed":264263,"internal_node_id":"0.0-2.0-7.0"},{"group":"hexagon_bi","room_assignment":["grey","red","yellow","green","purple","blue"],"door_color_assignment":["black","white"],"door_generator_assignment":[0,1],"goal":0,"start":5,"action_noise":0.15,"location_history":"[5,0]","action_history":"[0]","door_history":"[0]","location_rts":"[3783]","trial_type":"two-door-navigation","trial_index":10,"time_elapsed":272557,"internal_node_id":"0.0-2.0-8.0"},{"group":"hexagon_bi","room_assignment":["grey","red","yellow","green","purple","blue"],"door_color_assignment":["black","white"],"door_generator_assignment":[0,1],"goal":2,"start":0,"action_noise":0.15,"location_history":"[0,5,4,5,0,5,4,3,2]","action_history":"[0,1,1,0,1,1,0,1]","door_history":"[0,1,1,0,1,1,0,1]","location_rts":"[2755,1047,1412,1935,1045,1723,1047,1527]","trial_type":"two-door-navigation","trial_index":11,"time_elapsed":296605,"internal_node_id":"0.0-2.0-9.0"},{"group":"hexagon_bi","room_assignment":["grey","red","yellow","green","purple","blue"],"door_color_assignment":["black","white"],"door_generator_assignment":[0,1],"goal":3,"start":2,"action_noise":0.15,"location_history":"[2,1,0,5,0,1,0,1,2,3]","action_history":"[0,1,0,0,0,1,1,0,1]","door_history":"[0,1,0,0,0,1,1,0,1]","location_rts":"[3866,1884,1267,1830,641,701,806,1662,698]","trial_type":"two-door-navigation","trial_index":12,"time_elapsed":322527,"internal_node_id":"0.0-2.0-10.0"},{"group":"hexagon_bi","room_assignment":["grey","red","yellow","green","purple","blue"],"door_color_assignment":["black","white"],"door_generator_assignment":[0,1],"goal":0,"start":3,"action_noise":0.15,"location_history":"[3,2,1,2,3,4,3,4,5,0]","action_history":"[1,0,0,1,0,0,0,1,0]","door_history":"[1,0,0,1,0,0,0,1,0]","location_rts":"[2582,1530,757,1575,1077,2109,661,573,1515]","trial_type":"two-door-navigation","trial_index":13,"time_elapsed":347508,"internal_node_id":"0.0-2.0-11.0"},{"group":"hexagon_bi","room_assignment":["grey","red","yellow","green","purple","blue"],"door_color_assignment":["black","white"],"door_generator_assignment":[0,1],"goal":2,"start":0,"action_noise":0.15,"location_history":"[0,5,4,5,0,1,0,5,4,3,4,5,0,1,0,5,0,5,0,1,2]","action_history":"[0,1,1,0,1,1,0,0,1,0,1,0,1,1,0,0,0,1,1,0]","door_history":"[0,1,1,0,1,1,0,0,1,0,1,0,1,1,0,0,0,1,1,0]","location_rts":"[2194,1027,1111,1218,1203,1468,1066,544,1129,1047,1343,1211,1295,571,988,1222,1095,883,1718,1233]","trial_type":"two-door-navigation","trial_index":14,"time_elapsed":394742,"internal_node_id":"0.0-2.0-12.0"},{"group":"hexagon_bi","room_assignment":["grey","red","yellow","green","purple","blue"],"door_color_assignment":["black","white"],"door_generator_assignment":[0,1],"goal":5,"start":2,"action_noise":0.15,"location_history":"[2,1,0,1,2,3,4,5]","action_history":"[0,1,0,0,1,1,1]","door_history":"[0,1,0,0,1,1,1]","location_rts":"[1666,1401,1324,940,1138,1934,762]","trial_type":"two-door-navigation","trial_index":15,"time_elapsed":414511,"internal_node_id":"0.0-2.0-13.0"},{"group":"hexagon_bi","room_assignment":["grey","red","yellow","green","purple","blue"],"door_color_assignment":["black","white"],"door_generator_assignment":[0,1],"goal":4,"start":5,"action_noise":0.15,"location_history":"[5,4]","action_history":"[1]","door_history":"[1]","location_rts":"[1412]","trial_type":"two-door-navigation","trial_index":16,"time_elapsed":420436,"internal_node_id":"0.0-2.0-14.0"},{"group":"hexagon_bi","room_assignment":["grey","red","yellow","green","purple","blue"],"door_color_assignment":["black","white"],"door_generator_assignment":[0,1],"goal":3,"start":4,"action_noise":0.15,"location_history":"[4,3]","action_history":"[0]","door_history":"[0]","location_rts":"[2551]","trial_type":"two-door-navigation","trial_index":17,"time_elapsed":427498,"internal_node_id":"0.0-2.0-15.0"},{"group":"hexagon_bi","room_assignment":["grey","red","yellow","green","purple","blue"],"door_color_assignment":["black","white"],"door_generator_assignment":[0,1],"goal":1,"start":3,"action_noise":0.15,"location_history":"[3,4,3,2,1]","action_history":"[0,1,1,1]","door_history":"[0,1,1,1]","location_rts":"[1472,1482,804,1128]","trial_type":"two-door-navigation","trial_index":18,"time_elapsed":439917,"internal_node_id":"0.0-2.0-16.0"},{"group":"hexagon_bi","room_assignment":["grey","red","yellow","green","purple","blue"],"door_color_assignment":["black","white"],"door_generator_assignment":[0,1],"goal":5,"start":1,"action_noise":0.15,"location_history":"[1,0,5]","action_history":"[0,0]","door_history":"[0,0]","location_rts":"[1946,978]","trial_type":"two-door-navigation","trial_index":19,"time_elapsed":448360,"internal_node_id":"0.0-2.0-17.0"},{"group":"hexagon_bi","room_assignment":["grey","red","yellow","green","purple","blue"],"door_color_assignment":["black","white"],"door_generator_assignment":[0,1],"goal":4,"start":5,"action_noise":0.15,"location_history":"[5,4]","action_history":"[1]","door_history":"[1]","location_rts":"[2216]","trial_type":"two-door-navigation","trial_index":20,"time_elapsed":455083,"internal_node_id":"0.0-2.0-18.0"},{"group":"hexagon_bi","room_assignment":["grey","red","yellow","green","purple","blue"],"door_color_assignment":["black","white"],"door_generator_assignment":[0,1],"goal":0,"start":4,"action_noise":0.15,"location_history":"[4,3,4,3,2,3,2,1,2,1,0]","action_history":"[0,0,0,1,1,1,0,0,0,1]","door_history":"[0,0,0,1,1,1,0,0,0,1]","location_rts":"[2091,593,681,1029,1480,612,764,1035,1346,765]","trial_type":"two-door-navigation","trial_index":21,"time_elapsed":479058,"internal_node_id":"0.0-2.0-19.0"},{"group":"hexagon_bi","room_assignment":["grey","red","yellow","green","purple","blue"],"door_color_assignment":["black","white"],"door_generator_assignment":[0,1],"goal":1,"start":0,"action_noise":0.15,"location_history":"[0,1]","action_history":"[1]","door_history":"[1]","location_rts":"[42074]","trial_type":"two-door-navigation","trial_index":22,"time_elapsed":525664,"internal_node_id":"0.0-2.0-20.0"},{"group":"hexagon_bi","room_assignment":["grey","red","yellow","green","purple","blue"],"door_color_assignment":["black","white"],"door_generator_assignment":[0,1],"goal":3,"start":1,"action_noise":0.15,"location_history":"[1,0,1,2,3]","action_history":"[1,0,0,1]","door_history":"[1,0,0,1]","location_rts":"[2138,2359,756,2272]","trial_type":"two-door-navigation","trial_index":23,"time_elapsed":540720,"internal_node_id":"0.0-2.0-21.0"},{"group":"hexagon_bi","room_assignment":["grey","red","yellow","green","purple","blue"],"door_color_assignment":["black","white"],"door_generator_assignment":[0,1],"goal":2,"start":3,"action_noise":0.15,"location_history":"[3,2]","action_history":"[1]","door_history":"[1]","location_rts":"[2298]","trial_type":"two-door-navigation","trial_index":24,"time_elapsed":547523,"internal_node_id":"0.0-2.0-22.0"},{"group":"hexagon_bi","room_assignment":["grey","red","yellow","green","purple","blue"],"door_color_assignment":["black","white"],"door_generator_assignment":[0,1],"goal":0,"start":2,"action_noise":0.15,"location_history":"[2,1,2,1,0]","action_history":"[0,0,0,1]","door_history":"[0,0,0,1]","location_rts":"[2690,975,718,691]","trial_type":"two-door-navigation","trial_index":25,"time_elapsed":560130,"internal_node_id":"0.0-2.0-23.0"},{"group":"hexagon_bi","room_assignment":["grey","red","yellow","green","purple","blue"],"door_color_assignment":["black","white"],"door_generator_assignment":[0,1],"goal":3,"start":0,"action_noise":0.15,"location_history":"[0,1,2,1,0,5,0,5,0,1,0,5,4,3]","action_history":"[1,0,1,1,0,1,0,0,0,1,1,1,0]","door_history":"[1,0,1,1,0,1,0,0,0,1,1,1,0]","location_rts":"[1574,1673,1337,862,2220,1799,100739,682,797,825,665,777,1524]","trial_type":"two-door-navigation","trial_index":26,"time_elapsed":692197,"internal_node_id":"0.0-2.0-24.0"},{"group":"hexagon_bi","room_assignment":["grey","red","yellow","green","purple","blue"],"door_color_assignment":["black","white"],"door_generator_assignment":[0,1],"goal":1,"start":3,"action_noise":0.15,"location_history":"[3,2,1]","action_history":"[1,1]","door_history":"[1,1]","location_rts":"[2346,1636]","trial_type":"two-door-navigation","trial_index":27,"time_elapsed":701693,"internal_node_id":"0.0-2.0-25.0"},{"group":"hexagon_bi","room_assignment":["grey","red","yellow","green","purple","blue"],"door_color_assignment":["black","white"],"door_generator_assignment":[0,1],"goal":2,"start":1,"action_noise":0.15,"location_history":"[1,2]","action_history":"[1]","door_history":"[1]","location_rts":"[2646]","trial_type":"two-door-navigation","trial_index":28,"time_elapsed":708849,"internal_node_id":"0.0-2.0-26.0"},{"group":"hexagon_bi","room_assignment":["grey","red","yellow","green","purple","blue"],"door_color_assignment":["black","white"],"door_generator_assignment":[0,1],"goal":5,"start":2,"action_noise":0.15,"location_history":"[2,1,2,3,4,3,4,5]","action_history":"[0,0,1,0,0,0,1]","door_history":"[0,0,1,0,0,0,1]","location_rts":"[2545,847,1868,1376,692,990,1105]","trial_type":"two-door-navigation","trial_index":29,"time_elapsed":728831,"internal_node_id":"0.0-2.0-27.0"},{"group":"hexagon_bi","room_assignment":["grey","red","yellow","green","purple","blue"],"door_color_assignment":["black","white"],"door_generator_assignment":[0,1],"goal":4,"start":5,"action_noise":0.15,"location_history":"[5,4]","action_history":"[1]","door_history":"[1]","location_rts":"[2089]","trial_type":"two-door-navigation","trial_index":30,"time_elapsed":735428,"internal_node_id":"0.0-2.0-28.0"},{"group":"hexagon_bi","room_assignment":["grey","red","yellow","green","purple","blue"],"door_color_assignment":["black","white"],"door_generator_assignment":[0,1],"goal":5,"start":4,"action_noise":0.15,"location_history":"[4,5]","action_history":"[1]","door_history":"[1]","location_rts":"[1567]","trial_type":"two-door-navigation","trial_index":31,"time_elapsed":741502,"internal_node_id":"0.0-2.0-29.0"},{"group":"hexagon_bi","room_assignment":["grey","red","yellow","green","purple","blue"],"door_color_assignment":["black","white"],"door_generator_assignment":[0,1],"goal":3,"start":5,"action_noise":0.15,"location_history":"[5,4,5,0,5,4,3]","action_history":"[1,1,0,0,1,0]","door_history":"[1,1,0,0,1,0]","location_rts":"[1438,1344,1246,691,1133,460]","trial_type":"two-door-navigation","trial_index":32,"time_elapsed":757359,"internal_node_id":"0.0-2.0-30.0"},{"group":"hexagon_bi","room_assignment":["grey","red","yellow","green","purple","blue"],"door_color_assignment":["black","white"],"door_generator_assignment":[0,1],"goal":0,"start":3,"action_noise":0.15,"location_history":"[3,4,3,4,5,4,5,0]","action_history":"[0,0,0,1,1,1,0]","door_history":"[0,0,0,1,1,1,0]","location_rts":"[1261,790,657,921,631,1024,477]","trial_type":"two-door-navigation","trial_index":33,"time_elapsed":773675,"internal_node_id":"0.0-2.0-31.0"},{"group":"hexagon_bi","room_assignment":["grey","red","yellow","green","purple","blue"],"door_color_assignment":["black","white"],"door_generator_assignment":[0,1],"goal":4,"start":0,"action_noise":0.15,"location_history":"[0,1,2,1,2,1,2,1,0,5,0,1,0,5,4]","action_history":"[1,0,0,1,0,0,0,1,0,0,1,0,0,1]","door_history":"[1,0,0,1,0,0,0,1,0,0,1,0,0,1]","location_rts":"[2585,632,642,756,1306,1250,643,1808,1168,1109,990,1221,845,583]","trial_type":"two-door-navigation","trial_index":34,"time_elapsed":806814,"internal_node_id":"0.0-2.0-32.0"},{"group":"hexagon_bi","room_assignment":["grey","red","yellow","green","purple","blue"],"door_color_assignment":["black","white"],"door_generator_assignment":[0,1],"goal":1,"start":4,"action_noise":0.15,"location_history":"[4,3,2,3,2,1]","action_history":"[0,1,1,1,0]","door_history":"[0,1,1,1,0]","location_rts":"[2213,988,747,959,89]","trial_type":"two-door-navigation","trial_index":35,"time_elapsed":820354,"internal_node_id":"0.0-2.0-33.0"},{"group":"hexagon_bi","room_assignment":["grey","red","yellow","green","purple","blue"],"door_color_assignment":["black","white"],"door_generator_assignment":[0,1],"goal":2,"start":1,"action_noise":0.15,"location_history":"[1,0,5,0,1,0,5,4,5,0,1,2]","action_history":"[0,0,0,1,1,1,1,1,0,1,0]","door_history":"[0,0,0,1,1,1,1,1,0,1,0]","location_rts":"[1295,739,1142,1454,808,1115,1136,950,1310,1281,2024]","trial_type":"two-door-navigation","trial_index":36,"time_elapsed":848180,"internal_node_id":"0.0-2.0-34.0"},{"group":"hexagon_bi","room_assignment":["grey","red","yellow","green","purple","blue"],"door_color_assignment":["black","white"],"door_generator_assignment":[0,1],"goal":0,"start":2,"action_noise":0.15,"location_history":"[2,1,2,3,4,5,0]","action_history":"[0,0,1,0,1,0]","door_history":"[0,0,1,0,1,0]","location_rts":"[1012,1032,1114,1162,1134,1008]","trial_type":"two-door-navigation","trial_index":37,"time_elapsed":864191,"internal_node_id":"0.0-2.0-35.0"},{"group":"hexagon_bi","room_assignment":["grey","red","yellow","green","purple","blue"],"door_color_assignment":["black","white"],"door_generator_assignment":[0,1],"goal":5,"start":0,"action_noise":0.15,"location_history":"[0,1,2,3,4,5]","action_history":"[0,0,1,0,1]","door_history":"[0,0,1,0,1]","location_rts":"[1766,1410,1228,1119,1170]","trial_type":"two-door-navigation","trial_index":38,"time_elapsed":879432,"internal_node_id":"0.0-2.0-36.0"},{"group":"hexagon_bi","room_assignment":["grey","red","yellow","green","purple","blue"],"door_color_assignment":["black","white"],"door_generator_assignment":[0,1],"goal":2,"start":5,"action_noise":0.15,"location_history":"[5,4,3,2]","action_history":"[1,0,1]","door_history":"[1,0,1]","location_rts":"[1922,1736,1228]","trial_type":"two-door-navigation","trial_index":39,"time_elapsed":890866,"internal_node_id":"0.0-2.0-37.0"},{"group":"hexagon_bi","room_assignment":["grey","red","yellow","green","purple","blue"],"door_color_assignment":["black","white"],"door_generator_assignment":[0,1],"goal":1,"start":2,"action_noise":0.15,"location_history":"[2,3,4,3,2,3,2,3,4,5,4,5,0,1]","action_history":"[1,1,0,0,1,1,0,0,1,0,0,0,1]","door_history":"[1,1,0,0,1,1,0,0,1,0,0,0,1]","location_rts":"[1248,954,1250,707,1095,1378,1073,812,1170,1363,992,877,1215]","trial_type":"two-door-navigation","trial_index":40,"time_elapsed":921687,"internal_node_id":"0.0-2.0-38.0"},{"group":"hexagon_bi","room_assignment":["grey","red","yellow","green","purple","blue"],"door_color_assignment":["black","white"],"door_generator_assignment":[0,1],"goal":4,"start":1,"action_noise":0.15,"location_history":"[1,0,5,4]","action_history":"[1,1,0]","door_history":"[1,1,0]","location_rts":"[1435,1740,1604]","trial_type":"two-door-navigation","trial_index":41,"time_elapsed":933049,"internal_node_id":"0.0-2.0-39.0"},{"group":"hexagon_bi","room_assignment":["grey","red","yellow","green","purple","blue"],"door_color_assignment":["black","white"],"door_generator_assignment":[0,1],"goal":3,"start":4,"action_noise":0.15,"location_history":"[4,3]","action_history":"[0]","door_history":"[0]","location_rts":"[1907]","trial_type":"two-door-navigation","trial_index":42,"time_elapsed":939469,"internal_node_id":"0.0-2.0-40.0"},{"group":"hexagon_bi","room_assignment":["grey","red","yellow","green","purple","blue"],"door_color_assignment":["black","white"],"door_generator_assignment":[0,1],"goal":5,"start":3,"action_noise":0.15,"location_history":"[3,4,5]","action_history":"[0,1]","door_history":"[0,1]","location_rts":"[1874,1272]","trial_type":"two-door-navigation","trial_index":43,"time_elapsed":948128,"internal_node_id":"0.0-2.0-41.0"},{"group":"hexagon_bi","room_assignment":["grey","red","yellow","green","purple","blue"],"door_color_assignment":["black","white"],"door_generator_assignment":[0,1],"goal":3,"start":5,"action_noise":0.15,"location_history":"[5,0,5,4,3]","action_history":"[0,0,1,0]","door_history":"[0,0,1,0]","location_rts":"[1842,1269,996,1233]","trial_type":"two-door-navigation","trial_index":44,"time_elapsed":960996,"internal_node_id":"0.0-2.0-42.0"},{"group":"hexagon_bi","room_assignment":["grey","red","yellow","green","purple","blue"],"door_color_assignment":["black","white"],"door_generator_assignment":[0,1],"goal":0,"start":3,"action_noise":0.15,"location_history":"[3,4,5,4,3,4,5,4,3,4,5,4,3,2,3,2,1,2,1,0]","action_history":"[0,1,0,0,0,1,1,0,0,1,1,0,1,0,1,1,0,0,1]","door_history":"[0,1,0,0,0,1,1,0,0,1,1,0,1,0,1,1,0,0,1]","location_rts":"[3072,1144,1048,942,1136,788,639,1459,698,1126,1066,1080,807,1412,2058,575,950,1905,1105]","trial_type":"two-door-navigation","trial_index":45,"time_elapsed":1006698,"internal_node_id":"0.0-2.0-43.0"},{"group":"hexagon_bi","room_assignment":["grey","red","yellow","green","purple","blue"],"door_color_assignment":["black","white"],"door_generator_assignment":[0,1],"goal":2,"start":0,"action_noise":0.15,"location_history":"[0,1,2]","action_history":"[1,0]","door_history":"[1,0]","location_rts":"[2398,1378]","trial_type":"two-door-navigation","trial_index":46,"time_elapsed":1016080,"internal_node_id":"0.0-2.0-44.0"},{"group":"hexagon_bi","room_assignment":["grey","red","yellow","green","purple","blue"],"door_color_assignment":["black","white"],"door_generator_assignment":[0,1],"goal":4,"start":2,"action_noise":0.15,"location_history":"[2,1,2,3,4]","action_history":"[0,0,1,0]","door_history":"[0,0,1,0]","location_rts":"[1560,911,1237,1710]","trial_type":"two-door-navigation","trial_index":47,"time_elapsed":1029045,"internal_node_id":"0.0-2.0-45.0"},{"group":"hexagon_bi","room_assignment":["grey","red","yellow","green","purple","blue"],"door_color_assignment":["black","white"],"door_generator_assignment":[0,1],"goal":1,"start":4,"action_noise":0.15,"location_history":"[4,5,0,1]","action_history":"[1,0,1]","door_history":"[1,0,1]","location_rts":"[4065,1369,1597]","trial_type":"two-door-navigation","trial_index":48,"time_elapsed":1042674,"internal_node_id":"0.0-2.0-46.0"},{"group":"hexagon_bi","room_assignment":["grey","red","yellow","green","purple","blue"],"door_color_assignment":["black","white"],"door_generator_assignment":[0,1],"goal":4,"start":1,"action_noise":0.15,"location_history":"[1,0,5,4]","action_history":"[1,0,1]","door_history":"[1,0,1]","location_rts":"[2694,1237,1154]","trial_type":"two-door-navigation","trial_index":49,"time_elapsed":1054284,"internal_node_id":"0.0-2.0-47.0"},{"group":"hexagon_bi","room_assignment":["grey","red","yellow","green","purple","blue"],"door_color_assignment":["black","white"],"door_generator_assignment":[0,1],"goal":3,"start":4,"action_noise":0.15,"location_history":"[4,5,0,5,0,5,4,5,4,5,4,3]","action_history":"[1,0,0,0,0,1,0,0,1,1,0]","door_history":"[1,0,0,0,0,1,0,0,1,1,0]","location_rts":"[2676,1717,1175,1384,787,591,1009,1047,1056,1299,2063]","trial_type":"two-door-navigation","trial_index":50,"time_elapsed":1083699,"internal_node_id":"0.0-2.0-48.0"},{"group":"hexagon_bi","room_assignment":["grey","red","yellow","green","purple","blue"],"door_color_assignment":["black","white"],"door_generator_assignment":[0,1],"goal":5,"start":3,"action_noise":0.15,"location_history":"[3,4,5]","action_history":"[0,1]","door_history":"[0,1]","location_rts":"[1236,1834]","trial_type":"two-door-navigation","trial_index":51,"time_elapsed":1092287,"internal_node_id":"0.0-2.0-49.0"},{"view_history":"[{\"page_index\":0,\"viewing_time\":2224}]","rt":2225,"trial_type":"instructions","trial_index":52,"time_elapsed":1095514,"internal_node_id":"0.0-3.0"},{"view_history":"[{\"page_index\":0,\"viewing_time\":7018},{\"page_index\":1,\"viewing_time\":19060}]","rt":26080,"trial_type":"instructions","trial_index":53,"time_elapsed":1122594,"internal_node_id":"0.0-4.0"},{"group":"hexagon_tri","fractal_assignment":["../images/gry_blk.png","../images/org_blu.png","../images/cyn_red.png","../images/blu_wht.png","../images/ylw_slt.png","../images/pnk_blu.png"],"mutagen_generator_assignment":[1,0],"goal":4,"start":0,"action_noise":0.15,"location_history":"[0,1,5,0,5,0,5,4]","action_history":"[1,1,1,0,1,1,0]","mutagen_history":"[0,0,0,1,0,0,1]","location_rts":"[5813,1790,1322,762,857,994,649]","trial_type":"fractal-mutation","trial_index":54,"time_elapsed":1145541,"internal_node_id":"0.0-5.0-0.0"},{"group":"hexagon_tri","fractal_assignment":["../images/gry_blk.png","../images/org_blu.png","../images/cyn_red.png","../images/blu_wht.png","../images/ylw_slt.png","../images/pnk_blu.png"],"mutagen_generator_assignment":[1,0],"goal":3,"start":4,"action_noise":0.15,"location_history":"[4,2,1,3]","action_history":"[1,0,0]","mutagen_history":"[0,1,1]","location_rts":"[1278,797,862]","trial_type":"fractal-mutation","trial_index":55,"time_elapsed":1155117,"internal_node_id":"0.0-5.0-1.0"},{"group":"hexagon_tri","fractal_assignment":["../images/gry_blk.png","../images/org_blu.png","../images/cyn_red.png","../images/blu_wht.png","../images/ylw_slt.png","../images/pnk_blu.png"],"mutagen_generator_assignment":[1,0],"goal":5,"start":3,"action_noise":0.15,"location_history":"[3,2,1,3,4,2,1,3,4,2,1,5]","action_history":"[0,0,1,1,1,1,0,1,1,0,1]","mutagen_history":"[1,1,0,0,0,0,1,0,0,1,0]","location_rts":"[1827,825,681,722,769,702,461,778,1289,1075,967]","trial_type":"fractal-mutation","trial_index":56,"time_elapsed":1180112,"internal_node_id":"0.0-5.0-2.0"},{"group":"hexagon_tri","fractal_assignment":["../images/gry_blk.png","../images/org_blu.png","../images/cyn_red.png","../images/blu_wht.png","../images/ylw_slt.png","../images/pnk_blu.png"],"mutagen_generator_assignment":[1,0],"goal":2,"start":5,"action_noise":0.15,"location_history":"[5,4,0,1,3,2]","action_history":"[0,0,1,0,0]","mutagen_history":"[1,1,0,1,1]","location_rts":"[2253,715,179,943,854]","trial_type":"fractal-mutation","trial_index":57,"time_elapsed":1193725,"internal_node_id":"0.0-5.0-3.0"},{"group":"hexagon_tri","fractal_assignment":["../images/gry_blk.png","../images/org_blu.png","../images/cyn_red.png","../images/blu_wht.png","../images/ylw_slt.png","../images/pnk_blu.png"],"mutagen_generator_assignment":[1,0],"goal":1,"start":2,"action_noise":0.15,"location_history":"[2,3,4,0,5,4,0,5,0,1]","action_history":"[1,1,1,1,1,1,0,1,1]","mutagen_history":"[0,0,0,0,0,0,1,0,0]","location_rts":"[1328,554,665,642,891,595,463,738,509]","trial_type":"fractal-mutation","trial_index":58,"time_elapsed":1212892,"internal_node_id":"0.0-5.0-4.0"},{"group":"hexagon_tri","fractal_assignment":["../images/gry_blk.png","../images/org_blu.png","../images/cyn_red.png","../images/blu_wht.png","../images/ylw_slt.png","../images/pnk_blu.png"],"mutagen_generator_assignment":[1,0],"goal":4,"start":1,"action_noise":0.15,"location_history":"[1,3,2,1,5,4]","action_history":"[1,1,0,1,0]","mutagen_history":"[0,0,1,0,1]","location_rts":"[12379,516,402,643,814]","trial_type":"fractal-mutation","trial_index":59,"time_elapsed":1236328,"internal_node_id":"0.0-5.0-5.0"},{"group":"hexagon_tri","fractal_assignment":["../images/gry_blk.png","../images/org_blu.png","../images/cyn_red.png","../images/blu_wht.png","../images/ylw_slt.png","../images/pnk_blu.png"],"mutagen_generator_assignment":[1,0],"goal":1,"start":4,"action_noise":0.15,"location_history":"[4,2,1]","action_history":"[1,0]","mutagen_history":"[0,1]","location_rts":"[602,778]","trial_type":"fractal-mutation","trial_index":60,"time_elapsed":1243271,"internal_node_id":"0.0-5.0-6.0"},{"group":"hexagon_tri","fractal_assignment":["../images/gry_blk.png","../images/org_blu.png","../images/cyn_red.png","../images/blu_wht.png","../images/ylw_slt.png","../images/pnk_blu.png"],"mutagen_generator_assignment":[1,0],"goal":5,"start":1,"action_noise":0.15,"location_history":"[1,5]","action_history":"[1]","mutagen_history":"[0]","location_rts":"[1198]","trial_type":"fractal-mutation","trial_index":61,"time_elapsed":1249000,"internal_node_id":"0.0-5.0-7.0"},{"group":"hexagon_tri","fractal_assignment":["../images/gry_blk.png","../images/org_blu.png","../images/cyn_red.png","../images/blu_wht.png","../images/ylw_slt.png","../images/pnk_blu.png"],"mutagen_generator_assignment":[1,0],"goal":0,"start":5,"action_noise":0.15,"location_history":"[5,0]","action_history":"[1]","mutagen_history":"[0]","location_rts":"[2338]","trial_type":"fractal-mutation","trial_index":62,"time_elapsed":1255869,"internal_node_id":"0.0-5.0-8.0"},{"group":"hexagon_tri","fractal_assignment":["../images/gry_blk.png","../images/org_blu.png","../images/cyn_red.png","../images/blu_wht.png","../images/ylw_slt.png","../images/pnk_blu.png"],"mutagen_generator_assignment":[1,0],"goal":2,"start":0,"action_noise":0.15,"location_history":"[0,5,4,0,5,0,5,4,2]","action_history":"[0,0,0,0,1,0,0,1]","mutagen_history":"[1,1,1,1,0,1,1,0]","location_rts":"[1205,505,461,696,704,491,689,381]","trial_type":"fractal-mutation","trial_index":63,"time_elapsed":1272770,"internal_node_id":"0.0-5.0-9.0"},{"group":"hexagon_tri","fractal_assignment":["../images/gry_blk.png","../images/org_blu.png","../images/cyn_red.png","../images/blu_wht.png","../images/ylw_slt.png","../images/pnk_blu.png"],"mutagen_generator_assignment":[1,0],"goal":3,"start":2,"action_noise":0.15,"location_history":"[2,1,5,0,1,3]","action_history":"[1,1,1,1,0]","mutagen_history":"[0,0,0,0,1]","location_rts":"[1364,580,485,512,428]","trial_type":"fractal-mutation","trial_index":64,"time_elapsed":1284795,"internal_node_id":"0.0-5.0-10.0"},{"group":"hexagon_tri","fractal_assignment":["../images/gry_blk.png","../images/org_blu.png","../images/cyn_red.png","../images/blu_wht.png","../images/ylw_slt.png","../images/pnk_blu.png"],"mutagen_generator_assignment":[1,0],"goal":0,"start":3,"action_noise":0.15,"location_history":"[3,2,3,4,0]","action_history":"[1,1,1,0]","mutagen_history":"[0,0,0,1]","location_rts":"[1221,713,544,358]","trial_type":"fractal-mutation","trial_index":65,"time_elapsed":1295264,"internal_node_id":"0.0-5.0-11.0"},{"group":"hexagon_tri","fractal_assignment":["../images/gry_blk.png","../images/org_blu.png","../images/cyn_red.png","../images/blu_wht.png","../images/ylw_slt.png","../images/pnk_blu.png"],"mutagen_generator_assignment":[1,0],"goal":2,"start":0,"action_noise":0.15,"location_history":"[0,1,3,2]","action_history":"[1,0,1]","mutagen_history":"[0,1,0]","location_rts":"[1157,466,469]","trial_type":"fractal-mutation","trial_index":66,"time_elapsed":1303949,"internal_node_id":"0.0-5.0-12.0"},{"group":"hexagon_tri","fractal_assignment":["../images/gry_blk.png","../images/org_blu.png","../images/cyn_red.png","../images/blu_wht.png","../images/ylw_slt.png","../images/pnk_blu.png"],"mutagen_generator_assignment":[1,0],"goal":5,"start":2,"action_noise":0.15,"location_history":"[2,3,2,1,5]","action_history":"[1,0,0,0]","mutagen_history":"[0,1,1,1]","location_rts":"[489,415,616,714]","trial_type":"fractal-mutation","trial_index":67,"time_elapsed":1313812,"internal_node_id":"0.0-5.0-13.0"},{"group":"hexagon_tri","fractal_assignment":["../images/gry_blk.png","../images/org_blu.png","../images/cyn_red.png","../images/blu_wht.png","../images/ylw_slt.png","../images/pnk_blu.png"],"mutagen_generator_assignment":[1,0],"goal":4,"start":5,"action_noise":0.15,"location_history":"[5,4]","action_history":"[1]","mutagen_history":"[0]","location_rts":"[591]","trial_type":"fractal-mutation","trial_index":68,"time_elapsed":1318935,"internal_node_id":"0.0-5.0-14.0"},{"group":"hexagon_tri","fractal_assignment":["../images/gry_blk.png","../images/org_blu.png","../images/cyn_red.png","../images/blu_wht.png","../images/ylw_slt.png","../images/pnk_blu.png"],"mutagen_generator_assignment":[1,0],"goal":3,"start":4,"action_noise":0.15,"location_history":"[4,0,1,3]","action_history":"[1,1,0]","mutagen_history":"[0,0,1]","location_rts":"[774,355,382]","trial_type":"fractal-mutation","trial_index":69,"time_elapsed":1327121,"internal_node_id":"0.0-5.0-15.0"},{"group":"hexagon_tri","fractal_assignment":["../images/gry_blk.png","../images/org_blu.png","../images/cyn_red.png","../images/blu_wht.png","../images/ylw_slt.png","../images/pnk_blu.png"],"mutagen_generator_assignment":[1,0],"goal":1,"start":3,"action_noise":0.15,"location_history":"[3,4,2,3,2,3,4,2,3,4,0,1]","action_history":"[1,1,1,0,1,1,1,1,0,0,1]","mutagen_history":"[0,0,0,1,0,0,0,0,1,1,0]","location_rts":"[921,374,418,308,516,590,454,420,422,668,737]","trial_type":"fractal-mutation","trial_index":70,"time_elapsed":1347803,"internal_node_id":"0.0-5.0-16.0"},{"group":"hexagon_tri","fractal_assignment":["../images/gry_blk.png","../images/org_blu.png","../images/cyn_red.png","../images/blu_wht.png","../images/ylw_slt.png","../images/pnk_blu.png"],"mutagen_generator_assignment":[1,0],"goal":5,"start":1,"action_noise":0.15,"location_history":"[1,3,2,1,5]","action_history":"[0,0,0,1]","mutagen_history":"[1,1,1,0]","location_rts":"[1027,392,398,647]","trial_type":"fractal-mutation","trial_index":71,"time_elapsed":1357915,"internal_node_id":"0.0-5.0-17.0"},{"group":"hexagon_tri","fractal_assignment":["../images/gry_blk.png","../images/org_blu.png","../images/cyn_red.png","../images/blu_wht.png","../images/ylw_slt.png","../images/pnk_blu.png"],"mutagen_generator_assignment":[1,0],"goal":4,"start":5,"action_noise":0.15,"location_history":"[5,0,1,5,4]","action_history":"[0,1,1,0]","mutagen_history":"[1,0,0,1]","location_rts":"[2706,375,423,440]","trial_type":"fractal-mutation","trial_index":72,"time_elapsed":1369487,"internal_node_id":"0.0-5.0-18.0"},{"group":"hexagon_tri","fractal_assignment":["../images/gry_blk.png","../images/org_blu.png","../images/cyn_red.png","../images/blu_wht.png","../images/ylw_slt.png","../images/pnk_blu.png"],"mutagen_generator_assignment":[1,0],"goal":0,"start":4,"action_noise":0.15,"location_history":"[4,2,3,2,3,2,1,3,2,1,5,0]","action_history":"[1,0,1,1,0,0,0,0,0,1,1]","mutagen_history":"[0,1,0,0,1,1,1,1,1,0,0]","location_rts":"[947,326,303,314,435,530,426,533,562,577,1134]","trial_type":"fractal-mutation","trial_index":73,"time_elapsed":1390498,"internal_node_id":"0.0-5.0-19.0"},{"group":"hexagon_tri","fractal_assignment":["../images/gry_blk.png","../images/org_blu.png","../images/cyn_red.png","../images/blu_wht.png","../images/ylw_slt.png","../images/pnk_blu.png"],"mutagen_generator_assignment":[1,0],"goal":1,"start":0,"action_noise":0.15,"location_history":"[0,5,0,1]","action_history":"[0,0,1]","mutagen_history":"[1,1,0]","location_rts":"[1807,1060,753]","trial_type":"fractal-mutation","trial_index":74,"time_elapsed":1400722,"internal_node_id":"0.0-5.0-20.0"},{"group":"hexagon_tri","fractal_assignment":["../images/gry_blk.png","../images/org_blu.png","../images/cyn_red.png","../images/blu_wht.png","../images/ylw_slt.png","../images/pnk_blu.png"],"mutagen_generator_assignment":[1,0],"goal":3,"start":1,"action_noise":0.15,"location_history":"[1,5,4,0,5,0,5,0,1,3]","action_history":"[1,0,0,0,1,0,1,1,0]","mutagen_history":"[0,1,1,1,0,1,0,0,1]","location_rts":"[408,374,473,874,785,430,869,555,538]","trial_type":"fractal-mutation","trial_index":75,"time_elapsed":1418882,"internal_node_id":"0.0-5.0-21.0"},{"group":"hexagon_tri","fractal_assignment":["../images/gry_blk.png","../images/org_blu.png","../images/cyn_red.png","../images/blu_wht.png","../images/ylw_slt.png","../images/pnk_blu.png"],"mutagen_generator_assignment":[1,0],"goal":2,"start":3,"action_noise":0.15,"location_history":"[3,4,0,5,4,2]","action_history":"[1,0,0,0,1]","mutagen_history":"[0,1,1,1,0]","location_rts":"[601,420,462,458,329]","trial_type":"fractal-mutation","trial_index":76,"time_elapsed":1429809,"internal_node_id":"0.0-5.0-22.0"},{"group":"hexagon_tri","fractal_assignment":["../images/gry_blk.png","../images/org_blu.png","../images/cyn_red.png","../images/blu_wht.png","../images/ylw_slt.png","../images/pnk_blu.png"],"mutagen_generator_assignment":[1,0],"goal":0,"start":2,"action_noise":0.15,"location_history":"[2,1,5,4,2,1,3,2,3,4,2,3,2,3,4,0]","action_history":"[1,1,0,1,0,0,0,1,1,1,0,0,1,1,0]","mutagen_history":"[0,0,1,0,1,1,1,0,0,0,1,1,0,0,1]","location_rts":"[473,677,406,964,504,431,550,332,464,454,383,408,424,500,544]","trial_type":"fractal-mutation","trial_index":77,"time_elapsed":1456302,"internal_node_id":"0.0-5.0-23.0"},{"group":"hexagon_tri","fractal_assignment":["../images/gry_blk.png","../images/org_blu.png","../images/cyn_red.png","../images/blu_wht.png","../images/ylw_slt.png","../images/pnk_blu.png"],"mutagen_generator_assignment":[1,0],"goal":3,"start":0,"action_noise":0.15,"location_history":"[0,5,0,5,4,0,1,5,0,5,0,5,0,1,5,0,1,3]","action_history":"[0,0,1,0,0,1,1,1,0,1,0,0,1,1,0,0,0]","mutagen_history":"[1,1,0,1,1,0,0,0,1,0,1,1,0,0,1,1,1]","location_rts":"[2087,743,712,591,1266,374,20,534,820,874,752,610,917,708,548,490,481]","trial_type":"fractal-mutation","trial_index":78,"time_elapsed":1489844,"internal_node_id":"0.0-5.0-24.0"},{"group":"hexagon_tri","fractal_assignment":["../images/gry_blk.png","../images/org_blu.png","../images/cyn_red.png","../images/blu_wht.png","../images/ylw_slt.png","../images/pnk_blu.png"],"mutagen_generator_assignment":[1,0],"goal":1,"start":3,"action_noise":0.15,"location_history":"[3,4,2,1]","action_history":"[1,1,0]","mutagen_history":"[0,0,1]","location_rts":"[1514,889,404]","trial_type":"fractal-mutation","trial_index":79,"time_elapsed":1499245,"internal_node_id":"0.0-5.0-25.0"},{"group":"hexagon_tri","fractal_assignment":["../images/gry_blk.png","../images/org_blu.png","../images/cyn_red.png","../images/blu_wht.png","../images/ylw_slt.png","../images/pnk_blu.png"],"mutagen_generator_assignment":[1,0],"goal":2,"start":1,"action_noise":0.15,"location_history":"[1,3,2]","action_history":"[0,1]","mutagen_history":"[1,0]","location_rts":"[414,489]","trial_type":"fractal-mutation","trial_index":80,"time_elapsed":1505737,"internal_node_id":"0.0-5.0-26.0"},{"group":"hexagon_tri","fractal_assignment":["../images/gry_blk.png","../images/org_blu.png","../images/cyn_red.png","../images/blu_wht.png","../images/ylw_slt.png","../images/pnk_blu.png"],"mutagen_generator_assignment":[1,0],"goal":5,"start":2,"action_noise":0.15,"location_history":"[2,3,4,0,5]","action_history":"[1,0,0,1]","mutagen_history":"[0,1,1,0]","location_rts":"[781,389,465,545]","trial_type":"fractal-mutation","trial_index":81,"time_elapsed":1515544,"internal_node_id":"0.0-5.0-27.0"},{"group":"hexagon_tri","fractal_assignment":["../images/gry_blk.png","../images/org_blu.png","../images/cyn_red.png","../images/blu_wht.png","../images/ylw_slt.png","../images/pnk_blu.png"],"mutagen_generator_assignment":[1,0],"goal":4,"start":5,"action_noise":0.15,"location_history":"[5,4]","action_history":"[0]","mutagen_history":"[1]","location_rts":"[932]","trial_type":"fractal-mutation","trial_index":82,"time_elapsed":1521013,"internal_node_id":"0.0-5.0-28.0"},{"group":"hexagon_tri","fractal_assignment":["../images/gry_blk.png","../images/org_blu.png","../images/cyn_red.png","../images/blu_wht.png","../images/ylw_slt.png","../images/pnk_blu.png"],"mutagen_generator_assignment":[1,0],"goal":5,"start":4,"action_noise":0.15,"location_history":"[4,0,5]","action_history":"[1,0]","mutagen_history":"[0,1]","location_rts":"[1081,639]","trial_type":"fractal-mutation","trial_index":83,"time_elapsed":1528291,"internal_node_id":"0.0-5.0-29.0"},{"group":"hexagon_tri","fractal_assignment":["../images/gry_blk.png","../images/org_blu.png","../images/cyn_red.png","../images/blu_wht.png","../images/ylw_slt.png","../images/pnk_blu.png"],"mutagen_generator_assignment":[1,0],"goal":3,"start":5,"action_noise":0.15,"location_history":"[5,0,5,0,1,3]","action_history":"[1,0,0,1,0]","mutagen_history":"[0,1,1,0,1]","location_rts":"[836,412,492,1177,1579]","trial_type":"fractal-mutation","trial_index":84,"time_elapsed":1541508,"internal_node_id":"0.0-5.0-30.0"},{"group":"hexagon_tri","fractal_assignment":["../images/gry_blk.png","../images/org_blu.png","../images/cyn_red.png","../images/blu_wht.png","../images/ylw_slt.png","../images/pnk_blu.png"],"mutagen_generator_assignment":[1,0],"goal":0,"start":3,"action_noise":0.15,"location_history":"[3,4,2,1,5,4,0]","action_history":"[1,1,0,1,1,0]","mutagen_history":"[0,0,1,0,0,1]","location_rts":"[994,483,978,793,524,643]","trial_type":"fractal-mutation","trial_index":85,"time_elapsed":1555616,"internal_node_id":"0.0-5.0-31.0"},{"group":"hexagon_tri","fractal_assignment":["../images/gry_blk.png","../images/org_blu.png","../images/cyn_red.png","../images/blu_wht.png","../images/ylw_slt.png","../images/pnk_blu.png"],"mutagen_generator_assignment":[1,0],"goal":4,"start":0,"action_noise":0.15,"location_history":"[0,1,5,4]","action_history":"[1,0,0]","mutagen_history":"[0,1,1]","location_rts":"[1171,801,528]","trial_type":"fractal-mutation","trial_index":86,"time_elapsed":1564718,"internal_node_id":"0.0-5.0-32.0"},{"group":"hexagon_tri","fractal_assignment":["../images/gry_blk.png","../images/org_blu.png","../images/cyn_red.png","../images/blu_wht.png","../images/ylw_slt.png","../images/pnk_blu.png"],"mutagen_generator_assignment":[1,0],"goal":1,"start":4,"action_noise":0.15,"location_history":"[4,2,3,4,2,3,2,3,4,0,1]","action_history":"[1,0,0,1,1,0,1,1,0,1]","mutagen_history":"[0,1,1,0,0,1,0,0,1,0]","location_rts":"[680,849,1130,494,771,473,402,690,494,548]","trial_type":"fractal-mutation","trial_index":87,"time_elapsed":1585050,"internal_node_id":"0.0-5.0-33.0"},{"group":"hexagon_tri","fractal_assignment":["../images/gry_blk.png","../images/org_blu.png","../images/cyn_red.png","../images/blu_wht.png","../images/ylw_slt.png","../images/pnk_blu.png"],"mutagen_generator_assignment":[1,0],"goal":2,"start":1,"action_noise":0.15,"location_history":"[1,5,4,0,5,0,5,4,0,5,0,1,5,0,5,4,2]","action_history":"[1,1,0,1,1,0,1,0,0,1,1,1,1,0,0,1]","mutagen_history":"[0,0,1,0,0,1,0,1,1,0,0,0,0,1,1,0]","location_rts":"[1389,558,443,438,854,570,849,511,429,299,655,466,757,1067,572,766]","trial_type":"fractal-mutation","trial_index":88,"time_elapsed":1615723,"internal_node_id":"0.0-5.0-34.0"},{"group":"hexagon_tri","fractal_assignment":["../images/gry_blk.png","../images/org_blu.png","../images/cyn_red.png","../images/blu_wht.png","../images/ylw_slt.png","../images/pnk_blu.png"],"mutagen_generator_assignment":[1,0],"goal":0,"start":2,"action_noise":0.15,"location_history":"[2,1,3,4,2,1,3,2,1,5,0]","action_history":"[1,0,1,0,0,1,0,0,1,1]","mutagen_history":"[0,1,0,1,1,0,1,1,0,0]","location_rts":"[1155,986,199378,876,558,627,1132,473,629,533]","trial_type":"fractal-mutation","trial_index":89,"time_elapsed":1836078,"internal_node_id":"0.0-5.0-35.0"},{"group":"hexagon_tri","fractal_assignment":["../images/gry_blk.png","../images/org_blu.png","../images/cyn_red.png","../images/blu_wht.png","../images/ylw_slt.png","../images/pnk_blu.png"],"mutagen_generator_assignment":[1,0],"goal":5,"start":0,"action_noise":0.15,"location_history":"[0,5]","action_history":"[0]","mutagen_history":"[1]","location_rts":"[8885]","trial_type":"fractal-mutation","trial_index":90,"time_elapsed":1849538,"internal_node_id":"0.0-5.0-36.0"},{"group":"hexagon_tri","fractal_assignment":["../images/gry_blk.png","../images/org_blu.png","../images/cyn_red.png","../images/blu_wht.png","../images/ylw_slt.png","../images/pnk_blu.png"],"mutagen_generator_assignment":[1,0],"goal":2,"start":5,"action_noise":0.15,"location_history":"[5,4,0,1,3,2]","action_history":"[0,0,1,1,0]","mutagen_history":"[1,1,0,0,1]","location_rts":"[647,478,393,1881,987]","trial_type":"fractal-mutation","trial_index":91,"time_elapsed":1862740,"internal_node_id":"0.0-5.0-37.0"},{"group":"hexagon_tri","fractal_assignment":["../images/gry_blk.png","../images/org_blu.png","../images/cyn_red.png","../images/blu_wht.png","../images/ylw_slt.png","../images/pnk_blu.png"],"mutagen_generator_assignment":[1,0],"goal":1,"start":2,"action_noise":0.15,"location_history":"[2,1]","action_history":"[1]","mutagen_history":"[0]","location_rts":"[575]","trial_type":"fractal-mutation","trial_index":92,"time_elapsed":1867869,"internal_node_id":"0.0-5.0-38.0"},{"group":"hexagon_tri","fractal_assignment":["../images/gry_blk.png","../images/org_blu.png","../images/cyn_red.png","../images/blu_wht.png","../images/ylw_slt.png","../images/pnk_blu.png"],"mutagen_generator_assignment":[1,0],"goal":4,"start":1,"action_noise":0.15,"location_history":"[1,3,2,1,5,4]","action_history":"[0,0,1,1,0]","mutagen_history":"[1,1,0,0,1]","location_rts":"[3410,537,2558,450,675]","trial_type":"fractal-mutation","trial_index":93,"time_elapsed":1884316,"internal_node_id":"0.0-5.0-39.0"},{"group":"hexagon_tri","fractal_assignment":["../images/gry_blk.png","../images/org_blu.png","../images/cyn_red.png","../images/blu_wht.png","../images/ylw_slt.png","../images/pnk_blu.png"],"mutagen_generator_assignment":[1,0],"goal":3,"start":4,"action_noise":0.15,"location_history":"[4,2,1,5,0,1,3]","action_history":"[0,0,0,1,1,0]","mutagen_history":"[1,1,1,0,0,1]","location_rts":"[9103,366,434,445,786,918]","trial_type":"fractal-mutation","trial_index":94,"time_elapsed":1906220,"internal_node_id":"0.0-5.0-40.0"},{"group":"hexagon_tri","fractal_assignment":["../images/gry_blk.png","../images/org_blu.png","../images/cyn_red.png","../images/blu_wht.png","../images/ylw_slt.png","../images/pnk_blu.png"],"mutagen_generator_assignment":[1,0],"goal":5,"start":3,"action_noise":0.15,"location_history":"[3,2,1,5]","action_history":"[0,0,1]","mutagen_history":"[1,1,0]","location_rts":"[2868,403,555]","trial_type":"fractal-mutation","trial_index":95,"time_elapsed":1916729,"internal_node_id":"0.0-5.0-41.0"},{"group":"hexagon_tri","fractal_assignment":["../images/gry_blk.png","../images/org_blu.png","../images/cyn_red.png","../images/blu_wht.png","../images/ylw_slt.png","../images/pnk_blu.png"],"mutagen_generator_assignment":[1,0],"goal":3,"start":5,"action_noise":0.15,"location_history":"[5,0,1,5,4,0,1,5,4,2,3]","action_history":"[0,1,1,0,0,1,0,0,1,0]","mutagen_history":"[1,0,0,1,1,0,1,1,0,1]","location_rts":"[615,478,529,469,497,498,467,454,734,434]","trial_type":"fractal-mutation","trial_index":96,"time_elapsed":1935959,"internal_node_id":"0.0-5.0-42.0"},{"group":"hexagon_tri","fractal_assignment":["../images/gry_blk.png","../images/org_blu.png","../images/cyn_red.png","../images/blu_wht.png","../images/ylw_slt.png","../images/pnk_blu.png"],"mutagen_generator_assignment":[1,0],"goal":0,"start":3,"action_noise":0.15,"location_history":"[3,4,0]","action_history":"[1,0]","mutagen_history":"[0,1]","location_rts":"[4212,1318]","trial_type":"fractal-mutation","trial_index":97,"time_elapsed":1947109,"internal_node_id":"0.0-5.0-43.0"},{"group":"hexagon_tri","fractal_assignment":["../images/gry_blk.png","../images/org_blu.png","../images/cyn_red.png","../images/blu_wht.png","../images/ylw_slt.png","../images/pnk_blu.png"],"mutagen_generator_assignment":[1,0],"goal":2,"start":0,"action_noise":0.15,"location_history":"[0,1,3,4,0,5,4,2]","action_history":"[1,0,1,0,1,0,1]","mutagen_history":"[0,1,0,1,0,1,0]","location_rts":"[1574,476,835,684,494,632,4731]","trial_type":"fractal-mutation","trial_index":98,"time_elapsed":1967445,"internal_node_id":"0.0-5.0-44.0"},{"group":"hexagon_tri","fractal_assignment":["../images/gry_blk.png","../images/org_blu.png","../images/cyn_red.png","../images/blu_wht.png","../images/ylw_slt.png","../images/pnk_blu.png"],"mutagen_generator_assignment":[1,0],"goal":4,"start":2,"action_noise":0.15,"location_history":"[2,3,2,1,5,0,5,0,1,5,4]","action_history":"[1,0,0,1,0,0,1,0,1,0]","mutagen_history":"[0,1,1,0,1,1,0,1,0,1]","location_rts":"[511,244,374,345,636,517,709,479,618,817]","trial_type":"fractal-mutation","trial_index":99,"time_elapsed":1986779,"internal_node_id":"0.0-5.0-45.0"},{"group":"hexagon_tri","fractal_assignment":["../images/gry_blk.png","../images/org_blu.png","../images/cyn_red.png","../images/blu_wht.png","../images/ylw_slt.png","../images/pnk_blu.png"],"mutagen_generator_assignment":[1,0],"goal":1,"start":4,"action_noise":0.15,"location_history":"[4,2,3,2,1]","action_history":"[1,1,0,0]","mutagen_history":"[0,0,1,1]","location_rts":"[1181,1015,2032,858]","trial_type":"fractal-mutation","trial_index":100,"time_elapsed":1999705,"internal_node_id":"0.0-5.0-46.0"},{"group":"hexagon_tri","fractal_assignment":["../images/gry_blk.png","../images/org_blu.png","../images/cyn_red.png","../images/blu_wht.png","../images/ylw_slt.png","../images/pnk_blu.png"],"mutagen_generator_assignment":[1,0],"goal":4,"start":1,"action_noise":0.15,"location_history":"[1,5,4]","action_history":"[1,0]","mutagen_history":"[0,1]","location_rts":"[727,343]","trial_type":"fractal-mutation","trial_index":101,"time_elapsed":2006397,"internal_node_id":"0.0-5.0-47.0"},{"group":"hexagon_tri","fractal_assignment":["../images/gry_blk.png","../images/org_blu.png","../images/cyn_red.png","../images/blu_wht.png","../images/ylw_slt.png","../images/pnk_blu.png"],"mutagen_generator_assignment":[1,0],"goal":3,"start":4,"action_noise":0.15,"location_history":"[4,0,1,5,4,2,3]","action_history":"[0,1,1,0,1,0]","mutagen_history":"[1,0,0,1,0,1]","location_rts":"[504,438,541,1022,705,631]","trial_type":"fractal-mutation","trial_index":102,"time_elapsed":2020111,"internal_node_id":"0.0-5.0-48.0"},{"group":"hexagon_tri","fractal_assignment":["../images/gry_blk.png","../images/org_blu.png","../images/cyn_red.png","../images/blu_wht.png","../images/ylw_slt.png","../images/pnk_blu.png"],"mutagen_generator_assignment":[1,0],"goal":5,"start":3,"action_noise":0.15,"location_history":"[3,4,2,3,2,1,5]","action_history":"[1,1,0,0,0,1]","mutagen_history":"[0,0,1,1,1,0]","location_rts":"[984,1158,564,362,625,321]","trial_type":"fractal-mutation","trial_index":103,"time_elapsed":2033988,"internal_node_id":"0.0-5.0-49.0"},{"view_history":"[{\"page_index\":0,\"viewing_time\":6423}]","rt":6423,"trial_type":"instructions","trial_index":104,"time_elapsed":2041415,"internal_node_id":"0.0-6.0"},{"rt":4605,"responses":"{\"Q0\":\"no\"}","trial_type":"survey-text","trial_index":105,"time_elapsed":2047033,"internal_node_id":"0.0-7.0"}]