[{"view_history":"[{\"page_index\":0,\"viewing_time\":5607},{\"page_index\":1,\"viewing_time\":8141},{\"page_index\":2,\"viewing_time\":15097},{\"page_index\":3,\"viewing_time\":4208}]","rt":33054,"trial_type":"instructions","trial_index":0,"time_elapsed":33057,"internal_node_id":"0.0-0.0"},{"view_history":"[{\"page_index\":0,\"viewing_time\":1547},{\"page_index\":1,\"viewing_time\":424590}]","rt":426138,"trial_type":"instructions","trial_index":1,"time_elapsed":460199,"internal_node_id":"0.0-1.0"},{"group":"hexagon_tri","room_assignment":["blue","red","green","purple","yellow","grey"],"door_color_assignment":["black","white"],"door_generator_assignment":[0,1],"goal":4,"start":0,"action_noise":0.15,"location_history":"[0,1,5,4]","action_history":"[1,1,0]","door_history":"[1,1,0]","location_rts":"[3770,2689,749]","trial_type":"two-door-navigation","trial_index":2,"time_elapsed":473989,"internal_node_id":"0.0-2.0-0.0"},{"group":"hexagon_tri","room_assignment":["blue","red","green","purple","yellow","grey"],"door_color_assignment":["black","white"],"door_generator_assignment":[0,1],"goal":3,"start":4,"action_noise":0.15,"location_history":"[4,2,3]","action_history":"[1,1]","door_history":"[1,1]","location_rts":"[2081,1124]","trial_type":"two-door-navigation","trial_index":3,"time_elapsed":482741,"internal_node_id":"0.0-2.0-1.0"},{"group":"hexagon_tri","room_assignment":["blue","red","green","purple","yellow","grey"],"door_color_assignment":["black","white"],"door_generator_assignment":[0,1],"goal":5,"start":3,"action_noise":0.15,"location_history":"[3,4,0,5]","action_history":"[1,0,0]","door_history":"[1,0,0]","location_rts":"[4021,1620,658]","trial_type":"two-door-navigation","trial_index":4,"time_elapsed":496470,"internal_node_id":"0.0-2.0-2.0"},{"group":"hexagon_tri","room_assignment":["blue","red","green","purple","yellow","grey"],"door_color_assignment":["black","white"],"door_generator_assignment":[0,1],"goal":2,"start":5,"action_noise":0.15,"location_history":"[5,4,2]","action_history":"[1,1]","door_history":"[1,1]","location_rts":"[1643,554]","trial_type":"two-door-navigation","trial_index":5,"time_elapsed":504213,"internal_node_id":"0.0-2.0-3.0"},{"group":"hexagon_tri","room_assignment":["blue","red","green","purple","yellow","grey"],"door_color_assignment":["black","white"],"door_generator_assignment":[0,1],"goal":1,"start":2,"action_noise":0.15,"location_history":"[2,1]","action_history":"[0]","door_history":"[0]","location_rts":"[1584]","trial_type":"two-door-navigation","trial_index":6,"time_elapsed":510322,"internal_node_id":"0.0-2.0-4.0"},{"group":"hexagon_tri","room_assignment":["blue","red","green","purple","yellow","grey"],"door_color_assignment":["black","white"],"door_generator_assignment":[0,1],"goal":4,"start":1,"action_noise":0.15,"location_history":"[1,5,4]","action_history":"[1,1]","door_history":"[1,1]","location_rts":"[1507,532]","trial_type":"two-door-navigation","trial_index":7,"time_elapsed":517907,"internal_node_id":"0.0-2.0-5.0"},{"group":"hexagon_tri","room_assignment":["blue","red","green","purple","yellow","grey"],"door_color_assignment":["black","white"],"door_generator_assignment":[0,1],"goal":1,"start":4,"action_noise":0.15,"location_history":"[4,0,5,4,2,3,4,0,1]","action_history":"[0,0,0,1,1,1,0,1]","door_history":"[0,0,0,1,1,1,0,1]","location_rts":"[1416,504,478,659,427,462,718,600]","trial_type":"two-door-navigation","trial_index":8,"time_elapsed":534848,"internal_node_id":"0.0-2.0-6.0"},{"group":"hexagon_tri","room_assignment":["blue","red","green","purple","yellow","grey"],"door_color_assignment":["black","white"],"door_generator_assignment":[0,1],"goal":5,"start":1,"action_noise":0.15,"location_history":"[1,3,4,2,3,2,1,3,2,3,4,0,5]","action_history":"[0,1,1,1,0,0,0,0,1,1,0,0]","door_history":"[0,1,1,1,0,0,0,0,1,1,0,0]","location_rts":"[1469,1067,437,551,463,387,408,418,893,488,522,457]","trial_type":"two-door-navigation","trial_index":9,"time_elapsed":558171,"internal_node_id":"0.0-2.0-7.0"},{"group":"hexagon_tri","room_assignment":["blue","red","green","purple","yellow","grey"],"door_color_assignment":["black","white"],"door_generator_assignment":[0,1],"goal":0,"start":5,"action_noise":0.15,"location_history":"[5,0]","action_history":"[1]","door_history":"[1]","location_rts":"[1586]","trial_type":"two-door-navigation","trial_index":10,"time_elapsed":564283,"internal_node_id":"0.0-2.0-8.0"},{"group":"hexagon_tri","room_assignment":["blue","red","green","purple","yellow","grey"],"door_color_assignment":["black","white"],"door_generator_assignment":[0,1],"goal":2,"start":0,"action_noise":0.15,"location_history":"[0,5,4,2]","action_history":"[0,0,1]","door_history":"[0,0,1]","location_rts":"[1727,474,514]","trial_type":"two-door-navigation","trial_index":11,"time_elapsed":573565,"internal_node_id":"0.0-2.0-9.0"},{"group":"hexagon_tri","room_assignment":["blue","red","green","purple","yellow","grey"],"door_color_assignment":["black","white"],"door_generator_assignment":[0,1],"goal":3,"start":2,"action_noise":0.15,"location_history":"[2,1,5,4,0,1,3]","action_history":"[0,1,1,1,0,0]","door_history":"[0,1,1,1,0,0]","location_rts":"[1715,1173,847,492,555,460]","trial_type":"two-door-navigation","trial_index":12,"time_elapsed":588434,"internal_node_id":"0.0-2.0-10.0"},{"group":"hexagon_tri","room_assignment":["blue","red","green","purple","yellow","grey"],"door_color_assignment":["black","white"],"door_generator_assignment":[0,1],"goal":0,"start":3,"action_noise":0.15,"location_history":"[3,2,3,4,2,1,3,2,1,5,0]","action_history":"[0,1,1,1,0,0,0,0,1,1]","door_history":"[0,1,1,1,0,0,0,0,1,1]","location_rts":"[691,736,411,450,389,313,369,491,409,384]","trial_type":"two-door-navigation","trial_index":13,"time_elapsed":606791,"internal_node_id":"0.0-2.0-11.0"},{"group":"hexagon_tri","room_assignment":["blue","red","green","purple","yellow","grey"],"door_color_assignment":["black","white"],"door_generator_assignment":[0,1],"goal":2,"start":0,"action_noise":0.15,"location_history":"[0,1,3,2]","action_history":"[1,0,0]","door_history":"[1,0,0]","location_rts":"[632,777,430]","trial_type":"two-door-navigation","trial_index":14,"time_elapsed":615195,"internal_node_id":"0.0-2.0-12.0"},{"group":"hexagon_tri","room_assignment":["blue","red","green","purple","yellow","grey"],"door_color_assignment":["black","white"],"door_generator_assignment":[0,1],"goal":5,"start":2,"action_noise":0.15,"location_history":"[2,1,5]","action_history":"[0,1]","door_history":"[0,1]","location_rts":"[792,533]","trial_type":"two-door-navigation","trial_index":15,"time_elapsed":622067,"internal_node_id":"0.0-2.0-13.0"},{"group":"hexagon_tri","room_assignment":["blue","red","green","purple","yellow","grey"],"door_color_assignment":["black","white"],"door_generator_assignment":[0,1],"goal":4,"start":5,"action_noise":0.15,"location_history":"[5,0,1,5,4]","action_history":"[1,1,1,0]","door_history":"[1,1,1,0]","location_rts":"[2570,983,1023,492]","trial_type":"two-door-navigation","trial_index":16,"time_elapsed":634723,"internal_node_id":"0.0-2.0-14.0"},{"group":"hexagon_tri","room_assignment":["blue","red","green","purple","yellow","grey"],"door_color_assignment":["black","white"],"door_generator_assignment":[0,1],"goal":3,"start":4,"action_noise":0.15,"location_history":"[4,0,5,0,5,4,2,1,5,4,2,3]","action_history":"[0,0,0,1,0,1,0,0,0,1,1]","door_history":"[0,0,0,1,0,1,0,0,0,1,1]","location_rts":"[1492,392,439,717,503,492,446,461,512,328,413]","trial_type":"two-door-navigation","trial_index":17,"time_elapsed":655679,"internal_node_id":"0.0-2.0-15.0"},{"group":"hexagon_tri","room_assignment":["blue","red","green","purple","yellow","grey"],"door_color_assignment":["black","white"],"door_generator_assignment":[0,1],"goal":1,"start":3,"action_noise":0.15,"location_history":"[3,2,3,4,0,5,4,2,1]","action_history":"[0,1,1,0,0,0,1,1]","door_history":"[0,1,1,0,0,0,1,1]","location_rts":"[2140,561,599,1150,437,451,442,343]","trial_type":"two-door-navigation","trial_index":18,"time_elapsed":673473,"internal_node_id":"0.0-2.0-16.0"},{"group":"hexagon_tri","room_assignment":["blue","red","green","purple","yellow","grey"],"door_color_assignment":["black","white"],"door_generator_assignment":[0,1],"goal":5,"start":1,"action_noise":0.15,"location_history":"[1,3,2,3,2,1,3,4,2,3,2,1,5]","action_history":"[1,0,1,1,0,0,1,1,1,0,1,1]","door_history":"[1,0,1,1,0,0,1,1,1,0,1,1]","location_rts":"[4203,1232,743,481,1107,416,550,392,1643,404,438,361]","trial_type":"two-door-navigation","trial_index":19,"time_elapsed":701326,"internal_node_id":"0.0-2.0-17.0"},{"group":"hexagon_tri","room_assignment":["blue","red","green","purple","yellow","grey"],"door_color_assignment":["black","white"],"door_generator_assignment":[0,1],"goal":4,"start":5,"action_noise":0.15,"location_history":"[5,0,1,5,4]","action_history":"[0,1,1,1]","door_history":"[0,1,1,1]","location_rts":"[833,481,460,428]","trial_type":"two-door-navigation","trial_index":20,"time_elapsed":711114,"internal_node_id":"0.0-2.0-18.0"},{"group":"hexagon_tri","room_assignment":["blue","red","green","purple","yellow","grey"],"door_color_assignment":["black","white"],"door_generator_assignment":[0,1],"goal":0,"start":4,"action_noise":0.15,"location_history":"[4,0]","action_history":"[0]","door_history":"[0]","location_rts":"[2103]","trial_type":"two-door-navigation","trial_index":21,"time_elapsed":717741,"internal_node_id":"0.0-2.0-19.0"},{"group":"hexagon_tri","room_assignment":["blue","red","green","purple","yellow","grey"],"door_color_assignment":["black","white"],"door_generator_assignment":[0,1],"goal":1,"start":0,"action_noise":0.15,"location_history":"[0,1]","action_history":"[0]","door_history":"[0]","location_rts":"[1516]","trial_type":"two-door-navigation","trial_index":22,"time_elapsed":723782,"internal_node_id":"0.0-2.0-20.0"},{"group":"hexagon_tri","room_assignment":["blue","red","green","purple","yellow","grey"],"door_color_assignment":["black","white"],"door_generator_assignment":[0,1],"goal":3,"start":1,"action_noise":0.15,"location_history":"[1,5,4,0,1,5,0,5,4,0,1,3]","action_history":"[1,0,0,1,1,1,1,0,0,1,0]","door_history":"[1,0,0,1,1,1,1,0,0,1,0]","location_rts":"[1248,1039,477,981,427,451,365,513,1008,828,382]","trial_type":"two-door-navigation","trial_index":23,"time_elapsed":746225,"internal_node_id":"0.0-2.0-21.0"},{"group":"hexagon_tri","room_assignment":["blue","red","green","purple","yellow","grey"],"door_color_assignment":["black","white"],"door_generator_assignment":[0,1],"goal":2,"start":3,"action_noise":0.15,"location_history":"[3,2]","action_history":"[0]","door_history":"[0]","location_rts":"[2319]","trial_type":"two-door-navigation","trial_index":24,"time_elapsed":753069,"internal_node_id":"0.0-2.0-22.0"},{"group":"hexagon_tri","room_assignment":["blue","red","green","purple","yellow","grey"],"door_color_assignment":["black","white"],"door_generator_assignment":[0,1],"goal":0,"start":2,"action_noise":0.15,"location_history":"[2,3,4,0]","action_history":"[1,0,0]","door_history":"[1,0,0]","location_rts":"[1658,956,911]","trial_type":"two-door-navigation","trial_index":25,"time_elapsed":763161,"internal_node_id":"0.0-2.0-23.0"},{"group":"hexagon_tri","room_assignment":["blue","red","green","purple","yellow","grey"],"door_color_assignment":["black","white"],"door_generator_assignment":[0,1],"goal":3,"start":0,"action_noise":0.15,"location_history":"[0,1,3]","action_history":"[1,0]","door_history":"[1,0]","location_rts":"[32785,417]","trial_type":"two-door-navigation","trial_index":26,"time_elapsed":801913,"internal_node_id":"0.0-2.0-24.0"},{"group":"hexagon_tri","room_assignment":["blue","red","green","purple","yellow","grey"],"door_color_assignment":["black","white"],"door_generator_assignment":[0,1],"goal":1,"start":3,"action_noise":0.15,"location_history":"[3,4,2,1]","action_history":"[1,0,0]","door_history":"[1,0,0]","location_rts":"[48873,1043,862]","trial_type":"two-door-navigation","trial_index":27,"time_elapsed":859264,"internal_node_id":"0.0-2.0-25.0"},{"group":"hexagon_tri","room_assignment":["blue","red","green","purple","yellow","grey"],"door_color_assignment":["black","white"],"door_generator_assignment":[0,1],"goal":2,"start":1,"action_noise":0.15,"location_history":"[1,5,4,2]","action_history":"[1,0,0]","door_history":"[1,0,0]","location_rts":"[797,394,417]","trial_type":"two-door-navigation","trial_index":28,"time_elapsed":867437,"internal_node_id":"0.0-2.0-26.0"},{"group":"hexagon_tri","room_assignment":["blue","red","green","purple","yellow","grey"],"door_color_assignment":["black","white"],"door_generator_assignment":[0,1],"goal":5,"start":2,"action_noise":0.15,"location_history":"[2,3,4,0,1,5]","action_history":"[1,1,0,1,1]","door_history":"[1,1,0,1,1]","location_rts":"[8230,609,471,534,365]","trial_type":"two-door-navigation","trial_index":29,"time_elapsed":886251,"internal_node_id":"0.0-2.0-27.0"},{"group":"hexagon_tri","room_assignment":["blue","red","green","purple","yellow","grey"],"door_color_assignment":["black","white"],"door_generator_assignment":[0,1],"goal":4,"start":5,"action_noise":0.15,"location_history":"[5,0,5,0,1,5,4]","action_history":"[1,0,1,1,1,0]","door_history":"[1,0,1,1,1,0]","location_rts":"[31698,638,356,389,651,412]","trial_type":"two-door-navigation","trial_index":30,"time_elapsed":930016,"internal_node_id":"0.0-2.0-28.0"},{"group":"hexagon_tri","room_assignment":["blue","red","green","purple","yellow","grey"],"door_color_assignment":["black","white"],"door_generator_assignment":[0,1],"goal":5,"start":4,"action_noise":0.15,"location_history":"[4,2,1,3,4,2,1,3,4,0,5]","action_history":"[1,0,0,1,1,1,0,1,0,0]","door_history":"[1,0,0,1,1,1,0,1,0,0]","location_rts":"[5532,860,535,434,418,507,605,649,875,420]","trial_type":"two-door-navigation","trial_index":31,"time_elapsed":954564,"internal_node_id":"0.0-2.0-29.0"},{"group":"hexagon_tri","room_assignment":["blue","red","green","purple","yellow","grey"],"door_color_assignment":["black","white"],"door_generator_assignment":[0,1],"goal":3,"start":5,"action_noise":0.15,"location_history":"[5,4,0,5,0,5,0,1,3]","action_history":"[0,0,0,1,0,1,1,0]","door_history":"[0,0,0,1,0,1,1,0]","location_rts":"[2792,479,674,426,879,711,357,469]","trial_type":"two-door-navigation","trial_index":32,"time_elapsed":973027,"internal_node_id":"0.0-2.0-30.0"},{"group":"hexagon_tri","room_assignment":["blue","red","green","purple","yellow","grey"],"door_color_assignment":["black","white"],"door_generator_assignment":[0,1],"goal":0,"start":3,"action_noise":0.15,"location_history":"[3,2,3,2,1,3,2,3,2,1,5,0]","action_history":"[0,1,0,0,0,1,1,1,0,1,1]","door_history":"[0,1,0,0,0,1,1,1,0,1,1]","location_rts":"[1911,666,505,438,492,448,1061,523,743,462,450]","trial_type":"two-door-navigation","trial_index":33,"time_elapsed":995466,"internal_node_id":"0.0-2.0-31.0"},{"group":"hexagon_tri","room_assignment":["blue","red","green","purple","yellow","grey"],"door_color_assignment":["black","white"],"door_generator_assignment":[0,1],"goal":4,"start":0,"action_noise":0.15,"location_history":"[0,1,5,0,5,4]","action_history":"[0,1,1,0,0]","door_history":"[0,1,1,0,0]","location_rts":"[869,573,430,944,418]","trial_type":"two-door-navigation","trial_index":34,"time_elapsed":1007307,"internal_node_id":"0.0-2.0-32.0"},{"group":"hexagon_tri","room_assignment":["blue","red","green","purple","yellow","grey"],"door_color_assignment":["black","white"],"door_generator_assignment":[0,1],"goal":1,"start":4,"action_noise":0.15,"location_history":"[4,0,1]","action_history":"[1,1]","door_history":"[1,1]","location_rts":"[975,22631]","trial_type":"two-door-navigation","trial_index":35,"time_elapsed":1036458,"internal_node_id":"0.0-2.0-33.0"},{"group":"hexagon_tri","room_assignment":["blue","red","green","purple","yellow","grey"],"door_color_assignment":["black","white"],"door_generator_assignment":[0,1],"goal":2,"start":1,"action_noise":0.15,"location_history":"[1,5,4,0,5,0,1,5,4,2]","action_history":"[0,0,0,0,1,1,0,0,1]","door_history":"[0,0,0,0,1,1,0,0,1]","location_rts":"[1395,448,429,429,460,570,436,397,296]","trial_type":"two-door-navigation","trial_index":36,"time_elapsed":1054016,"internal_node_id":"0.0-2.0-34.0"},{"group":"hexagon_tri","room_assignment":["blue","red","green","purple","yellow","grey"],"door_color_assignment":["black","white"],"door_generator_assignment":[0,1],"goal":0,"start":2,"action_noise":0.15,"location_history":"[2,3,2,1,5,4,0]","action_history":"[1,0,0,1,0,0]","door_history":"[1,0,0,1,0,0]","location_rts":"[262162,548,372,557,473,385]","trial_type":"two-door-navigation","trial_index":37,"time_elapsed":1328139,"internal_node_id":"0.0-2.0-35.0"},{"group":"hexagon_tri","room_assignment":["blue","red","green","purple","yellow","grey"],"door_color_assignment":["black","white"],"door_generator_assignment":[0,1],"goal":5,"start":0,"action_noise":0.15,"location_history":"[0,5]","action_history":"[0]","door_history":"[0]","location_rts":"[1089]","trial_type":"two-door-navigation","trial_index":38,"time_elapsed":1333753,"internal_node_id":"0.0-2.0-36.0"},{"group":"hexagon_tri","room_assignment":["blue","red","green","purple","yellow","grey"],"door_color_assignment":["black","white"],"door_generator_assignment":[0,1],"goal":2,"start":5,"action_noise":0.15,"location_history":"[5,0,5,0,1,5,0,5,0,5,4,2]","action_history":"[1,0,1,1,1,1,1,1,0,0,1]","door_history":"[1,0,1,1,1,1,1,1,0,0,1]","location_rts":"[1820,375,656,320,568,1323,337,666,563,660,1018]","trial_type":"two-door-navigation","trial_index":39,"time_elapsed":1356792,"internal_node_id":"0.0-2.0-37.0"},{"group":"hexagon_tri","room_assignment":["blue","red","green","purple","yellow","grey"],"door_color_assignment":["black","white"],"door_generator_assignment":[0,1],"goal":1,"start":2,"action_noise":0.15,"location_history":"[2,3,4,0,5,4,2,3,4,2,3,4,0,5,0,1]","action_history":"[0,1,0,0,0,1,1,1,1,1,1,0,0,1,1]","door_history":"[0,1,0,0,0,1,1,1,1,1,1,0,0,1,1]","location_rts":"[1326,1061,500,437,599,553,427,489,686,437,916,297,518,1019,631]","trial_type":"two-door-navigation","trial_index":40,"time_elapsed":1385501,"internal_node_id":"0.0-2.0-38.0"},{"group":"hexagon_tri","room_assignment":["blue","red","green","purple","yellow","grey"],"door_color_assignment":["black","white"],"door_generator_assignment":[0,1],"goal":4,"start":1,"action_noise":0.15,"location_history":"[1,5,4]","action_history":"[1,0]","door_history":"[1,0]","location_rts":"[2195,567]","trial_type":"two-door-navigation","trial_index":41,"time_elapsed":1393808,"internal_node_id":"0.0-2.0-39.0"},{"group":"hexagon_tri","room_assignment":["blue","red","green","purple","yellow","grey"],"door_color_assignment":["black","white"],"door_generator_assignment":[0,1],"goal":3,"start":4,"action_noise":0.15,"location_history":"[4,2,3]","action_history":"[1,1]","door_history":"[1,1]","location_rts":"[20925,7268]","trial_type":"two-door-navigation","trial_index":42,"time_elapsed":1427569,"internal_node_id":"0.0-2.0-40.0"},{"group":"hexagon_tri","room_assignment":["blue","red","green","purple","yellow","grey"],"door_color_assignment":["black","white"],"door_generator_assignment":[0,1],"goal":5,"start":3,"action_noise":0.15,"location_history":"[3,2,3,4,0,1,5]","action_history":"[0,0,1,0,1,1]","door_history":"[0,0,1,0,1,1]","location_rts":"[2511,4050,6478,914,868,439]","trial_type":"two-door-navigation","trial_index":43,"time_elapsed":1452458,"internal_node_id":"0.0-2.0-41.0"},{"group":"hexagon_tri","room_assignment":["blue","red","green","purple","yellow","grey"],"door_color_assignment":["black","white"],"door_generator_assignment":[0,1],"goal":3,"start":5,"action_noise":0.15,"location_history":"[5,4,2,3]","action_history":"[0,1,0]","door_history":"[0,1,0]","location_rts":"[934,715,452]","trial_type":"two-door-navigation","trial_index":44,"time_elapsed":1461124,"internal_node_id":"0.0-2.0-42.0"},{"group":"hexagon_tri","room_assignment":["blue","red","green","purple","yellow","grey"],"door_color_assignment":["black","white"],"door_generator_assignment":[0,1],"goal":0,"start":3,"action_noise":0.15,"location_history":"[3,4,0]","action_history":"[1,0]","door_history":"[1,0]","location_rts":"[4006,1870]","trial_type":"two-door-navigation","trial_index":45,"time_elapsed":1472550,"internal_node_id":"0.0-2.0-43.0"},{"group":"hexagon_tri","room_assignment":["blue","red","green","purple","yellow","grey"],"door_color_assignment":["black","white"],"door_generator_assignment":[0,1],"goal":2,"start":0,"action_noise":0.15,"location_history":"[0,1,3,2]","action_history":"[1,0,0]","door_history":"[1,0,0]","location_rts":"[1139,382,772]","trial_type":"two-door-navigation","trial_index":46,"time_elapsed":1481410,"internal_node_id":"0.0-2.0-44.0"},{"group":"hexagon_tri","room_assignment":["blue","red","green","purple","yellow","grey"],"door_color_assignment":["black","white"],"door_generator_assignment":[0,1],"goal":4,"start":2,"action_noise":0.15,"location_history":"[2,3,2,1,5,0,5,4]","action_history":"[1,0,0,1,1,0,0]","door_history":"[1,0,0,1,1,0,0]","location_rts":"[910,1010,541,536,440,376,1159]","trial_type":"two-door-navigation","trial_index":47,"time_elapsed":1497055,"internal_node_id":"0.0-2.0-45.0"},{"group":"hexagon_tri","room_assignment":["blue","red","green","purple","yellow","grey"],"door_color_assignment":["black","white"],"door_generator_assignment":[0,1],"goal":1,"start":4,"action_noise":0.15,"location_history":"[4,2,1]","action_history":"[1,0]","door_history":"[1,0]","location_rts":"[8267,472]","trial_type":"two-door-navigation","trial_index":48,"time_elapsed":1511338,"internal_node_id":"0.0-2.0-46.0"},{"group":"hexagon_tri","room_assignment":["blue","red","green","purple","yellow","grey"],"door_color_assignment":["black","white"],"door_generator_assignment":[0,1],"goal":4,"start":1,"action_noise":0.15,"location_history":"[1,5,4]","action_history":"[1,1]","door_history":"[1,1]","location_rts":"[1449,11424]","trial_type":"two-door-navigation","trial_index":49,"time_elapsed":1529758,"internal_node_id":"0.0-2.0-47.0"},{"group":"hexagon_tri","room_assignment":["blue","red","green","purple","yellow","grey"],"door_color_assignment":["black","white"],"door_generator_assignment":[0,1],"goal":3,"start":4,"action_noise":0.15,"location_history":"[4,2,1,3]","action_history":"[0,1,0]","door_history":"[0,1,0]","location_rts":"[7017,731,586]","trial_type":"two-door-navigation","trial_index":50,"time_elapsed":1545614,"internal_node_id":"0.0-2.0-48.0"},{"group":"hexagon_tri","room_assignment":["blue","red","green","purple","yellow","grey"],"door_color_assignment":["black","white"],"door_generator_assignment":[0,1],"goal":5,"start":3,"action_noise":0.15,"location_history":"[3,2,1,3,2,3,4,0,5]","action_history":"[1,0,0,0,1,1,0,0]","door_history":"[1,0,0,0,1,1,0,0]","location_rts":"[10254,360,403,572,826,441,1133,764]","trial_type":"two-door-navigation","trial_index":51,"time_elapsed":1572087,"internal_node_id":"0.0-2.0-49.0"},{"view_history":"[{\"page_index\":0,\"viewing_time\":3627}]","rt":3628,"trial_type":"instructions","trial_index":52,"time_elapsed":1576716,"internal_node_id":"0.0-3.0"},{"view_history":"[{\"page_index\":0,\"viewing_time\":2495},{\"page_index\":1,\"viewing_time\":17508}]","rt":20004,"trial_type":"instructions","trial_index":53,"time_elapsed":1597721,"internal_node_id":"0.0-4.0"},{"group":"hexagon_tri","fractal_assignment":["../images/cyn_red.png","../images/gry_blk.png","../images/ylw_slt.png","../images/org_blu.png","../images/blu_wht.png","../images/pnk_blu.png"],"mutagen_generator_assignment":[1,0],"goal":4,"start":0,"action_noise":0.15,"location_history":"[0,1,3,2,3,4]","action_history":"[1,0,0,1,1]","mutagen_history":"[0,1,1,0,0]","location_rts":"[6396,1147,1130,890,714]","trial_type":"fractal-mutation","trial_index":54,"time_elapsed":1617065,"internal_node_id":"0.0-5.0-0.0"},{"group":"hexagon_tri","fractal_assignment":["../images/cyn_red.png","../images/gry_blk.png","../images/ylw_slt.png","../images/org_blu.png","../images/blu_wht.png","../images/pnk_blu.png"],"mutagen_generator_assignment":[1,0],"goal":3,"start":4,"action_noise":0.15,"location_history":"[4,0,1,5,4,2,3]","action_history":"[0,1,1,0,1,1]","mutagen_history":"[1,0,0,1,0,0]","location_rts":"[1496,845,617,739,683,753]","trial_type":"fractal-mutation","trial_index":55,"time_elapsed":1632338,"internal_node_id":"0.0-5.0-1.0"},{"group":"hexagon_tri","fractal_assignment":["../images/cyn_red.png","../images/gry_blk.png","../images/ylw_slt.png","../images/org_blu.png","../images/blu_wht.png","../images/pnk_blu.png"],"mutagen_generator_assignment":[1,0],"goal":5,"start":3,"action_noise":0.15,"location_history":"[3,4,0,5]","action_history":"[0,0,0]","mutagen_history":"[1,1,1]","location_rts":"[1704,680,716]","trial_type":"fractal-mutation","trial_index":56,"time_elapsed":1642346,"internal_node_id":"0.0-5.0-2.0"},{"group":"hexagon_tri","fractal_assignment":["../images/cyn_red.png","../images/gry_blk.png","../images/ylw_slt.png","../images/org_blu.png","../images/blu_wht.png","../images/pnk_blu.png"],"mutagen_generator_assignment":[1,0],"goal":2,"start":5,"action_noise":0.15,"location_history":"[5,0,5,0,1,5,0,5,4,2]","action_history":"[1,0,1,1,1,1,0,0,1]","mutagen_history":"[0,1,0,0,0,0,1,1,0]","location_rts":"[1716,562,349,384,422,450,367,356,468]","trial_type":"fractal-mutation","trial_index":57,"time_elapsed":1660791,"internal_node_id":"0.0-5.0-3.0"},{"group":"hexagon_tri","fractal_assignment":["../images/cyn_red.png","../images/gry_blk.png","../images/ylw_slt.png","../images/org_blu.png","../images/blu_wht.png","../images/pnk_blu.png"],"mutagen_generator_assignment":[1,0],"goal":1,"start":2,"action_noise":0.15,"location_history":"[2,1]","action_history":"[0]","mutagen_history":"[1]","location_rts":"[1806]","trial_type":"fractal-mutation","trial_index":58,"time_elapsed":1667245,"internal_node_id":"0.0-5.0-4.0"},{"group":"hexagon_tri","fractal_assignment":["../images/cyn_red.png","../images/gry_blk.png","../images/ylw_slt.png","../images/org_blu.png","../images/blu_wht.png","../images/pnk_blu.png"],"mutagen_generator_assignment":[1,0],"goal":4,"start":1,"action_noise":0.15,"location_history":"[1,5,4]","action_history":"[1,0]","mutagen_history":"[0,1]","location_rts":"[1599,517]","trial_type":"fractal-mutation","trial_index":59,"time_elapsed":1675023,"internal_node_id":"0.0-5.0-5.0"},{"group":"hexagon_tri","fractal_assignment":["../images/cyn_red.png","../images/gry_blk.png","../images/ylw_slt.png","../images/org_blu.png","../images/blu_wht.png","../images/pnk_blu.png"],"mutagen_generator_assignment":[1,0],"goal":1,"start":4,"action_noise":0.15,"location_history":"[4,2,3,2,1]","action_history":"[1,0,0,0]","mutagen_history":"[0,1,1,1]","location_rts":"[1135,406,464,678]","trial_type":"fractal-mutation","trial_index":60,"time_elapsed":1685607,"internal_node_id":"0.0-5.0-6.0"},{"group":"hexagon_tri","fractal_assignment":["../images/cyn_red.png","../images/gry_blk.png","../images/ylw_slt.png","../images/org_blu.png","../images/blu_wht.png","../images/pnk_blu.png"],"mutagen_generator_assignment":[1,0],"goal":5,"start":1,"action_noise":0.15,"location_history":"[1,5]","action_history":"[1]","mutagen_history":"[0]","location_rts":"[2412]","trial_type":"fractal-mutation","trial_index":61,"time_elapsed":1692598,"internal_node_id":"0.0-5.0-7.0"},{"group":"hexagon_tri","fractal_assignment":["../images/cyn_red.png","../images/gry_blk.png","../images/ylw_slt.png","../images/org_blu.png","../images/blu_wht.png","../images/pnk_blu.png"],"mutagen_generator_assignment":[1,0],"goal":0,"start":5,"action_noise":0.15,"location_history":"[5,4,2,3,4,2,3,4,0]","action_history":"[0,1,1,1,1,1,0,0]","mutagen_history":"[1,0,0,0,0,0,1,1]","location_rts":"[1401,797,476,448,772,498,353,691]","trial_type":"fractal-mutation","trial_index":62,"time_elapsed":1710192,"internal_node_id":"0.0-5.0-8.0"},{"group":"hexagon_tri","fractal_assignment":["../images/cyn_red.png","../images/gry_blk.png","../images/ylw_slt.png","../images/org_blu.png","../images/blu_wht.png","../images/pnk_blu.png"],"mutagen_generator_assignment":[1,0],"goal":2,"start":0,"action_noise":0.15,"location_history":"[0,5,4,2]","action_history":"[0,1,1]","mutagen_history":"[1,0,0]","location_rts":"[1452,532,471]","trial_type":"fractal-mutation","trial_index":63,"time_elapsed":1719408,"internal_node_id":"0.0-5.0-9.0"},{"group":"hexagon_tri","fractal_assignment":["../images/cyn_red.png","../images/gry_blk.png","../images/ylw_slt.png","../images/org_blu.png","../images/blu_wht.png","../images/pnk_blu.png"],"mutagen_generator_assignment":[1,0],"goal":3,"start":2,"action_noise":0.15,"location_history":"[2,1,5,4,0,5,4,2,3]","action_history":"[0,1,0,0,0,1,1,1]","mutagen_history":"[1,0,1,1,1,0,0,0]","location_rts":"[1587,587,522,481,556,580,310,411]","trial_type":"fractal-mutation","trial_index":64,"time_elapsed":1736770,"internal_node_id":"0.0-5.0-10.0"},{"group":"hexagon_tri","fractal_assignment":["../images/cyn_red.png","../images/gry_blk.png","../images/ylw_slt.png","../images/org_blu.png","../images/blu_wht.png","../images/pnk_blu.png"],"mutagen_generator_assignment":[1,0],"goal":0,"start":3,"action_noise":0.15,"location_history":"[3,2,1,3,2,3,2,3,4,2,1,5,0]","action_history":"[0,0,0,0,1,1,1,1,1,0,1,1]","mutagen_history":"[1,1,1,1,0,0,0,0,0,1,0,0]","location_rts":"[946,581,559,726,378,828,456,558,655,534,463,526]","trial_type":"fractal-mutation","trial_index":65,"time_elapsed":1760466,"internal_node_id":"0.0-5.0-11.0"},{"group":"hexagon_tri","fractal_assignment":["../images/cyn_red.png","../images/gry_blk.png","../images/ylw_slt.png","../images/org_blu.png","../images/blu_wht.png","../images/pnk_blu.png"],"mutagen_generator_assignment":[1,0],"goal":2,"start":0,"action_noise":0.15,"location_history":"[0,5,4,2]","action_history":"[1,1,1]","mutagen_history":"[0,0,0]","location_rts":"[1854,473,539]","trial_type":"fractal-mutation","trial_index":66,"time_elapsed":1770075,"internal_node_id":"0.0-5.0-12.0"},{"group":"hexagon_tri","fractal_assignment":["../images/cyn_red.png","../images/gry_blk.png","../images/ylw_slt.png","../images/org_blu.png","../images/blu_wht.png","../images/pnk_blu.png"],"mutagen_generator_assignment":[1,0],"goal":5,"start":2,"action_noise":0.15,"location_history":"[2,3,2,1,3,4,2,3,4,2,1,3,2,1,5]","action_history":"[1,0,0,0,1,0,0,0,1,0,0,0,0,1]","mutagen_history":"[0,1,1,1,0,1,1,1,0,1,1,1,1,0]","location_rts":"[3165,478,662,1186,812,3294,2079,56,317,404,542,447,432,498]","trial_type":"fractal-mutation","trial_index":67,"time_elapsed":1803481,"internal_node_id":"0.0-5.0-13.0"},{"group":"hexagon_tri","fractal_assignment":["../images/cyn_red.png","../images/gry_blk.png","../images/ylw_slt.png","../images/org_blu.png","../images/blu_wht.png","../images/pnk_blu.png"],"mutagen_generator_assignment":[1,0],"goal":4,"start":5,"action_noise":0.15,"location_history":"[5,0,5,0,5,0,1,5,0,5,0,1,5,0,1,3,4]","action_history":"[1,0,0,0,1,1,0,0,0,1,1,1,1,1,0,1]","mutagen_history":"[0,1,1,1,0,0,1,1,1,0,0,0,0,0,1,0]","location_rts":"[1096,490,573,639,424,784,796,622,647,450,443,478,558,566,384,486]","trial_type":"fractal-mutation","trial_index":68,"time_elapsed":1833887,"internal_node_id":"0.0-5.0-14.0"},{"group":"hexagon_tri","fractal_assignment":["../images/cyn_red.png","../images/gry_blk.png","../images/ylw_slt.png","../images/org_blu.png","../images/blu_wht.png","../images/pnk_blu.png"],"mutagen_generator_assignment":[1,0],"goal":3,"start":4,"action_noise":0.15,"location_history":"[4,0,1,3]","action_history":"[0,1,1]","mutagen_history":"[1,0,0]","location_rts":"[1071,470,538]","trial_type":"fractal-mutation","trial_index":69,"time_elapsed":1842773,"internal_node_id":"0.0-5.0-15.0"},{"group":"hexagon_tri","fractal_assignment":["../images/cyn_red.png","../images/gry_blk.png","../images/ylw_slt.png","../images/org_blu.png","../images/blu_wht.png","../images/pnk_blu.png"],"mutagen_generator_assignment":[1,0],"goal":1,"start":3,"action_noise":0.15,"location_history":"[3,4,2,1]","action_history":"[0,1,0]","mutagen_history":"[1,0,1]","location_rts":"[1294,574,513]","trial_type":"fractal-mutation","trial_index":70,"time_elapsed":1851975,"internal_node_id":"0.0-5.0-16.0"},{"group":"hexagon_tri","fractal_assignment":["../images/cyn_red.png","../images/gry_blk.png","../images/ylw_slt.png","../images/org_blu.png","../images/blu_wht.png","../images/pnk_blu.png"],"mutagen_generator_assignment":[1,0],"goal":5,"start":1,"action_noise":0.15,"location_history":"[1,5]","action_history":"[1]","mutagen_history":"[0]","location_rts":"[1340]","trial_type":"fractal-mutation","trial_index":71,"time_elapsed":1857868,"internal_node_id":"0.0-5.0-17.0"},{"group":"hexagon_tri","fractal_assignment":["../images/cyn_red.png","../images/gry_blk.png","../images/ylw_slt.png","../images/org_blu.png","../images/blu_wht.png","../images/pnk_blu.png"],"mutagen_generator_assignment":[1,0],"goal":4,"start":5,"action_noise":0.15,"location_history":"[5,4]","action_history":"[0]","mutagen_history":"[1]","location_rts":"[727]","trial_type":"fractal-mutation","trial_index":72,"time_elapsed":1863243,"internal_node_id":"0.0-5.0-18.0"},{"group":"hexagon_tri","fractal_assignment":["../images/cyn_red.png","../images/gry_blk.png","../images/ylw_slt.png","../images/org_blu.png","../images/blu_wht.png","../images/pnk_blu.png"],"mutagen_generator_assignment":[1,0],"goal":0,"start":4,"action_noise":0.15,"location_history":"[4,2,1,3,2,1,5,0]","action_history":"[1,0,0,0,0,0,1]","mutagen_history":"[0,1,1,1,1,1,0]","location_rts":"[1126,398,439,758,494,502,322]","trial_type":"fractal-mutation","trial_index":73,"time_elapsed":1878545,"internal_node_id":"0.0-5.0-19.0"},{"group":"hexagon_tri","fractal_assignment":["../images/cyn_red.png","../images/gry_blk.png","../images/ylw_slt.png","../images/org_blu.png","../images/blu_wht.png","../images/pnk_blu.png"],"mutagen_generator_assignment":[1,0],"goal":1,"start":0,"action_noise":0.15,"location_history":"[0,5,0,1]","action_history":"[0,1,1]","mutagen_history":"[1,0,0]","location_rts":"[1473,550,471]","trial_type":"fractal-mutation","trial_index":74,"time_elapsed":1887810,"internal_node_id":"0.0-5.0-20.0"},{"group":"hexagon_tri","fractal_assignment":["../images/cyn_red.png","../images/gry_blk.png","../images/ylw_slt.png","../images/org_blu.png","../images/blu_wht.png","../images/pnk_blu.png"],"mutagen_generator_assignment":[1,0],"goal":3,"start":1,"action_noise":0.15,"location_history":"[1,3]","action_history":"[0]","mutagen_history":"[1]","location_rts":"[1952]","trial_type":"fractal-mutation","trial_index":75,"time_elapsed":1894418,"internal_node_id":"0.0-5.0-21.0"},{"group":"hexagon_tri","fractal_assignment":["../images/cyn_red.png","../images/gry_blk.png","../images/ylw_slt.png","../images/org_blu.png","../images/blu_wht.png","../images/pnk_blu.png"],"mutagen_generator_assignment":[1,0],"goal":2,"start":3,"action_noise":0.15,"location_history":"[3,4,2]","action_history":"[1,1]","mutagen_history":"[0,0]","location_rts":"[749,624]","trial_type":"fractal-mutation","trial_index":76,"time_elapsed":1901442,"internal_node_id":"0.0-5.0-22.0"},{"group":"hexagon_tri","fractal_assignment":["../images/cyn_red.png","../images/gry_blk.png","../images/ylw_slt.png","../images/org_blu.png","../images/blu_wht.png","../images/pnk_blu.png"],"mutagen_generator_assignment":[1,0],"goal":0,"start":2,"action_noise":0.15,"location_history":"[2,3,2,1,5,0]","action_history":"[0,0,1,1,1]","mutagen_history":"[1,1,0,0,0]","location_rts":"[687,518,568,820,627]","trial_type":"fractal-mutation","trial_index":77,"time_elapsed":1913685,"internal_node_id":"0.0-5.0-23.0"},{"group":"hexagon_tri","fractal_assignment":["../images/cyn_red.png","../images/gry_blk.png","../images/ylw_slt.png","../images/org_blu.png","../images/blu_wht.png","../images/pnk_blu.png"],"mutagen_generator_assignment":[1,0],"goal":3,"start":0,"action_noise":0.15,"location_history":"[0,5,4,2,3]","action_history":"[0,1,1,0]","mutagen_history":"[1,0,0,1]","location_rts":"[460,460,777,550]","trial_type":"fractal-mutation","trial_index":78,"time_elapsed":1923835,"internal_node_id":"0.0-5.0-24.0"},{"group":"hexagon_tri","fractal_assignment":["../images/cyn_red.png","../images/gry_blk.png","../images/ylw_slt.png","../images/org_blu.png","../images/blu_wht.png","../images/pnk_blu.png"],"mutagen_generator_assignment":[1,0],"goal":1,"start":3,"action_noise":0.15,"location_history":"[3,4,0,5,4,2,3,4,0,1]","action_history":"[1,0,0,0,1,1,1,1,1]","mutagen_history":"[0,1,1,1,0,0,0,0,0]","location_rts":"[925,462,614,576,576,420,648,543,661]","trial_type":"fractal-mutation","trial_index":79,"time_elapsed":1942594,"internal_node_id":"0.0-5.0-25.0"},{"group":"hexagon_tri","fractal_assignment":["../images/cyn_red.png","../images/gry_blk.png","../images/ylw_slt.png","../images/org_blu.png","../images/blu_wht.png","../images/pnk_blu.png"],"mutagen_generator_assignment":[1,0],"goal":2,"start":1,"action_noise":0.15,"location_history":"[1,5,0,5,4,2]","action_history":"[0,1,1,1,1]","mutagen_history":"[1,0,0,0,0]","location_rts":"[691,422,325,421,456]","trial_type":"fractal-mutation","trial_index":80,"time_elapsed":1953813,"internal_node_id":"0.0-5.0-26.0"},{"group":"hexagon_tri","fractal_assignment":["../images/cyn_red.png","../images/gry_blk.png","../images/ylw_slt.png","../images/org_blu.png","../images/blu_wht.png","../images/pnk_blu.png"],"mutagen_generator_assignment":[1,0],"goal":5,"start":2,"action_noise":0.15,"location_history":"[2,1,3,2,1,5]","action_history":"[0,0,0,0,1]","mutagen_history":"[1,1,1,1,0]","location_rts":"[711,470,536,490,357]","trial_type":"fractal-mutation","trial_index":81,"time_elapsed":1965373,"internal_node_id":"0.0-5.0-27.0"},{"group":"hexagon_tri","fractal_assignment":["../images/cyn_red.png","../images/gry_blk.png","../images/ylw_slt.png","../images/org_blu.png","../images/blu_wht.png","../images/pnk_blu.png"],"mutagen_generator_assignment":[1,0],"goal":4,"start":5,"action_noise":0.15,"location_history":"[5,4]","action_history":"[0]","mutagen_history":"[1]","location_rts":"[1360]","trial_type":"fractal-mutation","trial_index":82,"time_elapsed":1971618,"internal_node_id":"0.0-5.0-28.0"},{"group":"hexagon_tri","fractal_assignment":["../images/cyn_red.png","../images/gry_blk.png","../images/ylw_slt.png","../images/org_blu.png","../images/blu_wht.png","../images/pnk_blu.png"],"mutagen_generator_assignment":[1,0],"goal":5,"start":4,"action_noise":0.15,"location_history":"[4,0,1,5]","action_history":"[0,1,1]","mutagen_history":"[1,0,0]","location_rts":"[411406,707,452]","trial_type":"fractal-mutation","trial_index":83,"time_elapsed":2391949,"internal_node_id":"0.0-5.0-29.0"},{"group":"hexagon_tri","fractal_assignment":["../images/cyn_red.png","../images/gry_blk.png","../images/ylw_slt.png","../images/org_blu.png","../images/blu_wht.png","../images/pnk_blu.png"],"mutagen_generator_assignment":[1,0],"goal":3,"start":5,"action_noise":0.15,"location_history":"[5,4,0,1,5,0,1,3]","action_history":"[1,0,0,1,1,1,0]","mutagen_history":"[0,1,1,0,0,0,1]","location_rts":"[546,366,462,422,479,455,451]","trial_type":"fractal-mutation","trial_index":84,"time_elapsed":2406274,"internal_node_id":"0.0-5.0-30.0"},{"group":"hexagon_tri","fractal_assignment":["../images/cyn_red.png","../images/gry_blk.png","../images/ylw_slt.png","../images/org_blu.png","../images/blu_wht.png","../images/pnk_blu.png"],"mutagen_generator_assignment":[1,0],"goal":0,"start":3,"action_noise":0.15,"location_history":"[3,4,2,3,4,2,1,5,4,0]","action_history":"[1,1,1,0,1,0,1,0,0]","mutagen_history":"[0,0,0,1,0,1,0,1,1]","location_rts":"[1570,608,627,456,519,382,622,686,331]","trial_type":"fractal-mutation","trial_index":85,"time_elapsed":2425363,"internal_node_id":"0.0-5.0-31.0"},{"group":"hexagon_tri","fractal_assignment":["../images/cyn_red.png","../images/gry_blk.png","../images/ylw_slt.png","../images/org_blu.png","../images/blu_wht.png","../images/pnk_blu.png"],"mutagen_generator_assignment":[1,0],"goal":4,"start":0,"action_noise":0.15,"location_history":"[0,5,0,5,4]","action_history":"[0,1,0,0]","mutagen_history":"[1,0,1,1]","location_rts":"[1295,548,493,348]","trial_type":"fractal-mutation","trial_index":86,"time_elapsed":2435927,"internal_node_id":"0.0-5.0-32.0"},{"group":"hexagon_tri","fractal_assignment":["../images/cyn_red.png","../images/gry_blk.png","../images/ylw_slt.png","../images/org_blu.png","../images/blu_wht.png","../images/pnk_blu.png"],"mutagen_generator_assignment":[1,0],"goal":1,"start":4,"action_noise":0.15,"location_history":"[4,0,5,4,2,1]","action_history":"[1,0,1,1,0]","mutagen_history":"[0,1,0,0,1]","location_rts":"[1533,531,551,544,234]","trial_type":"fractal-mutation","trial_index":87,"time_elapsed":2448289,"internal_node_id":"0.0-5.0-33.0"},{"group":"hexagon_tri","fractal_assignment":["../images/cyn_red.png","../images/gry_blk.png","../images/ylw_slt.png","../images/org_blu.png","../images/blu_wht.png","../images/pnk_blu.png"],"mutagen_generator_assignment":[1,0],"goal":2,"start":1,"action_noise":0.15,"location_history":"[1,5,0,5,0,1,5,4,0,1,5,0,5,0,5,0,1,3,2]","action_history":"[1,0,0,1,1,0,0,0,1,1,1,0,1,1,1,1,0,1]","mutagen_history":"[0,1,1,0,0,1,1,1,0,0,0,1,0,0,0,0,1,0]","location_rts":"[839,347,442,512,413,697,624,511,686,461,694,427,252,400,306,346,312,449]","trial_type":"fractal-mutation","trial_index":88,"time_elapsed":2480142,"internal_node_id":"0.0-5.0-34.0"},{"group":"hexagon_tri","fractal_assignment":["../images/cyn_red.png","../images/gry_blk.png","../images/ylw_slt.png","../images/org_blu.png","../images/blu_wht.png","../images/pnk_blu.png"],"mutagen_generator_assignment":[1,0],"goal":0,"start":2,"action_noise":0.15,"location_history":"[2,1,3,4,2,1,5,4,0]","action_history":"[0,1,1,1,0,1,0,0]","mutagen_history":"[1,0,0,0,1,0,1,1]","location_rts":"[1819,458,481,1100,511,481,571,946]","trial_type":"fractal-mutation","trial_index":89,"time_elapsed":2498860,"internal_node_id":"0.0-5.0-35.0"},{"group":"hexagon_tri","fractal_assignment":["../images/cyn_red.png","../images/gry_blk.png","../images/ylw_slt.png","../images/org_blu.png","../images/blu_wht.png","../images/pnk_blu.png"],"mutagen_generator_assignment":[1,0],"goal":5,"start":0,"action_noise":0.15,"location_history":"[0,5]","action_history":"[0]","mutagen_history":"[1]","location_rts":"[1628]","trial_type":"fractal-mutation","trial_index":90,"time_elapsed":2505156,"internal_node_id":"0.0-5.0-36.0"},{"group":"hexagon_tri","fractal_assignment":["../images/cyn_red.png","../images/gry_blk.png","../images/ylw_slt.png","../images/org_blu.png","../images/blu_wht.png","../images/pnk_blu.png"],"mutagen_generator_assignment":[1,0],"goal":2,"start":5,"action_noise":0.15,"location_history":"[5,0,5,4,0,1,5,0,1,3,2]","action_history":"[1,1,0,0,1,1,1,1,0,0]","mutagen_history":"[0,0,1,1,0,0,0,0,1,1]","location_rts":"[762,447,412,936,280,434,503,487,499,1039]","trial_type":"fractal-mutation","trial_index":91,"time_elapsed":2525338,"internal_node_id":"0.0-5.0-37.0"},{"group":"hexagon_tri","fractal_assignment":["../images/cyn_red.png","../images/gry_blk.png","../images/ylw_slt.png","../images/org_blu.png","../images/blu_wht.png","../images/pnk_blu.png"],"mutagen_generator_assignment":[1,0],"goal":1,"start":2,"action_noise":0.15,"location_history":"[2,3,2,1]","action_history":"[1,0,0]","mutagen_history":"[0,1,1]","location_rts":"[895,638,594]","trial_type":"fractal-mutation","trial_index":92,"time_elapsed":2534279,"internal_node_id":"0.0-5.0-38.0"},{"group":"hexagon_tri","fractal_assignment":["../images/cyn_red.png","../images/gry_blk.png","../images/ylw_slt.png","../images/org_blu.png","../images/blu_wht.png","../images/pnk_blu.png"],"mutagen_generator_assignment":[1,0],"goal":4,"start":1,"action_noise":0.15,"location_history":"[1,5,0,1,3,2,1,3,4]","action_history":"[1,0,1,0,0,0,0,1]","mutagen_history":"[0,1,0,1,1,1,1,0]","location_rts":"[813,593,1011,523,416,503,460,351]","trial_type":"fractal-mutation","trial_index":93,"time_elapsed":2551285,"internal_node_id":"0.0-5.0-39.0"},{"group":"hexagon_tri","fractal_assignment":["../images/cyn_red.png","../images/gry_blk.png","../images/ylw_slt.png","../images/org_blu.png","../images/blu_wht.png","../images/pnk_blu.png"],"mutagen_generator_assignment":[1,0],"goal":3,"start":4,"action_noise":0.15,"location_history":"[4,2,3]","action_history":"[1,0]","mutagen_history":"[0,1]","location_rts":"[729,405]","trial_type":"fractal-mutation","trial_index":94,"time_elapsed":2558083,"internal_node_id":"0.0-5.0-40.0"},{"group":"hexagon_tri","fractal_assignment":["../images/cyn_red.png","../images/gry_blk.png","../images/ylw_slt.png","../images/org_blu.png","../images/blu_wht.png","../images/pnk_blu.png"],"mutagen_generator_assignment":[1,0],"goal":5,"start":3,"action_noise":0.15,"location_history":"[3,2,1,3,4,2,3,4,2,3,2,3,2,1,5]","action_history":"[0,0,0,1,0,0,1,1,1,0,0,0,0,1]","mutagen_history":"[1,1,1,0,1,1,0,0,0,1,1,1,1,0]","location_rts":"[1009,653,559,750,632,469,444,576,500,548,377,415,434,320]","trial_type":"fractal-mutation","trial_index":95,"time_elapsed":2584682,"internal_node_id":"0.0-5.0-41.0"},{"group":"hexagon_tri","fractal_assignment":["../images/cyn_red.png","../images/gry_blk.png","../images/ylw_slt.png","../images/org_blu.png","../images/blu_wht.png","../images/pnk_blu.png"],"mutagen_generator_assignment":[1,0],"goal":3,"start":5,"action_noise":0.15,"location_history":"[5,4,2,3]","action_history":"[0,1,1]","mutagen_history":"[1,0,0]","location_rts":"[1114,473,445]","trial_type":"fractal-mutation","trial_index":96,"time_elapsed":2593493,"internal_node_id":"0.0-5.0-42.0"},{"group":"hexagon_tri","fractal_assignment":["../images/cyn_red.png","../images/gry_blk.png","../images/ylw_slt.png","../images/org_blu.png","../images/blu_wht.png","../images/pnk_blu.png"],"mutagen_generator_assignment":[1,0],"goal":0,"start":3,"action_noise":0.15,"location_history":"[3,4,2,3,2,1,3,2,3,4,0]","action_history":"[1,0,0,0,1,0,0,1,1,0]","mutagen_history":"[0,1,1,1,0,1,1,0,0,1]","location_rts":"[16629,903,403,984,732,660,589,551,5445,306]","trial_type":"fractal-mutation","trial_index":97,"time_elapsed":2635352,"internal_node_id":"0.0-5.0-43.0"},{"group":"hexagon_tri","fractal_assignment":["../images/cyn_red.png","../images/gry_blk.png","../images/ylw_slt.png","../images/org_blu.png","../images/blu_wht.png","../images/pnk_blu.png"],"mutagen_generator_assignment":[1,0],"goal":2,"start":0,"action_noise":0.15,"location_history":"[0,1,3,2]","action_history":"[1,0,0]","mutagen_history":"[0,1,1]","location_rts":"[2560,365,458]","trial_type":"fractal-mutation","trial_index":98,"time_elapsed":2645530,"internal_node_id":"0.0-5.0-44.0"},{"group":"hexagon_tri","fractal_assignment":["../images/cyn_red.png","../images/gry_blk.png","../images/ylw_slt.png","../images/org_blu.png","../images/blu_wht.png","../images/pnk_blu.png"],"mutagen_generator_assignment":[1,0],"goal":4,"start":2,"action_noise":0.15,"location_history":"[2,1,3,2,3,2,3,2,1,3,2,3,2,1,5,4]","action_history":"[1,0,0,1,1,1,0,0,0,1,0,0,0,1,0]","mutagen_history":"[0,1,1,0,0,0,1,1,1,0,1,1,1,0,1]","location_rts":"[8077,304,389,494,409,1784,380,368,558,567,416,370,639,266,684]","trial_type":"fractal-mutation","trial_index":99,"time_elapsed":2681200,"internal_node_id":"0.0-5.0-45.0"},{"group":"hexagon_tri","fractal_assignment":["../images/cyn_red.png","../images/gry_blk.png","../images/ylw_slt.png","../images/org_blu.png","../images/blu_wht.png","../images/pnk_blu.png"],"mutagen_generator_assignment":[1,0],"goal":1,"start":4,"action_noise":0.15,"location_history":"[4,2,1]","action_history":"[1,0]","mutagen_history":"[0,1]","location_rts":"[1079,434]","trial_type":"fractal-mutation","trial_index":100,"time_elapsed":2688482,"internal_node_id":"0.0-5.0-46.0"},{"group":"hexagon_tri","fractal_assignment":["../images/cyn_red.png","../images/gry_blk.png","../images/ylw_slt.png","../images/org_blu.png","../images/blu_wht.png","../images/pnk_blu.png"],"mutagen_generator_assignment":[1,0],"goal":4,"start":1,"action_noise":0.15,"location_history":"[1,5,4]","action_history":"[1,0]","mutagen_history":"[0,1]","location_rts":"[1853,637]","trial_type":"fractal-mutation","trial_index":101,"time_elapsed":2696704,"internal_node_id":"0.0-5.0-47.0"},{"group":"hexagon_tri","fractal_assignment":["../images/cyn_red.png","../images/gry_blk.png","../images/ylw_slt.png","../images/org_blu.png","../images/blu_wht.png","../images/pnk_blu.png"],"mutagen_generator_assignment":[1,0],"goal":3,"start":4,"action_noise":0.15,"location_history":"[4,0,5,4,2,3]","action_history":"[0,1,1,1,1]","mutagen_history":"[1,0,0,0,0]","location_rts":"[1237,475,450,496,821]","trial_type":"fractal-mutation","trial_index":102,"time_elapsed":2709177,"internal_node_id":"0.0-5.0-48.0"},{"group":"hexagon_tri","fractal_assignment":["../images/cyn_red.png","../images/gry_blk.png","../images/ylw_slt.png","../images/org_blu.png","../images/blu_wht.png","../images/pnk_blu.png"],"mutagen_generator_assignment":[1,0],"goal":5,"start":3,"action_noise":0.15,"location_history":"[3,2,3,2,1,3,2,1,5]","action_history":"[0,1,0,0,0,0,0,1]","mutagen_history":"[1,0,1,1,1,1,1,0]","location_rts":"[1313,497,328,314,588,916,473,460]","trial_type":"fractal-mutation","trial_index":103,"time_elapsed":2726378,"internal_node_id":"0.0-5.0-49.0"},{"view_history":"[{\"page_index\":0,\"viewing_time\":5200}]","rt":5201,"trial_type":"instructions","trial_index":104,"time_elapsed":2732581,"internal_node_id":"0.0-6.0"},{"rt":5518,"responses":"{\"Q0\":\"Thanks\"}","trial_type":"survey-text","trial_index":105,"time_elapsed":2739107,"internal_node_id":"0.0-7.0"}]