[{"view_history":"[{\"page_index\":0,\"viewing_time\":157989},{\"page_index\":1,\"viewing_time\":19604},{\"page_index\":2,\"viewing_time\":16371},{\"page_index\":3,\"viewing_time\":6604}]","rt":200569,"trial_type":"instructions","trial_index":0,"time_elapsed":200571,"internal_node_id":"0.0-0.0"},{"view_history":"[{\"page_index\":0,\"viewing_time\":2607},{\"page_index\":1,\"viewing_time\":27327}]","rt":29935,"trial_type":"instructions","trial_index":1,"time_elapsed":231508,"internal_node_id":"0.0-1.0"},{"group":"square cycles (cube, non-group)","room_assignment":["purple","brown","pink","yellow","red","grey","blue","green"],"door_color_assignment":["white","black"],"door_generator_assignment":[1,0],"goal":3,"start":0,"action_noise":0.1,"location_history":"[0,1,2,3]","action_history":"[0,0,0]","door_history":"[1,1,1]","location_rts":"[2726,4688,1650]","trial_type":"two-door-navigation","trial_index":2,"time_elapsed":247124,"internal_node_id":"0.0-2.0-0.0"},{"group":"square cycles (cube, non-group)","room_assignment":["purple","brown","pink","yellow","red","grey","blue","green"],"door_color_assignment":["white","black"],"door_generator_assignment":[1,0],"goal":1,"start":3,"action_noise":0.1,"location_history":"[3,2,3,2,3,2,3,0,1]","action_history":"[1,1,1,1,1,0,0,0]","door_history":"[0,0,0,0,0,1,1,1]","location_rts":"[2392,922,1956,1110,837,486,398,425]","trial_type":"two-door-navigation","trial_index":3,"time_elapsed":267236,"internal_node_id":"0.0-2.0-1.0"},{"group":"square cycles (cube, non-group)","room_assignment":["purple","brown","pink","yellow","red","grey","blue","green"],"door_color_assignment":["white","black"],"door_generator_assignment":[1,0],"goal":2,"start":1,"action_noise":0.1,"location_history":"[1,0,4,5,1,0,4,7,3,0,1,2]","action_history":"[1,1,1,1,1,1,0,0,0,0,0]","door_history":"[0,0,0,0,0,0,1,1,1,1,1]","location_rts":"[2003,602,400,369,574,396,362,387,641,404,433]","trial_type":"two-door-navigation","trial_index":4,"time_elapsed":288467,"internal_node_id":"0.0-2.0-2.0"},{"group":"square cycles (cube, non-group)","room_assignment":["purple","brown","pink","yellow","red","grey","blue","green"],"door_color_assignment":["white","black"],"door_generator_assignment":[1,0],"goal":6,"start":2,"action_noise":0.1,"location_history":"[2,3,0,1,2,3,0,1,0,4,5,1,0,4,5,4,5,4,5,4,5,1,0,1,0,4,5,1,2,6]","action_history":"[0,0,0,0,0,0,0,1,1,1,1,1,1,1,0,1,0,1,0,1,1,1,0,1,1,1,1,1,1]","door_history":"[1,1,1,1,1,1,1,0,0,0,0,0,0,0,1,0,1,0,1,0,0,0,1,0,0,0,0,0,0]","location_rts":"[1494,372,354,373,566,507,414,446,498,324,369,320,448,296,540,684,410,508,341,683,984,348,806,433,306,253,269,328,381]","trial_type":"two-door-navigation","trial_index":5,"time_elapsed":335428,"internal_node_id":"0.0-2.0-3.0"},{"group":"square cycles (cube, non-group)","room_assignment":["purple","brown","pink","yellow","red","grey","blue","green"],"door_color_assignment":["white","black"],"door_generator_assignment":[1,0],"goal":5,"start":6,"action_noise":0.1,"location_history":"[6,7,3,2,6,7,3,0,4,5]","action_history":"[1,1,1,1,1,1,1,1,1]","door_history":"[0,0,0,0,0,0,0,0,0]","location_rts":"[2226,292,258,295,258,296,254,202,257]","trial_type":"two-door-navigation","trial_index":6,"time_elapsed":352350,"internal_node_id":"0.0-2.0-4.0"},{"group":"square cycles (cube, non-group)","room_assignment":["purple","brown","pink","yellow","red","grey","blue","green"],"door_color_assignment":["white","black"],"door_generator_assignment":[1,0],"goal":4,"start":5,"action_noise":0.1,"location_history":"[5,4]","action_history":"[0]","door_history":"[1]","location_rts":"[1800]","trial_type":"two-door-navigation","trial_index":7,"time_elapsed":358655,"internal_node_id":"0.0-2.0-5.0"},{"group":"square cycles (cube, non-group)","room_assignment":["purple","brown","pink","yellow","red","grey","blue","green"],"door_color_assignment":["white","black"],"door_generator_assignment":[1,0],"goal":7,"start":4,"action_noise":0.1,"location_history":"[4,5,4,7]","action_history":"[0,0,0]","door_history":"[1,1,1]","location_rts":"[1477,389,317]","trial_type":"two-door-navigation","trial_index":8,"time_elapsed":367368,"internal_node_id":"0.0-2.0-6.0"},{"group":"square cycles (cube, non-group)","room_assignment":["purple","brown","pink","yellow","red","grey","blue","green"],"door_color_assignment":["white","black"],"door_generator_assignment":[1,0],"goal":4,"start":7,"action_noise":0.1,"location_history":"[7,3,2,6,7,3,0,1,2,3,0,1,0,1,0,1,2,3,0,4]","action_history":"[1,1,1,1,1,1,0,0,0,0,0,0,0,0,0,0,0,0,0]","door_history":"[0,0,0,0,0,0,1,1,1,1,1,1,1,1,1,1,1,1,1]","location_rts":"[1630,399,713,1282,593,937,368,367,303,308,406,294,378,355,335,309,388,443,333]","trial_type":"two-door-navigation","trial_index":9,"time_elapsed":400232,"internal_node_id":"0.0-2.0-7.0"},{"group":"square cycles (cube, non-group)","room_assignment":["purple","brown","pink","yellow","red","grey","blue","green"],"door_color_assignment":["white","black"],"door_generator_assignment":[1,0],"goal":6,"start":4,"action_noise":0.1,"location_history":"[4,5,1,0,4,5,1,0,4,5,1,0,4,5,4,7,6]","action_history":"[1,1,1,1,1,1,1,1,1,1,1,1,1,1,0,0]","door_history":"[0,0,0,0,0,0,0,0,0,0,0,0,0,0,1,1]","location_rts":"[12386,500,481,236,245,274,286,262,216,327,265,283,251,248,487,381]","trial_type":"two-door-navigation","trial_index":10,"time_elapsed":437044,"internal_node_id":"0.0-2.0-8.0"},{"group":"square cycles (cube, non-group)","room_assignment":["purple","brown","pink","yellow","red","grey","blue","green"],"door_color_assignment":["white","black"],"door_generator_assignment":[1,0],"goal":0,"start":6,"action_noise":0.1,"location_history":"[6,5,1,0]","action_history":"[0,1,1]","door_history":"[1,0,0]","location_rts":"[4937,721,289]","trial_type":"two-door-navigation","trial_index":11,"time_elapsed":449517,"internal_node_id":"0.0-2.0-9.0"},{"group":"square cycles (cube, non-group)","room_assignment":["purple","brown","pink","yellow","red","grey","blue","green"],"door_color_assignment":["white","black"],"door_generator_assignment":[1,0],"goal":1,"start":0,"action_noise":0.1,"location_history":"[0,4,5,1]","action_history":"[1,1,1]","door_history":"[0,0,0]","location_rts":"[6287,410,328]","trial_type":"two-door-navigation","trial_index":12,"time_elapsed":463081,"internal_node_id":"0.0-2.0-10.0"},{"group":"square cycles (cube, non-group)","room_assignment":["purple","brown","pink","yellow","red","grey","blue","green"],"door_color_assignment":["white","black"],"door_generator_assignment":[1,0],"goal":3,"start":1,"action_noise":0.1,"location_history":"[1,2,3]","action_history":"[0,0]","door_history":"[1,1]","location_rts":"[1085,370]","trial_type":"two-door-navigation","trial_index":13,"time_elapsed":470053,"internal_node_id":"0.0-2.0-11.0"},{"group":"square cycles (cube, non-group)","room_assignment":["purple","brown","pink","yellow","red","grey","blue","green"],"door_color_assignment":["white","black"],"door_generator_assignment":[1,0],"goal":7,"start":3,"action_noise":0.1,"location_history":"[3,0,4,5,4,7]","action_history":"[0,0,0,0,0]","door_history":"[1,1,1,1,1]","location_rts":"[4772,396,371,402,306]","trial_type":"two-door-navigation","trial_index":14,"time_elapsed":484860,"internal_node_id":"0.0-2.0-12.0"},{"group":"square cycles (cube, non-group)","room_assignment":["purple","brown","pink","yellow","red","grey","blue","green"],"door_color_assignment":["white","black"],"door_generator_assignment":[1,0],"goal":5,"start":7,"action_noise":0.1,"location_history":"[7,3,2,6,7,3,2,6,7,3,2,6,7,3,2,3,2,3,0,1,2,3,0,1,2,6,7,6,7,3,2,6,5]","action_history":"[1,1,1,1,1,1,1,1,1,1,1,1,1,1,1,1,0,0,0,0,0,0,0,0,0,1,1,1,1,1,1,1]","door_history":"[0,0,0,0,0,0,0,0,0,0,0,0,0,0,0,0,1,1,1,1,1,1,1,1,1,0,0,0,0,0,0,0]","location_rts":"[2157,312,443,299,297,321,281,316,280,391,352,243,321,325,339,300,1056,498,1014,1011,387,368,458,373,412,810,503,378,433,371,319,334]","trial_type":"two-door-navigation","trial_index":15,"time_elapsed":536463,"internal_node_id":"0.0-2.0-13.0"},{"group":"square cycles (cube, non-group)","room_assignment":["purple","brown","pink","yellow","red","grey","blue","green"],"door_color_assignment":["white","black"],"door_generator_assignment":[1,0],"goal":2,"start":5,"action_noise":0.1,"location_history":"[5,4,7,6,5,1,0,4,5,4,7,6,5,4,7,6,5,4,7,6,5,1,2]","action_history":"[0,0,0,0,1,1,1,0,0,0,0,0,0,0,0,0,0,0,0,0,0,0]","door_history":"[1,1,1,1,0,0,0,1,1,1,1,1,1,1,1,1,1,1,1,1,1,1]","location_rts":"[1713,382,299,329,343,277,310,275,314,279,298,372,278,344,701,390,328,458,546,417,352,386]","trial_type":"two-door-navigation","trial_index":16,"time_elapsed":571607,"internal_node_id":"0.0-2.0-14.0"},{"group":"square cycles (cube, non-group)","room_assignment":["purple","brown","pink","yellow","red","grey","blue","green"],"door_color_assignment":["white","black"],"door_generator_assignment":[1,0],"goal":7,"start":2,"action_noise":0.1,"location_history":"[2,6,5,1,0,4,5,1,0,4,5,4,5,1,0,4,5,1,0,4,5,4,5,1,0,4,5,1,0,4,7]","action_history":"[1,1,1,1,1,1,1,1,1,1,1,1,1,1,1,1,1,1,1,1,1,1,1,1,1,1,1,1,1,0]","door_history":"[0,0,0,0,0,0,0,0,0,0,0,0,0,0,0,0,0,0,0,0,0,0,0,0,0,0,0,0,0,1]","location_rts":"[1556,367,359,361,294,344,282,290,285,303,340,268,269,348,278,166,254,251,273,363,260,272,224,272,257,245,294,294,505,697]","trial_type":"two-door-navigation","trial_index":17,"time_elapsed":616016,"internal_node_id":"0.0-2.0-15.0"},{"group":"square cycles (cube, non-group)","room_assignment":["purple","brown","pink","yellow","red","grey","blue","green"],"door_color_assignment":["white","black"],"door_generator_assignment":[1,0],"goal":4,"start":7,"action_noise":0.1,"location_history":"[7,3,0,1,2,3,0,1,2,3,0,1,2,3,0,1,2,3,0,4]","action_history":"[1,0,0,0,0,0,0,0,0,0,0,0,0,0,0,0,0,0,1]","door_history":"[0,1,1,1,1,1,1,1,1,1,1,1,1,1,1,1,1,1,0]","location_rts":"[2910,789,299,712,357,309,308,447,334,293,516,2048,324,367,309,338,339,605,248]","trial_type":"two-door-navigation","trial_index":18,"time_elapsed":650586,"internal_node_id":"0.0-2.0-16.0"},{"group":"square cycles (cube, non-group)","room_assignment":["purple","brown","pink","yellow","red","grey","blue","green"],"door_color_assignment":["white","black"],"door_generator_assignment":[1,0],"goal":2,"start":4,"action_noise":0.1,"location_history":"[4,7,6,7,6,5,1,0,1,2]","action_history":"[0,0,1,0,0,1,1,0,0]","door_history":"[1,1,0,1,1,0,0,1,1]","location_rts":"[3176,349,226,347,292,341,654,319,242]","trial_type":"two-door-navigation","trial_index":19,"time_elapsed":669125,"internal_node_id":"0.0-2.0-17.0"},{"group":"square cycles (cube, non-group)","room_assignment":["purple","brown","pink","yellow","red","grey","blue","green"],"door_color_assignment":["white","black"],"door_generator_assignment":[1,0],"goal":3,"start":2,"action_noise":0.1,"location_history":"[2,3]","action_history":"[1]","door_history":"[0]","location_rts":"[1395]","trial_type":"two-door-navigation","trial_index":20,"time_elapsed":675026,"internal_node_id":"0.0-2.0-18.0"},{"group":"square cycles (cube, non-group)","room_assignment":["purple","brown","pink","yellow","red","grey","blue","green"],"door_color_assignment":["white","black"],"door_generator_assignment":[1,0],"goal":6,"start":3,"action_noise":0.1,"location_history":"[3,0,1,2,3,0,1,0,4,5,1,0,4,5,1,0,4,7,6]","action_history":"[0,0,0,0,0,1,1,1,1,1,1,1,1,1,1,1,0,0]","door_history":"[1,1,1,1,1,0,0,0,0,0,0,0,0,0,0,0,1,1]","location_rts":"[1597,397,351,619,356,306,310,346,317,268,342,389,345,365,335,607,317,439]","trial_type":"two-door-navigation","trial_index":21,"time_elapsed":704679,"internal_node_id":"0.0-2.0-19.0"},{"group":"square cycles (cube, non-group)","room_assignment":["purple","brown","pink","yellow","red","grey","blue","green"],"door_color_assignment":["white","black"],"door_generator_assignment":[1,0],"goal":5,"start":6,"action_noise":0.1,"location_history":"[6,7,3,0,4,5]","action_history":"[1,1,1,1,1]","door_history":"[0,0,0,0,0]","location_rts":"[1446,309,281,324,250]","trial_type":"two-door-navigation","trial_index":22,"time_elapsed":715841,"internal_node_id":"0.0-2.0-20.0"},{"group":"square cycles (cube, non-group)","room_assignment":["purple","brown","pink","yellow","red","grey","blue","green"],"door_color_assignment":["white","black"],"door_generator_assignment":[1,0],"goal":1,"start":5,"action_noise":0.1,"location_history":"[5,1]","action_history":"[1]","door_history":"[0]","location_rts":"[3343]","trial_type":"two-door-navigation","trial_index":23,"time_elapsed":723700,"internal_node_id":"0.0-2.0-21.0"},{"group":"square cycles (cube, non-group)","room_assignment":["purple","brown","pink","yellow","red","grey","blue","green"],"door_color_assignment":["white","black"],"door_generator_assignment":[1,0],"goal":0,"start":1,"action_noise":0.1,"location_history":"[1,2,6,5,4,5,4,5,1,0]","action_history":"[0,0,0,0,0,1,1,1,1]","door_history":"[1,1,1,1,1,0,0,0,0]","location_rts":"[2316,481,824,373,931,416,282,356,390]","trial_type":"two-door-navigation","trial_index":24,"time_elapsed":742675,"internal_node_id":"0.0-2.0-22.0"},{"group":"square cycles (cube, non-group)","room_assignment":["purple","brown","pink","yellow","red","grey","blue","green"],"door_color_assignment":["white","black"],"door_generator_assignment":[1,0],"goal":2,"start":0,"action_noise":0.1,"location_history":"[0,1,2]","action_history":"[0,0]","door_history":"[1,1]","location_rts":"[1717,1290]","trial_type":"two-door-navigation","trial_index":25,"time_elapsed":751198,"internal_node_id":"0.0-2.0-23.0"},{"group":"square cycles (cube, non-group)","room_assignment":["purple","brown","pink","yellow","red","grey","blue","green"],"door_color_assignment":["white","black"],"door_generator_assignment":[1,0],"goal":6,"start":2,"action_noise":0.1,"location_history":"[2,6]","action_history":"[1]","door_history":"[0]","location_rts":"[2492]","trial_type":"two-door-navigation","trial_index":26,"time_elapsed":758205,"internal_node_id":"0.0-2.0-24.0"},{"group":"square cycles (cube, non-group)","room_assignment":["purple","brown","pink","yellow","red","grey","blue","green"],"door_color_assignment":["white","black"],"door_generator_assignment":[1,0],"goal":1,"start":6,"action_noise":0.1,"location_history":"[6,5,4,7,6,5,1]","action_history":"[0,0,0,0,0,0]","door_history":"[1,1,1,1,1,1]","location_rts":"[2546,399,343,359,734,573]","trial_type":"two-door-navigation","trial_index":27,"time_elapsed":772725,"internal_node_id":"0.0-2.0-25.0"},{"group":"square cycles (cube, non-group)","room_assignment":["purple","brown","pink","yellow","red","grey","blue","green"],"door_color_assignment":["white","black"],"door_generator_assignment":[1,0],"goal":3,"start":1,"action_noise":0.1,"location_history":"[1,0,4,5,1,0,4,5,1,0,4,7,6,5,4,7,6,7,6,5,1,0,4,5,4,7,3]","action_history":"[1,1,1,1,1,1,1,1,1,1,0,0,0,0,0,0,0,0,0,1,1,1,1,0,0,1]","door_history":"[0,0,0,0,0,0,0,0,0,0,1,1,1,1,1,1,1,1,1,0,0,0,0,1,1,0]","location_rts":"[1956,312,353,317,297,266,521,636,317,320,207,593,399,332,351,378,547,367,316,259,377,364,21321,398,327,233]","trial_type":"two-door-navigation","trial_index":28,"time_elapsed":834549,"internal_node_id":"0.0-2.0-26.0"},{"group":"square cycles (cube, non-group)","room_assignment":["purple","brown","pink","yellow","red","grey","blue","green"],"door_color_assignment":["white","black"],"door_generator_assignment":[1,0],"goal":7,"start":3,"action_noise":0.1,"location_history":"[3,0,1,0,4,7]","action_history":"[0,0,1,1,0]","door_history":"[1,1,0,0,1]","location_rts":"[4004,376,296,254,240]","trial_type":"two-door-navigation","trial_index":29,"time_elapsed":848289,"internal_node_id":"0.0-2.0-27.0"},{"group":"square cycles (cube, non-group)","room_assignment":["purple","brown","pink","yellow","red","grey","blue","green"],"door_color_assignment":["white","black"],"door_generator_assignment":[1,0],"goal":4,"start":7,"action_noise":0.1,"location_history":"[7,3,2,3,0,1,2,3,0,1,2,3,2,6,7,3,2,6,7,6,7,3,2,6,7,6,7,3,2,6,7,6,5,1,2,3,2,6,7,3,2,3,2,6,5,1,0,4]","action_history":"[1,1,0,0,0,0,0,0,0,0,0,1,1,1,1,1,1,1,1,1,1,1,1,1,1,1,1,1,1,1,0,0,1,0,1,1,1,1,1,1,1,1,1,1,1,1,1]","door_history":"[0,0,1,1,1,1,1,1,1,1,1,0,0,0,0,0,0,0,0,0,0,0,0,0,0,0,0,0,0,0,1,1,0,1,0,0,0,0,0,0,0,0,0,0,0,0,0]","location_rts":"[1665,1792,722,269,206,353,736,335,426,343,367,1211,374,263,309,250,371,300,245,310,314,297,301,311,303,323,333,326,293,339,469,418,410,358,371,341,296,320,274,329,309,258,280,291,263,473,325]","trial_type":"two-door-navigation","trial_index":30,"time_elapsed":919036,"internal_node_id":"0.0-2.0-28.0"},{"group":"square cycles (cube, non-group)","room_assignment":["purple","brown","pink","yellow","red","grey","blue","green"],"door_color_assignment":["white","black"],"door_generator_assignment":[1,0],"goal":0,"start":4,"action_noise":0.1,"location_history":"[4,7,6,5,4,7,3,0]","action_history":"[0,0,0,0,0,0,0]","door_history":"[1,1,1,1,1,1,1]","location_rts":"[1186,312,431,503,385,359,355]","trial_type":"two-door-navigation","trial_index":31,"time_elapsed":933122,"internal_node_id":"0.0-2.0-29.0"},{"group":"square cycles (cube, non-group)","room_assignment":["purple","brown","pink","yellow","red","grey","blue","green"],"door_color_assignment":["white","black"],"door_generator_assignment":[1,0],"goal":5,"start":0,"action_noise":0.1,"location_history":"[0,4,5]","action_history":"[1,1]","door_history":"[0,0]","location_rts":"[1482,526]","trial_type":"two-door-navigation","trial_index":32,"time_elapsed":940654,"internal_node_id":"0.0-2.0-30.0"},{"group":"square cycles (cube, non-group)","room_assignment":["purple","brown","pink","yellow","red","grey","blue","green"],"door_color_assignment":["white","black"],"door_generator_assignment":[1,0],"goal":3,"start":5,"action_noise":0.1,"location_history":"[5,4,7,6,7,3]","action_history":"[0,0,0,1,1]","door_history":"[1,1,1,0,0]","location_rts":"[1740,383,384,371,276]","trial_type":"two-door-navigation","trial_index":33,"time_elapsed":952356,"internal_node_id":"0.0-2.0-31.0"},{"group":"square cycles (cube, non-group)","room_assignment":["purple","brown","pink","yellow","red","grey","blue","green"],"door_color_assignment":["white","black"],"door_generator_assignment":[1,0],"goal":2,"start":3,"action_noise":0.1,"location_history":"[3,0,1,0,4,7,3,2]","action_history":"[0,0,0,0,0,1,1]","door_history":"[1,1,1,1,1,0,0]","location_rts":"[1461,636,411,396,442,372,473]","trial_type":"two-door-navigation","trial_index":34,"time_elapsed":967129,"internal_node_id":"0.0-2.0-32.0"},{"group":"square cycles (cube, non-group)","room_assignment":["purple","brown","pink","yellow","red","grey","blue","green"],"door_color_assignment":["white","black"],"door_generator_assignment":[1,0],"goal":6,"start":2,"action_noise":0.1,"location_history":"[2,3,2,6]","action_history":"[0,1,1]","door_history":"[1,0,0]","location_rts":"[1874,790,297]","trial_type":"two-door-navigation","trial_index":35,"time_elapsed":976623,"internal_node_id":"0.0-2.0-33.0"},{"group":"square cycles (cube, non-group)","room_assignment":["purple","brown","pink","yellow","red","grey","blue","green"],"door_color_assignment":["white","black"],"door_generator_assignment":[1,0],"goal":1,"start":6,"action_noise":0.1,"location_history":"[6,7,6,5,4,7,6,5,4,7,6,5,1]","action_history":"[0,0,0,0,0,0,0,0,0,0,0,1]","door_history":"[1,1,1,1,1,1,1,1,1,1,1,0]","location_rts":"[2037,422,388,532,440,400,338,427,291,313,356,283]","trial_type":"two-door-navigation","trial_index":36,"time_elapsed":998478,"internal_node_id":"0.0-2.0-34.0"},{"group":"square cycles (cube, non-group)","room_assignment":["purple","brown","pink","yellow","red","grey","blue","green"],"door_color_assignment":["white","black"],"door_generator_assignment":[1,0],"goal":7,"start":1,"action_noise":0.1,"location_history":"[1,2,6,7]","action_history":"[0,1,1]","door_history":"[1,0,0]","location_rts":"[1694,821,145]","trial_type":"two-door-navigation","trial_index":37,"time_elapsed":1007671,"internal_node_id":"0.0-2.0-35.0"},{"group":"square cycles (cube, non-group)","room_assignment":["purple","brown","pink","yellow","red","grey","blue","green"],"door_color_assignment":["white","black"],"door_generator_assignment":[1,0],"goal":4,"start":7,"action_noise":0.1,"location_history":"[7,6,5,4]","action_history":"[0,0,0]","door_history":"[1,1,1]","location_rts":"[1587,618,356]","trial_type":"two-door-navigation","trial_index":38,"time_elapsed":1016758,"internal_node_id":"0.0-2.0-36.0"},{"group":"square cycles (cube, non-group)","room_assignment":["purple","brown","pink","yellow","red","grey","blue","green"],"door_color_assignment":["white","black"],"door_generator_assignment":[1,0],"goal":5,"start":4,"action_noise":0.1,"location_history":"[4,7,6,5]","action_history":"[0,0,0]","door_history":"[1,1,1]","location_rts":"[1273,428,337]","trial_type":"two-door-navigation","trial_index":39,"time_elapsed":1025317,"internal_node_id":"0.0-2.0-37.0"},{"group":"square cycles (cube, non-group)","room_assignment":["purple","brown","pink","yellow","red","grey","blue","green"],"door_color_assignment":["white","black"],"door_generator_assignment":[1,0],"goal":0,"start":5,"action_noise":0.1,"location_history":"[5,1,0]","action_history":"[1,1]","door_history":"[0,0]","location_rts":"[1683,405]","trial_type":"two-door-navigation","trial_index":40,"time_elapsed":1032929,"internal_node_id":"0.0-2.0-38.0"},{"group":"square cycles (cube, non-group)","room_assignment":["purple","brown","pink","yellow","red","grey","blue","green"],"door_color_assignment":["white","black"],"door_generator_assignment":[1,0],"goal":4,"start":0,"action_noise":0.1,"location_history":"[0,1,2,3,2,6,7,3,2,6,7,3,2,6,7,3,0,1,0,1,2,3,2,6,7,3,2,6,7,3,0,4]","action_history":"[0,0,0,1,1,1,1,1,1,1,1,1,1,1,1,0,0,0,0,0,0,1,1,1,1,1,1,1,1,1,1]","door_history":"[1,1,1,0,0,0,0,0,0,0,0,0,0,0,0,1,1,1,1,1,1,0,0,0,0,0,0,0,0,0,0]","location_rts":"[1830,561,316,515,604,484,348,417,271,283,354,329,301,284,300,805,378,365,374,342,373,285,448,328,338,309,292,554,342,371,561]","trial_type":"two-door-navigation","trial_index":41,"time_elapsed":1081429,"internal_node_id":"0.0-2.0-39.0"},{"group":"square cycles (cube, non-group)","room_assignment":["purple","brown","pink","yellow","red","grey","blue","green"],"door_color_assignment":["white","black"],"door_generator_assignment":[1,0],"goal":0,"start":4,"action_noise":0.1,"location_history":"[4,7,6,5,4,7,6,5,4,7,6,5,4,5,4,7,3,2,6,7,3,2,6,7,3,0]","action_history":"[0,0,0,0,0,0,0,0,0,0,0,0,0,0,0,1,1,1,1,1,1,1,1,1,0]","door_history":"[1,1,1,1,1,1,1,1,1,1,1,1,1,1,1,0,0,0,0,0,0,0,0,0,1]","location_rts":"[1134,321,407,558,292,363,435,330,562,397,370,332,144,268,257,210,299,406,307,247,265,258,270,573,2953]","trial_type":"two-door-navigation","trial_index":42,"time_elapsed":1122191,"internal_node_id":"0.0-2.0-40.0"},{"group":"square cycles (cube, non-group)","room_assignment":["purple","brown","pink","yellow","red","grey","blue","green"],"door_color_assignment":["white","black"],"door_generator_assignment":[1,0],"goal":2,"start":0,"action_noise":0.1,"location_history":"[0,1,2]","action_history":"[0,0]","door_history":"[1,1]","location_rts":"[3551,418]","trial_type":"two-door-navigation","trial_index":43,"time_elapsed":1131692,"internal_node_id":"0.0-2.0-41.0"},{"group":"square cycles (cube, non-group)","room_assignment":["purple","brown","pink","yellow","red","grey","blue","green"],"door_color_assignment":["white","black"],"door_generator_assignment":[1,0],"goal":3,"start":2,"action_noise":0.1,"location_history":"[2,6,7,3]","action_history":"[1,1,1]","door_history":"[0,0,0]","location_rts":"[1606,164,128]","trial_type":"two-door-navigation","trial_index":44,"time_elapsed":1140120,"internal_node_id":"0.0-2.0-42.0"},{"group":"square cycles (cube, non-group)","room_assignment":["purple","brown","pink","yellow","red","grey","blue","green"],"door_color_assignment":["white","black"],"door_generator_assignment":[1,0],"goal":5,"start":3,"action_noise":0.1,"location_history":"[3,2,6,5]","action_history":"[1,1,1]","door_history":"[0,0,0]","location_rts":"[938,252,230]","trial_type":"two-door-navigation","trial_index":45,"time_elapsed":1148065,"internal_node_id":"0.0-2.0-43.0"},{"group":"square cycles (cube, non-group)","room_assignment":["purple","brown","pink","yellow","red","grey","blue","green"],"door_color_assignment":["white","black"],"door_generator_assignment":[1,0],"goal":1,"start":5,"action_noise":0.1,"location_history":"[5,1]","action_history":"[1]","door_history":"[0]","location_rts":"[2506]","trial_type":"two-door-navigation","trial_index":46,"time_elapsed":1155110,"internal_node_id":"0.0-2.0-44.0"},{"group":"square cycles (cube, non-group)","room_assignment":["purple","brown","pink","yellow","red","grey","blue","green"],"door_color_assignment":["white","black"],"door_generator_assignment":[1,0],"goal":7,"start":1,"action_noise":0.1,"location_history":"[1,2,3,2,3,2,6,7]","action_history":"[0,0,1,1,1,1,1]","door_history":"[1,1,0,0,0,0,0]","location_rts":"[1934,363,794,263,318,359,1216]","trial_type":"two-door-navigation","trial_index":47,"time_elapsed":1170961,"internal_node_id":"0.0-2.0-45.0"},{"group":"square cycles (cube, non-group)","room_assignment":["purple","brown","pink","yellow","red","grey","blue","green"],"door_color_assignment":["white","black"],"door_generator_assignment":[1,0],"goal":6,"start":7,"action_noise":0.1,"location_history":"[7,6]","action_history":"[0]","door_history":"[1]","location_rts":"[2388]","trial_type":"two-door-navigation","trial_index":48,"time_elapsed":1177876,"internal_node_id":"0.0-2.0-46.0"},{"group":"square cycles (cube, non-group)","room_assignment":["purple","brown","pink","yellow","red","grey","blue","green"],"door_color_assignment":["white","black"],"door_generator_assignment":[1,0],"goal":3,"start":6,"action_noise":0.1,"location_history":"[6,5,4,7,3]","action_history":"[0,0,1,1]","door_history":"[1,1,0,0]","location_rts":"[1490,605,1030,290]","trial_type":"two-door-navigation","trial_index":49,"time_elapsed":1188836,"internal_node_id":"0.0-2.0-47.0"},{"group":"square cycles (cube, non-group)","room_assignment":["purple","brown","pink","yellow","red","grey","blue","green"],"door_color_assignment":["white","black"],"door_generator_assignment":[1,0],"goal":0,"start":3,"action_noise":0.1,"location_history":"[3,2,3,2,6,7,3,2,3,2,6,7,6,5,4,7,6,5,4,7,6,5,4,7,3,2,6,7,3,2,6,7,3,0]","action_history":"[0,0,1,1,1,1,1,1,1,1,0,0,0,0,0,0,0,0,0,0,0,0,0,1,1,1,1,1,1,1,1,1,0]","door_history":"[1,1,0,0,0,0,0,0,0,0,1,1,1,1,1,1,1,1,1,1,1,1,1,0,0,0,0,0,0,0,0,0,1]","location_rts":"[1259,343,375,78,544,441,327,596,571,325,654,256,387,391,304,300,376,391,222,213,279,225,386,287,324,414,245,308,270,255,384,268,892]","trial_type":"two-door-navigation","trial_index":50,"time_elapsed":1238562,"internal_node_id":"0.0-2.0-48.0"},{"group":"square cycles (cube, non-group)","room_assignment":["purple","brown","pink","yellow","red","grey","blue","green"],"door_color_assignment":["white","black"],"door_generator_assignment":[1,0],"goal":2,"start":0,"action_noise":0.1,"location_history":"[0,1,2]","action_history":"[0,0]","door_history":"[1,1]","location_rts":"[4810,666]","trial_type":"two-door-navigation","trial_index":51,"time_elapsed":1249561,"internal_node_id":"0.0-2.0-49.0"},{"view_history":"[{\"page_index\":0,\"viewing_time\":51822}]","rt":51823,"trial_type":"instructions","trial_index":52,"time_elapsed":1302386,"internal_node_id":"0.0-3.0"},{"view_history":"[{\"page_index\":0,\"viewing_time\":5082},{\"page_index\":1,\"viewing_time\":22193}]","rt":27276,"trial_type":"instructions","trial_index":53,"time_elapsed":1330663,"internal_node_id":"0.0-4.0"},{"group":"tri cycles (cube, non-group)","fractal_assignment":["../images/ylw_slt.png","../images/blu_wht.png","../images/gry_blk.png","../images/org_blu.png","../images/pnk_blu.png","../images/grn_red.png","../images/ylw_pnk.png","../images/cyn_red.png"],"mutagen_generator_assignment":[0,1],"goal":3,"start":0,"action_noise":0.1,"location_history":"[0,2,6,5,2,6,4,0,3]","action_history":"[0,1,1,1,1,1,1,1]","mutagen_history":"[0,1,1,1,1,1,1,1]","location_rts":"[6465,4506,4058,1727,715,136,986,655]","trial_type":"fractal-mutation","trial_index":54,"time_elapsed":1361896,"internal_node_id":"0.0-5.0-0.0"},{"group":"tri cycles (cube, non-group)","fractal_assignment":["../images/ylw_slt.png","../images/blu_wht.png","../images/gry_blk.png","../images/org_blu.png","../images/pnk_blu.png","../images/grn_red.png","../images/ylw_pnk.png","../images/cyn_red.png"],"mutagen_generator_assignment":[0,1],"goal":1,"start":3,"action_noise":0.1,"location_history":"[3,4,0,3,4,7,3,7,3,7,6,4,7,6,4,7,3,7,6,4,0,3,4,0,3,4,0,3,4,7,6,5,2,1]","action_history":"[1,1,1,1,0,0,0,0,0,0,0,0,0,0,0,1,0,0,0,1,0,1,1,1,1,1,1,1,0,0,1,1,0]","mutagen_history":"[1,1,1,1,0,0,0,0,0,0,0,0,0,0,0,1,0,0,0,1,0,1,1,1,1,1,1,1,0,0,1,1,0]","location_rts":"[2648,1434,736,796,1170,487,1215,1305,664,1023,871,672,955,843,892,729,957,352,641,788,948,901,634,493,591,1437,710,659,606,619,328,908,835]","trial_type":"fractal-mutation","trial_index":55,"time_elapsed":1428809,"internal_node_id":"0.0-5.0-1.0"},{"group":"tri cycles (cube, non-group)","fractal_assignment":["../images/ylw_slt.png","../images/blu_wht.png","../images/gry_blk.png","../images/org_blu.png","../images/pnk_blu.png","../images/grn_red.png","../images/ylw_pnk.png","../images/cyn_red.png"],"mutagen_generator_assignment":[0,1],"goal":2,"start":1,"action_noise":0.1,"location_history":"[1,0,2]","action_history":"[0,0]","mutagen_history":"[0,0]","location_rts":"[2470,494]","trial_type":"fractal-mutation","trial_index":56,"time_elapsed":1437347,"internal_node_id":"0.0-5.0-2.0"},{"group":"tri cycles (cube, non-group)","fractal_assignment":["../images/ylw_slt.png","../images/blu_wht.png","../images/gry_blk.png","../images/org_blu.png","../images/pnk_blu.png","../images/grn_red.png","../images/ylw_pnk.png","../images/cyn_red.png"],"mutagen_generator_assignment":[0,1],"goal":6,"start":2,"action_noise":0.1,"location_history":"[2,6]","action_history":"[1]","mutagen_history":"[1]","location_rts":"[2882]","trial_type":"fractal-mutation","trial_index":57,"time_elapsed":1444779,"internal_node_id":"0.0-5.0-3.0"},{"group":"tri cycles (cube, non-group)","fractal_assignment":["../images/ylw_slt.png","../images/blu_wht.png","../images/gry_blk.png","../images/org_blu.png","../images/pnk_blu.png","../images/grn_red.png","../images/ylw_pnk.png","../images/cyn_red.png"],"mutagen_generator_assignment":[0,1],"goal":5,"start":6,"action_noise":0.1,"location_history":"[6,5]","action_history":"[1]","mutagen_history":"[1]","location_rts":"[2001]","trial_type":"fractal-mutation","trial_index":58,"time_elapsed":1451326,"internal_node_id":"0.0-5.0-4.0"},{"group":"tri cycles (cube, non-group)","fractal_assignment":["../images/ylw_slt.png","../images/blu_wht.png","../images/gry_blk.png","../images/org_blu.png","../images/pnk_blu.png","../images/grn_red.png","../images/ylw_pnk.png","../images/cyn_red.png"],"mutagen_generator_assignment":[0,1],"goal":4,"start":5,"action_noise":0.1,"location_history":"[5,1,0,2,1,5,1,0,3,7,3,7,6,4]","action_history":"[0,0,0,0,0,0,0,0,0,1,0,0,0]","mutagen_history":"[0,0,0,0,0,0,0,0,0,1,0,0,0]","location_rts":"[1151,637,493,410,417,765,597,656,452,669,336,325,645]","trial_type":"fractal-mutation","trial_index":59,"time_elapsed":1475870,"internal_node_id":"0.0-5.0-5.0"},{"group":"tri cycles (cube, non-group)","fractal_assignment":["../images/ylw_slt.png","../images/blu_wht.png","../images/gry_blk.png","../images/org_blu.png","../images/pnk_blu.png","../images/grn_red.png","../images/ylw_pnk.png","../images/cyn_red.png"],"mutagen_generator_assignment":[0,1],"goal":7,"start":4,"action_noise":0.1,"location_history":"[4,0,3,4,0,3,4,0,2,1,0,2,1,0,2,1,0,3,7]","action_history":"[1,1,1,1,1,1,0,0,0,0,0,0,0,0,0,1,1,0]","mutagen_history":"[1,1,1,1,1,1,0,0,0,0,0,0,0,0,0,1,1,0]","location_rts":"[3523,423,533,500,410,793,791,527,393,359,384,449,579,391,397,411,471,353]","trial_type":"fractal-mutation","trial_index":60,"time_elapsed":1509861,"internal_node_id":"0.0-5.0-6.0"},{"group":"tri cycles (cube, non-group)","fractal_assignment":["../images/ylw_slt.png","../images/blu_wht.png","../images/gry_blk.png","../images/org_blu.png","../images/pnk_blu.png","../images/grn_red.png","../images/ylw_pnk.png","../images/cyn_red.png"],"mutagen_generator_assignment":[0,1],"goal":4,"start":7,"action_noise":0.1,"location_history":"[7,6,4]","action_history":"[0,0]","mutagen_history":"[0,0]","location_rts":"[3903,677]","trial_type":"fractal-mutation","trial_index":61,"time_elapsed":1520027,"internal_node_id":"0.0-5.0-7.0"},{"group":"tri cycles (cube, non-group)","fractal_assignment":["../images/ylw_slt.png","../images/blu_wht.png","../images/gry_blk.png","../images/org_blu.png","../images/pnk_blu.png","../images/grn_red.png","../images/ylw_pnk.png","../images/cyn_red.png"],"mutagen_generator_assignment":[0,1],"goal":6,"start":4,"action_noise":0.1,"location_history":"[4,7,6]","action_history":"[0,0]","mutagen_history":"[0,0]","location_rts":"[5596,515]","trial_type":"fractal-mutation","trial_index":62,"time_elapsed":1531724,"internal_node_id":"0.0-5.0-8.0"},{"group":"tri cycles (cube, non-group)","fractal_assignment":["../images/ylw_slt.png","../images/blu_wht.png","../images/gry_blk.png","../images/org_blu.png","../images/pnk_blu.png","../images/grn_red.png","../images/ylw_pnk.png","../images/cyn_red.png"],"mutagen_generator_assignment":[0,1],"goal":0,"start":6,"action_noise":0.1,"location_history":"[6,4,0]","action_history":"[0,1]","mutagen_history":"[0,1]","location_rts":"[1748,398]","trial_type":"fractal-mutation","trial_index":63,"time_elapsed":1539474,"internal_node_id":"0.0-5.0-9.0"},{"group":"tri cycles (cube, non-group)","fractal_assignment":["../images/ylw_slt.png","../images/blu_wht.png","../images/gry_blk.png","../images/org_blu.png","../images/pnk_blu.png","../images/grn_red.png","../images/ylw_pnk.png","../images/cyn_red.png"],"mutagen_generator_assignment":[0,1],"goal":1,"start":0,"action_noise":0.1,"location_history":"[0,3,4,0,3,4,0,3,4,0,3,7,6,5,2,1]","action_history":"[1,1,1,1,1,1,1,1,1,1,0,0,0,1,0]","mutagen_history":"[1,1,1,1,1,1,1,1,1,1,0,0,0,1,0]","location_rts":"[1977,415,1162,452,358,428,393,311,300,284,283,1934,655,439,1171]","trial_type":"fractal-mutation","trial_index":64,"time_elapsed":1569249,"internal_node_id":"0.0-5.0-10.0"},{"group":"tri cycles (cube, non-group)","fractal_assignment":["../images/ylw_slt.png","../images/blu_wht.png","../images/gry_blk.png","../images/org_blu.png","../images/pnk_blu.png","../images/grn_red.png","../images/ylw_pnk.png","../images/cyn_red.png"],"mutagen_generator_assignment":[0,1],"goal":3,"start":1,"action_noise":0.1,"location_history":"[1,0,2,1,0,2,1,5,1,0,2,1,0,2,6,4,0,2,1,5,2,6,4,7,6,4,0,3]","action_history":"[0,0,0,0,0,0,0,0,0,0,0,0,0,0,0,0,0,0,1,1,1,0,0,0,0,1,1]","mutagen_history":"[0,0,0,0,0,0,0,0,0,0,0,0,0,0,0,0,0,0,1,1,1,0,0,0,0,1,1]","location_rts":"[1536,397,390,330,385,332,424,422,323,287,285,289,309,281,311,473,378,431,353,413,437,544,431,613,558,410,412]","trial_type":"fractal-mutation","trial_index":65,"time_elapsed":1612536,"internal_node_id":"0.0-5.0-11.0"},{"group":"tri cycles (cube, non-group)","fractal_assignment":["../images/ylw_slt.png","../images/blu_wht.png","../images/gry_blk.png","../images/org_blu.png","../images/pnk_blu.png","../images/grn_red.png","../images/ylw_pnk.png","../images/cyn_red.png"],"mutagen_generator_assignment":[0,1],"goal":7,"start":3,"action_noise":0.1,"location_history":"[3,4,0,3,4,0,3,7]","action_history":"[1,1,1,1,1,1,0]","mutagen_history":"[1,1,1,1,1,1,0]","location_rts":"[2032,733,481,521,460,404,279]","trial_type":"fractal-mutation","trial_index":66,"time_elapsed":1628284,"internal_node_id":"0.0-5.0-12.0"},{"group":"tri cycles (cube, non-group)","fractal_assignment":["../images/ylw_slt.png","../images/blu_wht.png","../images/gry_blk.png","../images/org_blu.png","../images/pnk_blu.png","../images/grn_red.png","../images/ylw_pnk.png","../images/cyn_red.png"],"mutagen_generator_assignment":[0,1],"goal":5,"start":7,"action_noise":0.1,"location_history":"[7,3,4,0,3,7,6,4,7,6,4,7,3,7,3,4,0,3,4,0,2,1,0,2,6,4,7,6,4,7,6,4,7,6,5]","action_history":"[1,1,1,1,0,0,0,0,0,0,0,0,0,1,1,1,1,1,1,0,0,0,0,1,0,0,0,0,0,0,0,0,0,1]","mutagen_history":"[1,1,1,1,0,0,0,0,0,0,0,0,0,1,1,1,1,1,1,0,0,0,0,1,0,0,0,0,0,0,0,0,0,1]","location_rts":"[1451,401,333,406,382,353,418,417,578,463,404,622,580,724,459,436,417,364,423,394,638,370,507,371,331,415,322,550,321,1083,736,451,571,344]","trial_type":"fractal-mutation","trial_index":67,"time_elapsed":1684242,"internal_node_id":"0.0-5.0-13.0"},{"group":"tri cycles (cube, non-group)","fractal_assignment":["../images/ylw_slt.png","../images/blu_wht.png","../images/gry_blk.png","../images/org_blu.png","../images/pnk_blu.png","../images/grn_red.png","../images/ylw_pnk.png","../images/cyn_red.png"],"mutagen_generator_assignment":[0,1],"goal":2,"start":5,"action_noise":0.1,"location_history":"[5,2]","action_history":"[1]","mutagen_history":"[1]","location_rts":"[1668]","trial_type":"fractal-mutation","trial_index":68,"time_elapsed":1690471,"internal_node_id":"0.0-5.0-14.0"},{"group":"tri cycles (cube, non-group)","fractal_assignment":["../images/ylw_slt.png","../images/blu_wht.png","../images/gry_blk.png","../images/org_blu.png","../images/pnk_blu.png","../images/grn_red.png","../images/ylw_pnk.png","../images/cyn_red.png"],"mutagen_generator_assignment":[0,1],"goal":7,"start":2,"action_noise":0.1,"location_history":"[2,6,4,0,2,6,4,0,2,1,0,3,7]","action_history":"[1,0,1,0,0,0,1,0,0,0,1,0]","mutagen_history":"[1,0,1,0,0,0,1,0,0,0,1,0]","location_rts":"[2478,1277,496,7886,994,637,388,353,345,368,390,434]","trial_type":"fractal-mutation","trial_index":69,"time_elapsed":1722487,"internal_node_id":"0.0-5.0-15.0"},{"group":"tri cycles (cube, non-group)","fractal_assignment":["../images/ylw_slt.png","../images/blu_wht.png","../images/gry_blk.png","../images/org_blu.png","../images/pnk_blu.png","../images/grn_red.png","../images/ylw_pnk.png","../images/cyn_red.png"],"mutagen_generator_assignment":[0,1],"goal":4,"start":7,"action_noise":0.1,"location_history":"[7,6,4]","action_history":"[0,0]","mutagen_history":"[0,0]","location_rts":"[2169,800]","trial_type":"fractal-mutation","trial_index":70,"time_elapsed":1731033,"internal_node_id":"0.0-5.0-16.0"},{"group":"tri cycles (cube, non-group)","fractal_assignment":["../images/ylw_slt.png","../images/blu_wht.png","../images/gry_blk.png","../images/org_blu.png","../images/pnk_blu.png","../images/grn_red.png","../images/ylw_pnk.png","../images/cyn_red.png"],"mutagen_generator_assignment":[0,1],"goal":2,"start":4,"action_noise":0.1,"location_history":"[4,7,3,4,0,3,4,0,3,7,6,4,7,6,4,7,6,4,7,3,4,0,3,4,0,3,4,0,3,7,3,4,7,6,5,2]","action_history":"[1,1,0,1,1,1,1,1,0,0,0,0,0,0,0,0,0,0,1,1,1,1,1,1,1,1,1,1,1,1,1,0,0,0,1]","mutagen_history":"[1,1,0,1,1,1,1,1,0,0,0,0,0,0,0,0,0,0,1,1,1,1,1,1,1,1,1,1,1,1,1,0,0,0,1]","location_rts":"[1406,430,278,387,315,1070,432,398,397,253,344,312,238,273,350,289,332,269,781,508,433,418,387,484,400,360,417,391,294,473,351,268,384,493,322]","trial_type":"fractal-mutation","trial_index":71,"time_elapsed":1786012,"internal_node_id":"0.0-5.0-17.0"},{"group":"tri cycles (cube, non-group)","fractal_assignment":["../images/ylw_slt.png","../images/blu_wht.png","../images/gry_blk.png","../images/org_blu.png","../images/pnk_blu.png","../images/grn_red.png","../images/ylw_pnk.png","../images/cyn_red.png"],"mutagen_generator_assignment":[0,1],"goal":3,"start":2,"action_noise":0.1,"location_history":"[2,1,0,3]","action_history":"[0,0,1]","mutagen_history":"[0,0,1]","location_rts":"[1234,1667,686]","trial_type":"fractal-mutation","trial_index":72,"time_elapsed":1796215,"internal_node_id":"0.0-5.0-18.0"},{"group":"tri cycles (cube, non-group)","fractal_assignment":["../images/ylw_slt.png","../images/blu_wht.png","../images/gry_blk.png","../images/org_blu.png","../images/pnk_blu.png","../images/grn_red.png","../images/ylw_pnk.png","../images/cyn_red.png"],"mutagen_generator_assignment":[0,1],"goal":6,"start":3,"action_noise":0.1,"location_history":"[3,7,6]","action_history":"[0,0]","mutagen_history":"[0,0]","location_rts":"[1406,412]","trial_type":"fractal-mutation","trial_index":73,"time_elapsed":1803611,"internal_node_id":"0.0-5.0-19.0"},{"group":"tri cycles (cube, non-group)","fractal_assignment":["../images/ylw_slt.png","../images/blu_wht.png","../images/gry_blk.png","../images/org_blu.png","../images/pnk_blu.png","../images/grn_red.png","../images/ylw_pnk.png","../images/cyn_red.png"],"mutagen_generator_assignment":[0,1],"goal":5,"start":6,"action_noise":0.1,"location_history":"[6,5]","action_history":"[1]","mutagen_history":"[1]","location_rts":"[1442]","trial_type":"fractal-mutation","trial_index":74,"time_elapsed":1809600,"internal_node_id":"0.0-5.0-20.0"},{"group":"tri cycles (cube, non-group)","fractal_assignment":["../images/ylw_slt.png","../images/blu_wht.png","../images/gry_blk.png","../images/org_blu.png","../images/pnk_blu.png","../images/grn_red.png","../images/ylw_pnk.png","../images/cyn_red.png"],"mutagen_generator_assignment":[0,1],"goal":1,"start":5,"action_noise":0.1,"location_history":"[5,1]","action_history":"[0]","mutagen_history":"[0]","location_rts":"[1566]","trial_type":"fractal-mutation","trial_index":75,"time_elapsed":1815714,"internal_node_id":"0.0-5.0-21.0"},{"group":"tri cycles (cube, non-group)","fractal_assignment":["../images/ylw_slt.png","../images/blu_wht.png","../images/gry_blk.png","../images/org_blu.png","../images/pnk_blu.png","../images/grn_red.png","../images/ylw_pnk.png","../images/cyn_red.png"],"mutagen_generator_assignment":[0,1],"goal":0,"start":1,"action_noise":0.1,"location_history":"[1,5,2,6,5,2,1,5,2,1,0]","action_history":"[1,1,1,1,1,1,1,1,0,0]","mutagen_history":"[1,1,1,1,1,1,1,1,0,0]","location_rts":"[1329,450,516,415,391,397,449,586,299,366]","trial_type":"fractal-mutation","trial_index":76,"time_elapsed":1834895,"internal_node_id":"0.0-5.0-22.0"},{"group":"tri cycles (cube, non-group)","fractal_assignment":["../images/ylw_slt.png","../images/blu_wht.png","../images/gry_blk.png","../images/org_blu.png","../images/pnk_blu.png","../images/grn_red.png","../images/ylw_pnk.png","../images/cyn_red.png"],"mutagen_generator_assignment":[0,1],"goal":2,"start":0,"action_noise":0.1,"location_history":"[0,2]","action_history":"[0]","mutagen_history":"[0]","location_rts":"[2161]","trial_type":"fractal-mutation","trial_index":77,"time_elapsed":1841598,"internal_node_id":"0.0-5.0-23.0"},{"group":"tri cycles (cube, non-group)","fractal_assignment":["../images/ylw_slt.png","../images/blu_wht.png","../images/gry_blk.png","../images/org_blu.png","../images/pnk_blu.png","../images/grn_red.png","../images/ylw_pnk.png","../images/cyn_red.png"],"mutagen_generator_assignment":[0,1],"goal":6,"start":2,"action_noise":0.1,"location_history":"[2,6]","action_history":"[1]","mutagen_history":"[1]","location_rts":"[2002]","trial_type":"fractal-mutation","trial_index":78,"time_elapsed":1848174,"internal_node_id":"0.0-5.0-24.0"},{"group":"tri cycles (cube, non-group)","fractal_assignment":["../images/ylw_slt.png","../images/blu_wht.png","../images/gry_blk.png","../images/org_blu.png","../images/pnk_blu.png","../images/grn_red.png","../images/ylw_pnk.png","../images/cyn_red.png"],"mutagen_generator_assignment":[0,1],"goal":1,"start":6,"action_noise":0.1,"location_history":"[6,5,2,6,4,7,3,4,0,3,4,0,3,7,3,4,0,2,6,4,7,6,4,7,3,7,6,4,7,6,5,1]","action_history":"[1,1,1,0,0,0,1,0,1,1,1,1,0,1,1,1,0,1,0,0,0,0,0,0,0,0,0,0,0,1,0]","mutagen_history":"[1,1,1,0,0,0,1,0,1,1,1,1,0,1,1,1,0,1,0,0,0,0,0,0,0,0,0,0,0,1,0]","location_rts":"[1168,464,392,321,586,561,387,431,316,298,434,488,314,332,321,137,689,457,307,503,404,618,370,2736,16867,1155,489,276,647,443,672]","trial_type":"fractal-mutation","trial_index":79,"time_elapsed":1917512,"internal_node_id":"0.0-5.0-25.0"},{"group":"tri cycles (cube, non-group)","fractal_assignment":["../images/ylw_slt.png","../images/blu_wht.png","../images/gry_blk.png","../images/org_blu.png","../images/pnk_blu.png","../images/grn_red.png","../images/ylw_pnk.png","../images/cyn_red.png"],"mutagen_generator_assignment":[0,1],"goal":3,"start":1,"action_noise":0.1,"location_history":"[1,5,2,6,4,7,6,4,7,6,5,1,0,2,1,5,2,1,0,3]","action_history":"[1,1,1,0,0,0,0,0,0,1,0,0,0,0,0,1,0,1,1]","mutagen_history":"[1,1,1,0,0,0,0,0,0,1,0,0,0,0,0,1,0,1,1]","location_rts":"[1162,484,585,437,426,393,471,428,440,559,260,433,504,416,1183,366,405,313,289]","trial_type":"fractal-mutation","trial_index":80,"time_elapsed":1950314,"internal_node_id":"0.0-5.0-26.0"},{"group":"tri cycles (cube, non-group)","fractal_assignment":["../images/ylw_slt.png","../images/blu_wht.png","../images/gry_blk.png","../images/org_blu.png","../images/pnk_blu.png","../images/grn_red.png","../images/ylw_pnk.png","../images/cyn_red.png"],"mutagen_generator_assignment":[0,1],"goal":7,"start":3,"action_noise":0.1,"location_history":"[3,4,7]","action_history":"[1,0]","mutagen_history":"[1,0]","location_rts":"[9448,367]","trial_type":"fractal-mutation","trial_index":81,"time_elapsed":1965720,"internal_node_id":"0.0-5.0-27.0"},{"group":"tri cycles (cube, non-group)","fractal_assignment":["../images/ylw_slt.png","../images/blu_wht.png","../images/gry_blk.png","../images/org_blu.png","../images/pnk_blu.png","../images/grn_red.png","../images/ylw_pnk.png","../images/cyn_red.png"],"mutagen_generator_assignment":[0,1],"goal":4,"start":7,"action_noise":0.1,"location_history":"[7,3,4]","action_history":"[1,1]","mutagen_history":"[1,1]","location_rts":"[1320,548]","trial_type":"fractal-mutation","trial_index":82,"time_elapsed":1973194,"internal_node_id":"0.0-5.0-28.0"},{"group":"tri cycles (cube, non-group)","fractal_assignment":["../images/ylw_slt.png","../images/blu_wht.png","../images/gry_blk.png","../images/org_blu.png","../images/pnk_blu.png","../images/grn_red.png","../images/ylw_pnk.png","../images/cyn_red.png"],"mutagen_generator_assignment":[0,1],"goal":0,"start":4,"action_noise":0.1,"location_history":"[4,0]","action_history":"[1]","mutagen_history":"[1]","location_rts":"[1938]","trial_type":"fractal-mutation","trial_index":83,"time_elapsed":1979708,"internal_node_id":"0.0-5.0-29.0"},{"group":"tri cycles (cube, non-group)","fractal_assignment":["../images/ylw_slt.png","../images/blu_wht.png","../images/gry_blk.png","../images/org_blu.png","../images/pnk_blu.png","../images/grn_red.png","../images/ylw_pnk.png","../images/cyn_red.png"],"mutagen_generator_assignment":[0,1],"goal":5,"start":0,"action_noise":0.1,"location_history":"[0,2,1,0,2,1,5]","action_history":"[0,0,0,0,0,1]","mutagen_history":"[0,0,0,0,0,1]","location_rts":"[1610,489,393,507,380,513]","trial_type":"fractal-mutation","trial_index":84,"time_elapsed":1993327,"internal_node_id":"0.0-5.0-30.0"},{"group":"tri cycles (cube, non-group)","fractal_assignment":["../images/ylw_slt.png","../images/blu_wht.png","../images/gry_blk.png","../images/org_blu.png","../images/pnk_blu.png","../images/grn_red.png","../images/ylw_pnk.png","../images/cyn_red.png"],"mutagen_generator_assignment":[0,1],"goal":3,"start":5,"action_noise":0.1,"location_history":"[5,2,1,5,2,6,5,2,1,0,2,1,0,3]","action_history":"[1,0,1,1,1,1,1,0,0,1,0,0,1]","mutagen_history":"[1,0,1,1,1,1,1,0,0,1,0,0,1]","location_rts":"[2529,391,385,297,329,473,423,498,480,418,404,317,489]","trial_type":"fractal-mutation","trial_index":85,"time_elapsed":2017869,"internal_node_id":"0.0-5.0-31.0"},{"group":"tri cycles (cube, non-group)","fractal_assignment":["../images/ylw_slt.png","../images/blu_wht.png","../images/gry_blk.png","../images/org_blu.png","../images/pnk_blu.png","../images/grn_red.png","../images/ylw_pnk.png","../images/cyn_red.png"],"mutagen_generator_assignment":[0,1],"goal":2,"start":3,"action_noise":0.1,"location_history":"[3,4,0,2]","action_history":"[1,1,0]","mutagen_history":"[1,1,0]","location_rts":"[1740,656,618]","trial_type":"fractal-mutation","trial_index":86,"time_elapsed":2027510,"internal_node_id":"0.0-5.0-32.0"},{"group":"tri cycles (cube, non-group)","fractal_assignment":["../images/ylw_slt.png","../images/blu_wht.png","../images/gry_blk.png","../images/org_blu.png","../images/pnk_blu.png","../images/grn_red.png","../images/ylw_pnk.png","../images/cyn_red.png"],"mutagen_generator_assignment":[0,1],"goal":6,"start":2,"action_noise":0.1,"location_history":"[2,6]","action_history":"[1]","mutagen_history":"[1]","location_rts":"[1905]","trial_type":"fractal-mutation","trial_index":87,"time_elapsed":2033965,"internal_node_id":"0.0-5.0-33.0"},{"group":"tri cycles (cube, non-group)","fractal_assignment":["../images/ylw_slt.png","../images/blu_wht.png","../images/gry_blk.png","../images/org_blu.png","../images/pnk_blu.png","../images/grn_red.png","../images/ylw_pnk.png","../images/cyn_red.png"],"mutagen_generator_assignment":[0,1],"goal":1,"start":6,"action_noise":0.1,"location_history":"[6,5,1]","action_history":"[0,0]","mutagen_history":"[0,0]","location_rts":"[1906,1041]","trial_type":"fractal-mutation","trial_index":88,"time_elapsed":2042491,"internal_node_id":"0.0-5.0-34.0"},{"group":"tri cycles (cube, non-group)","fractal_assignment":["../images/ylw_slt.png","../images/blu_wht.png","../images/gry_blk.png","../images/org_blu.png","../images/pnk_blu.png","../images/grn_red.png","../images/ylw_pnk.png","../images/cyn_red.png"],"mutagen_generator_assignment":[0,1],"goal":7,"start":1,"action_noise":0.1,"location_history":"[1,5,2,6,4,7]","action_history":"[1,1,1,0,0]","mutagen_history":"[1,1,1,0,0]","location_rts":"[1202,895,1158,484,481]","trial_type":"fractal-mutation","trial_index":89,"time_elapsed":2055490,"internal_node_id":"0.0-5.0-35.0"},{"group":"tri cycles (cube, non-group)","fractal_assignment":["../images/ylw_slt.png","../images/blu_wht.png","../images/gry_blk.png","../images/org_blu.png","../images/pnk_blu.png","../images/grn_red.png","../images/ylw_pnk.png","../images/cyn_red.png"],"mutagen_generator_assignment":[0,1],"goal":4,"start":7,"action_noise":0.1,"location_history":"[7,3,4]","action_history":"[1,1]","mutagen_history":"[1,1]","location_rts":"[1178,627]","trial_type":"fractal-mutation","trial_index":90,"time_elapsed":2062930,"internal_node_id":"0.0-5.0-36.0"},{"group":"tri cycles (cube, non-group)","fractal_assignment":["../images/ylw_slt.png","../images/blu_wht.png","../images/gry_blk.png","../images/org_blu.png","../images/pnk_blu.png","../images/grn_red.png","../images/ylw_pnk.png","../images/cyn_red.png"],"mutagen_generator_assignment":[0,1],"goal":5,"start":4,"action_noise":0.1,"location_history":"[4,0,3,4,0,2,6,5]","action_history":"[1,1,1,1,0,1,1]","mutagen_history":"[1,1,1,1,0,1,1]","location_rts":"[2288,628,574,590,287,404,441]","trial_type":"fractal-mutation","trial_index":91,"time_elapsed":2079022,"internal_node_id":"0.0-5.0-37.0"},{"group":"tri cycles (cube, non-group)","fractal_assignment":["../images/ylw_slt.png","../images/blu_wht.png","../images/gry_blk.png","../images/org_blu.png","../images/pnk_blu.png","../images/grn_red.png","../images/ylw_pnk.png","../images/cyn_red.png"],"mutagen_generator_assignment":[0,1],"goal":0,"start":5,"action_noise":0.1,"location_history":"[5,2,6,5,1,0]","action_history":"[1,1,1,1,0]","mutagen_history":"[1,1,1,1,0]","location_rts":"[3631,608,395,504,287]","trial_type":"fractal-mutation","trial_index":92,"time_elapsed":2093195,"internal_node_id":"0.0-5.0-38.0"},{"group":"tri cycles (cube, non-group)","fractal_assignment":["../images/ylw_slt.png","../images/blu_wht.png","../images/gry_blk.png","../images/org_blu.png","../images/pnk_blu.png","../images/grn_red.png","../images/ylw_pnk.png","../images/cyn_red.png"],"mutagen_generator_assignment":[0,1],"goal":4,"start":0,"action_noise":0.1,"location_history":"[0,3,4]","action_history":"[1,1]","mutagen_history":"[1,1]","location_rts":"[1122,543]","trial_type":"fractal-mutation","trial_index":93,"time_elapsed":2100461,"internal_node_id":"0.0-5.0-39.0"},{"group":"tri cycles (cube, non-group)","fractal_assignment":["../images/ylw_slt.png","../images/blu_wht.png","../images/gry_blk.png","../images/org_blu.png","../images/pnk_blu.png","../images/grn_red.png","../images/ylw_pnk.png","../images/cyn_red.png"],"mutagen_generator_assignment":[0,1],"goal":0,"start":4,"action_noise":0.1,"location_history":"[4,7,6,5,2,6,5,2,1,0]","action_history":"[0,1,1,1,1,1,1,0,0]","mutagen_history":"[0,1,1,1,1,1,1,0,0]","location_rts":"[1456,452,310,423,379,1379,432,327,351]","trial_type":"fractal-mutation","trial_index":94,"time_elapsed":2118891,"internal_node_id":"0.0-5.0-40.0"},{"group":"tri cycles (cube, non-group)","fractal_assignment":["../images/ylw_slt.png","../images/blu_wht.png","../images/gry_blk.png","../images/org_blu.png","../images/pnk_blu.png","../images/grn_red.png","../images/ylw_pnk.png","../images/cyn_red.png"],"mutagen_generator_assignment":[0,1],"goal":2,"start":0,"action_noise":0.1,"location_history":"[0,2]","action_history":"[1]","mutagen_history":"[1]","location_rts":"[1493]","trial_type":"fractal-mutation","trial_index":95,"time_elapsed":2124936,"internal_node_id":"0.0-5.0-41.0"},{"group":"tri cycles (cube, non-group)","fractal_assignment":["../images/ylw_slt.png","../images/blu_wht.png","../images/gry_blk.png","../images/org_blu.png","../images/pnk_blu.png","../images/grn_red.png","../images/ylw_pnk.png","../images/cyn_red.png"],"mutagen_generator_assignment":[0,1],"goal":3,"start":2,"action_noise":0.1,"location_history":"[2,1,5,2,6,5,1,0,2,6,5,2,6,5,1,5,1,0,3]","action_history":"[0,1,1,1,1,0,0,0,1,1,1,1,0,0,0,0,0,1]","mutagen_history":"[0,1,1,1,1,0,0,0,1,1,1,1,0,0,0,0,0,1]","location_rts":"[1067,467,302,379,444,445,448,363,286,318,331,434,197,459,407,487,406,371]","trial_type":"fractal-mutation","trial_index":96,"time_elapsed":2154785,"internal_node_id":"0.0-5.0-42.0"},{"group":"tri cycles (cube, non-group)","fractal_assignment":["../images/ylw_slt.png","../images/blu_wht.png","../images/gry_blk.png","../images/org_blu.png","../images/pnk_blu.png","../images/grn_red.png","../images/ylw_pnk.png","../images/cyn_red.png"],"mutagen_generator_assignment":[0,1],"goal":5,"start":3,"action_noise":0.1,"location_history":"[3,7,6,5]","action_history":"[0,0,1]","mutagen_history":"[0,0,1]","location_rts":"[2263,694,312]","trial_type":"fractal-mutation","trial_index":97,"time_elapsed":2164700,"internal_node_id":"0.0-5.0-43.0"},{"group":"tri cycles (cube, non-group)","fractal_assignment":["../images/ylw_slt.png","../images/blu_wht.png","../images/gry_blk.png","../images/org_blu.png","../images/pnk_blu.png","../images/grn_red.png","../images/ylw_pnk.png","../images/cyn_red.png"],"mutagen_generator_assignment":[0,1],"goal":1,"start":5,"action_noise":0.1,"location_history":"[5,2,1]","action_history":"[1,0]","mutagen_history":"[1,0]","location_rts":"[1891,715]","trial_type":"fractal-mutation","trial_index":98,"time_elapsed":2172886,"internal_node_id":"0.0-5.0-44.0"},{"group":"tri cycles (cube, non-group)","fractal_assignment":["../images/ylw_slt.png","../images/blu_wht.png","../images/gry_blk.png","../images/org_blu.png","../images/pnk_blu.png","../images/grn_red.png","../images/ylw_pnk.png","../images/cyn_red.png"],"mutagen_generator_assignment":[0,1],"goal":7,"start":1,"action_noise":0.1,"location_history":"[1,5,2,1,5,1,0,3,4,7]","action_history":"[1,1,0,0,0,0,1,1,0]","mutagen_history":"[1,1,0,0,0,0,1,1,0]","location_rts":"[2518,791,320,324,884,635,375,1137,715]","trial_type":"fractal-mutation","trial_index":99,"time_elapsed":2193463,"internal_node_id":"0.0-5.0-45.0"},{"group":"tri cycles (cube, non-group)","fractal_assignment":["../images/ylw_slt.png","../images/blu_wht.png","../images/gry_blk.png","../images/org_blu.png","../images/pnk_blu.png","../images/grn_red.png","../images/ylw_pnk.png","../images/cyn_red.png"],"mutagen_generator_assignment":[0,1],"goal":6,"start":7,"action_noise":0.1,"location_history":"[7,6]","action_history":"[0]","mutagen_history":"[0]","location_rts":"[1632]","trial_type":"fractal-mutation","trial_index":100,"time_elapsed":2199638,"internal_node_id":"0.0-5.0-46.0"},{"group":"tri cycles (cube, non-group)","fractal_assignment":["../images/ylw_slt.png","../images/blu_wht.png","../images/gry_blk.png","../images/org_blu.png","../images/pnk_blu.png","../images/grn_red.png","../images/ylw_pnk.png","../images/cyn_red.png"],"mutagen_generator_assignment":[0,1],"goal":3,"start":6,"action_noise":0.1,"location_history":"[6,4,0,3]","action_history":"[1,1,1]","mutagen_history":"[1,1,1]","location_rts":"[1567,747,464]","trial_type":"fractal-mutation","trial_index":101,"time_elapsed":2209079,"internal_node_id":"0.0-5.0-47.0"},{"group":"tri cycles (cube, non-group)","fractal_assignment":["../images/ylw_slt.png","../images/blu_wht.png","../images/gry_blk.png","../images/org_blu.png","../images/pnk_blu.png","../images/grn_red.png","../images/ylw_pnk.png","../images/cyn_red.png"],"mutagen_generator_assignment":[0,1],"goal":0,"start":3,"action_noise":0.1,"location_history":"[3,7,3,4,0]","action_history":"[0,1,1,1]","mutagen_history":"[0,1,1,1]","location_rts":"[1689,1601,449,459]","trial_type":"fractal-mutation","trial_index":102,"time_elapsed":2220967,"internal_node_id":"0.0-5.0-48.0"},{"group":"tri cycles (cube, non-group)","fractal_assignment":["../images/ylw_slt.png","../images/blu_wht.png","../images/gry_blk.png","../images/org_blu.png","../images/pnk_blu.png","../images/grn_red.png","../images/ylw_pnk.png","../images/cyn_red.png"],"mutagen_generator_assignment":[0,1],"goal":2,"start":0,"action_noise":0.1,"location_history":"[0,3,7,6,4,7,6,5,2]","action_history":"[1,0,0,0,0,0,1,1]","mutagen_history":"[1,0,0,0,0,0,1,1]","location_rts":"[2390,680,405,318,355,349,141,407]","trial_type":"fractal-mutation","trial_index":103,"time_elapsed":2237869,"internal_node_id":"0.0-5.0-49.0"},{"view_history":"[{\"page_index\":0,\"viewing_time\":7448}]","rt":7448,"trial_type":"instructions","trial_index":104,"time_elapsed":2246317,"internal_node_id":"0.0-6.0"},{"rt":4465,"responses":"{\"Q0\":\"No\"}","trial_type":"survey-text","trial_index":105,"time_elapsed":2251793,"internal_node_id":"0.0-7.0"}]