[{"view_history":"[{\"page_index\":0,\"viewing_time\":4253},{\"page_index\":1,\"viewing_time\":21526},{\"page_index\":2,\"viewing_time\":15208},{\"page_index\":3,\"viewing_time\":3288}]","rt":44275,"trial_type":"instructions","trial_index":0,"time_elapsed":44276,"internal_node_id":"0.0-0.0"},{"view_history":"[{\"page_index\":0,\"viewing_time\":1399},{\"page_index\":1,\"viewing_time\":26448}]","rt":27847,"trial_type":"instructions","trial_index":1,"time_elapsed":73123,"internal_node_id":"0.0-1.0"},{"group":"square cycles (cube, non-group)","room_assignment":["grey","green","blue","yellow","pink","brown","purple","red"],"door_color_assignment":["black","white"],"door_generator_assignment":[1,0],"goal":3,"start":0,"action_noise":0.1,"location_history":"[0,4,5,4,5,4,7,3]","action_history":"[1,1,1,1,0,0,0]","door_history":"[0,0,0,0,1,1,1]","location_rts":"[2082,1048,1567,1414,1022,652,565]","trial_type":"two-door-navigation","trial_index":2,"time_elapsed":92114,"internal_node_id":"0.0-2.0-0.0"},{"group":"square cycles (cube, non-group)","room_assignment":["grey","green","blue","yellow","pink","brown","purple","red"],"door_color_assignment":["black","white"],"door_generator_assignment":[1,0],"goal":1,"start":3,"action_noise":0.1,"location_history":"[3,2,6,5,4,5,4,7,6,5,1]","action_history":"[1,1,1,0,0,0,0,0,0,1]","door_history":"[0,0,0,1,1,1,1,1,1,0]","location_rts":"[1336,569,720,554,496,9124,383,462,327,202]","trial_type":"two-door-navigation","trial_index":3,"time_elapsed":119967,"internal_node_id":"0.0-2.0-1.0"},{"group":"square cycles (cube, non-group)","room_assignment":["grey","green","blue","yellow","pink","brown","purple","red"],"door_color_assignment":["black","white"],"door_generator_assignment":[1,0],"goal":2,"start":1,"action_noise":0.1,"location_history":"[1,0,4,5,1,2]","action_history":"[1,1,1,1,1]","door_history":"[0,0,0,0,0]","location_rts":"[579,620,321,621,648]","trial_type":"two-door-navigation","trial_index":4,"time_elapsed":131350,"internal_node_id":"0.0-2.0-2.0"},{"group":"square cycles (cube, non-group)","room_assignment":["grey","green","blue","yellow","pink","brown","purple","red"],"door_color_assignment":["black","white"],"door_generator_assignment":[1,0],"goal":6,"start":2,"action_noise":0.1,"location_history":"[2,6]","action_history":"[1]","door_history":"[0]","location_rts":"[1028]","trial_type":"two-door-navigation","trial_index":5,"time_elapsed":136895,"internal_node_id":"0.0-2.0-3.0"},{"group":"square cycles (cube, non-group)","room_assignment":["grey","green","blue","yellow","pink","brown","purple","red"],"door_color_assignment":["black","white"],"door_generator_assignment":[1,0],"goal":5,"start":6,"action_noise":0.1,"location_history":"[6,7,3,2,6,7,6,5]","action_history":"[1,1,1,1,1,1,0]","door_history":"[0,0,0,0,0,0,1]","location_rts":"[625,398,477,329,469,1089,350]","trial_type":"two-door-navigation","trial_index":6,"time_elapsed":151256,"internal_node_id":"0.0-2.0-4.0"},{"group":"square cycles (cube, non-group)","room_assignment":["grey","green","blue","yellow","pink","brown","purple","red"],"door_color_assignment":["black","white"],"door_generator_assignment":[1,0],"goal":4,"start":5,"action_noise":0.1,"location_history":"[5,4]","action_history":"[1]","door_history":"[0]","location_rts":"[345]","trial_type":"two-door-navigation","trial_index":7,"time_elapsed":156121,"internal_node_id":"0.0-2.0-5.0"},{"group":"square cycles (cube, non-group)","room_assignment":["grey","green","blue","yellow","pink","brown","purple","red"],"door_color_assignment":["black","white"],"door_generator_assignment":[1,0],"goal":7,"start":4,"action_noise":0.1,"location_history":"[4,5,1,0,4,5,4,5,4,5,1,0,4,7]","action_history":"[1,1,1,1,1,0,0,0,1,1,1,1,1]","door_history":"[0,0,0,0,0,1,1,1,0,0,0,0,0]","location_rts":"[367,338,348,397,486,383,527,357,1406,506,463,327,512]","trial_type":"two-door-navigation","trial_index":8,"time_elapsed":179268,"internal_node_id":"0.0-2.0-6.0"},{"group":"square cycles (cube, non-group)","room_assignment":["grey","green","blue","yellow","pink","brown","purple","red"],"door_color_assignment":["black","white"],"door_generator_assignment":[1,0],"goal":4,"start":7,"action_noise":0.1,"location_history":"[7,3,2,6,7,3,0,1,2,6,5,1,2,6,5,4]","action_history":"[1,1,1,1,1,0,0,0,0,1,1,0,0,0,0]","door_history":"[0,0,0,0,0,1,1,1,1,0,0,1,1,1,1]","location_rts":"[565,319,360,430,743,448,390,1494,416,399,624,358,488,631,470]","trial_type":"two-door-navigation","trial_index":9,"time_elapsed":206159,"internal_node_id":"0.0-2.0-7.0"},{"group":"square cycles (cube, non-group)","room_assignment":["grey","green","blue","yellow","pink","brown","purple","red"],"door_color_assignment":["black","white"],"door_generator_assignment":[1,0],"goal":6,"start":4,"action_noise":0.1,"location_history":"[4,7,6]","action_history":"[0,0]","door_history":"[1,1]","location_rts":"[3496,385]","trial_type":"two-door-navigation","trial_index":10,"time_elapsed":215573,"internal_node_id":"0.0-2.0-8.0"},{"group":"square cycles (cube, non-group)","room_assignment":["grey","green","blue","yellow","pink","brown","purple","red"],"door_color_assignment":["black","white"],"door_generator_assignment":[1,0],"goal":0,"start":6,"action_noise":0.1,"location_history":"[6,7,3,2,3,0]","action_history":"[1,1,1,1,0]","door_history":"[0,0,0,0,1]","location_rts":"[2074,341,370,303,887]","trial_type":"two-door-navigation","trial_index":11,"time_elapsed":228133,"internal_node_id":"0.0-2.0-9.0"},{"group":"square cycles (cube, non-group)","room_assignment":["grey","green","blue","yellow","pink","brown","purple","red"],"door_color_assignment":["black","white"],"door_generator_assignment":[1,0],"goal":1,"start":0,"action_noise":0.1,"location_history":"[0,1]","action_history":"[0]","door_history":"[1]","location_rts":"[2331]","trial_type":"two-door-navigation","trial_index":12,"time_elapsed":234983,"internal_node_id":"0.0-2.0-10.0"},{"group":"square cycles (cube, non-group)","room_assignment":["grey","green","blue","yellow","pink","brown","purple","red"],"door_color_assignment":["black","white"],"door_generator_assignment":[1,0],"goal":3,"start":1,"action_noise":0.1,"location_history":"[1,2,3]","action_history":"[0,1]","door_history":"[1,0]","location_rts":"[337,553]","trial_type":"two-door-navigation","trial_index":13,"time_elapsed":241406,"internal_node_id":"0.0-2.0-11.0"},{"group":"square cycles (cube, non-group)","room_assignment":["grey","green","blue","yellow","pink","brown","purple","red"],"door_color_assignment":["black","white"],"door_generator_assignment":[1,0],"goal":7,"start":3,"action_noise":0.1,"location_history":"[3,0,4,7]","action_history":"[0,1,1]","door_history":"[1,0,0]","location_rts":"[290,345,398]","trial_type":"two-door-navigation","trial_index":14,"time_elapsed":248994,"internal_node_id":"0.0-2.0-12.0"},{"group":"square cycles (cube, non-group)","room_assignment":["grey","green","blue","yellow","pink","brown","purple","red"],"door_color_assignment":["black","white"],"door_generator_assignment":[1,0],"goal":5,"start":7,"action_noise":0.1,"location_history":"[7,6,7,3,0,1,2,6,7,3,2,6,5]","action_history":"[0,1,1,0,0,1,1,1,1,1,1,0]","door_history":"[1,0,0,1,1,0,0,0,0,0,0,1]","location_rts":"[518,389,364,335,414,345,383,367,343,352,364,357]","trial_type":"two-door-navigation","trial_index":15,"time_elapsed":269239,"internal_node_id":"0.0-2.0-13.0"},{"group":"square cycles (cube, non-group)","room_assignment":["grey","green","blue","yellow","pink","brown","purple","red"],"door_color_assignment":["black","white"],"door_generator_assignment":[1,0],"goal":2,"start":5,"action_noise":0.1,"location_history":"[5,4,7,6,5,1,0,1,0,4,7,6,5,1,0,1,0,1,2]","action_history":"[1,1,0,0,1,1,0,0,0,0,1,1,1,1,0,0,0,0]","door_history":"[0,0,1,1,0,0,1,1,1,1,0,0,0,0,1,1,1,1]","location_rts":"[1119,795,357,295,357,293,329,272,310,376,289,349,349,1408,357,262,312,326]","trial_type":"two-door-navigation","trial_index":16,"time_elapsed":299206,"internal_node_id":"0.0-2.0-14.0"},{"group":"square cycles (cube, non-group)","room_assignment":["grey","green","blue","yellow","pink","brown","purple","red"],"door_color_assignment":["black","white"],"door_generator_assignment":[1,0],"goal":7,"start":2,"action_noise":0.1,"location_history":"[2,3,0,4,5,1,2,6,7]","action_history":"[0,0,1,1,0,0,1,1]","door_history":"[1,1,0,0,1,1,0,0]","location_rts":"[778,345,327,404,285,366,311,351]","trial_type":"two-door-navigation","trial_index":17,"time_elapsed":314014,"internal_node_id":"0.0-2.0-15.0"},{"group":"square cycles (cube, non-group)","room_assignment":["grey","green","blue","yellow","pink","brown","purple","red"],"door_color_assignment":["black","white"],"door_generator_assignment":[1,0],"goal":4,"start":7,"action_noise":0.1,"location_history":"[7,6,5,1,0,1,2,6,7,3,0,4]","action_history":"[0,0,1,1,0,0,1,1,1,0,1]","door_history":"[1,1,0,0,1,1,0,0,0,1,0]","location_rts":"[634,334,286,232,162,268,280,307,548,182,533]","trial_type":"two-door-navigation","trial_index":18,"time_elapsed":332478,"internal_node_id":"0.0-2.0-16.0"},{"group":"square cycles (cube, non-group)","room_assignment":["grey","green","blue","yellow","pink","brown","purple","red"],"door_color_assignment":["black","white"],"door_generator_assignment":[1,0],"goal":2,"start":4,"action_noise":0.1,"location_history":"[4,7,6,7,3,0,1,0,4,7,3,2]","action_history":"[0,0,1,1,0,0,1,1,0,1,1]","door_history":"[1,1,0,0,1,1,0,0,1,0,0]","location_rts":"[5251,644,445,399,490,386,387,334,272,301,280]","trial_type":"two-door-navigation","trial_index":19,"time_elapsed":356359,"internal_node_id":"0.0-2.0-17.0"},{"group":"square cycles (cube, non-group)","room_assignment":["grey","green","blue","yellow","pink","brown","purple","red"],"door_color_assignment":["black","white"],"door_generator_assignment":[1,0],"goal":3,"start":2,"action_noise":0.1,"location_history":"[2,3]","action_history":"[0]","door_history":"[1]","location_rts":"[311]","trial_type":"two-door-navigation","trial_index":20,"time_elapsed":361193,"internal_node_id":"0.0-2.0-18.0"},{"group":"square cycles (cube, non-group)","room_assignment":["grey","green","blue","yellow","pink","brown","purple","red"],"door_color_assignment":["black","white"],"door_generator_assignment":[1,0],"goal":6,"start":3,"action_noise":0.1,"location_history":"[3,0,1,0,1,0,4,5,1,2,3,0,1,2,3,0,1,0,1,2,6]","action_history":"[0,0,1,1,1,1,1,1,0,0,0,0,0,0,0,0,1,1,1,1]","door_history":"[1,1,0,0,0,0,0,0,1,1,1,1,1,1,1,1,0,0,0,0]","location_rts":"[421,1547,380,345,529,431,584,673,1029,519,559,887,392,608,350,938,272,326,401,831]","trial_type":"two-door-navigation","trial_index":21,"time_elapsed":397066,"internal_node_id":"0.0-2.0-19.0"},{"group":"square cycles (cube, non-group)","room_assignment":["grey","green","blue","yellow","pink","brown","purple","red"],"door_color_assignment":["black","white"],"door_generator_assignment":[1,0],"goal":5,"start":6,"action_noise":0.1,"location_history":"[6,7,3,2,3,2,6,7,6,7,6,5]","action_history":"[1,1,0,0,1,1,1,0,1,0,0]","door_history":"[0,0,1,1,0,0,0,1,0,1,1]","location_rts":"[460,420,575,217,184,350,237,186,273,294,365]","trial_type":"two-door-navigation","trial_index":22,"time_elapsed":415328,"internal_node_id":"0.0-2.0-20.0"},{"group":"square cycles (cube, non-group)","room_assignment":["grey","green","blue","yellow","pink","brown","purple","red"],"door_color_assignment":["black","white"],"door_generator_assignment":[1,0],"goal":1,"start":5,"action_noise":0.1,"location_history":"[5,4,7,3,2,3,0,4,5,1]","action_history":"[0,0,1,1,0,0,1,1,1]","door_history":"[1,1,0,0,1,1,0,0,0]","location_rts":"[2512,437,368,287,375,423,434,440,568]","trial_type":"two-door-navigation","trial_index":23,"time_elapsed":433826,"internal_node_id":"0.0-2.0-21.0"},{"group":"square cycles (cube, non-group)","room_assignment":["grey","green","blue","yellow","pink","brown","purple","red"],"door_color_assignment":["black","white"],"door_generator_assignment":[1,0],"goal":0,"start":1,"action_noise":0.1,"location_history":"[1,0]","action_history":"[1]","door_history":"[0]","location_rts":"[1412]","trial_type":"two-door-navigation","trial_index":24,"time_elapsed":439759,"internal_node_id":"0.0-2.0-22.0"},{"group":"square cycles (cube, non-group)","room_assignment":["grey","green","blue","yellow","pink","brown","purple","red"],"door_color_assignment":["black","white"],"door_generator_assignment":[1,0],"goal":2,"start":0,"action_noise":0.1,"location_history":"[0,4,5,4,7,3,0,4,5,4,7,6,5,4,7,3,2]","action_history":"[1,1,0,0,0,0,1,1,0,0,0,0,0,0,1,1]","door_history":"[0,0,1,1,1,1,0,0,1,1,1,1,1,1,0,0]","location_rts":"[480,466,536,290,517,400,263,285,333,312,251,254,335,312,326,256]","trial_type":"two-door-navigation","trial_index":25,"time_elapsed":465147,"internal_node_id":"0.0-2.0-23.0"},{"group":"square cycles (cube, non-group)","room_assignment":["grey","green","blue","yellow","pink","brown","purple","red"],"door_color_assignment":["black","white"],"door_generator_assignment":[1,0],"goal":6,"start":2,"action_noise":0.1,"location_history":"[2,6]","action_history":"[1]","door_history":"[0]","location_rts":"[395]","trial_type":"two-door-navigation","trial_index":26,"time_elapsed":470063,"internal_node_id":"0.0-2.0-24.0"},{"group":"square cycles (cube, non-group)","room_assignment":["grey","green","blue","yellow","pink","brown","purple","red"],"door_color_assignment":["black","white"],"door_generator_assignment":[1,0],"goal":1,"start":6,"action_noise":0.1,"location_history":"[6,7,6,5,1]","action_history":"[1,0,0,1]","door_history":"[0,1,1,0]","location_rts":"[607,1239,643,398]","trial_type":"two-door-navigation","trial_index":27,"time_elapsed":480528,"internal_node_id":"0.0-2.0-25.0"},{"group":"square cycles (cube, non-group)","room_assignment":["grey","green","blue","yellow","pink","brown","purple","red"],"door_color_assignment":["black","white"],"door_generator_assignment":[1,0],"goal":3,"start":1,"action_noise":0.1,"location_history":"[1,0,1,2,3]","action_history":"[1,1,0,0]","door_history":"[0,0,1,1]","location_rts":"[581,424,227,215]","trial_type":"two-door-navigation","trial_index":28,"time_elapsed":489540,"internal_node_id":"0.0-2.0-26.0"},{"group":"square cycles (cube, non-group)","room_assignment":["grey","green","blue","yellow","pink","brown","purple","red"],"door_color_assignment":["black","white"],"door_generator_assignment":[1,0],"goal":7,"start":3,"action_noise":0.1,"location_history":"[3,0,1,0,4,5,1,2,3,0,1,0,4,5,1,0,4,7]","action_history":"[0,0,1,1,1,1,0,0,0,0,1,1,1,1,1,1,1]","door_history":"[1,1,0,0,0,0,1,1,1,1,0,0,0,0,0,0,0]","location_rts":"[1025,567,280,1438,511,366,327,1861,414,291,247,321,350,463,553,476,1063]","trial_type":"two-door-navigation","trial_index":29,"time_elapsed":520884,"internal_node_id":"0.0-2.0-27.0"},{"group":"square cycles (cube, non-group)","room_assignment":["grey","green","blue","yellow","pink","brown","purple","red"],"door_color_assignment":["black","white"],"door_generator_assignment":[1,0],"goal":4,"start":7,"action_noise":0.1,"location_history":"[7,6,5,4]","action_history":"[0,0,0]","door_history":"[1,1,1]","location_rts":"[545,344,725]","trial_type":"two-door-navigation","trial_index":30,"time_elapsed":529062,"internal_node_id":"0.0-2.0-28.0"},{"group":"square cycles (cube, non-group)","room_assignment":["grey","green","blue","yellow","pink","brown","purple","red"],"door_color_assignment":["black","white"],"door_generator_assignment":[1,0],"goal":0,"start":4,"action_noise":0.1,"location_history":"[4,5,1,2,3,0]","action_history":"[1,1,0,0,0]","door_history":"[0,0,1,1,1]","location_rts":"[1401,389,261,310,291]","trial_type":"two-door-navigation","trial_index":31,"time_elapsed":540309,"internal_node_id":"0.0-2.0-29.0"},{"group":"square cycles (cube, non-group)","room_assignment":["grey","green","blue","yellow","pink","brown","purple","red"],"door_color_assignment":["black","white"],"door_generator_assignment":[1,0],"goal":5,"start":0,"action_noise":0.1,"location_history":"[0,1,2,6,7,3,2,6,5]","action_history":"[0,0,1,1,1,1,1,0]","door_history":"[1,1,0,0,0,0,0,1]","location_rts":"[354,343,419,224,318,344,323,228]","trial_type":"two-door-navigation","trial_index":32,"time_elapsed":554497,"internal_node_id":"0.0-2.0-30.0"},{"group":"square cycles (cube, non-group)","room_assignment":["grey","green","blue","yellow","pink","brown","purple","red"],"door_color_assignment":["black","white"],"door_generator_assignment":[1,0],"goal":3,"start":5,"action_noise":0.1,"location_history":"[5,1,0,4,7,6,5,1,0,4,5,1,2,3]","action_history":"[0,1,1,0,0,0,1,1,1,1,1,0,0]","door_history":"[1,0,0,1,1,1,0,0,0,0,0,1,1]","location_rts":"[3838,1667,770,287,384,249,383,457,489,345,478,1128,682]","trial_type":"two-door-navigation","trial_index":33,"time_elapsed":582364,"internal_node_id":"0.0-2.0-31.0"},{"group":"square cycles (cube, non-group)","room_assignment":["grey","green","blue","yellow","pink","brown","purple","red"],"door_color_assignment":["black","white"],"door_generator_assignment":[1,0],"goal":2,"start":3,"action_noise":0.1,"location_history":"[3,0,1,2]","action_history":"[0,0,0]","door_history":"[1,1,1]","location_rts":"[504,291,442]","trial_type":"two-door-navigation","trial_index":34,"time_elapsed":590155,"internal_node_id":"0.0-2.0-32.0"},{"group":"square cycles (cube, non-group)","room_assignment":["grey","green","blue","yellow","pink","brown","purple","red"],"door_color_assignment":["black","white"],"door_generator_assignment":[1,0],"goal":6,"start":2,"action_noise":0.1,"location_history":"[2,3,0,4,5,1,2,6]","action_history":"[0,0,1,1,1,0,1]","door_history":"[1,1,0,0,0,1,0]","location_rts":"[441,298,248,452,461,664,837]","trial_type":"two-door-navigation","trial_index":35,"time_elapsed":604183,"internal_node_id":"0.0-2.0-33.0"},{"group":"square cycles (cube, non-group)","room_assignment":["grey","green","blue","yellow","pink","brown","purple","red"],"door_color_assignment":["black","white"],"door_generator_assignment":[1,0],"goal":1,"start":6,"action_noise":0.1,"location_history":"[6,7,6,5,1]","action_history":"[1,0,0,1]","door_history":"[0,1,1,0]","location_rts":"[870,535,911,582]","trial_type":"two-door-navigation","trial_index":36,"time_elapsed":614666,"internal_node_id":"0.0-2.0-34.0"},{"group":"square cycles (cube, non-group)","room_assignment":["grey","green","blue","yellow","pink","brown","purple","red"],"door_color_assignment":["black","white"],"door_generator_assignment":[1,0],"goal":7,"start":1,"action_noise":0.1,"location_history":"[1,2,6,7]","action_history":"[0,1,1]","door_history":"[1,0,0]","location_rts":"[1003,585,766]","trial_type":"two-door-navigation","trial_index":37,"time_elapsed":623576,"internal_node_id":"0.0-2.0-35.0"},{"group":"square cycles (cube, non-group)","room_assignment":["grey","green","blue","yellow","pink","brown","purple","red"],"door_color_assignment":["black","white"],"door_generator_assignment":[1,0],"goal":4,"start":7,"action_noise":0.1,"location_history":"[7,6,7,6,7,6,5,1,2,6,5,1,2,6,7,6,5,1,0,1,0,4]","action_history":"[0,1,0,1,0,0,1,0,1,0,1,0,1,1,0,0,1,1,0,1,1]","door_history":"[1,0,1,0,1,1,0,1,0,1,0,1,0,0,1,1,0,0,1,0,0]","location_rts":"[2533,664,552,896,371,271,646,575,637,1339,564,583,642,577,768,558,352,403,693,551,456]","trial_type":"two-door-navigation","trial_index":38,"time_elapsed":663055,"internal_node_id":"0.0-2.0-36.0"},{"group":"square cycles (cube, non-group)","room_assignment":["grey","green","blue","yellow","pink","brown","purple","red"],"door_color_assignment":["black","white"],"door_generator_assignment":[1,0],"goal":5,"start":4,"action_noise":0.1,"location_history":"[4,5]","action_history":"[1]","door_history":"[0]","location_rts":"[1212]","trial_type":"two-door-navigation","trial_index":39,"time_elapsed":668786,"internal_node_id":"0.0-2.0-37.0"},{"group":"square cycles (cube, non-group)","room_assignment":["grey","green","blue","yellow","pink","brown","purple","red"],"door_color_assignment":["black","white"],"door_generator_assignment":[1,0],"goal":0,"start":5,"action_noise":0.1,"location_history":"[5,4,5,1,2,6,5,1,2,6,7,6,7,6,7,3,2,6,7,6,5,4,7,6,5,4,5,1,0]","action_history":"[1,1,1,0,1,0,1,0,1,1,0,0,0,1,1,1,1,1,0,0,0,0,0,0,0,1,1,1]","door_history":"[0,0,0,1,0,1,0,1,0,0,1,1,1,0,0,0,0,0,1,1,1,1,1,1,1,0,0,0]","location_rts":"[819,502,657,646,594,1254,808,775,776,929,989,420,776,845,1225,436,311,479,239,760,913,286,335,264,272,96,319,268]","trial_type":"two-door-navigation","trial_index":40,"time_elapsed":717764,"internal_node_id":"0.0-2.0-38.0"},{"group":"square cycles (cube, non-group)","room_assignment":["grey","green","blue","yellow","pink","brown","purple","red"],"door_color_assignment":["black","white"],"door_generator_assignment":[1,0],"goal":4,"start":0,"action_noise":0.1,"location_history":"[0,4]","action_history":"[1]","door_history":"[0]","location_rts":"[4063]","trial_type":"two-door-navigation","trial_index":41,"time_elapsed":726352,"internal_node_id":"0.0-2.0-39.0"},{"group":"square cycles (cube, non-group)","room_assignment":["grey","green","blue","yellow","pink","brown","purple","red"],"door_color_assignment":["black","white"],"door_generator_assignment":[1,0],"goal":0,"start":4,"action_noise":0.1,"location_history":"[4,5,1,0]","action_history":"[1,1,1]","door_history":"[0,0,0]","location_rts":"[467,368,448]","trial_type":"two-door-navigation","trial_index":42,"time_elapsed":734189,"internal_node_id":"0.0-2.0-40.0"},{"group":"square cycles (cube, non-group)","room_assignment":["grey","green","blue","yellow","pink","brown","purple","red"],"door_color_assignment":["black","white"],"door_generator_assignment":[1,0],"goal":2,"start":0,"action_noise":0.1,"location_history":"[0,4,5,1,0,4,7,6,5,4,7,3,2]","action_history":"[1,1,1,1,1,0,0,0,0,0,1,1]","door_history":"[0,0,0,0,0,1,1,1,1,1,0,0]","location_rts":"[870,358,423,449,504,54,292,1118,326,405,694,389]","trial_type":"two-door-navigation","trial_index":43,"time_elapsed":755788,"internal_node_id":"0.0-2.0-41.0"},{"group":"square cycles (cube, non-group)","room_assignment":["grey","green","blue","yellow","pink","brown","purple","red"],"door_color_assignment":["black","white"],"door_generator_assignment":[1,0],"goal":3,"start":2,"action_noise":0.1,"location_history":"[2,6,7,6,7,6,5,1,2,3]","action_history":"[1,1,1,1,0,0,0,0,0]","door_history":"[0,0,0,0,1,1,1,1,1]","location_rts":"[318,301,611,288,120,240,264,326,311]","trial_type":"two-door-navigation","trial_index":44,"time_elapsed":771228,"internal_node_id":"0.0-2.0-42.0"},{"group":"square cycles (cube, non-group)","room_assignment":["grey","green","blue","yellow","pink","brown","purple","red"],"door_color_assignment":["black","white"],"door_generator_assignment":[1,0],"goal":5,"start":3,"action_noise":0.1,"location_history":"[3,2,6,7,3,2,6,5]","action_history":"[1,1,1,1,1,0,0]","door_history":"[0,0,0,0,0,1,1]","location_rts":"[797,4184,1486,206,0,233,23]","trial_type":"two-door-navigation","trial_index":45,"time_elapsed":788779,"internal_node_id":"0.0-2.0-43.0"},{"group":"square cycles (cube, non-group)","room_assignment":["grey","green","blue","yellow","pink","brown","purple","red"],"door_color_assignment":["black","white"],"door_generator_assignment":[1,0],"goal":1,"start":5,"action_noise":0.1,"location_history":"[5,1]","action_history":"[1]","door_history":"[0]","location_rts":"[721]","trial_type":"two-door-navigation","trial_index":46,"time_elapsed":794021,"internal_node_id":"0.0-2.0-44.0"},{"group":"square cycles (cube, non-group)","room_assignment":["grey","green","blue","yellow","pink","brown","purple","red"],"door_color_assignment":["black","white"],"door_generator_assignment":[1,0],"goal":7,"start":1,"action_noise":0.1,"location_history":"[1,0,4,5,1,0,4,5,4,5,4,5,4,5,1,0,4,5,4,5,4,7]","action_history":"[1,1,1,1,1,1,1,0,0,0,1,1,1,1,1,1,1,0,0,0,0]","door_history":"[0,0,0,0,0,0,0,1,1,1,0,0,0,0,0,0,0,1,1,1,1]","location_rts":"[351,346,343,143,624,485,383,258,352,422,1517,354,374,502,500,388,359,705,2993,861,263]","trial_type":"two-door-navigation","trial_index":47,"time_elapsed":831402,"internal_node_id":"0.0-2.0-45.0"},{"group":"square cycles (cube, non-group)","room_assignment":["grey","green","blue","yellow","pink","brown","purple","red"],"door_color_assignment":["black","white"],"door_generator_assignment":[1,0],"goal":6,"start":7,"action_noise":0.1,"location_history":"[7,3,2,6]","action_history":"[1,1,1]","door_history":"[0,0,0]","location_rts":"[817,255,234]","trial_type":"two-door-navigation","trial_index":48,"time_elapsed":839256,"internal_node_id":"0.0-2.0-46.0"},{"group":"square cycles (cube, non-group)","room_assignment":["grey","green","blue","yellow","pink","brown","purple","red"],"door_color_assignment":["black","white"],"door_generator_assignment":[1,0],"goal":3,"start":6,"action_noise":0.1,"location_history":"[6,7,3]","action_history":"[1,1]","door_history":"[0,0]","location_rts":"[274,320]","trial_type":"two-door-navigation","trial_index":49,"time_elapsed":845389,"internal_node_id":"0.0-2.0-47.0"},{"group":"square cycles (cube, non-group)","room_assignment":["grey","green","blue","yellow","pink","brown","purple","red"],"door_color_assignment":["black","white"],"door_generator_assignment":[1,0],"goal":0,"start":3,"action_noise":0.1,"location_history":"[3,2,6,7,3,2,6,7,3,2,3,0]","action_history":"[1,1,1,1,1,1,1,1,1,0,0]","door_history":"[0,0,0,0,0,0,0,0,0,1,1]","location_rts":"[493,655,304,370,329,438,789,400,348,461,390]","trial_type":"two-door-navigation","trial_index":50,"time_elapsed":865057,"internal_node_id":"0.0-2.0-48.0"},{"group":"square cycles (cube, non-group)","room_assignment":["grey","green","blue","yellow","pink","brown","purple","red"],"door_color_assignment":["black","white"],"door_generator_assignment":[1,0],"goal":2,"start":0,"action_noise":0.1,"location_history":"[0,1,0,4,7,6,5,4,5,4,7,3,2]","action_history":"[1,1,1,0,0,0,0,0,0,0,1,1]","door_history":"[0,0,0,1,1,1,1,1,1,1,0,0]","location_rts":"[2338,1439,61,638,352,31,831,368,326,419,529,439]","trial_type":"two-door-navigation","trial_index":51,"time_elapsed":888538,"internal_node_id":"0.0-2.0-49.0"},{"view_history":"[{\"page_index\":0,\"viewing_time\":6177}]","rt":6177,"trial_type":"instructions","trial_index":52,"time_elapsed":895715,"internal_node_id":"0.0-3.0"},{"view_history":"[{\"page_index\":0,\"viewing_time\":3039},{\"page_index\":1,\"viewing_time\":12751}]","rt":15791,"trial_type":"instructions","trial_index":53,"time_elapsed":912507,"internal_node_id":"0.0-4.0"},{"group":"square cycles (cube, non-group)","fractal_assignment":["../images/ylw_pnk.png","../images/ylw_slt.png","../images/gry_blk.png","../images/cyn_red.png","../images/grn_red.png","../images/pnk_blu.png","../images/blu_wht.png","../images/org_blu.png"],"mutagen_generator_assignment":[1,0],"goal":3,"start":0,"action_noise":0.1,"location_history":"[0,4,5,1,2,6,5,1,2,6,5,4,7,6,5,4,5,4,5,1,0,4,5,4,7,6,7,6,7,3]","action_history":"[1,1,1,0,1,0,1,1,1,0,0,0,0,0,0,1,0,0,1,1,1,1,0,0,0,1,0,1,1]","mutagen_history":"[0,0,0,1,0,1,0,0,0,1,1,1,1,1,1,0,1,1,0,0,0,0,1,1,1,0,1,0,0]","location_rts":"[4143,1180,936,558,957,774,983,787,852,681,573,707,958,726,640,434,744,703,761,4425,609,540,2179,544,488,719,952,666,585]","trial_type":"fractal-mutation","trial_index":54,"time_elapsed":975784,"internal_node_id":"0.0-5.0-0.0"},{"group":"square cycles (cube, non-group)","fractal_assignment":["../images/ylw_pnk.png","../images/ylw_slt.png","../images/gry_blk.png","../images/cyn_red.png","../images/grn_red.png","../images/pnk_blu.png","../images/blu_wht.png","../images/org_blu.png"],"mutagen_generator_assignment":[1,0],"goal":1,"start":3,"action_noise":0.1,"location_history":"[3,0,4,5,1]","action_history":"[1,0,0,1]","mutagen_history":"[0,1,1,0]","location_rts":"[754,640,411,451]","trial_type":"fractal-mutation","trial_index":55,"time_elapsed":985692,"internal_node_id":"0.0-5.0-1.0"},{"group":"square cycles (cube, non-group)","fractal_assignment":["../images/ylw_pnk.png","../images/ylw_slt.png","../images/gry_blk.png","../images/cyn_red.png","../images/grn_red.png","../images/pnk_blu.png","../images/blu_wht.png","../images/org_blu.png"],"mutagen_generator_assignment":[1,0],"goal":2,"start":1,"action_noise":0.1,"location_history":"[1,0,4,5,4,5,1,2]","action_history":"[1,1,1,0,1,1,0]","mutagen_history":"[0,0,0,1,0,0,1]","location_rts":"[1844,374,375,375,58,210,808]","trial_type":"fractal-mutation","trial_index":56,"time_elapsed":1000469,"internal_node_id":"0.0-5.0-2.0"},{"group":"square cycles (cube, non-group)","fractal_assignment":["../images/ylw_pnk.png","../images/ylw_slt.png","../images/gry_blk.png","../images/cyn_red.png","../images/grn_red.png","../images/pnk_blu.png","../images/blu_wht.png","../images/org_blu.png"],"mutagen_generator_assignment":[1,0],"goal":6,"start":2,"action_noise":0.1,"location_history":"[2,3,0,4,7,6]","action_history":"[0,0,1,0,0]","mutagen_history":"[1,1,0,1,1]","location_rts":"[908,534,674,364,476]","trial_type":"fractal-mutation","trial_index":57,"time_elapsed":1012119,"internal_node_id":"0.0-5.0-3.0"},{"group":"square cycles (cube, non-group)","fractal_assignment":["../images/ylw_pnk.png","../images/ylw_slt.png","../images/gry_blk.png","../images/cyn_red.png","../images/grn_red.png","../images/pnk_blu.png","../images/blu_wht.png","../images/org_blu.png"],"mutagen_generator_assignment":[1,0],"goal":5,"start":6,"action_noise":0.1,"location_history":"[6,7,6,5]","action_history":"[1,1,0]","mutagen_history":"[0,0,1]","location_rts":"[378,474,572]","trial_type":"fractal-mutation","trial_index":58,"time_elapsed":1020148,"internal_node_id":"0.0-5.0-4.0"},{"group":"square cycles (cube, non-group)","fractal_assignment":["../images/ylw_pnk.png","../images/ylw_slt.png","../images/gry_blk.png","../images/cyn_red.png","../images/grn_red.png","../images/pnk_blu.png","../images/blu_wht.png","../images/org_blu.png"],"mutagen_generator_assignment":[1,0],"goal":4,"start":5,"action_noise":0.1,"location_history":"[5,1,0,4]","action_history":"[1,1,1]","mutagen_history":"[0,0,0]","location_rts":"[635,489,458]","trial_type":"fractal-mutation","trial_index":59,"time_elapsed":1028324,"internal_node_id":"0.0-5.0-5.0"},{"group":"square cycles (cube, non-group)","fractal_assignment":["../images/ylw_pnk.png","../images/ylw_slt.png","../images/gry_blk.png","../images/cyn_red.png","../images/grn_red.png","../images/pnk_blu.png","../images/blu_wht.png","../images/org_blu.png"],"mutagen_generator_assignment":[1,0],"goal":7,"start":4,"action_noise":0.1,"location_history":"[4,7]","action_history":"[0]","mutagen_history":"[1]","location_rts":"[339]","trial_type":"fractal-mutation","trial_index":60,"time_elapsed":1033200,"internal_node_id":"0.0-5.0-6.0"},{"group":"square cycles (cube, non-group)","fractal_assignment":["../images/ylw_pnk.png","../images/ylw_slt.png","../images/gry_blk.png","../images/cyn_red.png","../images/grn_red.png","../images/pnk_blu.png","../images/blu_wht.png","../images/org_blu.png"],"mutagen_generator_assignment":[1,0],"goal":4,"start":7,"action_noise":0.1,"location_history":"[7,6,7,3,2,6,5,1,2,6,7,6,7,3,2,3,0,1,0,1,0,4]","action_history":"[0,1,1,1,1,0,1,1,1,1,0,1,1,1,0,0,0,1,1,1,1]","mutagen_history":"[1,0,0,0,0,1,0,0,0,0,1,0,0,0,1,1,1,0,0,0,0]","location_rts":"[831,428,401,603,444,518,433,492,548,171,934,703,541,534,569,652,434,789,495,439,492]","trial_type":"fractal-mutation","trial_index":61,"time_elapsed":1069824,"internal_node_id":"0.0-5.0-7.0"},{"group":"square cycles (cube, non-group)","fractal_assignment":["../images/ylw_pnk.png","../images/ylw_slt.png","../images/gry_blk.png","../images/cyn_red.png","../images/grn_red.png","../images/pnk_blu.png","../images/blu_wht.png","../images/org_blu.png"],"mutagen_generator_assignment":[1,0],"goal":6,"start":4,"action_noise":0.1,"location_history":"[4,5,4,7,6]","action_history":"[1,0,0,0]","mutagen_history":"[0,1,1,1]","location_rts":"[479,217,516,373]","trial_type":"fractal-mutation","trial_index":62,"time_elapsed":1079077,"internal_node_id":"0.0-5.0-8.0"},{"group":"square cycles (cube, non-group)","fractal_assignment":["../images/ylw_pnk.png","../images/ylw_slt.png","../images/gry_blk.png","../images/cyn_red.png","../images/grn_red.png","../images/pnk_blu.png","../images/blu_wht.png","../images/org_blu.png"],"mutagen_generator_assignment":[1,0],"goal":0,"start":6,"action_noise":0.1,"location_history":"[6,5,1,0]","action_history":"[0,1,1]","mutagen_history":"[1,0,0]","location_rts":"[17083,984,36507]","trial_type":"fractal-mutation","trial_index":63,"time_elapsed":1140252,"internal_node_id":"0.0-5.0-9.0"},{"group":"square cycles (cube, non-group)","fractal_assignment":["../images/ylw_pnk.png","../images/ylw_slt.png","../images/gry_blk.png","../images/cyn_red.png","../images/grn_red.png","../images/pnk_blu.png","../images/blu_wht.png","../images/org_blu.png"],"mutagen_generator_assignment":[1,0],"goal":1,"start":0,"action_noise":0.1,"location_history":"[0,4,5,4,5,1]","action_history":"[1,1,0,1,1]","mutagen_history":"[0,0,1,0,0]","location_rts":"[347,335,575,407,225]","trial_type":"fractal-mutation","trial_index":64,"time_elapsed":1150787,"internal_node_id":"0.0-5.0-10.0"},{"group":"square cycles (cube, non-group)","fractal_assignment":["../images/ylw_pnk.png","../images/ylw_slt.png","../images/gry_blk.png","../images/cyn_red.png","../images/grn_red.png","../images/pnk_blu.png","../images/blu_wht.png","../images/org_blu.png"],"mutagen_generator_assignment":[1,0],"goal":3,"start":1,"action_noise":0.1,"location_history":"[1,0,1,2,3]","action_history":"[1,0,0,0]","mutagen_history":"[0,1,1,1]","location_rts":"[291,387,355,494]","trial_type":"fractal-mutation","trial_index":65,"time_elapsed":1159973,"internal_node_id":"0.0-5.0-11.0"},{"group":"square cycles (cube, non-group)","fractal_assignment":["../images/ylw_pnk.png","../images/ylw_slt.png","../images/gry_blk.png","../images/cyn_red.png","../images/grn_red.png","../images/pnk_blu.png","../images/blu_wht.png","../images/org_blu.png"],"mutagen_generator_assignment":[1,0],"goal":7,"start":3,"action_noise":0.1,"location_history":"[3,2,6,5,1,0,1,2,6,7]","action_history":"[1,1,1,1,1,0,0,1,1]","mutagen_history":"[0,0,0,0,0,1,1,0,0]","location_rts":"[313,341,358,311,414,478,359,496,347]","trial_type":"fractal-mutation","trial_index":66,"time_elapsed":1176154,"internal_node_id":"0.0-5.0-12.0"},{"group":"square cycles (cube, non-group)","fractal_assignment":["../images/ylw_pnk.png","../images/ylw_slt.png","../images/gry_blk.png","../images/cyn_red.png","../images/grn_red.png","../images/pnk_blu.png","../images/blu_wht.png","../images/org_blu.png"],"mutagen_generator_assignment":[1,0],"goal":5,"start":7,"action_noise":0.1,"location_history":"[7,3,2,3,2,3,2,6,7,3,2,3,0,4,5]","action_history":"[1,1,0,0,0,1,1,1,1,1,1,0,1,1]","mutagen_history":"[0,0,1,1,1,0,0,0,0,0,0,1,0,0]","location_rts":"[476,396,397,697,361,879,127,310,404,574,525,462,149,423]","trial_type":"fractal-mutation","trial_index":67,"time_elapsed":1200266,"internal_node_id":"0.0-5.0-13.0"},{"group":"square cycles (cube, non-group)","fractal_assignment":["../images/ylw_pnk.png","../images/ylw_slt.png","../images/gry_blk.png","../images/cyn_red.png","../images/grn_red.png","../images/pnk_blu.png","../images/blu_wht.png","../images/org_blu.png"],"mutagen_generator_assignment":[1,0],"goal":2,"start":5,"action_noise":0.1,"location_history":"[5,1,0,4,5,4,5,1,2]","action_history":"[1,1,1,1,0,1,1,0]","mutagen_history":"[0,0,0,0,1,0,0,1]","location_rts":"[388,317,403,633,81,100,247,160]","trial_type":"fractal-mutation","trial_index":68,"time_elapsed":1214318,"internal_node_id":"0.0-5.0-14.0"},{"group":"square cycles (cube, non-group)","fractal_assignment":["../images/ylw_pnk.png","../images/ylw_slt.png","../images/gry_blk.png","../images/cyn_red.png","../images/grn_red.png","../images/pnk_blu.png","../images/blu_wht.png","../images/org_blu.png"],"mutagen_generator_assignment":[1,0],"goal":7,"start":2,"action_noise":0.1,"location_history":"[2,6,7]","action_history":"[1,1]","mutagen_history":"[0,0]","location_rts":"[759,445]","trial_type":"fractal-mutation","trial_index":69,"time_elapsed":1221081,"internal_node_id":"0.0-5.0-15.0"},{"group":"square cycles (cube, non-group)","fractal_assignment":["../images/ylw_pnk.png","../images/ylw_slt.png","../images/gry_blk.png","../images/cyn_red.png","../images/grn_red.png","../images/pnk_blu.png","../images/blu_wht.png","../images/org_blu.png"],"mutagen_generator_assignment":[1,0],"goal":4,"start":7,"action_noise":0.1,"location_history":"[7,6,7,3,2,3,0,4]","action_history":"[1,1,1,1,0,0,1]","mutagen_history":"[0,0,0,0,1,1,0]","location_rts":"[604,406,445,485,112,524,474]","trial_type":"fractal-mutation","trial_index":70,"time_elapsed":1234851,"internal_node_id":"0.0-5.0-16.0"},{"group":"square cycles (cube, non-group)","fractal_assignment":["../images/ylw_pnk.png","../images/ylw_slt.png","../images/gry_blk.png","../images/cyn_red.png","../images/grn_red.png","../images/pnk_blu.png","../images/blu_wht.png","../images/org_blu.png"],"mutagen_generator_assignment":[1,0],"goal":2,"start":4,"action_noise":0.1,"location_history":"[4,5,4,5,4,5,1,2]","action_history":"[1,0,1,1,1,1,0]","mutagen_history":"[0,1,0,0,0,0,1]","location_rts":"[300,287,112,203,308,375,640]","trial_type":"fractal-mutation","trial_index":71,"time_elapsed":1247777,"internal_node_id":"0.0-5.0-17.0"},{"group":"square cycles (cube, non-group)","fractal_assignment":["../images/ylw_pnk.png","../images/ylw_slt.png","../images/gry_blk.png","../images/cyn_red.png","../images/grn_red.png","../images/pnk_blu.png","../images/blu_wht.png","../images/org_blu.png"],"mutagen_generator_assignment":[1,0],"goal":3,"start":2,"action_noise":0.1,"location_history":"[2,6,5,1,0,4,5,4,7,3]","action_history":"[1,0,1,1,1,1,0,0,1]","mutagen_history":"[0,1,0,0,0,0,1,1,0]","location_rts":"[461,580,557,55,375,320,287,296,351]","trial_type":"fractal-mutation","trial_index":72,"time_elapsed":1263829,"internal_node_id":"0.0-5.0-18.0"},{"group":"square cycles (cube, non-group)","fractal_assignment":["../images/ylw_pnk.png","../images/ylw_slt.png","../images/gry_blk.png","../images/cyn_red.png","../images/grn_red.png","../images/pnk_blu.png","../images/blu_wht.png","../images/org_blu.png"],"mutagen_generator_assignment":[1,0],"goal":6,"start":3,"action_noise":0.1,"location_history":"[3,2,6]","action_history":"[1,1]","mutagen_history":"[0,0]","location_rts":"[450,294]","trial_type":"fractal-mutation","trial_index":73,"time_elapsed":1270129,"internal_node_id":"0.0-5.0-19.0"},{"group":"square cycles (cube, non-group)","fractal_assignment":["../images/ylw_pnk.png","../images/ylw_slt.png","../images/gry_blk.png","../images/cyn_red.png","../images/grn_red.png","../images/pnk_blu.png","../images/blu_wht.png","../images/org_blu.png"],"mutagen_generator_assignment":[1,0],"goal":5,"start":6,"action_noise":0.1,"location_history":"[6,5]","action_history":"[1]","mutagen_history":"[0]","location_rts":"[565]","trial_type":"fractal-mutation","trial_index":74,"time_elapsed":1275225,"internal_node_id":"0.0-5.0-20.0"},{"group":"square cycles (cube, non-group)","fractal_assignment":["../images/ylw_pnk.png","../images/ylw_slt.png","../images/gry_blk.png","../images/cyn_red.png","../images/grn_red.png","../images/pnk_blu.png","../images/blu_wht.png","../images/org_blu.png"],"mutagen_generator_assignment":[1,0],"goal":1,"start":5,"action_noise":0.1,"location_history":"[5,1]","action_history":"[1]","mutagen_history":"[0]","location_rts":"[500]","trial_type":"fractal-mutation","trial_index":75,"time_elapsed":1280257,"internal_node_id":"0.0-5.0-21.0"},{"group":"square cycles (cube, non-group)","fractal_assignment":["../images/ylw_pnk.png","../images/ylw_slt.png","../images/gry_blk.png","../images/cyn_red.png","../images/grn_red.png","../images/pnk_blu.png","../images/blu_wht.png","../images/org_blu.png"],"mutagen_generator_assignment":[1,0],"goal":0,"start":1,"action_noise":0.1,"location_history":"[1,2,6,7,3,0]","action_history":"[1,1,1,1,0]","mutagen_history":"[0,0,0,0,1]","location_rts":"[358,313,372,427,307]","trial_type":"fractal-mutation","trial_index":76,"time_elapsed":1290700,"internal_node_id":"0.0-5.0-22.0"},{"group":"square cycles (cube, non-group)","fractal_assignment":["../images/ylw_pnk.png","../images/ylw_slt.png","../images/gry_blk.png","../images/cyn_red.png","../images/grn_red.png","../images/pnk_blu.png","../images/blu_wht.png","../images/org_blu.png"],"mutagen_generator_assignment":[1,0],"goal":2,"start":0,"action_noise":0.1,"location_history":"[0,4,7,3,0,4,5,1,0,4,7,3,2]","action_history":"[1,0,1,0,1,1,1,1,1,0,1,1]","mutagen_history":"[0,1,0,1,0,0,0,0,0,1,0,0]","location_rts":"[361,516,465,476,219,463,472,597,677,453,362,597]","trial_type":"fractal-mutation","trial_index":77,"time_elapsed":1312209,"internal_node_id":"0.0-5.0-23.0"},{"group":"square cycles (cube, non-group)","fractal_assignment":["../images/ylw_pnk.png","../images/ylw_slt.png","../images/gry_blk.png","../images/cyn_red.png","../images/grn_red.png","../images/pnk_blu.png","../images/blu_wht.png","../images/org_blu.png"],"mutagen_generator_assignment":[1,0],"goal":6,"start":2,"action_noise":0.1,"location_history":"[2,3,0,4,5,4,7,3,2,6]","action_history":"[0,0,1,1,0,0,1,1,1]","mutagen_history":"[1,1,0,0,1,1,0,0,0]","location_rts":"[326,526,450,369,492,444,285,398,425]","trial_type":"fractal-mutation","trial_index":78,"time_elapsed":1328705,"internal_node_id":"0.0-5.0-24.0"},{"group":"square cycles (cube, non-group)","fractal_assignment":["../images/ylw_pnk.png","../images/ylw_slt.png","../images/gry_blk.png","../images/cyn_red.png","../images/grn_red.png","../images/pnk_blu.png","../images/blu_wht.png","../images/org_blu.png"],"mutagen_generator_assignment":[1,0],"goal":1,"start":6,"action_noise":0.1,"location_history":"[6,5,1]","action_history":"[1,1]","mutagen_history":"[0,0]","location_rts":"[581,390]","trial_type":"fractal-mutation","trial_index":79,"time_elapsed":1335234,"internal_node_id":"0.0-5.0-25.0"},{"group":"square cycles (cube, non-group)","fractal_assignment":["../images/ylw_pnk.png","../images/ylw_slt.png","../images/gry_blk.png","../images/cyn_red.png","../images/grn_red.png","../images/pnk_blu.png","../images/blu_wht.png","../images/org_blu.png"],"mutagen_generator_assignment":[1,0],"goal":3,"start":1,"action_noise":0.1,"location_history":"[1,0,4,7,6,5,1,2,3]","action_history":"[1,1,0,1,0,1,1,0]","mutagen_history":"[0,0,1,0,1,0,0,1]","location_rts":"[671,429,509,593,560,610,484,718]","trial_type":"fractal-mutation","trial_index":80,"time_elapsed":1351570,"internal_node_id":"0.0-5.0-26.0"},{"group":"square cycles (cube, non-group)","fractal_assignment":["../images/ylw_pnk.png","../images/ylw_slt.png","../images/gry_blk.png","../images/cyn_red.png","../images/grn_red.png","../images/pnk_blu.png","../images/blu_wht.png","../images/org_blu.png"],"mutagen_generator_assignment":[1,0],"goal":7,"start":3,"action_noise":0.1,"location_history":"[3,2,6,5,4,5,1,0,4,7]","action_history":"[1,1,1,0,1,1,1,1,0]","mutagen_history":"[0,0,0,1,0,0,0,0,1]","location_rts":"[405,413,491,538,802,607,562,420,395]","trial_type":"fractal-mutation","trial_index":81,"time_elapsed":1368967,"internal_node_id":"0.0-5.0-27.0"},{"group":"square cycles (cube, non-group)","fractal_assignment":["../images/ylw_pnk.png","../images/ylw_slt.png","../images/gry_blk.png","../images/cyn_red.png","../images/grn_red.png","../images/pnk_blu.png","../images/blu_wht.png","../images/org_blu.png"],"mutagen_generator_assignment":[1,0],"goal":4,"start":7,"action_noise":0.1,"location_history":"[7,3,0,1,0,4]","action_history":"[1,1,0,1,1]","mutagen_history":"[0,0,1,0,0]","location_rts":"[504,790,510,292,335]","trial_type":"fractal-mutation","trial_index":82,"time_elapsed":1380041,"internal_node_id":"0.0-5.0-28.0"},{"group":"square cycles (cube, non-group)","fractal_assignment":["../images/ylw_pnk.png","../images/ylw_slt.png","../images/gry_blk.png","../images/cyn_red.png","../images/grn_red.png","../images/pnk_blu.png","../images/blu_wht.png","../images/org_blu.png"],"mutagen_generator_assignment":[1,0],"goal":0,"start":4,"action_noise":0.1,"location_history":"[4,5,1,2,6,5,1,0]","action_history":"[1,0,0,1,1,1,1]","mutagen_history":"[0,1,1,0,0,0,0]","location_rts":"[814,684,253,319,514,419,393]","trial_type":"fractal-mutation","trial_index":83,"time_elapsed":1394154,"internal_node_id":"0.0-5.0-29.0"},{"group":"square cycles (cube, non-group)","fractal_assignment":["../images/ylw_pnk.png","../images/ylw_slt.png","../images/gry_blk.png","../images/cyn_red.png","../images/grn_red.png","../images/pnk_blu.png","../images/blu_wht.png","../images/org_blu.png"],"mutagen_generator_assignment":[1,0],"goal":5,"start":0,"action_noise":0.1,"location_history":"[0,1,0,1,2,3,2,6,7,3,0,4,5]","action_history":"[1,1,0,0,1,1,1,1,1,0,1,1]","mutagen_history":"[0,0,1,1,0,0,0,0,0,1,0,0]","location_rts":"[607,917,929,649,400,343,442,412,374,706,266,333]","trial_type":"fractal-mutation","trial_index":84,"time_elapsed":1416414,"internal_node_id":"0.0-5.0-30.0"},{"group":"square cycles (cube, non-group)","fractal_assignment":["../images/ylw_pnk.png","../images/ylw_slt.png","../images/gry_blk.png","../images/cyn_red.png","../images/grn_red.png","../images/pnk_blu.png","../images/blu_wht.png","../images/org_blu.png"],"mutagen_generator_assignment":[1,0],"goal":3,"start":5,"action_noise":0.1,"location_history":"[5,1,2,3]","action_history":"[1,0,0]","mutagen_history":"[0,1,1]","location_rts":"[380,365,401]","trial_type":"fractal-mutation","trial_index":85,"time_elapsed":1424177,"internal_node_id":"0.0-5.0-31.0"},{"group":"square cycles (cube, non-group)","fractal_assignment":["../images/ylw_pnk.png","../images/ylw_slt.png","../images/gry_blk.png","../images/cyn_red.png","../images/grn_red.png","../images/pnk_blu.png","../images/blu_wht.png","../images/org_blu.png"],"mutagen_generator_assignment":[1,0],"goal":2,"start":3,"action_noise":0.1,"location_history":"[3,2]","action_history":"[1]","mutagen_history":"[0]","location_rts":"[568]","trial_type":"fractal-mutation","trial_index":86,"time_elapsed":1429273,"internal_node_id":"0.0-5.0-32.0"},{"group":"square cycles (cube, non-group)","fractal_assignment":["../images/ylw_pnk.png","../images/ylw_slt.png","../images/gry_blk.png","../images/cyn_red.png","../images/grn_red.png","../images/pnk_blu.png","../images/blu_wht.png","../images/org_blu.png"],"mutagen_generator_assignment":[1,0],"goal":6,"start":2,"action_noise":0.1,"location_history":"[2,6]","action_history":"[1]","mutagen_history":"[0]","location_rts":"[439]","trial_type":"fractal-mutation","trial_index":87,"time_elapsed":1434245,"internal_node_id":"0.0-5.0-33.0"},{"group":"square cycles (cube, non-group)","fractal_assignment":["../images/ylw_pnk.png","../images/ylw_slt.png","../images/gry_blk.png","../images/cyn_red.png","../images/grn_red.png","../images/pnk_blu.png","../images/blu_wht.png","../images/org_blu.png"],"mutagen_generator_assignment":[1,0],"goal":1,"start":6,"action_noise":0.1,"location_history":"[6,7,6,5,1]","action_history":"[1,0,0,1]","mutagen_history":"[0,1,1,0]","location_rts":"[554,728,662,3295]","trial_type":"fractal-mutation","trial_index":88,"time_elapsed":1447131,"internal_node_id":"0.0-5.0-34.0"},{"group":"square cycles (cube, non-group)","fractal_assignment":["../images/ylw_pnk.png","../images/ylw_slt.png","../images/gry_blk.png","../images/cyn_red.png","../images/grn_red.png","../images/pnk_blu.png","../images/blu_wht.png","../images/org_blu.png"],"mutagen_generator_assignment":[1,0],"goal":7,"start":1,"action_noise":0.1,"location_history":"[1,0,1,2,6,7]","action_history":"[1,0,0,1,1]","mutagen_history":"[0,1,1,0,0]","location_rts":"[2599,566,572,411,359]","trial_type":"fractal-mutation","trial_index":89,"time_elapsed":1460306,"internal_node_id":"0.0-5.0-35.0"},{"group":"square cycles (cube, non-group)","fractal_assignment":["../images/ylw_pnk.png","../images/ylw_slt.png","../images/gry_blk.png","../images/cyn_red.png","../images/grn_red.png","../images/pnk_blu.png","../images/blu_wht.png","../images/org_blu.png"],"mutagen_generator_assignment":[1,0],"goal":4,"start":7,"action_noise":0.1,"location_history":"[7,3,2,6,5,4]","action_history":"[1,1,1,0,1]","mutagen_history":"[0,0,0,1,0]","location_rts":"[598,389,449,414,476]","trial_type":"fractal-mutation","trial_index":90,"time_elapsed":1471291,"internal_node_id":"0.0-5.0-36.0"},{"group":"square cycles (cube, non-group)","fractal_assignment":["../images/ylw_pnk.png","../images/ylw_slt.png","../images/gry_blk.png","../images/cyn_red.png","../images/grn_red.png","../images/pnk_blu.png","../images/blu_wht.png","../images/org_blu.png"],"mutagen_generator_assignment":[1,0],"goal":5,"start":4,"action_noise":0.1,"location_history":"[4,5]","action_history":"[1]","mutagen_history":"[0]","location_rts":"[727]","trial_type":"fractal-mutation","trial_index":91,"time_elapsed":1476549,"internal_node_id":"0.0-5.0-37.0"},{"group":"square cycles (cube, non-group)","fractal_assignment":["../images/ylw_pnk.png","../images/ylw_slt.png","../images/gry_blk.png","../images/cyn_red.png","../images/grn_red.png","../images/pnk_blu.png","../images/blu_wht.png","../images/org_blu.png"],"mutagen_generator_assignment":[1,0],"goal":0,"start":5,"action_noise":0.1,"location_history":"[5,4,5,4,5,4,5,1,2,6,7,3,0]","action_history":"[1,1,0,0,0,1,1,0,0,1,1,0]","mutagen_history":"[0,0,1,1,1,0,0,1,1,0,0,1]","location_rts":"[677,589,694,1314,101381,703,511,494,327,278,412,383]","trial_type":"fractal-mutation","trial_index":92,"time_elapsed":1600202,"internal_node_id":"0.0-5.0-38.0"},{"group":"square cycles (cube, non-group)","fractal_assignment":["../images/ylw_pnk.png","../images/ylw_slt.png","../images/gry_blk.png","../images/cyn_red.png","../images/grn_red.png","../images/pnk_blu.png","../images/blu_wht.png","../images/org_blu.png"],"mutagen_generator_assignment":[1,0],"goal":4,"start":0,"action_noise":0.1,"location_history":"[0,4]","action_history":"[1]","mutagen_history":"[0]","location_rts":"[454]","trial_type":"fractal-mutation","trial_index":93,"time_elapsed":1605188,"internal_node_id":"0.0-5.0-39.0"},{"group":"square cycles (cube, non-group)","fractal_assignment":["../images/ylw_pnk.png","../images/ylw_slt.png","../images/gry_blk.png","../images/cyn_red.png","../images/grn_red.png","../images/pnk_blu.png","../images/blu_wht.png","../images/org_blu.png"],"mutagen_generator_assignment":[1,0],"goal":0,"start":4,"action_noise":0.1,"location_history":"[4,5,4,7,3,2,3,0]","action_history":"[1,0,0,1,1,0,1]","mutagen_history":"[0,1,1,0,0,1,0]","location_rts":"[389,536,299,618,517,332,275]","trial_type":"fractal-mutation","trial_index":94,"time_elapsed":1618868,"internal_node_id":"0.0-5.0-40.0"},{"group":"square cycles (cube, non-group)","fractal_assignment":["../images/ylw_pnk.png","../images/ylw_slt.png","../images/gry_blk.png","../images/cyn_red.png","../images/grn_red.png","../images/pnk_blu.png","../images/blu_wht.png","../images/org_blu.png"],"mutagen_generator_assignment":[1,0],"goal":2,"start":0,"action_noise":0.1,"location_history":"[0,4,7,6,7,3,2]","action_history":"[1,0,0,1,1,1]","mutagen_history":"[0,1,1,0,0,0]","location_rts":"[733,266,238,356,349,539]","trial_type":"fractal-mutation","trial_index":95,"time_elapsed":1631059,"internal_node_id":"0.0-5.0-41.0"},{"group":"square cycles (cube, non-group)","fractal_assignment":["../images/ylw_pnk.png","../images/ylw_slt.png","../images/gry_blk.png","../images/cyn_red.png","../images/grn_red.png","../images/pnk_blu.png","../images/blu_wht.png","../images/org_blu.png"],"mutagen_generator_assignment":[1,0],"goal":3,"start":2,"action_noise":0.1,"location_history":"[2,6,7,3]","action_history":"[1,1,1]","mutagen_history":"[0,0,0]","location_rts":"[326,405,437]","trial_type":"fractal-mutation","trial_index":96,"time_elapsed":1638808,"internal_node_id":"0.0-5.0-42.0"},{"group":"square cycles (cube, non-group)","fractal_assignment":["../images/ylw_pnk.png","../images/ylw_slt.png","../images/gry_blk.png","../images/cyn_red.png","../images/grn_red.png","../images/pnk_blu.png","../images/blu_wht.png","../images/org_blu.png"],"mutagen_generator_assignment":[1,0],"goal":5,"start":3,"action_noise":0.1,"location_history":"[3,2,6,7,3,0,4,5]","action_history":"[1,1,1,1,0,1,1]","mutagen_history":"[0,0,0,0,1,0,0]","location_rts":"[367,326,414,333,1077,898,462]","trial_type":"fractal-mutation","trial_index":97,"time_elapsed":1653396,"internal_node_id":"0.0-5.0-43.0"},{"group":"square cycles (cube, non-group)","fractal_assignment":["../images/ylw_pnk.png","../images/ylw_slt.png","../images/gry_blk.png","../images/cyn_red.png","../images/grn_red.png","../images/pnk_blu.png","../images/blu_wht.png","../images/org_blu.png"],"mutagen_generator_assignment":[1,0],"goal":1,"start":5,"action_noise":0.1,"location_history":"[5,1]","action_history":"[1]","mutagen_history":"[0]","location_rts":"[614]","trial_type":"fractal-mutation","trial_index":98,"time_elapsed":1658540,"internal_node_id":"0.0-5.0-44.0"},{"group":"square cycles (cube, non-group)","fractal_assignment":["../images/ylw_pnk.png","../images/ylw_slt.png","../images/gry_blk.png","../images/cyn_red.png","../images/grn_red.png","../images/pnk_blu.png","../images/blu_wht.png","../images/org_blu.png"],"mutagen_generator_assignment":[1,0],"goal":7,"start":1,"action_noise":0.1,"location_history":"[1,0,4,7]","action_history":"[1,1,0]","mutagen_history":"[0,0,1]","location_rts":"[518,622,605]","trial_type":"fractal-mutation","trial_index":99,"time_elapsed":1666894,"internal_node_id":"0.0-5.0-45.0"},{"group":"square cycles (cube, non-group)","fractal_assignment":["../images/ylw_pnk.png","../images/ylw_slt.png","../images/gry_blk.png","../images/cyn_red.png","../images/grn_red.png","../images/pnk_blu.png","../images/blu_wht.png","../images/org_blu.png"],"mutagen_generator_assignment":[1,0],"goal":6,"start":7,"action_noise":0.1,"location_history":"[7,3,2,3,2,3,0,1,2,3,0,1,0,1,2,3,2,6]","action_history":"[1,1,1,1,0,0,0,0,0,0,0,1,0,0,0,0,1]","mutagen_history":"[0,0,0,0,1,1,1,1,1,1,1,0,1,1,1,1,0]","location_rts":"[428,406,342,348,389,356,465,523,937,356,371,440,256,360,436,361,304]","trial_type":"fractal-mutation","trial_index":100,"time_elapsed":1695063,"internal_node_id":"0.0-5.0-46.0"},{"group":"square cycles (cube, non-group)","fractal_assignment":["../images/ylw_pnk.png","../images/ylw_slt.png","../images/gry_blk.png","../images/cyn_red.png","../images/grn_red.png","../images/pnk_blu.png","../images/blu_wht.png","../images/org_blu.png"],"mutagen_generator_assignment":[1,0],"goal":3,"start":6,"action_noise":0.1,"location_history":"[6,5,4,5,1,0,1,0,1,0,4,5,1,0,4,7,3]","action_history":"[0,0,1,1,1,1,1,0,1,1,1,1,1,1,0,1]","mutagen_history":"[1,1,0,0,0,0,0,1,0,0,0,0,0,0,1,0]","location_rts":"[136356,28,315,57,118,79,343,391,187,159,235,383,415,271,60,298]","trial_type":"fractal-mutation","trial_index":101,"time_elapsed":1854744,"internal_node_id":"0.0-5.0-47.0"},{"group":"square cycles (cube, non-group)","fractal_assignment":["../images/ylw_pnk.png","../images/ylw_slt.png","../images/gry_blk.png","../images/cyn_red.png","../images/grn_red.png","../images/pnk_blu.png","../images/blu_wht.png","../images/org_blu.png"],"mutagen_generator_assignment":[1,0],"goal":0,"start":3,"action_noise":0.1,"location_history":"[3,2,6,5,1,2,3,0]","action_history":"[1,1,0,1,0,0,0]","mutagen_history":"[0,0,1,0,1,1,1]","location_rts":"[472,317,377,221,248,141,205]","trial_type":"fractal-mutation","trial_index":102,"time_elapsed":1867478,"internal_node_id":"0.0-5.0-48.0"},{"group":"square cycles (cube, non-group)","fractal_assignment":["../images/ylw_pnk.png","../images/ylw_slt.png","../images/gry_blk.png","../images/cyn_red.png","../images/grn_red.png","../images/pnk_blu.png","../images/blu_wht.png","../images/org_blu.png"],"mutagen_generator_assignment":[1,0],"goal":2,"start":0,"action_noise":0.1,"location_history":"[0,4,5,4,7,3,2]","action_history":"[1,1,0,0,1,1]","mutagen_history":"[0,0,1,1,0,0]","location_rts":"[395,278,196,301,290,443]","trial_type":"fractal-mutation","trial_index":103,"time_elapsed":1879066,"internal_node_id":"0.0-5.0-49.0"},{"view_history":"[{\"page_index\":0,\"viewing_time\":4177}]","rt":4177,"trial_type":"instructions","trial_index":104,"time_elapsed":1884243,"internal_node_id":"0.0-6.0"},{"rt":5077,"responses":"{\"Q0\":\"nope\"}","trial_type":"survey-text","trial_index":105,"time_elapsed":1890324,"internal_node_id":"0.0-7.0"}]