[{"view_history":"[{\"page_index\":0,\"viewing_time\":5940},{\"page_index\":1,\"viewing_time\":3778},{\"page_index\":2,\"viewing_time\":16801},{\"page_index\":3,\"viewing_time\":3451}]","rt":29971,"trial_type":"instructions","trial_index":0,"time_elapsed":29973,"internal_node_id":"0.0-0.0"},{"view_history":"[{\"page_index\":0,\"viewing_time\":1540},{\"page_index\":1,\"viewing_time\":15229}]","rt":16770,"trial_type":"instructions","trial_index":1,"time_elapsed":47746,"internal_node_id":"0.0-1.0"},{"group":"tri cycles (cube, non-group)","room_assignment":["red","blue","yellow","grey","brown","pink","green","purple"],"door_color_assignment":["white","black"],"door_generator_assignment":[0,1],"goal":3,"start":0,"action_noise":0.1,"location_history":"[0,2,6,5,2,1,0,3]","action_history":"[0,0,1,1,0,0,1]","door_history":"[0,0,1,1,0,0,1]","location_rts":"[3512,1108,833,739,2046,1206,939]","trial_type":"two-door-navigation","trial_index":2,"time_elapsed":69054,"internal_node_id":"0.0-2.0-0.0"},{"group":"tri cycles (cube, non-group)","room_assignment":["red","blue","yellow","grey","brown","pink","green","purple"],"door_color_assignment":["white","black"],"door_generator_assignment":[0,1],"goal":1,"start":3,"action_noise":0.1,"location_history":"[3,4,7,3,4,0,3,7,6,4,7,6,5,1]","action_history":"[1,0,0,1,1,1,0,0,0,0,0,1,0]","door_history":"[1,0,0,1,1,1,0,0,0,0,0,1,0]","location_rts":"[1858,386,562,406,678,732,910,381,545,769,513,488,1794]","trial_type":"two-door-navigation","trial_index":3,"time_elapsed":96286,"internal_node_id":"0.0-2.0-1.0"},{"group":"tri cycles (cube, non-group)","room_assignment":["red","blue","yellow","grey","brown","pink","green","purple"],"door_color_assignment":["white","black"],"door_generator_assignment":[0,1],"goal":2,"start":1,"action_noise":0.1,"location_history":"[1,0,3,7,6,5,2]","action_history":"[0,1,0,0,1,1]","door_history":"[0,1,0,0,1,1]","location_rts":"[882,1000,924,416,514,597]","trial_type":"two-door-navigation","trial_index":4,"time_elapsed":110422,"internal_node_id":"0.0-2.0-2.0"},{"group":"tri cycles (cube, non-group)","room_assignment":["red","blue","yellow","grey","brown","pink","green","purple"],"door_color_assignment":["white","black"],"door_generator_assignment":[0,1],"goal":6,"start":2,"action_noise":0.1,"location_history":"[2,1,5,2,1,0,2,6]","action_history":"[0,1,1,0,0,0,1]","door_history":"[0,1,1,0,0,0,1]","location_rts":"[567,392,638,392,412,421,617]","trial_type":"two-door-navigation","trial_index":5,"time_elapsed":124752,"internal_node_id":"0.0-2.0-3.0"},{"group":"tri cycles (cube, non-group)","room_assignment":["red","blue","yellow","grey","brown","pink","green","purple"],"door_color_assignment":["white","black"],"door_generator_assignment":[0,1],"goal":5,"start":6,"action_noise":0.1,"location_history":"[6,5]","action_history":"[0]","door_history":"[0]","location_rts":"[981]","trial_type":"two-door-navigation","trial_index":6,"time_elapsed":130289,"internal_node_id":"0.0-2.0-4.0"},{"group":"tri cycles (cube, non-group)","room_assignment":["red","blue","yellow","grey","brown","pink","green","purple"],"door_color_assignment":["white","black"],"door_generator_assignment":[0,1],"goal":4,"start":5,"action_noise":0.1,"location_history":"[5,2,1,5,1,5,1,0,2,6,5,2,6,5,2,6,4]","action_history":"[1,0,1,1,1,0,0,0,0,0,1,1,1,1,1,0]","door_history":"[1,0,1,1,1,0,0,0,0,0,1,1,1,1,1,0]","location_rts":"[1324,836,1161,531,924,516,431,396,376,445,496,440,454,455,489,612]","trial_type":"two-door-navigation","trial_index":7,"time_elapsed":160418,"internal_node_id":"0.0-2.0-5.0"},{"group":"tri cycles (cube, non-group)","room_assignment":["red","blue","yellow","grey","brown","pink","green","purple"],"door_color_assignment":["white","black"],"door_generator_assignment":[0,1],"goal":7,"start":4,"action_noise":0.1,"location_history":"[4,7]","action_history":"[0]","door_history":"[0]","location_rts":"[1426]","trial_type":"two-door-navigation","trial_index":8,"time_elapsed":166431,"internal_node_id":"0.0-2.0-6.0"},{"group":"tri cycles (cube, non-group)","room_assignment":["red","blue","yellow","grey","brown","pink","green","purple"],"door_color_assignment":["white","black"],"door_generator_assignment":[0,1],"goal":4,"start":7,"action_noise":0.1,"location_history":"[7,6,5,2,1,0,3,7,3,7,3,4]","action_history":"[0,1,1,0,0,0,0,1,0,1,1]","door_history":"[0,1,1,0,0,0,0,1,0,1,1]","location_rts":"[670,406,439,369,387,398,830,435,533,409,515]","trial_type":"two-door-navigation","trial_index":9,"time_elapsed":186908,"internal_node_id":"0.0-2.0-7.0"},{"group":"tri cycles (cube, non-group)","room_assignment":["red","blue","yellow","grey","brown","pink","green","purple"],"door_color_assignment":["white","black"],"door_generator_assignment":[0,1],"goal":6,"start":4,"action_noise":0.1,"location_history":"[4,0,2,1,5,1,0,2,1,0,3,4,7,6]","action_history":"[1,0,0,1,0,0,0,0,1,1,1,0,0]","door_history":"[1,0,0,1,0,0,0,0,1,1,1,0,0]","location_rts":"[102552,311,498,486,609,412,482,553,349,384,603,372,2420]","trial_type":"two-door-navigation","trial_index":10,"time_elapsed":314133,"internal_node_id":"0.0-2.0-8.0"},{"group":"tri cycles (cube, non-group)","room_assignment":["red","blue","yellow","grey","brown","pink","green","purple"],"door_color_assignment":["white","black"],"door_generator_assignment":[0,1],"goal":0,"start":6,"action_noise":0.1,"location_history":"[6,5,1,0]","action_history":"[1,0,0]","door_history":"[1,0,0]","location_rts":"[2041,976,405]","trial_type":"two-door-navigation","trial_index":11,"time_elapsed":324236,"internal_node_id":"0.0-2.0-9.0"},{"group":"tri cycles (cube, non-group)","room_assignment":["red","blue","yellow","grey","brown","pink","green","purple"],"door_color_assignment":["white","black"],"door_generator_assignment":[0,1],"goal":1,"start":0,"action_noise":0.1,"location_history":"[0,2,6,4,0,3,4,0,2,1]","action_history":"[0,0,0,1,1,1,1,0,0]","door_history":"[0,0,0,1,1,1,1,0,0]","location_rts":"[1776,2757,6197,719,515,469,839,309,482]","trial_type":"two-door-navigation","trial_index":12,"time_elapsed":351281,"internal_node_id":"0.0-2.0-10.0"},{"group":"tri cycles (cube, non-group)","room_assignment":["red","blue","yellow","grey","brown","pink","green","purple"],"door_color_assignment":["white","black"],"door_generator_assignment":[0,1],"goal":3,"start":1,"action_noise":0.1,"location_history":"[1,0,3]","action_history":"[0,1]","door_history":"[0,1]","location_rts":"[603,275]","trial_type":"two-door-navigation","trial_index":13,"time_elapsed":357772,"internal_node_id":"0.0-2.0-11.0"},{"group":"tri cycles (cube, non-group)","room_assignment":["red","blue","yellow","grey","brown","pink","green","purple"],"door_color_assignment":["white","black"],"door_generator_assignment":[0,1],"goal":7,"start":3,"action_noise":0.1,"location_history":"[3,7]","action_history":"[0]","door_history":"[0]","location_rts":"[1636]","trial_type":"two-door-navigation","trial_index":14,"time_elapsed":363967,"internal_node_id":"0.0-2.0-12.0"},{"group":"tri cycles (cube, non-group)","room_assignment":["red","blue","yellow","grey","brown","pink","green","purple"],"door_color_assignment":["white","black"],"door_generator_assignment":[0,1],"goal":5,"start":7,"action_noise":0.1,"location_history":"[7,3,4,0,3,4,0,2,1,5]","action_history":"[1,1,1,1,1,1,0,1,1]","door_history":"[1,1,1,1,1,1,0,1,1]","location_rts":"[1383,427,681,516,401,583,402,543,1076]","trial_type":"two-door-navigation","trial_index":15,"time_elapsed":382971,"internal_node_id":"0.0-2.0-13.0"},{"group":"tri cycles (cube, non-group)","room_assignment":["red","blue","yellow","grey","brown","pink","green","purple"],"door_color_assignment":["white","black"],"door_generator_assignment":[0,1],"goal":2,"start":5,"action_noise":0.1,"location_history":"[5,1,0,2]","action_history":"[0,0,0]","door_history":"[0,0,0]","location_rts":"[1326,350,366]","trial_type":"two-door-navigation","trial_index":16,"time_elapsed":391684,"internal_node_id":"0.0-2.0-14.0"},{"group":"tri cycles (cube, non-group)","room_assignment":["red","blue","yellow","grey","brown","pink","green","purple"],"door_color_assignment":["white","black"],"door_generator_assignment":[0,1],"goal":7,"start":2,"action_noise":0.1,"location_history":"[2,1,5,1,0,2,6,5,1,5,1,0,2,1,0,2,6,5,2,6,4,7]","action_history":"[0,0,0,0,0,1,1,0,1,0,0,0,0,0,0,1,1,1,1,0,0]","door_history":"[0,0,0,0,0,1,1,0,1,0,0,0,0,0,0,1,1,1,1,0,0]","location_rts":"[756,468,449,715,520,347,470,459,568,327,2416,608,1950,3727,462,366,488,510,1016,449,409]","trial_type":"two-door-navigation","trial_index":17,"time_elapsed":434706,"internal_node_id":"0.0-2.0-15.0"},{"group":"tri cycles (cube, non-group)","room_assignment":["red","blue","yellow","grey","brown","pink","green","purple"],"door_color_assignment":["white","black"],"door_generator_assignment":[0,1],"goal":4,"start":7,"action_noise":0.1,"location_history":"[7,3,4]","action_history":"[0,1]","door_history":"[0,1]","location_rts":"[512,302]","trial_type":"two-door-navigation","trial_index":18,"time_elapsed":441134,"internal_node_id":"0.0-2.0-16.0"},{"group":"tri cycles (cube, non-group)","room_assignment":["red","blue","yellow","grey","brown","pink","green","purple"],"door_color_assignment":["white","black"],"door_generator_assignment":[0,1],"goal":2,"start":4,"action_noise":0.1,"location_history":"[4,7,6,4,7,6,5,1,0,2]","action_history":"[0,0,0,0,0,1,0,0,0]","door_history":"[0,0,0,0,0,1,0,0,0]","location_rts":"[1340,346,620,499,389,786,367,373,698]","trial_type":"two-door-navigation","trial_index":19,"time_elapsed":459569,"internal_node_id":"0.0-2.0-17.0"},{"group":"tri cycles (cube, non-group)","room_assignment":["red","blue","yellow","grey","brown","pink","green","purple"],"door_color_assignment":["white","black"],"door_generator_assignment":[0,1],"goal":3,"start":2,"action_noise":0.1,"location_history":"[2,1,5,1,0,3]","action_history":"[1,1,1,0,1]","door_history":"[1,1,1,0,1]","location_rts":"[1212,451,942,632,225]","trial_type":"two-door-navigation","trial_index":20,"time_elapsed":471807,"internal_node_id":"0.0-2.0-18.0"},{"group":"tri cycles (cube, non-group)","room_assignment":["red","blue","yellow","grey","brown","pink","green","purple"],"door_color_assignment":["white","black"],"door_generator_assignment":[0,1],"goal":6,"start":3,"action_noise":0.1,"location_history":"[3,7,6]","action_history":"[0,0]","door_history":"[0,0]","location_rts":"[1679,378]","trial_type":"two-door-navigation","trial_index":21,"time_elapsed":479498,"internal_node_id":"0.0-2.0-19.0"},{"group":"tri cycles (cube, non-group)","room_assignment":["red","blue","yellow","grey","brown","pink","green","purple"],"door_color_assignment":["white","black"],"door_generator_assignment":[0,1],"goal":5,"start":6,"action_noise":0.1,"location_history":"[6,4,7,3,4,0,2,6,4,0,3,7,3,4,7,3,4,7,3,4,0,2,1,5]","action_history":"[0,1,1,0,1,1,1,0,1,1,0,1,1,1,1,1,0,1,1,1,0,0,1]","door_history":"[0,1,1,0,1,1,1,0,1,1,0,1,1,1,1,1,0,1,1,1,0,0,1]","location_rts":"[556,289,402,473,326,379,483,330,297,423,404,994,379,415,399,515,443,339,358,361,689,725,361]","trial_type":"two-door-navigation","trial_index":22,"time_elapsed":517631,"internal_node_id":"0.0-2.0-20.0"},{"group":"tri cycles (cube, non-group)","room_assignment":["red","blue","yellow","grey","brown","pink","green","purple"],"door_color_assignment":["white","black"],"door_generator_assignment":[0,1],"goal":1,"start":5,"action_noise":0.1,"location_history":"[5,2,1]","action_history":"[1,0]","door_history":"[1,0]","location_rts":"[960,442]","trial_type":"two-door-navigation","trial_index":23,"time_elapsed":524660,"internal_node_id":"0.0-2.0-21.0"},{"group":"tri cycles (cube, non-group)","room_assignment":["red","blue","yellow","grey","brown","pink","green","purple"],"door_color_assignment":["white","black"],"door_generator_assignment":[0,1],"goal":0,"start":1,"action_noise":0.1,"location_history":"[1,5,1,0]","action_history":"[1,0,0]","door_history":"[1,0,0]","location_rts":"[1809,339,364]","trial_type":"two-door-navigation","trial_index":24,"time_elapsed":533844,"internal_node_id":"0.0-2.0-22.0"},{"group":"tri cycles (cube, non-group)","room_assignment":["red","blue","yellow","grey","brown","pink","green","purple"],"door_color_assignment":["white","black"],"door_generator_assignment":[0,1],"goal":2,"start":0,"action_noise":0.1,"location_history":"[0,2]","action_history":"[0]","door_history":"[0]","location_rts":"[551]","trial_type":"two-door-navigation","trial_index":25,"time_elapsed":538951,"internal_node_id":"0.0-2.0-23.0"},{"group":"tri cycles (cube, non-group)","room_assignment":["red","blue","yellow","grey","brown","pink","green","purple"],"door_color_assignment":["white","black"],"door_generator_assignment":[0,1],"goal":6,"start":2,"action_noise":0.1,"location_history":"[2,6]","action_history":"[1]","door_history":"[1]","location_rts":"[1442]","trial_type":"two-door-navigation","trial_index":26,"time_elapsed":544947,"internal_node_id":"0.0-2.0-24.0"},{"group":"tri cycles (cube, non-group)","room_assignment":["red","blue","yellow","grey","brown","pink","green","purple"],"door_color_assignment":["white","black"],"door_generator_assignment":[0,1],"goal":1,"start":6,"action_noise":0.1,"location_history":"[6,5,1]","action_history":"[1,0]","door_history":"[1,0]","location_rts":"[2383,448]","trial_type":"two-door-navigation","trial_index":27,"time_elapsed":553388,"internal_node_id":"0.0-2.0-25.0"},{"group":"tri cycles (cube, non-group)","room_assignment":["red","blue","yellow","grey","brown","pink","green","purple"],"door_color_assignment":["white","black"],"door_generator_assignment":[0,1],"goal":3,"start":1,"action_noise":0.1,"location_history":"[1,5,2,6,4,0,2,1,5,2,1,5,2,6,4,0,2,1,5,2,1,0,3]","action_history":"[1,1,1,0,1,1,0,1,1,0,1,1,1,0,1,1,1,1,1,0,1,1]","door_history":"[1,1,1,0,1,1,0,1,1,0,1,1,1,0,1,1,1,1,1,0,1,1]","location_rts":"[1951,464,547,458,261,391,761,547,428,335,663,406,560,434,616,408,398,547,391,377,562,409]","trial_type":"two-door-navigation","trial_index":28,"time_elapsed":591900,"internal_node_id":"0.0-2.0-26.0"},{"group":"tri cycles (cube, non-group)","room_assignment":["red","blue","yellow","grey","brown","pink","green","purple"],"door_color_assignment":["white","black"],"door_generator_assignment":[0,1],"goal":7,"start":3,"action_noise":0.1,"location_history":"[3,4,7]","action_history":"[1,0]","door_history":"[1,0]","location_rts":"[2015,560]","trial_type":"two-door-navigation","trial_index":29,"time_elapsed":600081,"internal_node_id":"0.0-2.0-27.0"},{"group":"tri cycles (cube, non-group)","room_assignment":["red","blue","yellow","grey","brown","pink","green","purple"],"door_color_assignment":["white","black"],"door_generator_assignment":[0,1],"goal":4,"start":7,"action_noise":0.1,"location_history":"[7,3,4]","action_history":"[1,1]","door_history":"[1,1]","location_rts":"[4262,3367]","trial_type":"two-door-navigation","trial_index":30,"time_elapsed":613305,"internal_node_id":"0.0-2.0-28.0"},{"group":"tri cycles (cube, non-group)","room_assignment":["red","blue","yellow","grey","brown","pink","green","purple"],"door_color_assignment":["white","black"],"door_generator_assignment":[0,1],"goal":0,"start":4,"action_noise":0.1,"location_history":"[4,7,6,5,2,1,5,1,5,2,1,0]","action_history":"[0,0,1,1,0,0,0,1,1,0,0]","door_history":"[0,0,1,1,0,0,0,1,1,0,0]","location_rts":"[1921,445,371,405,503,338,408,307,374,794,536]","trial_type":"two-door-navigation","trial_index":31,"time_elapsed":634775,"internal_node_id":"0.0-2.0-29.0"},{"group":"tri cycles (cube, non-group)","room_assignment":["red","blue","yellow","grey","brown","pink","green","purple"],"door_color_assignment":["white","black"],"door_generator_assignment":[0,1],"goal":5,"start":0,"action_noise":0.1,"location_history":"[0,3,4,7,3,4,0,2,6,5]","action_history":"[1,1,0,1,1,1,0,1,1]","door_history":"[1,1,0,1,1,1,0,1,1]","location_rts":"[783,433,327,403,489,430,213,218,368]","trial_type":"two-door-navigation","trial_index":32,"time_elapsed":651395,"internal_node_id":"0.0-2.0-30.0"},{"group":"tri cycles (cube, non-group)","room_assignment":["red","blue","yellow","grey","brown","pink","green","purple"],"door_color_assignment":["white","black"],"door_generator_assignment":[0,1],"goal":3,"start":5,"action_noise":0.1,"location_history":"[5,2,6,4,7,3]","action_history":"[0,1,1,0,1]","door_history":"[0,1,1,0,1]","location_rts":"[389,271,440,1020,262]","trial_type":"two-door-navigation","trial_index":33,"time_elapsed":662506,"internal_node_id":"0.0-2.0-31.0"},{"group":"tri cycles (cube, non-group)","room_assignment":["red","blue","yellow","grey","brown","pink","green","purple"],"door_color_assignment":["white","black"],"door_generator_assignment":[0,1],"goal":2,"start":3,"action_noise":0.1,"location_history":"[3,7,6,4,7,6,4,7,3,4,7,6,4,7,6,5,2]","action_history":"[1,0,0,1,0,0,0,1,1,0,0,0,0,0,1,1]","door_history":"[1,0,0,1,0,0,0,1,1,0,0,0,0,0,1,1]","location_rts":"[641,357,390,350,350,387,323,318,702,317,360,313,384,341,289,361]","trial_type":"two-door-navigation","trial_index":34,"time_elapsed":688985,"internal_node_id":"0.0-2.0-32.0"},{"group":"tri cycles (cube, non-group)","room_assignment":["red","blue","yellow","grey","brown","pink","green","purple"],"door_color_assignment":["white","black"],"door_generator_assignment":[0,1],"goal":6,"start":2,"action_noise":0.1,"location_history":"[2,1,0,3,7,6]","action_history":"[0,0,0,0,0]","door_history":"[0,0,0,0,0]","location_rts":"[309,264,330,396,333]","trial_type":"two-door-navigation","trial_index":35,"time_elapsed":699367,"internal_node_id":"0.0-2.0-33.0"},{"group":"tri cycles (cube, non-group)","room_assignment":["red","blue","yellow","grey","brown","pink","green","purple"],"door_color_assignment":["white","black"],"door_generator_assignment":[0,1],"goal":1,"start":6,"action_noise":0.1,"location_history":"[6,4,7,6,4,7,6,5,2,6,5,1]","action_history":"[1,0,0,0,0,0,1,1,1,1,0]","door_history":"[1,0,0,0,0,0,1,1,1,1,0]","location_rts":"[807,466,375,436,475,701,441,359,1010,395,684]","trial_type":"two-door-navigation","trial_index":36,"time_elapsed":720596,"internal_node_id":"0.0-2.0-34.0"},{"group":"tri cycles (cube, non-group)","room_assignment":["red","blue","yellow","grey","brown","pink","green","purple"],"door_color_assignment":["white","black"],"door_generator_assignment":[0,1],"goal":7,"start":1,"action_noise":0.1,"location_history":"[1,5,1,0,2,1,0,3,4,7]","action_history":"[1,0,0,0,0,0,1,1,1]","door_history":"[1,0,0,0,0,0,1,1,1]","location_rts":"[445,565,333,392,394,542,628,325,656]","trial_type":"two-door-navigation","trial_index":37,"time_elapsed":737783,"internal_node_id":"0.0-2.0-35.0"},{"group":"tri cycles (cube, non-group)","room_assignment":["red","blue","yellow","grey","brown","pink","green","purple"],"door_color_assignment":["white","black"],"door_generator_assignment":[0,1],"goal":4,"start":7,"action_noise":0.1,"location_history":"[7,6,5,2,1,5,2,1,5,2,1,0,3,4]","action_history":"[0,1,1,0,1,1,0,1,1,0,1,1,1]","door_history":"[0,1,1,0,1,1,0,1,1,0,1,1,1]","location_rts":"[836,465,364,360,301,391,524,307,393,401,2232,2483,692]","trial_type":"two-door-navigation","trial_index":38,"time_elapsed":764663,"internal_node_id":"0.0-2.0-36.0"},{"group":"tri cycles (cube, non-group)","room_assignment":["red","blue","yellow","grey","brown","pink","green","purple"],"door_color_assignment":["white","black"],"door_generator_assignment":[0,1],"goal":5,"start":4,"action_noise":0.1,"location_history":"[4,7,3,4,0,2,6,4,7,6,5]","action_history":"[0,1,1,1,1,1,1,0,0,1]","door_history":"[0,1,1,1,1,1,1,0,0,1]","location_rts":"[1291,398,532,1089,631,783,581,7904,567,604]","trial_type":"two-door-navigation","trial_index":39,"time_elapsed":793082,"internal_node_id":"0.0-2.0-37.0"},{"group":"tri cycles (cube, non-group)","room_assignment":["red","blue","yellow","grey","brown","pink","green","purple"],"door_color_assignment":["white","black"],"door_generator_assignment":[0,1],"goal":0,"start":5,"action_noise":0.1,"location_history":"[5,1,0]","action_history":"[1,0]","door_history":"[1,0]","location_rts":"[1066,357]","trial_type":"two-door-navigation","trial_index":40,"time_elapsed":800127,"internal_node_id":"0.0-2.0-38.0"},{"group":"tri cycles (cube, non-group)","room_assignment":["red","blue","yellow","grey","brown","pink","green","purple"],"door_color_assignment":["white","black"],"door_generator_assignment":[0,1],"goal":4,"start":0,"action_noise":0.1,"location_history":"[0,3,7,3,4]","action_history":"[1,0,1,1]","door_history":"[1,0,1,1]","location_rts":"[4706,417,355,350]","trial_type":"two-door-navigation","trial_index":41,"time_elapsed":813651,"internal_node_id":"0.0-2.0-39.0"},{"group":"tri cycles (cube, non-group)","room_assignment":["red","blue","yellow","grey","brown","pink","green","purple"],"door_color_assignment":["white","black"],"door_generator_assignment":[0,1],"goal":0,"start":4,"action_noise":0.1,"location_history":"[4,7,3,4,7,6,4,7,6,5,2,6,5,1,0]","action_history":"[0,1,1,0,0,0,0,0,1,1,1,1,1,0]","door_history":"[0,1,1,0,0,0,0,0,1,1,1,1,1,0]","location_rts":"[2249,891,507,657,382,324,474,499,568,371,333,429,316,298]","trial_type":"two-door-navigation","trial_index":42,"time_elapsed":840159,"internal_node_id":"0.0-2.0-40.0"},{"group":"tri cycles (cube, non-group)","room_assignment":["red","blue","yellow","grey","brown","pink","green","purple"],"door_color_assignment":["white","black"],"door_generator_assignment":[0,1],"goal":2,"start":0,"action_noise":0.1,"location_history":"[0,3,4,7,3,4,7,6,4,7,6,4,7,3,4,0,3,4,7,6,4,7,3,4,0,3,4,7,6,4,7,6,4,7,3,4,0,2]","action_history":"[1,1,1,1,1,0,0,0,0,0,0,0,1,1,1,1,1,0,0,0,0,1,1,1,1,1,0,0,0,0,0,0,0,1,1,1,0]","door_history":"[1,1,1,1,1,0,0,0,0,0,0,0,1,1,1,1,1,0,0,0,0,1,1,1,1,1,0,0,0,0,0,0,0,1,1,1,0]","location_rts":"[1550,278,342,434,291,491,365,348,347,421,613,400,431,1740,357,526,368,395,1079,646,335,460,465,573,370,401,260,339,383,377,384,386,395,309,392,370,427]","trial_type":"two-door-navigation","trial_index":43,"time_elapsed":900590,"internal_node_id":"0.0-2.0-41.0"},{"group":"tri cycles (cube, non-group)","room_assignment":["red","blue","yellow","grey","brown","pink","green","purple"],"door_color_assignment":["white","black"],"door_generator_assignment":[0,1],"goal":3,"start":2,"action_noise":0.1,"location_history":"[2,1,5,2,1,5,2,6,5,2,1,5,2,6,4,0,3]","action_history":"[0,1,1,0,1,1,0,1,1,0,1,1,1,0,1,1]","door_history":"[0,1,1,0,1,1,0,1,1,0,1,1,1,0,1,1]","location_rts":"[462,484,444,374,303,437,340,245,505,309,220,396,237,131,60,370]","trial_type":"two-door-navigation","trial_index":44,"time_elapsed":926220,"internal_node_id":"0.0-2.0-42.0"},{"group":"tri cycles (cube, non-group)","room_assignment":["red","blue","yellow","grey","brown","pink","green","purple"],"door_color_assignment":["white","black"],"door_generator_assignment":[0,1],"goal":5,"start":3,"action_noise":0.1,"location_history":"[3,4,7,3,4,0,3,4,0,3,4,0,2,1,5]","action_history":"[1,0,1,1,0,1,1,1,0,1,1,0,1,1]","door_history":"[1,0,1,1,0,1,1,1,0,1,1,0,1,1]","location_rts":"[1901,321,311,365,350,401,365,426,357,331,327,251,816,369]","trial_type":"two-door-navigation","trial_index":45,"time_elapsed":951312,"internal_node_id":"0.0-2.0-43.0"},{"group":"tri cycles (cube, non-group)","room_assignment":["red","blue","yellow","grey","brown","pink","green","purple"],"door_color_assignment":["white","black"],"door_generator_assignment":[0,1],"goal":1,"start":5,"action_noise":0.1,"location_history":"[5,1]","action_history":"[0]","door_history":"[0]","location_rts":"[1182]","trial_type":"two-door-navigation","trial_index":46,"time_elapsed":957043,"internal_node_id":"0.0-2.0-44.0"},{"group":"tri cycles (cube, non-group)","room_assignment":["red","blue","yellow","grey","brown","pink","green","purple"],"door_color_assignment":["white","black"],"door_generator_assignment":[0,1],"goal":7,"start":1,"action_noise":0.1,"location_history":"[1,0,3,7]","action_history":"[0,1,0]","door_history":"[0,1,0]","location_rts":"[5010,330,413]","trial_type":"two-door-navigation","trial_index":47,"time_elapsed":969443,"internal_node_id":"0.0-2.0-45.0"},{"group":"tri cycles (cube, non-group)","room_assignment":["red","blue","yellow","grey","brown","pink","green","purple"],"door_color_assignment":["white","black"],"door_generator_assignment":[0,1],"goal":6,"start":7,"action_noise":0.1,"location_history":"[7,6]","action_history":"[0]","door_history":"[0]","location_rts":"[551]","trial_type":"two-door-navigation","trial_index":48,"time_elapsed":974562,"internal_node_id":"0.0-2.0-46.0"},{"group":"tri cycles (cube, non-group)","room_assignment":["red","blue","yellow","grey","brown","pink","green","purple"],"door_color_assignment":["white","black"],"door_generator_assignment":[0,1],"goal":3,"start":6,"action_noise":0.1,"location_history":"[6,4,0,2,6,4,0,3]","action_history":"[1,1,0,0,1,1,1]","door_history":"[1,1,0,0,1,1,1]","location_rts":"[900,627,312,11136,296,362,470]","trial_type":"two-door-navigation","trial_index":49,"time_elapsed":999531,"internal_node_id":"0.0-2.0-47.0"},{"group":"tri cycles (cube, non-group)","room_assignment":["red","blue","yellow","grey","brown","pink","green","purple"],"door_color_assignment":["white","black"],"door_generator_assignment":[0,1],"goal":0,"start":3,"action_noise":0.1,"location_history":"[3,4,7,6,4,7,3,4,7,6,4,0]","action_history":"[1,0,0,0,0,1,1,0,0,0,1]","door_history":"[1,0,0,0,0,1,1,0,0,0,1]","location_rts":"[17744,266,441,254,1074,428,332,329,693,626,326]","trial_type":"two-door-navigation","trial_index":50,"time_elapsed":1037112,"internal_node_id":"0.0-2.0-48.0"},{"group":"tri cycles (cube, non-group)","room_assignment":["red","blue","yellow","grey","brown","pink","green","purple"],"door_color_assignment":["white","black"],"door_generator_assignment":[0,1],"goal":2,"start":0,"action_noise":0.1,"location_history":"[0,2]","action_history":"[0]","door_history":"[0]","location_rts":"[1234]","trial_type":"two-door-navigation","trial_index":51,"time_elapsed":1042895,"internal_node_id":"0.0-2.0-49.0"},{"view_history":"[{\"page_index\":0,\"viewing_time\":2307}]","rt":2307,"trial_type":"instructions","trial_index":52,"time_elapsed":1046206,"internal_node_id":"0.0-3.0"},{"view_history":"[{\"page_index\":0,\"viewing_time\":2068},{\"page_index\":1,\"viewing_time\":7429}]","rt":9497,"trial_type":"instructions","trial_index":53,"time_elapsed":1056709,"internal_node_id":"0.0-4.0"},{"group":"tri cycles (cube, non-group)","fractal_assignment":["../images/cyn_red.png","../images/org_blu.png","../images/grn_red.png","../images/ylw_pnk.png","../images/gry_blk.png","../images/blu_wht.png","../images/pnk_blu.png","../images/ylw_slt.png"],"mutagen_generator_assignment":[0,1],"goal":3,"start":0,"action_noise":0.1,"location_history":"[0,2,6,4,7,6,5,2,1,0,3]","action_history":"[0,1,0,0,0,1,1,0,1,1]","mutagen_history":"[0,1,0,0,0,1,1,0,1,1]","location_rts":"[3048,4366,1314,1239,579,546,455,1664,775,592]","trial_type":"fractal-mutation","trial_index":54,"time_elapsed":1085556,"internal_node_id":"0.0-5.0-0.0"},{"group":"tri cycles (cube, non-group)","fractal_assignment":["../images/cyn_red.png","../images/org_blu.png","../images/grn_red.png","../images/ylw_pnk.png","../images/gry_blk.png","../images/blu_wht.png","../images/pnk_blu.png","../images/ylw_slt.png"],"mutagen_generator_assignment":[0,1],"goal":1,"start":3,"action_noise":0.1,"location_history":"[3,7,6,5,2,1]","action_history":"[0,0,1,1,0]","mutagen_history":"[0,0,1,1,0]","location_rts":"[2344,546,573,484,446]","trial_type":"fractal-mutation","trial_index":55,"time_elapsed":1098821,"internal_node_id":"0.0-5.0-1.0"},{"group":"tri cycles (cube, non-group)","fractal_assignment":["../images/cyn_red.png","../images/org_blu.png","../images/grn_red.png","../images/ylw_pnk.png","../images/gry_blk.png","../images/blu_wht.png","../images/pnk_blu.png","../images/ylw_slt.png"],"mutagen_generator_assignment":[0,1],"goal":2,"start":1,"action_noise":0.1,"location_history":"[1,0,2]","action_history":"[0,0]","mutagen_history":"[0,0]","location_rts":"[287,509]","trial_type":"fractal-mutation","trial_index":56,"time_elapsed":1105250,"internal_node_id":"0.0-5.0-2.0"},{"group":"tri cycles (cube, non-group)","fractal_assignment":["../images/cyn_red.png","../images/org_blu.png","../images/grn_red.png","../images/ylw_pnk.png","../images/gry_blk.png","../images/blu_wht.png","../images/pnk_blu.png","../images/ylw_slt.png"],"mutagen_generator_assignment":[0,1],"goal":6,"start":2,"action_noise":0.1,"location_history":"[2,1,5,2,1,5,2,6]","action_history":"[0,1,1,0,1,1,1]","mutagen_history":"[0,1,1,0,1,1,1]","location_rts":"[304,336,495,449,458,451,456]","trial_type":"fractal-mutation","trial_index":57,"time_elapsed":1119268,"internal_node_id":"0.0-5.0-3.0"},{"group":"tri cycles (cube, non-group)","fractal_assignment":["../images/cyn_red.png","../images/org_blu.png","../images/grn_red.png","../images/ylw_pnk.png","../images/gry_blk.png","../images/blu_wht.png","../images/pnk_blu.png","../images/ylw_slt.png"],"mutagen_generator_assignment":[0,1],"goal":5,"start":6,"action_noise":0.1,"location_history":"[6,4,0,3,4,7,3,7,6,5]","action_history":"[0,1,1,1,1,1,1,0,0]","mutagen_history":"[0,1,1,1,1,1,1,0,0]","location_rts":"[358,375,388,423,495,403,395,537,621]","trial_type":"fractal-mutation","trial_index":58,"time_elapsed":1136429,"internal_node_id":"0.0-5.0-4.0"},{"group":"tri cycles (cube, non-group)","fractal_assignment":["../images/cyn_red.png","../images/org_blu.png","../images/grn_red.png","../images/ylw_pnk.png","../images/gry_blk.png","../images/blu_wht.png","../images/pnk_blu.png","../images/ylw_slt.png"],"mutagen_generator_assignment":[0,1],"goal":4,"start":5,"action_noise":0.1,"location_history":"[5,1,0,2,1,0,2,6,5,2,1,5,1,5,2,6,4]","action_history":"[0,0,0,0,0,0,1,1,1,0,1,0,1,1,1,0]","mutagen_history":"[0,0,0,0,0,0,1,1,1,0,1,0,1,1,1,0]","location_rts":"[712,290,406,473,350,437,343,467,442,434,439,447,332,356,558,419]","trial_type":"fractal-mutation","trial_index":59,"time_elapsed":1163964,"internal_node_id":"0.0-5.0-5.0"},{"group":"tri cycles (cube, non-group)","fractal_assignment":["../images/cyn_red.png","../images/org_blu.png","../images/grn_red.png","../images/ylw_pnk.png","../images/gry_blk.png","../images/blu_wht.png","../images/pnk_blu.png","../images/ylw_slt.png"],"mutagen_generator_assignment":[0,1],"goal":7,"start":4,"action_noise":0.1,"location_history":"[4,0,3,4,7]","action_history":"[1,1,0,0]","mutagen_history":"[1,1,0,0]","location_rts":"[583,2303,284,2138]","trial_type":"fractal-mutation","trial_index":60,"time_elapsed":1177074,"internal_node_id":"0.0-5.0-6.0"},{"group":"tri cycles (cube, non-group)","fractal_assignment":["../images/cyn_red.png","../images/org_blu.png","../images/grn_red.png","../images/ylw_pnk.png","../images/gry_blk.png","../images/blu_wht.png","../images/pnk_blu.png","../images/ylw_slt.png"],"mutagen_generator_assignment":[0,1],"goal":4,"start":7,"action_noise":0.1,"location_history":"[7,3,7,6,4]","action_history":"[1,0,0,1]","mutagen_history":"[1,0,0,1]","location_rts":"[421,359,429,358]","trial_type":"fractal-mutation","trial_index":61,"time_elapsed":1186458,"internal_node_id":"0.0-5.0-7.0"},{"group":"tri cycles (cube, non-group)","fractal_assignment":["../images/cyn_red.png","../images/org_blu.png","../images/grn_red.png","../images/ylw_pnk.png","../images/gry_blk.png","../images/blu_wht.png","../images/pnk_blu.png","../images/ylw_slt.png"],"mutagen_generator_assignment":[0,1],"goal":6,"start":4,"action_noise":0.1,"location_history":"[4,7,3,4,0,3,7,3,4,0,3,7,6]","action_history":"[0,1,1,0,1,0,1,1,1,1,0,0]","mutagen_history":"[0,1,1,0,1,0,1,1,1,1,0,0]","location_rts":"[357,275,434,393,629,428,385,470,492,432,290,486]","trial_type":"fractal-mutation","trial_index":62,"time_elapsed":1207881,"internal_node_id":"0.0-5.0-8.0"},{"group":"tri cycles (cube, non-group)","fractal_assignment":["../images/cyn_red.png","../images/org_blu.png","../images/grn_red.png","../images/ylw_pnk.png","../images/gry_blk.png","../images/blu_wht.png","../images/pnk_blu.png","../images/ylw_slt.png"],"mutagen_generator_assignment":[0,1],"goal":0,"start":6,"action_noise":0.1,"location_history":"[6,4,0]","action_history":"[0,1]","mutagen_history":"[0,1]","location_rts":"[337,286]","trial_type":"fractal-mutation","trial_index":63,"time_elapsed":1214160,"internal_node_id":"0.0-5.0-9.0"},{"group":"tri cycles (cube, non-group)","fractal_assignment":["../images/cyn_red.png","../images/org_blu.png","../images/grn_red.png","../images/ylw_pnk.png","../images/gry_blk.png","../images/blu_wht.png","../images/pnk_blu.png","../images/ylw_slt.png"],"mutagen_generator_assignment":[0,1],"goal":1,"start":0,"action_noise":0.1,"location_history":"[0,3,7,3,4,0,2,1]","action_history":"[1,0,0,1,1,0,0]","mutagen_history":"[1,0,0,1,1,0,0]","location_rts":"[1132,487,489,472,388,390,534]","trial_type":"fractal-mutation","trial_index":64,"time_elapsed":1229061,"internal_node_id":"0.0-5.0-10.0"},{"group":"tri cycles (cube, non-group)","fractal_assignment":["../images/cyn_red.png","../images/org_blu.png","../images/grn_red.png","../images/ylw_pnk.png","../images/gry_blk.png","../images/blu_wht.png","../images/pnk_blu.png","../images/ylw_slt.png"],"mutagen_generator_assignment":[0,1],"goal":3,"start":1,"action_noise":0.1,"location_history":"[1,5,1,0,3]","action_history":"[1,0,0,1]","mutagen_history":"[1,0,0,1]","location_rts":"[424,449,594,521]","trial_type":"fractal-mutation","trial_index":65,"time_elapsed":1238861,"internal_node_id":"0.0-5.0-11.0"},{"group":"tri cycles (cube, non-group)","fractal_assignment":["../images/cyn_red.png","../images/org_blu.png","../images/grn_red.png","../images/ylw_pnk.png","../images/gry_blk.png","../images/blu_wht.png","../images/pnk_blu.png","../images/ylw_slt.png"],"mutagen_generator_assignment":[0,1],"goal":7,"start":3,"action_noise":0.1,"location_history":"[3,7]","action_history":"[0]","mutagen_history":"[0]","location_rts":"[493]","trial_type":"fractal-mutation","trial_index":66,"time_elapsed":1243934,"internal_node_id":"0.0-5.0-12.0"},{"group":"tri cycles (cube, non-group)","fractal_assignment":["../images/cyn_red.png","../images/org_blu.png","../images/grn_red.png","../images/ylw_pnk.png","../images/gry_blk.png","../images/blu_wht.png","../images/pnk_blu.png","../images/ylw_slt.png"],"mutagen_generator_assignment":[0,1],"goal":5,"start":7,"action_noise":0.1,"location_history":"[7,6,5]","action_history":"[1,1]","mutagen_history":"[1,1]","location_rts":"[387,452]","trial_type":"fractal-mutation","trial_index":67,"time_elapsed":1250435,"internal_node_id":"0.0-5.0-13.0"},{"group":"tri cycles (cube, non-group)","fractal_assignment":["../images/cyn_red.png","../images/org_blu.png","../images/grn_red.png","../images/ylw_pnk.png","../images/gry_blk.png","../images/blu_wht.png","../images/pnk_blu.png","../images/ylw_slt.png"],"mutagen_generator_assignment":[0,1],"goal":2,"start":5,"action_noise":0.1,"location_history":"[5,2]","action_history":"[1]","mutagen_history":"[1]","location_rts":"[377]","trial_type":"fractal-mutation","trial_index":68,"time_elapsed":1255394,"internal_node_id":"0.0-5.0-14.0"},{"group":"tri cycles (cube, non-group)","fractal_assignment":["../images/cyn_red.png","../images/org_blu.png","../images/grn_red.png","../images/ylw_pnk.png","../images/gry_blk.png","../images/blu_wht.png","../images/pnk_blu.png","../images/ylw_slt.png"],"mutagen_generator_assignment":[0,1],"goal":7,"start":2,"action_noise":0.1,"location_history":"[2,1,5,2,6,5,1,0,3,4,0,3,7]","action_history":"[0,1,1,1,1,0,0,1,1,1,1,0]","mutagen_history":"[0,1,1,1,1,0,0,1,1,1,1,0]","location_rts":"[452,530,668,339,487,347,412,505,731,406,416,380]","trial_type":"fractal-mutation","trial_index":69,"time_elapsed":1277450,"internal_node_id":"0.0-5.0-15.0"},{"group":"tri cycles (cube, non-group)","fractal_assignment":["../images/cyn_red.png","../images/org_blu.png","../images/grn_red.png","../images/ylw_pnk.png","../images/gry_blk.png","../images/blu_wht.png","../images/pnk_blu.png","../images/ylw_slt.png"],"mutagen_generator_assignment":[0,1],"goal":4,"start":7,"action_noise":0.1,"location_history":"[7,6,5,2,6,4]","action_history":"[0,1,1,1,0]","mutagen_history":"[0,1,1,1,0]","location_rts":"[499,351,461,423,412]","trial_type":"fractal-mutation","trial_index":70,"time_elapsed":1288448,"internal_node_id":"0.0-5.0-16.0"},{"group":"tri cycles (cube, non-group)","fractal_assignment":["../images/cyn_red.png","../images/org_blu.png","../images/grn_red.png","../images/ylw_pnk.png","../images/gry_blk.png","../images/blu_wht.png","../images/pnk_blu.png","../images/ylw_slt.png"],"mutagen_generator_assignment":[0,1],"goal":2,"start":4,"action_noise":0.1,"location_history":"[4,7,6,4,0,3,7,6,4,0,3,4,0,3,4,7,6,5,1,5,1,0,3,4,0,2]","action_history":"[0,0,0,1,1,0,0,0,1,1,1,1,1,1,0,0,1,0,1,0,0,1,1,0,0]","mutagen_history":"[0,0,0,1,1,0,0,0,1,1,1,1,1,1,0,0,1,0,1,0,0,1,1,0,0]","location_rts":"[832,421,459,345,418,593,468,429,574,384,312,353,422,357,300,400,502,380,753,407,373,434,569,358,538]","trial_type":"fractal-mutation","trial_index":71,"time_elapsed":1330168,"internal_node_id":"0.0-5.0-17.0"},{"group":"tri cycles (cube, non-group)","fractal_assignment":["../images/cyn_red.png","../images/org_blu.png","../images/grn_red.png","../images/ylw_pnk.png","../images/gry_blk.png","../images/blu_wht.png","../images/pnk_blu.png","../images/ylw_slt.png"],"mutagen_generator_assignment":[0,1],"goal":3,"start":2,"action_noise":0.1,"location_history":"[2,6,4,0,3]","action_history":"[0,1,1,1]","mutagen_history":"[0,1,1,1]","location_rts":"[428,455,444,567]","trial_type":"fractal-mutation","trial_index":72,"time_elapsed":1339869,"internal_node_id":"0.0-5.0-18.0"},{"group":"tri cycles (cube, non-group)","fractal_assignment":["../images/cyn_red.png","../images/org_blu.png","../images/grn_red.png","../images/ylw_pnk.png","../images/gry_blk.png","../images/blu_wht.png","../images/pnk_blu.png","../images/ylw_slt.png"],"mutagen_generator_assignment":[0,1],"goal":6,"start":3,"action_noise":0.1,"location_history":"[3,7,3,4,7,6]","action_history":"[0,1,1,0,0]","mutagen_history":"[0,1,1,0,0]","location_rts":"[432,412,501,595,429]","trial_type":"fractal-mutation","trial_index":73,"time_elapsed":1351133,"internal_node_id":"0.0-5.0-19.0"},{"group":"tri cycles (cube, non-group)","fractal_assignment":["../images/cyn_red.png","../images/org_blu.png","../images/grn_red.png","../images/ylw_pnk.png","../images/gry_blk.png","../images/blu_wht.png","../images/pnk_blu.png","../images/ylw_slt.png"],"mutagen_generator_assignment":[0,1],"goal":5,"start":6,"action_noise":0.1,"location_history":"[6,4,0,3,7,3,4,0,2,1,0,3,7,3,7,6,5]","action_history":"[0,1,1,1,1,1,1,0,0,0,1,0,1,0,0,0]","mutagen_history":"[0,1,1,1,1,1,1,0,0,0,1,0,1,0,0,0]","location_rts":"[370,340,441,402,689,374,406,286,362,434,494,346,524,382,267,537]","trial_type":"fractal-mutation","trial_index":74,"time_elapsed":1378506,"internal_node_id":"0.0-5.0-20.0"},{"group":"tri cycles (cube, non-group)","fractal_assignment":["../images/cyn_red.png","../images/org_blu.png","../images/grn_red.png","../images/ylw_pnk.png","../images/gry_blk.png","../images/blu_wht.png","../images/pnk_blu.png","../images/ylw_slt.png"],"mutagen_generator_assignment":[0,1],"goal":1,"start":5,"action_noise":0.1,"location_history":"[5,1]","action_history":"[0]","mutagen_history":"[0]","location_rts":"[503]","trial_type":"fractal-mutation","trial_index":75,"time_elapsed":1383585,"internal_node_id":"0.0-5.0-21.0"},{"group":"tri cycles (cube, non-group)","fractal_assignment":["../images/cyn_red.png","../images/org_blu.png","../images/grn_red.png","../images/ylw_pnk.png","../images/gry_blk.png","../images/blu_wht.png","../images/pnk_blu.png","../images/ylw_slt.png"],"mutagen_generator_assignment":[0,1],"goal":0,"start":1,"action_noise":0.1,"location_history":"[1,0]","action_history":"[0]","mutagen_history":"[0]","location_rts":"[2781]","trial_type":"fractal-mutation","trial_index":76,"time_elapsed":1390952,"internal_node_id":"0.0-5.0-22.0"},{"group":"tri cycles (cube, non-group)","fractal_assignment":["../images/cyn_red.png","../images/org_blu.png","../images/grn_red.png","../images/ylw_pnk.png","../images/gry_blk.png","../images/blu_wht.png","../images/pnk_blu.png","../images/ylw_slt.png"],"mutagen_generator_assignment":[0,1],"goal":2,"start":0,"action_noise":0.1,"location_history":"[0,3,7,6,4,7,3,4,0,3,4,0,2]","action_history":"[1,0,0,0,0,1,1,1,1,1,1,0]","mutagen_history":"[1,0,0,0,0,1,1,1,1,1,1,0]","location_rts":"[728,329,489,382,413,363,312,347,252,339,306,285]","trial_type":"fractal-mutation","trial_index":77,"time_elapsed":1411928,"internal_node_id":"0.0-5.0-23.0"},{"group":"tri cycles (cube, non-group)","fractal_assignment":["../images/cyn_red.png","../images/org_blu.png","../images/grn_red.png","../images/ylw_pnk.png","../images/gry_blk.png","../images/blu_wht.png","../images/pnk_blu.png","../images/ylw_slt.png"],"mutagen_generator_assignment":[0,1],"goal":6,"start":2,"action_noise":0.1,"location_history":"[2,1,0,3,4,7,6]","action_history":"[0,0,1,1,0,0]","mutagen_history":"[0,0,1,1,0,0]","location_rts":"[1428,477,457,460,340,406]","trial_type":"fractal-mutation","trial_index":78,"time_elapsed":1425453,"internal_node_id":"0.0-5.0-24.0"},{"group":"tri cycles (cube, non-group)","fractal_assignment":["../images/cyn_red.png","../images/org_blu.png","../images/grn_red.png","../images/ylw_pnk.png","../images/gry_blk.png","../images/blu_wht.png","../images/pnk_blu.png","../images/ylw_slt.png"],"mutagen_generator_assignment":[0,1],"goal":1,"start":6,"action_noise":0.1,"location_history":"[6,4,0,3,4,7,3,7,6,5,2,6,5,1]","action_history":"[0,1,1,1,0,0,0,1,1,1,1,1,0]","mutagen_history":"[0,1,1,1,0,0,0,1,1,1,1,1,0]","location_rts":"[3941,430,729,419,279,392,431,390,331,353,491,786,319]","trial_type":"fractal-mutation","trial_index":79,"time_elapsed":1452192,"internal_node_id":"0.0-5.0-25.0"},{"group":"tri cycles (cube, non-group)","fractal_assignment":["../images/cyn_red.png","../images/org_blu.png","../images/grn_red.png","../images/ylw_pnk.png","../images/gry_blk.png","../images/blu_wht.png","../images/pnk_blu.png","../images/ylw_slt.png"],"mutagen_generator_assignment":[0,1],"goal":3,"start":1,"action_noise":0.1,"location_history":"[1,0,3]","action_history":"[0,1]","mutagen_history":"[0,1]","location_rts":"[733,389]","trial_type":"fractal-mutation","trial_index":80,"time_elapsed":1458976,"internal_node_id":"0.0-5.0-26.0"},{"group":"tri cycles (cube, non-group)","fractal_assignment":["../images/cyn_red.png","../images/org_blu.png","../images/grn_red.png","../images/ylw_pnk.png","../images/gry_blk.png","../images/blu_wht.png","../images/pnk_blu.png","../images/ylw_slt.png"],"mutagen_generator_assignment":[0,1],"goal":7,"start":3,"action_noise":0.1,"location_history":"[3,4,0,2,1,5,1,0,2,6,5,2,6,5,2,1,5,2,1,0,3,4,0,3,4,7]","action_history":"[1,1,0,0,1,0,0,0,1,1,1,1,1,1,0,0,0,0,0,1,1,1,1,1,0]","mutagen_history":"[1,1,0,0,1,0,0,0,1,1,1,1,1,1,0,0,0,0,0,1,1,1,1,1,0]","location_rts":"[670,453,537,441,397,434,485,581,387,577,584,360,620,644,398,363,487,564,3013,228,392,365,1017,677,397]","trial_type":"fractal-mutation","trial_index":81,"time_elapsed":1504382,"internal_node_id":"0.0-5.0-27.0"},{"group":"tri cycles (cube, non-group)","fractal_assignment":["../images/cyn_red.png","../images/org_blu.png","../images/grn_red.png","../images/ylw_pnk.png","../images/gry_blk.png","../images/blu_wht.png","../images/pnk_blu.png","../images/ylw_slt.png"],"mutagen_generator_assignment":[0,1],"goal":4,"start":7,"action_noise":0.1,"location_history":"[7,3,4]","action_history":"[0,1]","mutagen_history":"[0,1]","location_rts":"[399,791]","trial_type":"fractal-mutation","trial_index":82,"time_elapsed":1511232,"internal_node_id":"0.0-5.0-28.0"},{"group":"tri cycles (cube, non-group)","fractal_assignment":["../images/cyn_red.png","../images/org_blu.png","../images/grn_red.png","../images/ylw_pnk.png","../images/gry_blk.png","../images/blu_wht.png","../images/pnk_blu.png","../images/ylw_slt.png"],"mutagen_generator_assignment":[0,1],"goal":0,"start":4,"action_noise":0.1,"location_history":"[4,7,6,4,0]","action_history":"[0,0,0,1]","mutagen_history":"[0,0,0,1]","location_rts":"[591,304,458,279]","trial_type":"fractal-mutation","trial_index":83,"time_elapsed":1520686,"internal_node_id":"0.0-5.0-29.0"},{"group":"tri cycles (cube, non-group)","fractal_assignment":["../images/cyn_red.png","../images/org_blu.png","../images/grn_red.png","../images/ylw_pnk.png","../images/gry_blk.png","../images/blu_wht.png","../images/pnk_blu.png","../images/ylw_slt.png"],"mutagen_generator_assignment":[0,1],"goal":5,"start":0,"action_noise":0.1,"location_history":"[0,2,6,5]","action_history":"[0,1,1]","mutagen_history":"[0,1,1]","location_rts":"[440,433,671]","trial_type":"fractal-mutation","trial_index":84,"time_elapsed":1528965,"internal_node_id":"0.0-5.0-30.0"},{"group":"tri cycles (cube, non-group)","fractal_assignment":["../images/cyn_red.png","../images/org_blu.png","../images/grn_red.png","../images/ylw_pnk.png","../images/gry_blk.png","../images/blu_wht.png","../images/pnk_blu.png","../images/ylw_slt.png"],"mutagen_generator_assignment":[0,1],"goal":3,"start":5,"action_noise":0.1,"location_history":"[5,1,0,2,6,5,2,6,5,2,6,4,7,6,5,2,6,4,7,6,5,1,0,2,1,5,2,6,5,2,6,5,1,0,3]","action_history":"[0,0,0,1,1,1,1,1,1,1,0,0,0,1,1,1,0,0,0,0,0,0,0,0,1,1,1,1,1,1,0,0,0,0]","mutagen_history":"[0,0,0,1,1,1,1,1,1,1,0,0,0,1,1,1,0,0,0,0,0,0,0,0,1,1,1,1,1,1,0,0,0,0]","location_rts":"[638,519,450,2100,384,381,331,361,427,464,265,339,350,510,392,526,444,419,267,300,393,319,4818,1009,2256,437,1744,363,307,500,324,1840,293,1256]","trial_type":"fractal-mutation","trial_index":85,"time_elapsed":1594708,"internal_node_id":"0.0-5.0-31.0"},{"group":"tri cycles (cube, non-group)","fractal_assignment":["../images/cyn_red.png","../images/org_blu.png","../images/grn_red.png","../images/ylw_pnk.png","../images/gry_blk.png","../images/blu_wht.png","../images/pnk_blu.png","../images/ylw_slt.png"],"mutagen_generator_assignment":[0,1],"goal":2,"start":3,"action_noise":0.1,"location_history":"[3,7,6,5,2]","action_history":"[0,1,1,1]","mutagen_history":"[0,1,1,1]","location_rts":"[702,306,341,1988]","trial_type":"fractal-mutation","trial_index":86,"time_elapsed":1605873,"internal_node_id":"0.0-5.0-32.0"},{"group":"tri cycles (cube, non-group)","fractal_assignment":["../images/cyn_red.png","../images/org_blu.png","../images/grn_red.png","../images/ylw_pnk.png","../images/gry_blk.png","../images/blu_wht.png","../images/pnk_blu.png","../images/ylw_slt.png"],"mutagen_generator_assignment":[0,1],"goal":6,"start":2,"action_noise":0.1,"location_history":"[2,6]","action_history":"[1]","mutagen_history":"[1]","location_rts":"[657]","trial_type":"fractal-mutation","trial_index":87,"time_elapsed":1611120,"internal_node_id":"0.0-5.0-33.0"},{"group":"tri cycles (cube, non-group)","fractal_assignment":["../images/cyn_red.png","../images/org_blu.png","../images/grn_red.png","../images/ylw_pnk.png","../images/gry_blk.png","../images/blu_wht.png","../images/pnk_blu.png","../images/ylw_slt.png"],"mutagen_generator_assignment":[0,1],"goal":1,"start":6,"action_noise":0.1,"location_history":"[6,4,0,2,1]","action_history":"[0,1,0,0]","mutagen_history":"[0,1,0,0]","location_rts":"[392,399,346,241]","trial_type":"fractal-mutation","trial_index":88,"time_elapsed":1620287,"internal_node_id":"0.0-5.0-34.0"},{"group":"tri cycles (cube, non-group)","fractal_assignment":["../images/cyn_red.png","../images/org_blu.png","../images/grn_red.png","../images/ylw_pnk.png","../images/gry_blk.png","../images/blu_wht.png","../images/pnk_blu.png","../images/ylw_slt.png"],"mutagen_generator_assignment":[0,1],"goal":7,"start":1,"action_noise":0.1,"location_history":"[1,0,3,4,7]","action_history":"[0,1,1,0]","mutagen_history":"[0,1,1,0]","location_rts":"[603,332,409,453]","trial_type":"fractal-mutation","trial_index":89,"time_elapsed":1629898,"internal_node_id":"0.0-5.0-35.0"},{"group":"tri cycles (cube, non-group)","fractal_assignment":["../images/cyn_red.png","../images/org_blu.png","../images/grn_red.png","../images/ylw_pnk.png","../images/gry_blk.png","../images/blu_wht.png","../images/pnk_blu.png","../images/ylw_slt.png"],"mutagen_generator_assignment":[0,1],"goal":4,"start":7,"action_noise":0.1,"location_history":"[7,3,7,3,7,3,4]","action_history":"[1,0,0,0,1,1]","mutagen_history":"[1,0,0,0,1,1]","location_rts":"[713,431,369,641,320,339]","trial_type":"fractal-mutation","trial_index":90,"time_elapsed":1642658,"internal_node_id":"0.0-5.0-36.0"},{"group":"tri cycles (cube, non-group)","fractal_assignment":["../images/cyn_red.png","../images/org_blu.png","../images/grn_red.png","../images/ylw_pnk.png","../images/gry_blk.png","../images/blu_wht.png","../images/pnk_blu.png","../images/ylw_slt.png"],"mutagen_generator_assignment":[0,1],"goal":5,"start":4,"action_noise":0.1,"location_history":"[4,7,6,4,7,6,4,7,6,5]","action_history":"[0,0,0,0,0,0,0,0,1]","mutagen_history":"[0,0,0,0,0,0,0,0,1]","location_rts":"[653,307,279,991,409,633,380,347,457]","trial_type":"fractal-mutation","trial_index":91,"time_elapsed":1660222,"internal_node_id":"0.0-5.0-37.0"},{"group":"tri cycles (cube, non-group)","fractal_assignment":["../images/cyn_red.png","../images/org_blu.png","../images/grn_red.png","../images/ylw_pnk.png","../images/gry_blk.png","../images/blu_wht.png","../images/pnk_blu.png","../images/ylw_slt.png"],"mutagen_generator_assignment":[0,1],"goal":0,"start":5,"action_noise":0.1,"location_history":"[5,1,5,2,6,5,2,6,5,2,6,5,1,0]","action_history":"[0,1,1,1,1,1,1,1,1,1,1,0,0]","mutagen_history":"[0,1,1,1,1,1,1,1,1,1,1,0,0]","location_rts":"[682,601,326,743,444,511,63,396,317,647,351,136,369]","trial_type":"fractal-mutation","trial_index":92,"time_elapsed":1683393,"internal_node_id":"0.0-5.0-38.0"},{"group":"tri cycles (cube, non-group)","fractal_assignment":["../images/cyn_red.png","../images/org_blu.png","../images/grn_red.png","../images/ylw_pnk.png","../images/gry_blk.png","../images/blu_wht.png","../images/pnk_blu.png","../images/ylw_slt.png"],"mutagen_generator_assignment":[0,1],"goal":4,"start":0,"action_noise":0.1,"location_history":"[0,2,1,0,2,6,5,2,6,4]","action_history":"[0,0,0,0,1,1,1,1,1]","mutagen_history":"[0,0,0,0,1,1,1,1,1]","location_rts":"[616,367,416,391,466,422,429,415,501]","trial_type":"fractal-mutation","trial_index":93,"time_elapsed":1700627,"internal_node_id":"0.0-5.0-39.0"},{"group":"tri cycles (cube, non-group)","fractal_assignment":["../images/cyn_red.png","../images/org_blu.png","../images/grn_red.png","../images/ylw_pnk.png","../images/gry_blk.png","../images/blu_wht.png","../images/pnk_blu.png","../images/ylw_slt.png"],"mutagen_generator_assignment":[0,1],"goal":0,"start":4,"action_noise":0.1,"location_history":"[4,0]","action_history":"[0]","mutagen_history":"[0]","location_rts":"[585]","trial_type":"fractal-mutation","trial_index":94,"time_elapsed":1705787,"internal_node_id":"0.0-5.0-40.0"},{"group":"tri cycles (cube, non-group)","fractal_assignment":["../images/cyn_red.png","../images/org_blu.png","../images/grn_red.png","../images/ylw_pnk.png","../images/gry_blk.png","../images/blu_wht.png","../images/pnk_blu.png","../images/ylw_slt.png"],"mutagen_generator_assignment":[0,1],"goal":2,"start":0,"action_noise":0.1,"location_history":"[0,2]","action_history":"[0]","mutagen_history":"[0]","location_rts":"[757]","trial_type":"fractal-mutation","trial_index":95,"time_elapsed":1711110,"internal_node_id":"0.0-5.0-41.0"},{"group":"tri cycles (cube, non-group)","fractal_assignment":["../images/cyn_red.png","../images/org_blu.png","../images/grn_red.png","../images/ylw_pnk.png","../images/gry_blk.png","../images/blu_wht.png","../images/pnk_blu.png","../images/ylw_slt.png"],"mutagen_generator_assignment":[0,1],"goal":3,"start":2,"action_noise":0.1,"location_history":"[2,1,0,2,1,0,2,6,5,2,6,5,2,6,5,2,6,5,2,6,5,2,6,4,0,3]","action_history":"[0,0,0,0,0,0,1,1,1,1,1,1,1,1,1,1,1,1,1,1,1,1,1,1,0]","mutagen_history":"[0,0,0,0,0,0,1,1,1,1,1,1,1,1,1,1,1,1,1,1,1,1,1,1,0]","location_rts":"[749,394,448,743,537,1623,618,643,454,568,476,387,495,350,1406,1269,299,280,702,403,348,388,463,424,385]","trial_type":"fractal-mutation","trial_index":96,"time_elapsed":1756454,"internal_node_id":"0.0-5.0-42.0"},{"group":"tri cycles (cube, non-group)","fractal_assignment":["../images/cyn_red.png","../images/org_blu.png","../images/grn_red.png","../images/ylw_pnk.png","../images/gry_blk.png","../images/blu_wht.png","../images/pnk_blu.png","../images/ylw_slt.png"],"mutagen_generator_assignment":[0,1],"goal":5,"start":3,"action_noise":0.1,"location_history":"[3,4,7,3,4,0,3,4,0,3,4,7,6,4,7,6,4,0,2,1,0,2,1,0,2,6,5]","action_history":"[0,0,1,1,1,1,1,1,1,1,1,0,0,0,0,0,0,0,0,0,0,0,0,0,1,1]","mutagen_history":"[0,0,1,1,1,1,1,1,1,1,1,0,0,0,0,0,0,0,0,0,0,0,0,0,1,1]","location_rts":"[706,336,189,396,301,350,402,425,542,362,396,304,402,399,371,550,369,420,390,636,401,382,500,627,483,503]","trial_type":"fractal-mutation","trial_index":97,"time_elapsed":1799060,"internal_node_id":"0.0-5.0-43.0"},{"group":"tri cycles (cube, non-group)","fractal_assignment":["../images/cyn_red.png","../images/org_blu.png","../images/grn_red.png","../images/ylw_pnk.png","../images/gry_blk.png","../images/blu_wht.png","../images/pnk_blu.png","../images/ylw_slt.png"],"mutagen_generator_assignment":[0,1],"goal":1,"start":5,"action_noise":0.1,"location_history":"[5,1]","action_history":"[0]","mutagen_history":"[0]","location_rts":"[651]","trial_type":"fractal-mutation","trial_index":98,"time_elapsed":1804309,"internal_node_id":"0.0-5.0-44.0"},{"group":"tri cycles (cube, non-group)","fractal_assignment":["../images/cyn_red.png","../images/org_blu.png","../images/grn_red.png","../images/ylw_pnk.png","../images/gry_blk.png","../images/blu_wht.png","../images/pnk_blu.png","../images/ylw_slt.png"],"mutagen_generator_assignment":[0,1],"goal":7,"start":1,"action_noise":0.1,"location_history":"[1,0,3,4,0,2,6,4,7]","action_history":"[0,1,1,1,0,0,0,0]","mutagen_history":"[0,1,1,1,0,0,0,0]","location_rts":"[1040,584,463,475,850,624,564,608]","trial_type":"fractal-mutation","trial_index":99,"time_elapsed":1821662,"internal_node_id":"0.0-5.0-45.0"},{"group":"tri cycles (cube, non-group)","fractal_assignment":["../images/cyn_red.png","../images/org_blu.png","../images/grn_red.png","../images/ylw_pnk.png","../images/gry_blk.png","../images/blu_wht.png","../images/pnk_blu.png","../images/ylw_slt.png"],"mutagen_generator_assignment":[0,1],"goal":6,"start":7,"action_noise":0.1,"location_history":"[7,3,4,0,3,4,0,3,4,0,3,4,0,2,6]","action_history":"[1,1,1,1,1,1,1,1,1,1,1,1,0,0]","mutagen_history":"[1,1,1,1,1,1,1,1,1,1,1,1,0,0]","location_rts":"[611,336,292,396,413,318,413,428,875,637,640,560,473,341]","trial_type":"fractal-mutation","trial_index":100,"time_elapsed":1846970,"internal_node_id":"0.0-5.0-46.0"},{"group":"tri cycles (cube, non-group)","fractal_assignment":["../images/cyn_red.png","../images/org_blu.png","../images/grn_red.png","../images/ylw_pnk.png","../images/gry_blk.png","../images/blu_wht.png","../images/pnk_blu.png","../images/ylw_slt.png"],"mutagen_generator_assignment":[0,1],"goal":3,"start":6,"action_noise":0.1,"location_history":"[6,4,7,6,4,0,3]","action_history":"[0,0,0,0,1,1]","mutagen_history":"[0,0,0,0,1,1]","location_rts":"[619,318,1119,505,732,516]","trial_type":"fractal-mutation","trial_index":101,"time_elapsed":1860712,"internal_node_id":"0.0-5.0-47.0"},{"group":"tri cycles (cube, non-group)","fractal_assignment":["../images/cyn_red.png","../images/org_blu.png","../images/grn_red.png","../images/ylw_pnk.png","../images/gry_blk.png","../images/blu_wht.png","../images/pnk_blu.png","../images/ylw_slt.png"],"mutagen_generator_assignment":[0,1],"goal":0,"start":3,"action_noise":0.1,"location_history":"[3,4,0]","action_history":"[0,1]","mutagen_history":"[0,1]","location_rts":"[315,454]","trial_type":"fractal-mutation","trial_index":102,"time_elapsed":1867130,"internal_node_id":"0.0-5.0-48.0"},{"group":"tri cycles (cube, non-group)","fractal_assignment":["../images/cyn_red.png","../images/org_blu.png","../images/grn_red.png","../images/ylw_pnk.png","../images/gry_blk.png","../images/blu_wht.png","../images/pnk_blu.png","../images/ylw_slt.png"],"mutagen_generator_assignment":[0,1],"goal":2,"start":0,"action_noise":0.1,"location_history":"[0,2]","action_history":"[0]","mutagen_history":"[0]","location_rts":"[384]","trial_type":"fractal-mutation","trial_index":103,"time_elapsed":1872103,"internal_node_id":"0.0-5.0-49.0"},{"view_history":"[{\"page_index\":0,\"viewing_time\":3267}]","rt":3267,"trial_type":"instructions","trial_index":104,"time_elapsed":1876374,"internal_node_id":"0.0-6.0"},{"rt":2224,"responses":"{\"Q0\":\"\"}","trial_type":"survey-text","trial_index":105,"time_elapsed":1879605,"internal_node_id":"0.0-7.0"}]