[{"view_history":"[{\"page_index\":0,\"viewing_time\":5259},{\"page_index\":1,\"viewing_time\":34364},{\"page_index\":2,\"viewing_time\":21241},{\"page_index\":3,\"viewing_time\":9721}]","rt":70586,"trial_type":"instructions","trial_index":0,"time_elapsed":70588,"internal_node_id":"0.0-0.0"},{"view_history":"[{\"page_index\":0,\"viewing_time\":19427},{\"page_index\":1,\"viewing_time\":59534}]","rt":78962,"trial_type":"instructions","trial_index":1,"time_elapsed":150551,"internal_node_id":"0.0-1.0"},{"group":"tri cycles (cube, non-group)","room_assignment":["green","purple","red","brown","grey","blue","pink","yellow"],"door_color_assignment":["white","black"],"door_generator_assignment":[1,0],"goal":3,"start":0,"action_noise":0.1,"location_history":"[0,3]","action_history":"[1]","door_history":"[0]","location_rts":"[4978]","trial_type":"two-door-navigation","trial_index":2,"time_elapsed":160075,"internal_node_id":"0.0-2.0-0.0"},{"group":"tri cycles (cube, non-group)","room_assignment":["green","purple","red","brown","grey","blue","pink","yellow"],"door_color_assignment":["white","black"],"door_generator_assignment":[1,0],"goal":1,"start":3,"action_noise":0.1,"location_history":"[3,4,0,3,4,7,3,4,0,3,7,6,5,2,6,5,2,6,5,2,1]","action_history":"[1,1,1,1,1,1,1,1,1,0,0,0,1,0,1,1,1,1,1,0]","door_history":"[0,0,0,0,0,0,0,0,0,1,1,1,0,1,0,0,0,0,0,1]","location_rts":"[4201,1984,664,634,335,421,367,283,361,622,729,1730,955,493,464,401,1490,1212,350,456]","trial_type":"two-door-navigation","trial_index":3,"time_elapsed":201937,"internal_node_id":"0.0-2.0-1.0"},{"group":"tri cycles (cube, non-group)","room_assignment":["green","purple","red","brown","grey","blue","pink","yellow"],"door_color_assignment":["white","black"],"door_generator_assignment":[1,0],"goal":2,"start":1,"action_noise":0.1,"location_history":"[1,5,1,0,3,4,0,2]","action_history":"[1,0,0,1,1,1,1]","door_history":"[0,1,1,0,0,0,0]","location_rts":"[2190,1311,914,817,434,573,358]","trial_type":"two-door-navigation","trial_index":4,"time_elapsed":219127,"internal_node_id":"0.0-2.0-2.0"},{"group":"tri cycles (cube, non-group)","room_assignment":["green","purple","red","brown","grey","blue","pink","yellow"],"door_color_assignment":["white","black"],"door_generator_assignment":[1,0],"goal":6,"start":2,"action_noise":0.1,"location_history":"[2,6]","action_history":"[1]","door_history":"[0]","location_rts":"[1800]","trial_type":"two-door-navigation","trial_index":5,"time_elapsed":225432,"internal_node_id":"0.0-2.0-3.0"},{"group":"tri cycles (cube, non-group)","room_assignment":["green","purple","red","brown","grey","blue","pink","yellow"],"door_color_assignment":["white","black"],"door_generator_assignment":[1,0],"goal":5,"start":6,"action_noise":0.1,"location_history":"[6,5]","action_history":"[1]","door_history":"[0]","location_rts":"[1872]","trial_type":"two-door-navigation","trial_index":6,"time_elapsed":231811,"internal_node_id":"0.0-2.0-4.0"},{"group":"tri cycles (cube, non-group)","room_assignment":["green","purple","red","brown","grey","blue","pink","yellow"],"door_color_assignment":["white","black"],"door_generator_assignment":[1,0],"goal":4,"start":5,"action_noise":0.1,"location_history":"[5,2,6,5,2,6,5,2,1,5,1,5,2,6,5,2,1,5,1,0,3,4]","action_history":"[1,1,1,1,1,0,1,1,1,0,1,1,1,1,0,0,0,0,0,1,1]","door_history":"[0,0,0,0,0,1,0,0,0,1,0,0,0,0,1,1,1,1,1,0,0]","location_rts":"[1696,405,585,309,350,889,683,308,426,991,586,670,359,789,597,293,353,694,617,443,318]","trial_type":"two-door-navigation","trial_index":7,"time_elapsed":268870,"internal_node_id":"0.0-2.0-5.0"},{"group":"tri cycles (cube, non-group)","room_assignment":["green","purple","red","brown","grey","blue","pink","yellow"],"door_color_assignment":["white","black"],"door_generator_assignment":[1,0],"goal":7,"start":4,"action_noise":0.1,"location_history":"[4,7]","action_history":"[1]","door_history":"[0]","location_rts":"[1579]","trial_type":"two-door-navigation","trial_index":8,"time_elapsed":274959,"internal_node_id":"0.0-2.0-6.0"},{"group":"tri cycles (cube, non-group)","room_assignment":["green","purple","red","brown","grey","blue","pink","yellow"],"door_color_assignment":["white","black"],"door_generator_assignment":[1,0],"goal":4,"start":7,"action_noise":0.1,"location_history":"[7,3,4]","action_history":"[1,1]","door_history":"[0,0]","location_rts":"[2521,414]","trial_type":"two-door-navigation","trial_index":9,"time_elapsed":283404,"internal_node_id":"0.0-2.0-7.0"},{"group":"tri cycles (cube, non-group)","room_assignment":["green","purple","red","brown","grey","blue","pink","yellow"],"door_color_assignment":["white","black"],"door_generator_assignment":[1,0],"goal":6,"start":4,"action_noise":0.1,"location_history":"[4,0,3,4,7,3,4,0,2,1,5,2,6]","action_history":"[1,1,1,0,0,1,1,0,0,1,1,1]","door_history":"[0,0,0,1,1,0,0,1,1,0,0,0]","location_rts":"[1107,288,415,604,311,554,347,816,362,928,558,423]","trial_type":"two-door-navigation","trial_index":10,"time_elapsed":305776,"internal_node_id":"0.0-2.0-8.0"},{"group":"tri cycles (cube, non-group)","room_assignment":["green","purple","red","brown","grey","blue","pink","yellow"],"door_color_assignment":["white","black"],"door_generator_assignment":[1,0],"goal":0,"start":6,"action_noise":0.1,"location_history":"[6,5,2,6,4,7,3,4,0]","action_history":"[1,1,1,0,0,1,1,1]","door_history":"[0,0,0,1,1,0,0,0]","location_rts":"[1559,561,361,709,392,682,386,400]","trial_type":"two-door-navigation","trial_index":11,"time_elapsed":322377,"internal_node_id":"0.0-2.0-9.0"},{"group":"tri cycles (cube, non-group)","room_assignment":["green","purple","red","brown","grey","blue","pink","yellow"],"door_color_assignment":["white","black"],"door_generator_assignment":[1,0],"goal":1,"start":0,"action_noise":0.1,"location_history":"[0,3,4,0,2,1]","action_history":"[1,1,1,0,0]","door_history":"[0,0,0,1,1]","location_rts":"[1419,427,538,605,493]","trial_type":"two-door-navigation","trial_index":12,"time_elapsed":334399,"internal_node_id":"0.0-2.0-10.0"},{"group":"tri cycles (cube, non-group)","room_assignment":["green","purple","red","brown","grey","blue","pink","yellow"],"door_color_assignment":["white","black"],"door_generator_assignment":[1,0],"goal":3,"start":1,"action_noise":0.1,"location_history":"[1,0,2,1,5,2,6,4,0,2,6,5,2,6,5,1,0,3]","action_history":"[0,0,0,1,1,1,0,1,1,1,1,1,1,1,0,0,1]","door_history":"[1,1,1,0,0,0,1,0,0,0,0,0,0,0,1,1,0]","location_rts":"[1558,430,966,375,350,666,674,712,379,395,370,290,333,496,260,419,851]","trial_type":"two-door-navigation","trial_index":13,"time_elapsed":364678,"internal_node_id":"0.0-2.0-11.0"},{"group":"tri cycles (cube, non-group)","room_assignment":["green","purple","red","brown","grey","blue","pink","yellow"],"door_color_assignment":["white","black"],"door_generator_assignment":[1,0],"goal":7,"start":3,"action_noise":0.1,"location_history":"[3,4,0,2,1,0,3,4,0,2,1,5,2,6,5,1,5,2,1,0,2,6,5,1,5,1,5,2,1,5,2,6,5,1,0,3,4,0,3,7]","action_history":"[1,1,0,0,0,0,1,1,0,0,1,1,1,1,0,1,1,0,0,0,0,1,1,1,0,1,1,0,1,1,1,1,0,0,1,1,1,0,1]","door_history":"[0,0,1,1,1,1,0,0,1,1,0,0,0,0,1,0,0,1,1,1,1,0,0,0,1,0,0,1,0,0,0,0,1,1,0,0,0,1,0]","location_rts":"[1174,432,720,286,408,679,951,350,1224,405,554,423,474,612,414,746,402,729,545,387,1230,400,365,383,335,499,290,417,406,253,318,283,278,337,448,339,707,332,318]","trial_type":"two-door-navigation","trial_index":14,"time_elapsed":427446,"internal_node_id":"0.0-2.0-12.0"},{"group":"tri cycles (cube, non-group)","room_assignment":["green","purple","red","brown","grey","blue","pink","yellow"],"door_color_assignment":["white","black"],"door_generator_assignment":[1,0],"goal":5,"start":7,"action_noise":0.1,"location_history":"[7,3,4,0,2,1,5]","action_history":"[1,1,1,0,0,1]","door_history":"[0,0,0,1,1,0]","location_rts":"[1501,673,468,395,374,370]","trial_type":"two-door-navigation","trial_index":15,"time_elapsed":440802,"internal_node_id":"0.0-2.0-13.0"},{"group":"tri cycles (cube, non-group)","room_assignment":["green","purple","red","brown","grey","blue","pink","yellow"],"door_color_assignment":["white","black"],"door_generator_assignment":[1,0],"goal":2,"start":5,"action_noise":0.1,"location_history":"[5,2]","action_history":"[1]","door_history":"[0]","location_rts":"[1476]","trial_type":"two-door-navigation","trial_index":16,"time_elapsed":446792,"internal_node_id":"0.0-2.0-14.0"},{"group":"tri cycles (cube, non-group)","room_assignment":["green","purple","red","brown","grey","blue","pink","yellow"],"door_color_assignment":["white","black"],"door_generator_assignment":[1,0],"goal":7,"start":2,"action_noise":0.1,"location_history":"[2,6,5,1,5,2,6,5,1,5,2,1,0,2,6,5,2,6,5,1,5,2,6,5,2,6,5,1,0,3,4,0,2,6,5,2,1,5,2,6,4,0,3,7]","action_history":"[1,1,0,1,1,1,0,0,1,1,1,0,1,1,1,1,1,0,0,1,1,1,1,1,1,1,0,0,1,1,1,0,1,1,1,0,1,1,1,0,1,1,0]","door_history":"[0,0,1,0,0,0,1,1,0,0,0,1,0,0,0,0,0,1,1,0,0,0,0,0,0,0,1,1,0,0,0,1,0,0,0,1,0,0,0,1,0,0,1]","location_rts":"[5818,665,252,371,104,349,278,337,823,306,320,310,782,369,554,1430,438,484,313,1107,377,359,286,307,278,262,271,325,703,378,501,362,826,373,486,329,618,416,412,462,552,364,367]","trial_type":"two-door-navigation","trial_index":17,"time_elapsed":518791,"internal_node_id":"0.0-2.0-15.0"},{"group":"tri cycles (cube, non-group)","room_assignment":["green","purple","red","brown","grey","blue","pink","yellow"],"door_color_assignment":["white","black"],"door_generator_assignment":[1,0],"goal":4,"start":7,"action_noise":0.1,"location_history":"[7,3,4]","action_history":"[1,1]","door_history":"[0,0]","location_rts":"[1142,645]","trial_type":"two-door-navigation","trial_index":18,"time_elapsed":526104,"internal_node_id":"0.0-2.0-16.0"},{"group":"tri cycles (cube, non-group)","room_assignment":["green","purple","red","brown","grey","blue","pink","yellow"],"door_color_assignment":["white","black"],"door_generator_assignment":[1,0],"goal":2,"start":4,"action_noise":0.1,"location_history":"[4,0,3,7,6,4,7,6,4,7,6,5,1,0,2]","action_history":"[1,1,1,0,0,0,0,0,0,0,1,0,0,0]","door_history":"[0,0,0,1,1,1,1,1,1,1,0,1,1,1]","location_rts":"[2196,336,492,252,323,346,346,335,291,337,523,810,571,349]","trial_type":"two-door-navigation","trial_index":19,"time_elapsed":551310,"internal_node_id":"0.0-2.0-17.0"},{"group":"tri cycles (cube, non-group)","room_assignment":["green","purple","red","brown","grey","blue","pink","yellow"],"door_color_assignment":["white","black"],"door_generator_assignment":[1,0],"goal":3,"start":2,"action_noise":0.1,"location_history":"[2,6,5,2,1,5,2,6,4,7,3]","action_history":"[1,1,1,0,1,1,1,0,0,1]","door_history":"[0,0,0,1,0,0,0,1,1,0]","location_rts":"[1244,533,347,932,820,553,477,372,477,1324]","trial_type":"two-door-navigation","trial_index":20,"time_elapsed":572021,"internal_node_id":"0.0-2.0-18.0"},{"group":"tri cycles (cube, non-group)","room_assignment":["green","purple","red","brown","grey","blue","pink","yellow"],"door_color_assignment":["white","black"],"door_generator_assignment":[1,0],"goal":6,"start":3,"action_noise":0.1,"location_history":"[3,4,0,2,6]","action_history":"[1,1,0,1]","door_history":"[0,0,1,0]","location_rts":"[1096,351,381,1037]","trial_type":"two-door-navigation","trial_index":21,"time_elapsed":582429,"internal_node_id":"0.0-2.0-19.0"},{"group":"tri cycles (cube, non-group)","room_assignment":["green","purple","red","brown","grey","blue","pink","yellow"],"door_color_assignment":["white","black"],"door_generator_assignment":[1,0],"goal":5,"start":6,"action_noise":0.1,"location_history":"[6,5]","action_history":"[1]","door_history":"[0]","location_rts":"[2782]","trial_type":"two-door-navigation","trial_index":22,"time_elapsed":589724,"internal_node_id":"0.0-2.0-20.0"},{"group":"tri cycles (cube, non-group)","room_assignment":["green","purple","red","brown","grey","blue","pink","yellow"],"door_color_assignment":["white","black"],"door_generator_assignment":[1,0],"goal":1,"start":5,"action_noise":0.1,"location_history":"[5,2,6,4,7,6,4,0,3,7,3,7,3,4,7,6,5,2,6,4,7,6,5,2,1]","action_history":"[0,0,0,0,0,0,1,1,1,1,0,1,1,0,0,1,1,1,0,0,0,1,1,0]","door_history":"[1,1,1,1,1,1,0,0,0,0,1,0,0,1,1,0,0,0,1,1,1,0,0,1]","location_rts":"[1499,395,578,342,362,559,1099,361,296,379,959,725,511,715,365,1019,335,1635,544,396,389,1420,355,411]","trial_type":"two-door-navigation","trial_index":23,"time_elapsed":633213,"internal_node_id":"0.0-2.0-21.0"},{"group":"tri cycles (cube, non-group)","room_assignment":["green","purple","red","brown","grey","blue","pink","yellow"],"door_color_assignment":["white","black"],"door_generator_assignment":[1,0],"goal":0,"start":1,"action_noise":0.1,"location_history":"[1,5,2,1,0]","action_history":"[1,1,0,1]","door_history":"[0,0,1,0]","location_rts":"[1282,466,641,415]","trial_type":"two-door-navigation","trial_index":24,"time_elapsed":643566,"internal_node_id":"0.0-2.0-22.0"},{"group":"tri cycles (cube, non-group)","room_assignment":["green","purple","red","brown","grey","blue","pink","yellow"],"door_color_assignment":["white","black"],"door_generator_assignment":[1,0],"goal":2,"start":0,"action_noise":0.1,"location_history":"[0,3,4,0,2]","action_history":"[0,1,1,0]","door_history":"[1,0,0,1]","location_rts":"[1424,937,314,705]","trial_type":"two-door-navigation","trial_index":25,"time_elapsed":654519,"internal_node_id":"0.0-2.0-23.0"},{"group":"tri cycles (cube, non-group)","room_assignment":["green","purple","red","brown","grey","blue","pink","yellow"],"door_color_assignment":["white","black"],"door_generator_assignment":[1,0],"goal":6,"start":2,"action_noise":0.1,"location_history":"[2,6]","action_history":"[1]","door_history":"[0]","location_rts":"[1401]","trial_type":"two-door-navigation","trial_index":26,"time_elapsed":660439,"internal_node_id":"0.0-2.0-24.0"},{"group":"tri cycles (cube, non-group)","room_assignment":["green","purple","red","brown","grey","blue","pink","yellow"],"door_color_assignment":["white","black"],"door_generator_assignment":[1,0],"goal":1,"start":6,"action_noise":0.1,"location_history":"[6,4,7,3,4,7,6,4,7,3,4,0,3,4,0,2,1]","action_history":"[1,0,1,1,0,0,0,0,1,1,1,1,1,1,0,0]","door_history":"[0,1,0,0,1,1,1,1,0,0,0,0,0,0,1,1]","location_rts":"[1894,936,432,369,662,340,590,1441,650,558,318,565,563,342,327,541]","trial_type":"two-door-navigation","trial_index":27,"time_elapsed":690654,"internal_node_id":"0.0-2.0-25.0"},{"group":"tri cycles (cube, non-group)","room_assignment":["green","purple","red","brown","grey","blue","pink","yellow"],"door_color_assignment":["white","black"],"door_generator_assignment":[1,0],"goal":3,"start":1,"action_noise":0.1,"location_history":"[1,0,2,1,0,2,6,5,1,5,2,1,5,2,1,0,2,6,4,7,3]","action_history":"[0,0,0,0,0,1,1,1,1,1,0,1,1,0,0,1,1,1,0,1]","door_history":"[1,1,1,1,1,0,0,0,0,0,1,0,0,1,1,0,0,0,1,0]","location_rts":"[2175,665,567,651,535,1116,742,903,698,368,652,366,412,829,343,992,493,403,414,842]","trial_type":"two-door-navigation","trial_index":28,"time_elapsed":728597,"internal_node_id":"0.0-2.0-26.0"},{"group":"tri cycles (cube, non-group)","room_assignment":["green","purple","red","brown","grey","blue","pink","yellow"],"door_color_assignment":["white","black"],"door_generator_assignment":[1,0],"goal":7,"start":3,"action_noise":0.1,"location_history":"[3,7]","action_history":"[0]","door_history":"[1]","location_rts":"[1796]","trial_type":"two-door-navigation","trial_index":29,"time_elapsed":734911,"internal_node_id":"0.0-2.0-27.0"},{"group":"tri cycles (cube, non-group)","room_assignment":["green","purple","red","brown","grey","blue","pink","yellow"],"door_color_assignment":["white","black"],"door_generator_assignment":[1,0],"goal":4,"start":7,"action_noise":0.1,"location_history":"[7,3,7,3,7,6,5,1,5,2,6,4]","action_history":"[1,1,1,0,1,1,1,0,1,1,0]","door_history":"[0,0,0,1,0,0,0,1,0,0,1]","location_rts":"[1920,2343,439,612,644,402,306,357,376,264,732]","trial_type":"two-door-navigation","trial_index":30,"time_elapsed":757953,"internal_node_id":"0.0-2.0-28.0"},{"group":"tri cycles (cube, non-group)","room_assignment":["green","purple","red","brown","grey","blue","pink","yellow"],"door_color_assignment":["white","black"],"door_generator_assignment":[1,0],"goal":0,"start":4,"action_noise":0.1,"location_history":"[4,0]","action_history":"[1]","door_history":"[0]","location_rts":"[1247]","trial_type":"two-door-navigation","trial_index":31,"time_elapsed":763717,"internal_node_id":"0.0-2.0-29.0"},{"group":"tri cycles (cube, non-group)","room_assignment":["green","purple","red","brown","grey","blue","pink","yellow"],"door_color_assignment":["white","black"],"door_generator_assignment":[1,0],"goal":5,"start":0,"action_noise":0.1,"location_history":"[0,3,4,0,2,1,5]","action_history":"[1,1,1,0,0,1]","door_history":"[0,0,0,1,1,0]","location_rts":"[1029,668,600,1212,712,323]","trial_type":"two-door-navigation","trial_index":32,"time_elapsed":777827,"internal_node_id":"0.0-2.0-30.0"},{"group":"tri cycles (cube, non-group)","room_assignment":["green","purple","red","brown","grey","blue","pink","yellow"],"door_color_assignment":["white","black"],"door_generator_assignment":[1,0],"goal":3,"start":5,"action_noise":0.1,"location_history":"[5,2,6,5,1,5,2,6,4,0,3]","action_history":"[1,1,1,0,1,1,1,0,1,1]","door_history":"[0,0,0,1,0,0,0,1,0,0]","location_rts":"[1187,370,371,1055,523,395,459,748,303,295]","trial_type":"two-door-navigation","trial_index":33,"time_elapsed":797173,"internal_node_id":"0.0-2.0-31.0"},{"group":"tri cycles (cube, non-group)","room_assignment":["green","purple","red","brown","grey","blue","pink","yellow"],"door_color_assignment":["white","black"],"door_generator_assignment":[1,0],"goal":2,"start":3,"action_noise":0.1,"location_history":"[3,4,0,3,4,7,6,4,0,2]","action_history":"[0,1,1,1,0,0,1,1,0]","door_history":"[1,0,0,0,1,1,0,0,1]","location_rts":"[1395,804,370,510,370,459,709,762,430]","trial_type":"two-door-navigation","trial_index":34,"time_elapsed":815607,"internal_node_id":"0.0-2.0-32.0"},{"group":"tri cycles (cube, non-group)","room_assignment":["green","purple","red","brown","grey","blue","pink","yellow"],"door_color_assignment":["white","black"],"door_generator_assignment":[1,0],"goal":6,"start":2,"action_noise":0.1,"location_history":"[2,6]","action_history":"[1]","door_history":"[0]","location_rts":"[1016]","trial_type":"two-door-navigation","trial_index":35,"time_elapsed":821134,"internal_node_id":"0.0-2.0-33.0"},{"group":"tri cycles (cube, non-group)","room_assignment":["green","purple","red","brown","grey","blue","pink","yellow"],"door_color_assignment":["white","black"],"door_generator_assignment":[1,0],"goal":1,"start":6,"action_noise":0.1,"location_history":"[6,5,2,6,5,1]","action_history":"[0,1,1,1,0]","door_history":"[1,0,0,0,1]","location_rts":"[2088,1128,328,573,564]","trial_type":"two-door-navigation","trial_index":36,"time_elapsed":834386,"internal_node_id":"0.0-2.0-34.0"},{"group":"tri cycles (cube, non-group)","room_assignment":["green","purple","red","brown","grey","blue","pink","yellow"],"door_color_assignment":["white","black"],"door_generator_assignment":[1,0],"goal":7,"start":1,"action_noise":0.1,"location_history":"[1,5,2,6,5,2,1,0,3,4,7]","action_history":"[1,1,0,1,1,1,0,1,1,0]","door_history":"[0,0,1,0,0,0,1,0,0,1]","location_rts":"[1525,365,809,357,349,315,303,437,327,384]","trial_type":"two-door-navigation","trial_index":37,"time_elapsed":853165,"internal_node_id":"0.0-2.0-35.0"},{"group":"tri cycles (cube, non-group)","room_assignment":["green","purple","red","brown","grey","blue","pink","yellow"],"door_color_assignment":["white","black"],"door_generator_assignment":[1,0],"goal":4,"start":7,"action_noise":0.1,"location_history":"[7,3,4]","action_history":"[1,1]","door_history":"[0,0]","location_rts":"[1159,342]","trial_type":"two-door-navigation","trial_index":38,"time_elapsed":860185,"internal_node_id":"0.0-2.0-36.0"},{"group":"tri cycles (cube, non-group)","room_assignment":["green","purple","red","brown","grey","blue","pink","yellow"],"door_color_assignment":["white","black"],"door_generator_assignment":[1,0],"goal":5,"start":4,"action_noise":0.1,"location_history":"[4,0,3,7,6,5]","action_history":"[1,1,0,0,1]","door_history":"[0,0,1,1,0]","location_rts":"[1128,385,307,634,324]","trial_type":"two-door-navigation","trial_index":39,"time_elapsed":871533,"internal_node_id":"0.0-2.0-37.0"},{"group":"tri cycles (cube, non-group)","room_assignment":["green","purple","red","brown","grey","blue","pink","yellow"],"door_color_assignment":["white","black"],"door_generator_assignment":[1,0],"goal":0,"start":5,"action_noise":0.1,"location_history":"[5,1,5,2,6,4,7,3,4,0]","action_history":"[0,1,1,1,0,0,1,1,1]","door_history":"[1,0,0,0,1,1,0,0,0]","location_rts":"[1782,1161,396,321,309,412,334,286,362]","trial_type":"two-door-navigation","trial_index":40,"time_elapsed":889520,"internal_node_id":"0.0-2.0-38.0"},{"group":"tri cycles (cube, non-group)","room_assignment":["green","purple","red","brown","grey","blue","pink","yellow"],"door_color_assignment":["white","black"],"door_generator_assignment":[1,0],"goal":4,"start":0,"action_noise":0.1,"location_history":"[0,3,4]","action_history":"[1,1]","door_history":"[0,0]","location_rts":"[1797,331]","trial_type":"two-door-navigation","trial_index":41,"time_elapsed":897175,"internal_node_id":"0.0-2.0-39.0"},{"group":"tri cycles (cube, non-group)","room_assignment":["green","purple","red","brown","grey","blue","pink","yellow"],"door_color_assignment":["white","black"],"door_generator_assignment":[1,0],"goal":0,"start":4,"action_noise":0.1,"location_history":"[4,0]","action_history":"[1]","door_history":"[0]","location_rts":"[1647]","trial_type":"two-door-navigation","trial_index":42,"time_elapsed":903338,"internal_node_id":"0.0-2.0-40.0"},{"group":"tri cycles (cube, non-group)","room_assignment":["green","purple","red","brown","grey","blue","pink","yellow"],"door_color_assignment":["white","black"],"door_generator_assignment":[1,0],"goal":2,"start":0,"action_noise":0.1,"location_history":"[0,3,4,7,3,4,7,3,4,7,3,4,7,3,4,0,3,4,7,6,4,0,2]","action_history":"[1,1,0,1,1,0,1,1,0,0,0,0,1,1,1,1,1,0,0,1,1,1]","door_history":"[0,0,1,0,0,1,0,0,1,1,1,1,0,0,0,0,0,1,1,0,0,0]","location_rts":"[1100,545,261,395,402,382,319,388,605,1159,579,437,740,338,268,420,416,362,451,748,348,325]","trial_type":"two-door-navigation","trial_index":43,"time_elapsed":940121,"internal_node_id":"0.0-2.0-41.0"},{"group":"tri cycles (cube, non-group)","room_assignment":["green","purple","red","brown","grey","blue","pink","yellow"],"door_color_assignment":["white","black"],"door_generator_assignment":[1,0],"goal":3,"start":2,"action_noise":0.1,"location_history":"[2,6,5,1,5,2,1,5,1,0,2,6,5,1,5,2,1,0,3]","action_history":"[1,1,0,1,1,1,1,0,0,0,1,1,0,1,1,1,1,1]","door_history":"[0,0,1,0,0,0,0,1,1,1,0,0,1,0,0,0,0,0]","location_rts":"[943,405,347,368,289,290,398,241,450,362,516,323,424,942,212,394,753,620]","trial_type":"two-door-navigation","trial_index":44,"time_elapsed":970108,"internal_node_id":"0.0-2.0-42.0"},{"group":"tri cycles (cube, non-group)","room_assignment":["green","purple","red","brown","grey","blue","pink","yellow"],"door_color_assignment":["white","black"],"door_generator_assignment":[1,0],"goal":5,"start":3,"action_noise":0.1,"location_history":"[3,4,0,3,4,0,2,1,0,3,7,3,4,7,6,5]","action_history":"[1,1,1,1,1,0,0,0,1,1,1,1,0,1,1]","door_history":"[0,0,0,0,0,1,1,1,0,0,0,0,1,0,0]","location_rts":"[2161,687,309,737,633,692,641,1033,1179,451,392,466,771,393,1443]","trial_type":"two-door-navigation","trial_index":45,"time_elapsed":1000818,"internal_node_id":"0.0-2.0-43.0"},{"group":"tri cycles (cube, non-group)","room_assignment":["green","purple","red","brown","grey","blue","pink","yellow"],"door_color_assignment":["white","black"],"door_generator_assignment":[1,0],"goal":1,"start":5,"action_noise":0.1,"location_history":"[5,2,1]","action_history":"[0,0]","door_history":"[1,1]","location_rts":"[1313,578]","trial_type":"two-door-navigation","trial_index":46,"time_elapsed":1008241,"internal_node_id":"0.0-2.0-44.0"},{"group":"tri cycles (cube, non-group)","room_assignment":["green","purple","red","brown","grey","blue","pink","yellow"],"door_color_assignment":["white","black"],"door_generator_assignment":[1,0],"goal":7,"start":1,"action_noise":0.1,"location_history":"[1,0,3,4,0,3,7]","action_history":"[1,1,1,1,0,0]","door_history":"[0,0,0,0,1,1]","location_rts":"[1192,487,439,420,756,483]","trial_type":"two-door-navigation","trial_index":47,"time_elapsed":1021610,"internal_node_id":"0.0-2.0-45.0"},{"group":"tri cycles (cube, non-group)","room_assignment":["green","purple","red","brown","grey","blue","pink","yellow"],"door_color_assignment":["white","black"],"door_generator_assignment":[1,0],"goal":6,"start":7,"action_noise":0.1,"location_history":"[7,6]","action_history":"[0]","door_history":"[1]","location_rts":"[1291]","trial_type":"two-door-navigation","trial_index":48,"time_elapsed":1027419,"internal_node_id":"0.0-2.0-46.0"},{"group":"tri cycles (cube, non-group)","room_assignment":["green","purple","red","brown","grey","blue","pink","yellow"],"door_color_assignment":["white","black"],"door_generator_assignment":[1,0],"goal":3,"start":6,"action_noise":0.1,"location_history":"[6,4,0,3]","action_history":"[0,1,1]","door_history":"[1,0,0]","location_rts":"[1385,1279,385]","trial_type":"two-door-navigation","trial_index":49,"time_elapsed":1037001,"internal_node_id":"0.0-2.0-47.0"},{"group":"tri cycles (cube, non-group)","room_assignment":["green","purple","red","brown","grey","blue","pink","yellow"],"door_color_assignment":["white","black"],"door_generator_assignment":[1,0],"goal":0,"start":3,"action_noise":0.1,"location_history":"[3,7,3,4,0]","action_history":"[0,1,1,1]","door_history":"[1,0,0,0]","location_rts":"[1147,724,651,349]","trial_type":"two-door-navigation","trial_index":50,"time_elapsed":1047423,"internal_node_id":"0.0-2.0-48.0"},{"group":"tri cycles (cube, non-group)","room_assignment":["green","purple","red","brown","grey","blue","pink","yellow"],"door_color_assignment":["white","black"],"door_generator_assignment":[1,0],"goal":2,"start":0,"action_noise":0.1,"location_history":"[0,2]","action_history":"[0]","door_history":"[1]","location_rts":"[2501]","trial_type":"two-door-navigation","trial_index":51,"time_elapsed":1054441,"internal_node_id":"0.0-2.0-49.0"},{"view_history":"[{\"page_index\":0,\"viewing_time\":285282}]","rt":285282,"trial_type":"instructions","trial_index":52,"time_elapsed":1340722,"internal_node_id":"0.0-3.0"},{"view_history":"[{\"page_index\":0,\"viewing_time\":33975},{\"page_index\":1,\"viewing_time\":62987}]","rt":96963,"trial_type":"instructions","trial_index":53,"time_elapsed":1438687,"internal_node_id":"0.0-4.0"},{"group":"tri cycles (cube, non-group)","fractal_assignment":["../images/gry_blk.png","../images/blu_wht.png","../images/ylw_slt.png","../images/cyn_red.png","../images/ylw_pnk.png","../images/org_blu.png","../images/grn_red.png","../images/pnk_blu.png"],"mutagen_generator_assignment":[0,1],"goal":3,"start":0,"action_noise":0.1,"location_history":"[0,2,1,0,3]","action_history":"[0,0,0,1]","mutagen_history":"[0,0,0,1]","location_rts":"[8854,2122,1736,2892]","trial_type":"fractal-mutation","trial_index":54,"time_elapsed":1461928,"internal_node_id":"0.0-5.0-0.0"},{"group":"tri cycles (cube, non-group)","fractal_assignment":["../images/gry_blk.png","../images/blu_wht.png","../images/ylw_slt.png","../images/cyn_red.png","../images/ylw_pnk.png","../images/org_blu.png","../images/grn_red.png","../images/pnk_blu.png"],"mutagen_generator_assignment":[0,1],"goal":1,"start":3,"action_noise":0.1,"location_history":"[3,4,7,6,5,1]","action_history":"[1,0,0,1,0]","mutagen_history":"[1,0,0,1,0]","location_rts":"[2255,861,932,254,844]","trial_type":"fractal-mutation","trial_index":55,"time_elapsed":1475728,"internal_node_id":"0.0-5.0-1.0"},{"group":"tri cycles (cube, non-group)","fractal_assignment":["../images/gry_blk.png","../images/blu_wht.png","../images/ylw_slt.png","../images/cyn_red.png","../images/ylw_pnk.png","../images/org_blu.png","../images/grn_red.png","../images/pnk_blu.png"],"mutagen_generator_assignment":[0,1],"goal":2,"start":1,"action_noise":0.1,"location_history":"[1,0,2]","action_history":"[0,0]","mutagen_history":"[0,0]","location_rts":"[1454,1193]","trial_type":"fractal-mutation","trial_index":56,"time_elapsed":1483910,"internal_node_id":"0.0-5.0-2.0"},{"group":"tri cycles (cube, non-group)","fractal_assignment":["../images/gry_blk.png","../images/blu_wht.png","../images/ylw_slt.png","../images/cyn_red.png","../images/ylw_pnk.png","../images/org_blu.png","../images/grn_red.png","../images/pnk_blu.png"],"mutagen_generator_assignment":[0,1],"goal":6,"start":2,"action_noise":0.1,"location_history":"[2,1,0,2,6]","action_history":"[0,0,0,1]","mutagen_history":"[0,0,0,1]","location_rts":"[1568,1043,35,573]","trial_type":"fractal-mutation","trial_index":57,"time_elapsed":1494744,"internal_node_id":"0.0-5.0-3.0"},{"group":"tri cycles (cube, non-group)","fractal_assignment":["../images/gry_blk.png","../images/blu_wht.png","../images/ylw_slt.png","../images/cyn_red.png","../images/ylw_pnk.png","../images/org_blu.png","../images/grn_red.png","../images/pnk_blu.png"],"mutagen_generator_assignment":[0,1],"goal":5,"start":6,"action_noise":0.1,"location_history":"[6,4,0,3,7,6,4,7,3,4,7,6,4,7,6,4,7,6,5]","action_history":"[0,1,1,1,0,0,0,1,1,0,0,0,0,1,1,0,0,1]","mutagen_history":"[0,1,1,1,0,0,0,1,1,0,0,0,0,1,1,0,0,1]","location_rts":"[1061,1210,92,813,606,51,1065,752,776,873,58,26,966,1017,696,267,1002,497]","trial_type":"fractal-mutation","trial_index":58,"time_elapsed":1528544,"internal_node_id":"0.0-5.0-4.0"},{"group":"tri cycles (cube, non-group)","fractal_assignment":["../images/gry_blk.png","../images/blu_wht.png","../images/ylw_slt.png","../images/cyn_red.png","../images/ylw_pnk.png","../images/org_blu.png","../images/grn_red.png","../images/pnk_blu.png"],"mutagen_generator_assignment":[0,1],"goal":4,"start":5,"action_noise":0.1,"location_history":"[5,2,1,0,2,6,4]","action_history":"[1,0,0,0,1,0]","mutagen_history":"[1,0,0,0,1,0]","location_rts":"[4121,1161,931,1381,48,1321]","trial_type":"fractal-mutation","trial_index":59,"time_elapsed":1547158,"internal_node_id":"0.0-5.0-5.0"},{"group":"tri cycles (cube, non-group)","fractal_assignment":["../images/gry_blk.png","../images/blu_wht.png","../images/ylw_slt.png","../images/cyn_red.png","../images/ylw_pnk.png","../images/org_blu.png","../images/grn_red.png","../images/pnk_blu.png"],"mutagen_generator_assignment":[0,1],"goal":7,"start":4,"action_noise":0.1,"location_history":"[4,0,3,4,7]","action_history":"[1,1,1,0]","mutagen_history":"[1,1,1,0]","location_rts":"[3172,1085,649,426]","trial_type":"fractal-mutation","trial_index":60,"time_elapsed":1560111,"internal_node_id":"0.0-5.0-6.0"},{"group":"tri cycles (cube, non-group)","fractal_assignment":["../images/gry_blk.png","../images/blu_wht.png","../images/ylw_slt.png","../images/cyn_red.png","../images/ylw_pnk.png","../images/org_blu.png","../images/grn_red.png","../images/pnk_blu.png"],"mutagen_generator_assignment":[0,1],"goal":4,"start":7,"action_noise":0.1,"location_history":"[7,6,5,2,6,4]","action_history":"[0,1,1,1,0]","mutagen_history":"[0,1,1,1,0]","location_rts":"[2675,730,663,468,476]","trial_type":"fractal-mutation","trial_index":61,"time_elapsed":1573740,"internal_node_id":"0.0-5.0-7.0"},{"group":"tri cycles (cube, non-group)","fractal_assignment":["../images/gry_blk.png","../images/blu_wht.png","../images/ylw_slt.png","../images/cyn_red.png","../images/ylw_pnk.png","../images/org_blu.png","../images/grn_red.png","../images/pnk_blu.png"],"mutagen_generator_assignment":[0,1],"goal":6,"start":4,"action_noise":0.1,"location_history":"[4,7,3,4,0,2,1,5,1,0,3,4,0,2,1,0,3,7,3,4,7,3,7,6]","action_history":"[1,1,1,0,0,1,1,0,0,1,1,1,1,0,0,1,0,1,1,0,1,0,0]","mutagen_history":"[1,1,1,0,0,1,1,0,0,1,1,1,1,0,0,1,0,1,1,0,1,0,0]","location_rts":"[2270,607,562,659,451,478,648,518,645,468,646,473,552,734,586,529,647,931,568,1428,878,410,718]","trial_type":"fractal-mutation","trial_index":62,"time_elapsed":1617196,"internal_node_id":"0.0-5.0-8.0"},{"group":"tri cycles (cube, non-group)","fractal_assignment":["../images/gry_blk.png","../images/blu_wht.png","../images/ylw_slt.png","../images/cyn_red.png","../images/ylw_pnk.png","../images/org_blu.png","../images/grn_red.png","../images/pnk_blu.png"],"mutagen_generator_assignment":[0,1],"goal":0,"start":6,"action_noise":0.1,"location_history":"[6,5,2,6,5,1,5,2,1,0]","action_history":"[1,1,1,1,0,1,1,0,0]","mutagen_history":"[1,1,1,1,0,1,1,0,0]","location_rts":"[3719,411,436,437,440,653,405,237,413]","trial_type":"fractal-mutation","trial_index":63,"time_elapsed":1637080,"internal_node_id":"0.0-5.0-9.0"},{"group":"tri cycles (cube, non-group)","fractal_assignment":["../images/gry_blk.png","../images/blu_wht.png","../images/ylw_slt.png","../images/cyn_red.png","../images/ylw_pnk.png","../images/org_blu.png","../images/grn_red.png","../images/pnk_blu.png"],"mutagen_generator_assignment":[0,1],"goal":1,"start":0,"action_noise":0.1,"location_history":"[0,3,7,6,4,0,3,4,0,2,1]","action_history":"[1,0,0,0,1,1,1,1,0,0]","mutagen_history":"[1,0,0,0,1,1,1,1,0,0]","location_rts":"[2457,842,922,589,435,812,16,555,482,411]","trial_type":"fractal-mutation","trial_index":64,"time_elapsed":1658356,"internal_node_id":"0.0-5.0-10.0"},{"group":"tri cycles (cube, non-group)","fractal_assignment":["../images/gry_blk.png","../images/blu_wht.png","../images/ylw_slt.png","../images/cyn_red.png","../images/ylw_pnk.png","../images/org_blu.png","../images/grn_red.png","../images/pnk_blu.png"],"mutagen_generator_assignment":[0,1],"goal":3,"start":1,"action_noise":0.1,"location_history":"[1,5,2,6,4,7,6,4,0,3]","action_history":"[1,1,1,0,0,0,0,1,1]","mutagen_history":"[1,1,1,0,0,0,0,1,1]","location_rts":"[3039,567,367,820,369,386,966,283,436]","trial_type":"fractal-mutation","trial_index":65,"time_elapsed":1678282,"internal_node_id":"0.0-5.0-11.0"},{"group":"tri cycles (cube, non-group)","fractal_assignment":["../images/gry_blk.png","../images/blu_wht.png","../images/ylw_slt.png","../images/cyn_red.png","../images/ylw_pnk.png","../images/org_blu.png","../images/grn_red.png","../images/pnk_blu.png"],"mutagen_generator_assignment":[0,1],"goal":7,"start":3,"action_noise":0.1,"location_history":"[3,4,0,2,1,0,3,4,7]","action_history":"[1,1,0,0,1,1,1,0]","mutagen_history":"[1,1,0,0,1,1,1,0]","location_rts":"[2849,652,824,537,619,462,986,645]","trial_type":"fractal-mutation","trial_index":66,"time_elapsed":1697564,"internal_node_id":"0.0-5.0-12.0"},{"group":"tri cycles (cube, non-group)","fractal_assignment":["../images/gry_blk.png","../images/blu_wht.png","../images/ylw_slt.png","../images/cyn_red.png","../images/ylw_pnk.png","../images/org_blu.png","../images/grn_red.png","../images/pnk_blu.png"],"mutagen_generator_assignment":[0,1],"goal":5,"start":7,"action_noise":0.1,"location_history":"[7,3,4,7,6,5]","action_history":"[1,1,0,0,1]","mutagen_history":"[1,1,0,0,1]","location_rts":"[3458,830,575,776,1009]","trial_type":"fractal-mutation","trial_index":67,"time_elapsed":1712848,"internal_node_id":"0.0-5.0-13.0"},{"group":"tri cycles (cube, non-group)","fractal_assignment":["../images/gry_blk.png","../images/blu_wht.png","../images/ylw_slt.png","../images/cyn_red.png","../images/ylw_pnk.png","../images/org_blu.png","../images/grn_red.png","../images/pnk_blu.png"],"mutagen_generator_assignment":[0,1],"goal":2,"start":5,"action_noise":0.1,"location_history":"[5,2]","action_history":"[1]","mutagen_history":"[1]","location_rts":"[2781]","trial_type":"fractal-mutation","trial_index":68,"time_elapsed":1720162,"internal_node_id":"0.0-5.0-14.0"},{"group":"tri cycles (cube, non-group)","fractal_assignment":["../images/gry_blk.png","../images/blu_wht.png","../images/ylw_slt.png","../images/cyn_red.png","../images/ylw_pnk.png","../images/org_blu.png","../images/grn_red.png","../images/pnk_blu.png"],"mutagen_generator_assignment":[0,1],"goal":7,"start":2,"action_noise":0.1,"location_history":"[2,6,5,1,5,2,6,5,2,1,0,2,6,4,0,3,7]","action_history":"[1,0,0,0,1,1,1,1,0,0,0,1,0,1,1,1]","mutagen_history":"[1,0,0,0,1,1,1,1,0,0,0,1,0,1,1,1]","location_rts":"[2394,607,773,443,420,453,474,525,393,583,554,525,798,523,107,355]","trial_type":"fractal-mutation","trial_index":69,"time_elapsed":1749982,"internal_node_id":"0.0-5.0-15.0"},{"group":"tri cycles (cube, non-group)","fractal_assignment":["../images/gry_blk.png","../images/blu_wht.png","../images/ylw_slt.png","../images/cyn_red.png","../images/ylw_pnk.png","../images/org_blu.png","../images/grn_red.png","../images/pnk_blu.png"],"mutagen_generator_assignment":[0,1],"goal":4,"start":7,"action_noise":0.1,"location_history":"[7,3,7,3,4]","action_history":"[1,1,1,0]","mutagen_history":"[1,1,1,0]","location_rts":"[2249,487,738,499]","trial_type":"fractal-mutation","trial_index":70,"time_elapsed":1761552,"internal_node_id":"0.0-5.0-16.0"},{"group":"tri cycles (cube, non-group)","fractal_assignment":["../images/gry_blk.png","../images/blu_wht.png","../images/ylw_slt.png","../images/cyn_red.png","../images/ylw_pnk.png","../images/org_blu.png","../images/grn_red.png","../images/pnk_blu.png"],"mutagen_generator_assignment":[0,1],"goal":2,"start":4,"action_noise":0.1,"location_history":"[4,0,3,7,6,4,0,3,4,7,6,4,7,3,7,6,5,2]","action_history":"[1,1,0,0,0,1,1,1,0,0,1,0,0,0,0,1,1]","mutagen_history":"[1,1,0,0,0,1,1,1,0,0,1,0,0,0,0,1,1]","location_rts":"[1903,524,613,420,444,624,479,551,692,802,697,718,748,533,1484,363,588]","trial_type":"fractal-mutation","trial_index":71,"time_elapsed":1794647,"internal_node_id":"0.0-5.0-17.0"},{"group":"tri cycles (cube, non-group)","fractal_assignment":["../images/gry_blk.png","../images/blu_wht.png","../images/ylw_slt.png","../images/cyn_red.png","../images/ylw_pnk.png","../images/org_blu.png","../images/grn_red.png","../images/pnk_blu.png"],"mutagen_generator_assignment":[0,1],"goal":3,"start":2,"action_noise":0.1,"location_history":"[2,1,5,1,0,2,1,5,2,6,4,0,3]","action_history":"[1,1,0,0,0,0,1,1,1,0,1,1]","mutagen_history":"[1,1,0,0,0,0,1,1,1,0,1,1]","location_rts":"[4297,484,742,1044,932,564,674,387,402,587,7047,710]","trial_type":"fractal-mutation","trial_index":72,"time_elapsed":1828313,"internal_node_id":"0.0-5.0-18.0"},{"group":"tri cycles (cube, non-group)","fractal_assignment":["../images/gry_blk.png","../images/blu_wht.png","../images/ylw_slt.png","../images/cyn_red.png","../images/ylw_pnk.png","../images/org_blu.png","../images/grn_red.png","../images/pnk_blu.png"],"mutagen_generator_assignment":[0,1],"goal":6,"start":3,"action_noise":0.1,"location_history":"[3,7,3,4,0,2,1,0,3,4,0,2,1,0,2,6]","action_history":"[0,1,1,1,0,0,0,1,1,1,0,1,0,0,0]","mutagen_history":"[0,1,1,1,0,0,0,1,1,1,0,1,0,0,0]","location_rts":"[2630,832,678,711,423,530,513,445,562,430,437,392,307,386,558]","trial_type":"fractal-mutation","trial_index":73,"time_elapsed":1856983,"internal_node_id":"0.0-5.0-19.0"},{"group":"tri cycles (cube, non-group)","fractal_assignment":["../images/gry_blk.png","../images/blu_wht.png","../images/ylw_slt.png","../images/cyn_red.png","../images/ylw_pnk.png","../images/org_blu.png","../images/grn_red.png","../images/pnk_blu.png"],"mutagen_generator_assignment":[0,1],"goal":5,"start":6,"action_noise":0.1,"location_history":"[6,5]","action_history":"[1]","mutagen_history":"[1]","location_rts":"[2034]","trial_type":"fractal-mutation","trial_index":74,"time_elapsed":1863550,"internal_node_id":"0.0-5.0-20.0"},{"group":"tri cycles (cube, non-group)","fractal_assignment":["../images/gry_blk.png","../images/blu_wht.png","../images/ylw_slt.png","../images/cyn_red.png","../images/ylw_pnk.png","../images/org_blu.png","../images/grn_red.png","../images/pnk_blu.png"],"mutagen_generator_assignment":[0,1],"goal":1,"start":5,"action_noise":0.1,"location_history":"[5,2,1]","action_history":"[0,0]","mutagen_history":"[0,0]","location_rts":"[2209,484]","trial_type":"fractal-mutation","trial_index":75,"time_elapsed":1871788,"internal_node_id":"0.0-5.0-21.0"},{"group":"tri cycles (cube, non-group)","fractal_assignment":["../images/gry_blk.png","../images/blu_wht.png","../images/ylw_slt.png","../images/cyn_red.png","../images/ylw_pnk.png","../images/org_blu.png","../images/grn_red.png","../images/pnk_blu.png"],"mutagen_generator_assignment":[0,1],"goal":0,"start":1,"action_noise":0.1,"location_history":"[1,5,2,6,5,1,5,1,5,1,0]","action_history":"[1,1,1,1,0,1,0,0,0,0]","mutagen_history":"[1,1,1,1,0,1,0,0,0,0]","location_rts":"[1750,550,484,515,1034,788,532,361,635,1299]","trial_type":"fractal-mutation","trial_index":76,"time_elapsed":1893507,"internal_node_id":"0.0-5.0-22.0"},{"group":"tri cycles (cube, non-group)","fractal_assignment":["../images/gry_blk.png","../images/blu_wht.png","../images/ylw_slt.png","../images/cyn_red.png","../images/ylw_pnk.png","../images/org_blu.png","../images/grn_red.png","../images/pnk_blu.png"],"mutagen_generator_assignment":[0,1],"goal":2,"start":0,"action_noise":0.1,"location_history":"[0,3,4,0,2]","action_history":"[1,1,1,0]","mutagen_history":"[1,1,1,0]","location_rts":"[1296,658,1494,1129]","trial_type":"fractal-mutation","trial_index":77,"time_elapsed":1905710,"internal_node_id":"0.0-5.0-23.0"},{"group":"tri cycles (cube, non-group)","fractal_assignment":["../images/gry_blk.png","../images/blu_wht.png","../images/ylw_slt.png","../images/cyn_red.png","../images/ylw_pnk.png","../images/org_blu.png","../images/grn_red.png","../images/pnk_blu.png"],"mutagen_generator_assignment":[0,1],"goal":6,"start":2,"action_noise":0.1,"location_history":"[2,6]","action_history":"[1]","mutagen_history":"[1]","location_rts":"[963]","trial_type":"fractal-mutation","trial_index":78,"time_elapsed":1911204,"internal_node_id":"0.0-5.0-24.0"},{"group":"tri cycles (cube, non-group)","fractal_assignment":["../images/gry_blk.png","../images/blu_wht.png","../images/ylw_slt.png","../images/cyn_red.png","../images/ylw_pnk.png","../images/org_blu.png","../images/grn_red.png","../images/pnk_blu.png"],"mutagen_generator_assignment":[0,1],"goal":1,"start":6,"action_noise":0.1,"location_history":"[6,5,1]","action_history":"[1,1]","mutagen_history":"[1,1]","location_rts":"[2373,824]","trial_type":"fractal-mutation","trial_index":79,"time_elapsed":1919975,"internal_node_id":"0.0-5.0-25.0"},{"group":"tri cycles (cube, non-group)","fractal_assignment":["../images/gry_blk.png","../images/blu_wht.png","../images/ylw_slt.png","../images/cyn_red.png","../images/ylw_pnk.png","../images/org_blu.png","../images/grn_red.png","../images/pnk_blu.png"],"mutagen_generator_assignment":[0,1],"goal":3,"start":1,"action_noise":0.1,"location_history":"[1,5,2,6,5,1,0,2,6,4,7,6,4,0,3]","action_history":"[1,1,1,1,0,0,0,1,0,0,0,0,1,1]","mutagen_history":"[1,1,1,1,0,0,0,1,0,0,0,0,1,1]","location_rts":"[2588,476,465,1101,459,807,622,553,958,541,779,1028,478,706]","trial_type":"fractal-mutation","trial_index":80,"time_elapsed":1949360,"internal_node_id":"0.0-5.0-26.0"},{"group":"tri cycles (cube, non-group)","fractal_assignment":["../images/gry_blk.png","../images/blu_wht.png","../images/ylw_slt.png","../images/cyn_red.png","../images/ylw_pnk.png","../images/org_blu.png","../images/grn_red.png","../images/pnk_blu.png"],"mutagen_generator_assignment":[0,1],"goal":7,"start":3,"action_noise":0.1,"location_history":"[3,4,7]","action_history":"[1,1]","mutagen_history":"[1,1]","location_rts":"[2960,511]","trial_type":"fractal-mutation","trial_index":81,"time_elapsed":1958393,"internal_node_id":"0.0-5.0-27.0"},{"group":"tri cycles (cube, non-group)","fractal_assignment":["../images/gry_blk.png","../images/blu_wht.png","../images/ylw_slt.png","../images/cyn_red.png","../images/ylw_pnk.png","../images/org_blu.png","../images/grn_red.png","../images/pnk_blu.png"],"mutagen_generator_assignment":[0,1],"goal":4,"start":7,"action_noise":0.1,"location_history":"[7,3,4]","action_history":"[1,1]","mutagen_history":"[1,1]","location_rts":"[1673,431]","trial_type":"fractal-mutation","trial_index":82,"time_elapsed":1966063,"internal_node_id":"0.0-5.0-28.0"},{"group":"tri cycles (cube, non-group)","fractal_assignment":["../images/gry_blk.png","../images/blu_wht.png","../images/ylw_slt.png","../images/cyn_red.png","../images/ylw_pnk.png","../images/org_blu.png","../images/grn_red.png","../images/pnk_blu.png"],"mutagen_generator_assignment":[0,1],"goal":0,"start":4,"action_noise":0.1,"location_history":"[4,7,6,5,1,0]","action_history":"[0,0,1,0,0]","mutagen_history":"[0,0,1,0,0]","location_rts":"[1333,1177,700,493,455]","trial_type":"fractal-mutation","trial_index":83,"time_elapsed":1978841,"internal_node_id":"0.0-5.0-29.0"},{"group":"tri cycles (cube, non-group)","fractal_assignment":["../images/gry_blk.png","../images/blu_wht.png","../images/ylw_slt.png","../images/cyn_red.png","../images/ylw_pnk.png","../images/org_blu.png","../images/grn_red.png","../images/pnk_blu.png"],"mutagen_generator_assignment":[0,1],"goal":5,"start":0,"action_noise":0.1,"location_history":"[0,3,4,7,6,4,7,3,4,7,6,4,7,6,5]","action_history":"[1,1,0,0,0,0,1,1,0,0,0,0,1,1]","mutagen_history":"[1,1,0,0,0,0,1,1,0,0,0,0,1,1]","location_rts":"[1003,1463,817,687,898,965,661,509,876,363,894,690,452,504]","trial_type":"fractal-mutation","trial_index":84,"time_elapsed":2007446,"internal_node_id":"0.0-5.0-30.0"},{"group":"tri cycles (cube, non-group)","fractal_assignment":["../images/gry_blk.png","../images/blu_wht.png","../images/ylw_slt.png","../images/cyn_red.png","../images/ylw_pnk.png","../images/org_blu.png","../images/grn_red.png","../images/pnk_blu.png"],"mutagen_generator_assignment":[0,1],"goal":3,"start":5,"action_noise":0.1,"location_history":"[5,2,6,4,7,6,4,0,2,1,0,2,1,0,2,6,5,1,5,1,5,2,1,0,2,1,0,3]","action_history":"[1,1,0,0,0,0,1,0,0,1,0,0,0,0,0,1,1,1,1,1,1,0,0,0,0,0,1]","mutagen_history":"[1,1,0,0,0,0,1,0,0,1,0,0,0,0,0,1,1,1,1,1,1,0,0,0,0,0,1]","location_rts":"[1158,686,1045,444,594,472,700,504,490,1128,747,496,775,524,587,498,421,493,638,1486,680,765,659,809,546,1078,656]","trial_type":"fractal-mutation","trial_index":85,"time_elapsed":2057620,"internal_node_id":"0.0-5.0-31.0"},{"group":"tri cycles (cube, non-group)","fractal_assignment":["../images/gry_blk.png","../images/blu_wht.png","../images/ylw_slt.png","../images/cyn_red.png","../images/ylw_pnk.png","../images/org_blu.png","../images/grn_red.png","../images/pnk_blu.png"],"mutagen_generator_assignment":[0,1],"goal":2,"start":3,"action_noise":0.1,"location_history":"[3,7,3,4,0,3,4,0,3,7,6,5,2]","action_history":"[1,1,1,1,1,1,1,0,0,0,0,1]","mutagen_history":"[1,1,1,1,1,1,1,0,0,0,0,1]","location_rts":"[2336,584,380,862,396,536,566,451,671,937,553,560]","trial_type":"fractal-mutation","trial_index":86,"time_elapsed":2082277,"internal_node_id":"0.0-5.0-32.0"},{"group":"tri cycles (cube, non-group)","fractal_assignment":["../images/gry_blk.png","../images/blu_wht.png","../images/ylw_slt.png","../images/cyn_red.png","../images/ylw_pnk.png","../images/org_blu.png","../images/grn_red.png","../images/pnk_blu.png"],"mutagen_generator_assignment":[0,1],"goal":6,"start":2,"action_noise":0.1,"location_history":"[2,1,5,2,1,5,2,1,0,3,4,0,2,1,5,2,1,0,3,4,0,2,6]","action_history":"[0,1,1,1,1,1,0,0,1,1,1,0,0,1,0,0,0,1,1,1,0,1]","mutagen_history":"[0,1,1,1,1,1,0,0,1,1,1,0,0,1,0,0,0,1,1,1,0,1]","location_rts":"[835,438,499,485,422,740,593,1013,466,779,789,672,746,695,570,957,913,1279,1137,788,567,1510]","trial_type":"fractal-mutation","trial_index":87,"time_elapsed":2125173,"internal_node_id":"0.0-5.0-33.0"},{"group":"tri cycles (cube, non-group)","fractal_assignment":["../images/gry_blk.png","../images/blu_wht.png","../images/ylw_slt.png","../images/cyn_red.png","../images/ylw_pnk.png","../images/org_blu.png","../images/grn_red.png","../images/pnk_blu.png"],"mutagen_generator_assignment":[0,1],"goal":1,"start":6,"action_noise":0.1,"location_history":"[6,4,7,6,4,7,6,5,1]","action_history":"[1,0,0,0,0,0,1,0]","mutagen_history":"[1,0,0,0,0,0,1,0]","location_rts":"[1500,782,907,613,427,1327,799,605]","trial_type":"fractal-mutation","trial_index":88,"time_elapsed":2143812,"internal_node_id":"0.0-5.0-34.0"},{"group":"tri cycles (cube, non-group)","fractal_assignment":["../images/gry_blk.png","../images/blu_wht.png","../images/ylw_slt.png","../images/cyn_red.png","../images/ylw_pnk.png","../images/org_blu.png","../images/grn_red.png","../images/pnk_blu.png"],"mutagen_generator_assignment":[0,1],"goal":7,"start":1,"action_noise":0.1,"location_history":"[1,0,3,4,7]","action_history":"[1,1,1,0]","mutagen_history":"[1,1,1,0]","location_rts":"[1515,518,546,482]","trial_type":"fractal-mutation","trial_index":89,"time_elapsed":2154477,"internal_node_id":"0.0-5.0-35.0"},{"group":"tri cycles (cube, non-group)","fractal_assignment":["../images/gry_blk.png","../images/blu_wht.png","../images/ylw_slt.png","../images/cyn_red.png","../images/ylw_pnk.png","../images/org_blu.png","../images/grn_red.png","../images/pnk_blu.png"],"mutagen_generator_assignment":[0,1],"goal":4,"start":7,"action_noise":0.1,"location_history":"[7,3,4]","action_history":"[1,1]","mutagen_history":"[1,1]","location_rts":"[1092,477]","trial_type":"fractal-mutation","trial_index":90,"time_elapsed":2161612,"internal_node_id":"0.0-5.0-36.0"},{"group":"tri cycles (cube, non-group)","fractal_assignment":["../images/gry_blk.png","../images/blu_wht.png","../images/ylw_slt.png","../images/cyn_red.png","../images/ylw_pnk.png","../images/org_blu.png","../images/grn_red.png","../images/pnk_blu.png"],"mutagen_generator_assignment":[0,1],"goal":5,"start":4,"action_noise":0.1,"location_history":"[4,7,3,7,6,4,7,6,5]","action_history":"[0,1,0,0,0,0,0,1]","mutagen_history":"[0,1,0,0,0,0,0,1]","location_rts":"[2549,724,601,565,1017,1158,829,665]","trial_type":"fractal-mutation","trial_index":91,"time_elapsed":2181399,"internal_node_id":"0.0-5.0-37.0"},{"group":"tri cycles (cube, non-group)","fractal_assignment":["../images/gry_blk.png","../images/blu_wht.png","../images/ylw_slt.png","../images/cyn_red.png","../images/ylw_pnk.png","../images/org_blu.png","../images/grn_red.png","../images/pnk_blu.png"],"mutagen_generator_assignment":[0,1],"goal":0,"start":5,"action_noise":0.1,"location_history":"[5,2,6,4,7,6,5,2,6,4,7,6,4,0]","action_history":"[1,1,0,0,0,1,1,1,1,0,0,0,0]","mutagen_history":"[1,1,0,0,0,1,1,1,1,0,0,0,0]","location_rts":"[1273,895,816,1031,610,490,769,753,1256,586,938,785,719]","trial_type":"fractal-mutation","trial_index":92,"time_elapsed":2209099,"internal_node_id":"0.0-5.0-38.0"},{"group":"tri cycles (cube, non-group)","fractal_assignment":["../images/gry_blk.png","../images/blu_wht.png","../images/ylw_slt.png","../images/cyn_red.png","../images/ylw_pnk.png","../images/org_blu.png","../images/grn_red.png","../images/pnk_blu.png"],"mutagen_generator_assignment":[0,1],"goal":4,"start":0,"action_noise":0.1,"location_history":"[0,3,4]","action_history":"[1,1]","mutagen_history":"[1,1]","location_rts":"[1184,510]","trial_type":"fractal-mutation","trial_index":93,"time_elapsed":2216339,"internal_node_id":"0.0-5.0-39.0"},{"group":"tri cycles (cube, non-group)","fractal_assignment":["../images/gry_blk.png","../images/blu_wht.png","../images/ylw_slt.png","../images/cyn_red.png","../images/ylw_pnk.png","../images/org_blu.png","../images/grn_red.png","../images/pnk_blu.png"],"mutagen_generator_assignment":[0,1],"goal":0,"start":4,"action_noise":0.1,"location_history":"[4,7,6,5,2,6,5,2,1,0]","action_history":"[0,0,1,1,1,1,1,0,0]","mutagen_history":"[0,0,1,1,1,1,1,0,0]","location_rts":"[1294,729,660,952,1082,756,659,464,679]","trial_type":"fractal-mutation","trial_index":94,"time_elapsed":2236358,"internal_node_id":"0.0-5.0-40.0"},{"group":"tri cycles (cube, non-group)","fractal_assignment":["../images/gry_blk.png","../images/blu_wht.png","../images/ylw_slt.png","../images/cyn_red.png","../images/ylw_pnk.png","../images/org_blu.png","../images/grn_red.png","../images/pnk_blu.png"],"mutagen_generator_assignment":[0,1],"goal":2,"start":0,"action_noise":0.1,"location_history":"[0,2]","action_history":"[0]","mutagen_history":"[0]","location_rts":"[1740]","trial_type":"fractal-mutation","trial_index":95,"time_elapsed":2242621,"internal_node_id":"0.0-5.0-41.0"},{"group":"tri cycles (cube, non-group)","fractal_assignment":["../images/gry_blk.png","../images/blu_wht.png","../images/ylw_slt.png","../images/cyn_red.png","../images/ylw_pnk.png","../images/org_blu.png","../images/grn_red.png","../images/pnk_blu.png"],"mutagen_generator_assignment":[0,1],"goal":3,"start":2,"action_noise":0.1,"location_history":"[2,6,4,0,2,1,0,2,6,5,1,0,2,6,4,7,3]","action_history":"[1,1,1,0,0,0,0,1,1,0,0,0,0,0,0,1]","mutagen_history":"[1,1,1,0,0,0,0,1,1,0,0,0,0,0,0,1]","location_rts":"[1270,689,869,566,532,741,510,710,661,707,636,726,678,492,981,594]","trial_type":"fractal-mutation","trial_index":96,"time_elapsed":2273864,"internal_node_id":"0.0-5.0-42.0"},{"group":"tri cycles (cube, non-group)","fractal_assignment":["../images/gry_blk.png","../images/blu_wht.png","../images/ylw_slt.png","../images/cyn_red.png","../images/ylw_pnk.png","../images/org_blu.png","../images/grn_red.png","../images/pnk_blu.png"],"mutagen_generator_assignment":[0,1],"goal":5,"start":3,"action_noise":0.1,"location_history":"[3,4,7,6,4,7,3,4,0,3,4,7,3,7,6,4,0,3,4,0,2,1,0,2,6,4,7,6,5]","action_history":"[1,0,0,0,0,1,1,1,1,1,0,0,0,0,0,1,1,1,1,0,0,0,0,0,0,0,0,1]","mutagen_history":"[1,0,0,0,0,1,1,1,1,1,0,0,0,0,0,1,1,1,1,0,0,0,0,0,0,0,0,1]","location_rts":"[2299,1999,868,621,1244,504,706,690,742,1071,724,723,697,1310,987,874,727,1675,1107,631,600,674,431,576,488,677,760,724]","trial_type":"fractal-mutation","trial_index":97,"time_elapsed":2331127,"internal_node_id":"0.0-5.0-43.0"},{"group":"tri cycles (cube, non-group)","fractal_assignment":["../images/gry_blk.png","../images/blu_wht.png","../images/ylw_slt.png","../images/cyn_red.png","../images/ylw_pnk.png","../images/org_blu.png","../images/grn_red.png","../images/pnk_blu.png"],"mutagen_generator_assignment":[0,1],"goal":1,"start":5,"action_noise":0.1,"location_history":"[5,1]","action_history":"[0]","mutagen_history":"[0]","location_rts":"[3295]","trial_type":"fractal-mutation","trial_index":98,"time_elapsed":2338946,"internal_node_id":"0.0-5.0-44.0"},{"group":"tri cycles (cube, non-group)","fractal_assignment":["../images/gry_blk.png","../images/blu_wht.png","../images/ylw_slt.png","../images/cyn_red.png","../images/ylw_pnk.png","../images/org_blu.png","../images/grn_red.png","../images/pnk_blu.png"],"mutagen_generator_assignment":[0,1],"goal":7,"start":1,"action_noise":0.1,"location_history":"[1,5,2,6,4,7]","action_history":"[1,1,1,0,0]","mutagen_history":"[1,1,1,0,0]","location_rts":"[1273,517,560,1001,526]","trial_type":"fractal-mutation","trial_index":99,"time_elapsed":2351437,"internal_node_id":"0.0-5.0-45.0"},{"group":"tri cycles (cube, non-group)","fractal_assignment":["../images/gry_blk.png","../images/blu_wht.png","../images/ylw_slt.png","../images/cyn_red.png","../images/ylw_pnk.png","../images/org_blu.png","../images/grn_red.png","../images/pnk_blu.png"],"mutagen_generator_assignment":[0,1],"goal":6,"start":7,"action_noise":0.1,"location_history":"[7,3,4,0,3,4,7,3,4,7,6]","action_history":"[1,1,1,1,1,0,1,1,1,0]","mutagen_history":"[1,1,1,1,1,0,1,1,1,0]","location_rts":"[2247,597,510,517,525,364,740,942,913,567]","trial_type":"fractal-mutation","trial_index":100,"time_elapsed":2373127,"internal_node_id":"0.0-5.0-46.0"},{"group":"tri cycles (cube, non-group)","fractal_assignment":["../images/gry_blk.png","../images/blu_wht.png","../images/ylw_slt.png","../images/cyn_red.png","../images/ylw_pnk.png","../images/org_blu.png","../images/grn_red.png","../images/pnk_blu.png"],"mutagen_generator_assignment":[0,1],"goal":3,"start":6,"action_noise":0.1,"location_history":"[6,4,7,3]","action_history":"[0,0,0]","mutagen_history":"[0,0,0]","location_rts":"[2534,487,621]","trial_type":"fractal-mutation","trial_index":101,"time_elapsed":2383324,"internal_node_id":"0.0-5.0-47.0"},{"group":"tri cycles (cube, non-group)","fractal_assignment":["../images/gry_blk.png","../images/blu_wht.png","../images/ylw_slt.png","../images/cyn_red.png","../images/ylw_pnk.png","../images/org_blu.png","../images/grn_red.png","../images/pnk_blu.png"],"mutagen_generator_assignment":[0,1],"goal":0,"start":3,"action_noise":0.1,"location_history":"[3,4,7,3,4,0]","action_history":"[1,1,1,1,1]","mutagen_history":"[1,1,1,1,1]","location_rts":"[1138,658,604,587,730]","trial_type":"fractal-mutation","trial_index":102,"time_elapsed":2395665,"internal_node_id":"0.0-5.0-48.0"},{"group":"tri cycles (cube, non-group)","fractal_assignment":["../images/gry_blk.png","../images/blu_wht.png","../images/ylw_slt.png","../images/cyn_red.png","../images/ylw_pnk.png","../images/org_blu.png","../images/grn_red.png","../images/pnk_blu.png"],"mutagen_generator_assignment":[0,1],"goal":2,"start":0,"action_noise":0.1,"location_history":"[0,2]","action_history":"[0]","mutagen_history":"[0]","location_rts":"[1142]","trial_type":"fractal-mutation","trial_index":103,"time_elapsed":2401328,"internal_node_id":"0.0-5.0-49.0"},{"view_history":"[{\"page_index\":0,\"viewing_time\":37442}]","rt":37442,"trial_type":"instructions","trial_index":104,"time_elapsed":2439772,"internal_node_id":"0.0-6.0"},{"rt":10543,"responses":"{\"Q0\":\"this was fun!\"}","trial_type":"survey-text","trial_index":105,"time_elapsed":2451319,"internal_node_id":"0.0-7.0"}]