[{"view_history":"[{\"page_index\":0,\"viewing_time\":303229},{\"page_index\":1,\"viewing_time\":4909},{\"page_index\":2,\"viewing_time\":7815},{\"page_index\":3,\"viewing_time\":6143}]","rt":322100,"trial_type":"instructions","trial_index":0,"time_elapsed":322101,"internal_node_id":"0.0-0.0"},{"view_history":"[{\"page_index\":0,\"viewing_time\":2715},{\"page_index\":1,\"viewing_time\":9784}]","rt":12501,"trial_type":"instructions","trial_index":1,"time_elapsed":335605,"internal_node_id":"0.0-1.0"},{"group":"square cycles (cube, non-group)","room_assignment":["red","purple","yellow","blue","brown","green","pink","grey"],"door_color_assignment":["black","white"],"door_generator_assignment":[1,0],"goal":3,"start":0,"action_noise":0.1,"location_history":"[0,4,7,3]","action_history":"[1,0,0]","door_history":"[0,1,1]","location_rts":"[1596,744,536]","trial_type":"two-door-navigation","trial_index":2,"time_elapsed":345175,"internal_node_id":"0.0-2.0-0.0"},{"group":"square cycles (cube, non-group)","room_assignment":["red","purple","yellow","blue","brown","green","pink","grey"],"door_color_assignment":["black","white"],"door_generator_assignment":[1,0],"goal":1,"start":3,"action_noise":0.1,"location_history":"[3,2,6,5,1]","action_history":"[1,1,0,1]","door_history":"[0,0,1,0]","location_rts":"[2485,251,663,795]","trial_type":"two-door-navigation","trial_index":3,"time_elapsed":357056,"internal_node_id":"0.0-2.0-1.0"},{"group":"square cycles (cube, non-group)","room_assignment":["red","purple","yellow","blue","brown","green","pink","grey"],"door_color_assignment":["black","white"],"door_generator_assignment":[1,0],"goal":2,"start":1,"action_noise":0.1,"location_history":"[1,2]","action_history":"[0]","door_history":"[1]","location_rts":"[1399]","trial_type":"two-door-navigation","trial_index":4,"time_elapsed":362992,"internal_node_id":"0.0-2.0-2.0"},{"group":"square cycles (cube, non-group)","room_assignment":["red","purple","yellow","blue","brown","green","pink","grey"],"door_color_assignment":["black","white"],"door_generator_assignment":[1,0],"goal":6,"start":2,"action_noise":0.1,"location_history":"[2,6]","action_history":"[1]","door_history":"[0]","location_rts":"[353]","trial_type":"two-door-navigation","trial_index":5,"time_elapsed":367889,"internal_node_id":"0.0-2.0-3.0"},{"group":"square cycles (cube, non-group)","room_assignment":["red","purple","yellow","blue","brown","green","pink","grey"],"door_color_assignment":["black","white"],"door_generator_assignment":[1,0],"goal":5,"start":6,"action_noise":0.1,"location_history":"[6,5]","action_history":"[0]","door_history":"[1]","location_rts":"[2284]","trial_type":"two-door-navigation","trial_index":6,"time_elapsed":374714,"internal_node_id":"0.0-2.0-4.0"},{"group":"square cycles (cube, non-group)","room_assignment":["red","purple","yellow","blue","brown","green","pink","grey"],"door_color_assignment":["black","white"],"door_generator_assignment":[1,0],"goal":4,"start":5,"action_noise":0.1,"location_history":"[5,1,2,3,2,3,0,1,2,6,5,4]","action_history":"[1,0,1,1,0,0,0,0,1,0,0]","door_history":"[0,1,0,0,1,1,1,1,0,1,1]","location_rts":"[712,577,397,1483,467,383,366,427,539,812,394]","trial_type":"two-door-navigation","trial_index":7,"time_elapsed":396343,"internal_node_id":"0.0-2.0-5.0"},{"group":"square cycles (cube, non-group)","room_assignment":["red","purple","yellow","blue","brown","green","pink","grey"],"door_color_assignment":["black","white"],"door_generator_assignment":[1,0],"goal":7,"start":4,"action_noise":0.1,"location_history":"[4,5,1,2,3,0,1,2,3,0,1,2,3,0,1,2,3,2,6,5,1,0,4,7]","action_history":"[1,1,0,0,0,0,1,0,0,0,0,0,0,0,0,0,1,1,0,1,1,1,0]","door_history":"[0,0,1,1,1,1,0,1,1,1,1,1,1,1,1,1,0,0,1,0,0,0,1]","location_rts":"[539,409,351,349,356,330,389,400,412,360,333,329,334,322,298,313,335,333,357,311,354,299,610]","trial_type":"two-door-navigation","trial_index":8,"time_elapsed":432066,"internal_node_id":"0.0-2.0-6.0"},{"group":"square cycles (cube, non-group)","room_assignment":["red","purple","yellow","blue","brown","green","pink","grey"],"door_color_assignment":["black","white"],"door_generator_assignment":[1,0],"goal":4,"start":7,"action_noise":0.1,"location_history":"[7,3,0,4]","action_history":"[1,0,1]","door_history":"[0,1,0]","location_rts":"[229,351,353]","trial_type":"two-door-navigation","trial_index":9,"time_elapsed":439599,"internal_node_id":"0.0-2.0-7.0"},{"group":"square cycles (cube, non-group)","room_assignment":["red","purple","yellow","blue","brown","green","pink","grey"],"door_color_assignment":["black","white"],"door_generator_assignment":[1,0],"goal":6,"start":4,"action_noise":0.1,"location_history":"[4,7,3,0,1,0,1,0,4,5,1,0,4,7,6]","action_history":"[0,1,0,0,0,0,1,1,1,1,1,1,0,0]","door_history":"[1,0,1,1,1,1,0,0,0,0,0,0,1,1]","location_rts":"[5184,670,518,351,398,360,452,379,374,360,692,368,640,323]","trial_type":"two-door-navigation","trial_index":10,"time_elapsed":468792,"internal_node_id":"0.0-2.0-8.0"},{"group":"square cycles (cube, non-group)","room_assignment":["red","purple","yellow","blue","brown","green","pink","grey"],"door_color_assignment":["black","white"],"door_generator_assignment":[1,0],"goal":0,"start":6,"action_noise":0.1,"location_history":"[6,5,1,0]","action_history":"[0,1,1]","door_history":"[1,0,0]","location_rts":"[822,330,403]","trial_type":"two-door-navigation","trial_index":11,"time_elapsed":476955,"internal_node_id":"0.0-2.0-9.0"},{"group":"square cycles (cube, non-group)","room_assignment":["red","purple","yellow","blue","brown","green","pink","grey"],"door_color_assignment":["black","white"],"door_generator_assignment":[1,0],"goal":1,"start":0,"action_noise":0.1,"location_history":"[0,4,7,3,2,6,7,6,7,6,5,4,7,6,7,3,2,6,5,1]","action_history":"[1,0,1,1,1,1,0,1,0,0,0,0,0,1,1,1,1,1,1]","door_history":"[0,1,0,0,0,0,1,0,1,1,1,1,1,0,0,0,0,0,0]","location_rts":"[778,398,409,406,338,1414,379,477,533,292,337,943,420,408,74,339,296,427,434]","trial_type":"two-door-navigation","trial_index":12,"time_elapsed":509284,"internal_node_id":"0.0-2.0-10.0"},{"group":"square cycles (cube, non-group)","room_assignment":["red","purple","yellow","blue","brown","green","pink","grey"],"door_color_assignment":["black","white"],"door_generator_assignment":[1,0],"goal":3,"start":1,"action_noise":0.1,"location_history":"[1,0,1,2,6,5,4,5,4,5,1,0,4,7,3]","action_history":"[1,0,1,1,1,0,0,0,1,1,1,1,1,1]","door_history":"[0,1,0,0,0,1,1,1,0,0,0,0,0,0]","location_rts":"[347,414,442,232,360,399,359,378,352,426,358,332,364,301]","trial_type":"two-door-navigation","trial_index":13,"time_elapsed":532596,"internal_node_id":"0.0-2.0-11.0"},{"group":"square cycles (cube, non-group)","room_assignment":["red","purple","yellow","blue","brown","green","pink","grey"],"door_color_assignment":["black","white"],"door_generator_assignment":[1,0],"goal":7,"start":3,"action_noise":0.1,"location_history":"[3,0,1,2,3,0,4,7]","action_history":"[0,1,0,0,0,1,0]","door_history":"[1,0,1,1,1,0,1]","location_rts":"[319,381,358,278,697,1763,652]","trial_type":"two-door-navigation","trial_index":14,"time_elapsed":547891,"internal_node_id":"0.0-2.0-12.0"},{"group":"square cycles (cube, non-group)","room_assignment":["red","purple","yellow","blue","brown","green","pink","grey"],"door_color_assignment":["black","white"],"door_generator_assignment":[1,0],"goal":5,"start":7,"action_noise":0.1,"location_history":"[7,6,7,6,5]","action_history":"[1,1,0,0]","door_history":"[0,0,1,1]","location_rts":"[1385,281,338,762]","trial_type":"two-door-navigation","trial_index":15,"time_elapsed":558278,"internal_node_id":"0.0-2.0-13.0"},{"group":"square cycles (cube, non-group)","room_assignment":["red","purple","yellow","blue","brown","green","pink","grey"],"door_color_assignment":["black","white"],"door_generator_assignment":[1,0],"goal":2,"start":5,"action_noise":0.1,"location_history":"[5,1,2]","action_history":"[1,0]","door_history":"[0,1]","location_rts":"[301,425]","trial_type":"two-door-navigation","trial_index":16,"time_elapsed":564630,"internal_node_id":"0.0-2.0-14.0"},{"group":"square cycles (cube, non-group)","room_assignment":["red","purple","yellow","blue","brown","green","pink","grey"],"door_color_assignment":["black","white"],"door_generator_assignment":[1,0],"goal":7,"start":2,"action_noise":0.1,"location_history":"[2,6,7]","action_history":"[1,0]","door_history":"[0,1]","location_rts":"[643,608]","trial_type":"two-door-navigation","trial_index":17,"time_elapsed":571481,"internal_node_id":"0.0-2.0-15.0"},{"group":"square cycles (cube, non-group)","room_assignment":["red","purple","yellow","blue","brown","green","pink","grey"],"door_color_assignment":["black","white"],"door_generator_assignment":[1,0],"goal":4,"start":7,"action_noise":0.1,"location_history":"[7,3,0,1,0,4]","action_history":"[1,0,0,1,1]","door_history":"[0,1,1,0,0]","location_rts":"[585,103,352,370,291]","trial_type":"two-door-navigation","trial_index":18,"time_elapsed":581871,"internal_node_id":"0.0-2.0-16.0"},{"group":"square cycles (cube, non-group)","room_assignment":["red","purple","yellow","blue","brown","green","pink","grey"],"door_color_assignment":["black","white"],"door_generator_assignment":[1,0],"goal":2,"start":4,"action_noise":0.1,"location_history":"[4,7,3,2]","action_history":"[0,1,1]","door_history":"[1,0,0]","location_rts":"[634,365,345]","trial_type":"two-door-navigation","trial_index":19,"time_elapsed":589802,"internal_node_id":"0.0-2.0-17.0"},{"group":"square cycles (cube, non-group)","room_assignment":["red","purple","yellow","blue","brown","green","pink","grey"],"door_color_assignment":["black","white"],"door_generator_assignment":[1,0],"goal":3,"start":2,"action_noise":0.1,"location_history":"[2,6,7,3]","action_history":"[1,1,1]","door_history":"[0,0,0]","location_rts":"[772,205,213]","trial_type":"two-door-navigation","trial_index":20,"time_elapsed":597578,"internal_node_id":"0.0-2.0-18.0"},{"group":"square cycles (cube, non-group)","room_assignment":["red","purple","yellow","blue","brown","green","pink","grey"],"door_color_assignment":["black","white"],"door_generator_assignment":[1,0],"goal":6,"start":3,"action_noise":0.1,"location_history":"[3,0,4,7,6]","action_history":"[0,1,0,0]","door_history":"[1,0,1,1]","location_rts":"[19117,420,469,277]","trial_type":"two-door-navigation","trial_index":21,"time_elapsed":625678,"internal_node_id":"0.0-2.0-19.0"},{"group":"square cycles (cube, non-group)","room_assignment":["red","purple","yellow","blue","brown","green","pink","grey"],"door_color_assignment":["black","white"],"door_generator_assignment":[1,0],"goal":5,"start":6,"action_noise":0.1,"location_history":"[6,7,3,2,6,5]","action_history":"[1,1,1,1,0]","door_history":"[0,0,0,0,1]","location_rts":"[689,86,499,397,513]","trial_type":"two-door-navigation","trial_index":22,"time_elapsed":636534,"internal_node_id":"0.0-2.0-20.0"},{"group":"square cycles (cube, non-group)","room_assignment":["red","purple","yellow","blue","brown","green","pink","grey"],"door_color_assignment":["black","white"],"door_generator_assignment":[1,0],"goal":1,"start":5,"action_noise":0.1,"location_history":"[5,1]","action_history":"[1]","door_history":"[0]","location_rts":"[728]","trial_type":"two-door-navigation","trial_index":23,"time_elapsed":641821,"internal_node_id":"0.0-2.0-21.0"},{"group":"square cycles (cube, non-group)","room_assignment":["red","purple","yellow","blue","brown","green","pink","grey"],"door_color_assignment":["black","white"],"door_generator_assignment":[1,0],"goal":0,"start":1,"action_noise":0.1,"location_history":"[1,0]","action_history":"[1]","door_history":"[0]","location_rts":"[269]","trial_type":"two-door-navigation","trial_index":24,"time_elapsed":646623,"internal_node_id":"0.0-2.0-22.0"},{"group":"square cycles (cube, non-group)","room_assignment":["red","purple","yellow","blue","brown","green","pink","grey"],"door_color_assignment":["black","white"],"door_generator_assignment":[1,0],"goal":2,"start":0,"action_noise":0.1,"location_history":"[0,1,0,1,2]","action_history":"[0,1,0,0]","door_history":"[1,0,1,1]","location_rts":"[539,643,526,194]","trial_type":"two-door-navigation","trial_index":25,"time_elapsed":656173,"internal_node_id":"0.0-2.0-23.0"},{"group":"square cycles (cube, non-group)","room_assignment":["red","purple","yellow","blue","brown","green","pink","grey"],"door_color_assignment":["black","white"],"door_generator_assignment":[1,0],"goal":6,"start":2,"action_noise":0.1,"location_history":"[2,3,0,1,0,1,0,4,5,1,0,1,0,4,7,6]","action_history":"[0,0,0,0,0,1,1,1,1,1,0,1,1,0,0]","door_history":"[1,1,1,1,1,0,0,0,0,0,1,0,0,1,1]","location_rts":"[671,326,359,335,661,122,1882,341,377,407,373,326,334,332,1526]","trial_type":"two-door-navigation","trial_index":26,"time_elapsed":683915,"internal_node_id":"0.0-2.0-24.0"},{"group":"square cycles (cube, non-group)","room_assignment":["red","purple","yellow","blue","brown","green","pink","grey"],"door_color_assignment":["black","white"],"door_generator_assignment":[1,0],"goal":1,"start":6,"action_noise":0.1,"location_history":"[6,7,3,2,6,7,3,2,6,7,3,0,4,5,4,5,4,5,4,7,6,7,6,5,4,7,6,5,1]","action_history":"[1,1,1,1,1,1,1,1,1,1,0,1,1,1,1,0,1,0,0,0,1,0,0,0,0,0,0,1]","door_history":"[0,0,0,0,0,0,0,0,0,0,1,0,0,0,0,1,0,1,1,1,0,1,1,1,1,1,1,0]","location_rts":"[1140,321,347,316,493,380,749,302,408,325,410,349,336,445,361,440,521,966,370,280,174,345,6,492,158,121,164,176]","trial_type":"two-door-navigation","trial_index":27,"time_elapsed":727402,"internal_node_id":"0.0-2.0-25.0"},{"group":"square cycles (cube, non-group)","room_assignment":["red","purple","yellow","blue","brown","green","pink","grey"],"door_color_assignment":["black","white"],"door_generator_assignment":[1,0],"goal":3,"start":1,"action_noise":0.1,"location_history":"[1,0,4,5,1,0,1,0,4,7,6,5,1,0,4,5,1,0,1,2,3]","action_history":"[1,0,1,1,1,0,1,1,0,0,0,1,1,1,1,1,1,0,0,0]","door_history":"[0,1,0,0,0,1,0,0,1,1,1,0,0,0,0,0,0,1,1,1]","location_rts":"[781,263,54,360,646,298,429,316,123,253,298,319,341,358,269,372,77,480,5,379]","trial_type":"two-door-navigation","trial_index":28,"time_elapsed":758067,"internal_node_id":"0.0-2.0-26.0"},{"group":"square cycles (cube, non-group)","room_assignment":["red","purple","yellow","blue","brown","green","pink","grey"],"door_color_assignment":["black","white"],"door_generator_assignment":[1,0],"goal":7,"start":3,"action_noise":0.1,"location_history":"[3,0,4,7]","action_history":"[0,1,0]","door_history":"[1,0,1]","location_rts":"[376,328,752]","trial_type":"two-door-navigation","trial_index":29,"time_elapsed":766116,"internal_node_id":"0.0-2.0-27.0"},{"group":"square cycles (cube, non-group)","room_assignment":["red","purple","yellow","blue","brown","green","pink","grey"],"door_color_assignment":["black","white"],"door_generator_assignment":[1,0],"goal":4,"start":7,"action_noise":0.1,"location_history":"[7,3,2,6,7,3,2,6,7,6,7,6,7,3,2,6,7,3,2,6,7,3,2,6,7,3,2,6,7,6,5,1,0,4]","action_history":"[1,0,1,1,1,1,1,1,0,1,0,0,1,1,1,1,1,0,1,1,1,1,1,1,1,1,1,1,0,0,1,1,1]","door_history":"[0,1,0,0,0,0,0,0,1,0,1,1,0,0,0,0,0,1,0,0,0,0,0,0,0,0,0,0,1,1,0,0,0]","location_rts":"[991,400,85,364,403,390,401,791,527,319,20520,272,438,386,251,343,258,392,268,60,308,319,357,300,107,231,202,536,413,1775,294,802,360]","trial_type":"two-door-navigation","trial_index":30,"time_elapsed":837663,"internal_node_id":"0.0-2.0-28.0"},{"group":"square cycles (cube, non-group)","room_assignment":["red","purple","yellow","blue","brown","green","pink","grey"],"door_color_assignment":["black","white"],"door_generator_assignment":[1,0],"goal":0,"start":4,"action_noise":0.1,"location_history":"[4,5,1,0]","action_history":"[1,1,1]","door_history":"[0,0,0]","location_rts":"[927,299,374]","trial_type":"two-door-navigation","trial_index":31,"time_elapsed":845849,"internal_node_id":"0.0-2.0-29.0"},{"group":"square cycles (cube, non-group)","room_assignment":["red","purple","yellow","blue","brown","green","pink","grey"],"door_color_assignment":["black","white"],"door_generator_assignment":[1,0],"goal":5,"start":0,"action_noise":0.1,"location_history":"[0,4,5]","action_history":"[1,1]","door_history":"[0,0]","location_rts":"[593,263]","trial_type":"two-door-navigation","trial_index":32,"time_elapsed":852288,"internal_node_id":"0.0-2.0-30.0"},{"group":"square cycles (cube, non-group)","room_assignment":["red","purple","yellow","blue","brown","green","pink","grey"],"door_color_assignment":["black","white"],"door_generator_assignment":[1,0],"goal":3,"start":5,"action_noise":0.1,"location_history":"[5,1,0,4,5,1,0,4,7,3]","action_history":"[1,1,1,1,1,1,1,0,1]","door_history":"[0,0,0,0,0,0,0,1,0]","location_rts":"[623,289,331,390,360,376,408,475,21]","trial_type":"two-door-navigation","trial_index":33,"time_elapsed":868469,"internal_node_id":"0.0-2.0-31.0"},{"group":"square cycles (cube, non-group)","room_assignment":["red","purple","yellow","blue","brown","green","pink","grey"],"door_color_assignment":["black","white"],"door_generator_assignment":[1,0],"goal":2,"start":3,"action_noise":0.1,"location_history":"[3,2]","action_history":"[1]","door_history":"[0]","location_rts":"[672]","trial_type":"two-door-navigation","trial_index":34,"time_elapsed":873690,"internal_node_id":"0.0-2.0-32.0"},{"group":"square cycles (cube, non-group)","room_assignment":["red","purple","yellow","blue","brown","green","pink","grey"],"door_color_assignment":["black","white"],"door_generator_assignment":[1,0],"goal":6,"start":2,"action_noise":0.1,"location_history":"[2,6]","action_history":"[1]","door_history":"[0]","location_rts":"[891]","trial_type":"two-door-navigation","trial_index":35,"time_elapsed":879119,"internal_node_id":"0.0-2.0-33.0"},{"group":"square cycles (cube, non-group)","room_assignment":["red","purple","yellow","blue","brown","green","pink","grey"],"door_color_assignment":["black","white"],"door_generator_assignment":[1,0],"goal":1,"start":6,"action_noise":0.1,"location_history":"[6,7,6,7,3,2,3,2,3,0,4,7,3,2,6,7,6,7,3,0,4,7,3,0,4,5,1]","action_history":"[1,0,1,1,1,1,1,0,0,1,1,1,1,1,1,1,1,1,0,1,1,1,0,1,1,1]","door_history":"[0,1,0,0,0,0,0,1,1,0,0,0,0,0,0,0,0,0,1,0,0,0,1,0,0,0]","location_rts":"[462,491,59,151,139,325,751,280,508,1086,342,335,352,313,31,351,406,495,839,1134,367,446,247,1028,223,14]","trial_type":"two-door-navigation","trial_index":36,"time_elapsed":920683,"internal_node_id":"0.0-2.0-34.0"},{"group":"square cycles (cube, non-group)","room_assignment":["red","purple","yellow","blue","brown","green","pink","grey"],"door_color_assignment":["black","white"],"door_generator_assignment":[1,0],"goal":7,"start":1,"action_noise":0.1,"location_history":"[1,2,3,2,6,7]","action_history":"[1,1,1,1,1]","door_history":"[0,0,0,0,0]","location_rts":"[633,325,320,293,301]","trial_type":"two-door-navigation","trial_index":37,"time_elapsed":931214,"internal_node_id":"0.0-2.0-35.0"},{"group":"square cycles (cube, non-group)","room_assignment":["red","purple","yellow","blue","brown","green","pink","grey"],"door_color_assignment":["black","white"],"door_generator_assignment":[1,0],"goal":4,"start":7,"action_noise":0.1,"location_history":"[7,6,7,3,2,3,2,3,2,6,7,3,2,3,2,6,7,3,2,6,5,1,0,4]","action_history":"[1,1,1,1,1,1,0,1,1,1,1,1,0,1,1,1,1,1,1,0,1,1,1]","door_history":"[0,0,0,0,0,0,1,0,0,0,0,0,1,0,0,0,0,0,0,1,0,0,0]","location_rts":"[671,365,305,317,272,362,369,324,421,417,10741,1808,428,395,471,78,6679,295,86,275,86,345,302]","trial_type":"two-door-navigation","trial_index":38,"time_elapsed":984566,"internal_node_id":"0.0-2.0-36.0"},{"group":"square cycles (cube, non-group)","room_assignment":["red","purple","yellow","blue","brown","green","pink","grey"],"door_color_assignment":["black","white"],"door_generator_assignment":[1,0],"goal":5,"start":4,"action_noise":0.1,"location_history":"[4,5]","action_history":"[1]","door_history":"[0]","location_rts":"[1223]","trial_type":"two-door-navigation","trial_index":39,"time_elapsed":991043,"internal_node_id":"0.0-2.0-37.0"},{"group":"square cycles (cube, non-group)","room_assignment":["red","purple","yellow","blue","brown","green","pink","grey"],"door_color_assignment":["black","white"],"door_generator_assignment":[1,0],"goal":0,"start":5,"action_noise":0.1,"location_history":"[5,1,0]","action_history":"[1,1]","door_history":"[0,0]","location_rts":"[2898,518]","trial_type":"two-door-navigation","trial_index":40,"time_elapsed":1001047,"internal_node_id":"0.0-2.0-38.0"},{"group":"square cycles (cube, non-group)","room_assignment":["red","purple","yellow","blue","brown","green","pink","grey"],"door_color_assignment":["black","white"],"door_generator_assignment":[1,0],"goal":4,"start":0,"action_noise":0.1,"location_history":"[0,4]","action_history":"[1]","door_history":"[0]","location_rts":"[635]","trial_type":"two-door-navigation","trial_index":41,"time_elapsed":1006396,"internal_node_id":"0.0-2.0-39.0"},{"group":"square cycles (cube, non-group)","room_assignment":["red","purple","yellow","blue","brown","green","pink","grey"],"door_color_assignment":["black","white"],"door_generator_assignment":[1,0],"goal":0,"start":4,"action_noise":0.1,"location_history":"[4,5,1,2,3,0]","action_history":"[1,1,1,1,1]","door_history":"[0,0,0,0,0]","location_rts":"[37218,302,331,268,311]","trial_type":"two-door-navigation","trial_index":42,"time_elapsed":1053607,"internal_node_id":"0.0-2.0-40.0"},{"group":"square cycles (cube, non-group)","room_assignment":["red","purple","yellow","blue","brown","green","pink","grey"],"door_color_assignment":["black","white"],"door_generator_assignment":[1,0],"goal":2,"start":0,"action_noise":0.1,"location_history":"[0,4,7,3,2]","action_history":"[1,0,1,1]","door_history":"[0,1,0,0]","location_rts":"[3081,388,261,318]","trial_type":"two-door-navigation","trial_index":43,"time_elapsed":1065493,"internal_node_id":"0.0-2.0-41.0"},{"group":"square cycles (cube, non-group)","room_assignment":["red","purple","yellow","blue","brown","green","pink","grey"],"door_color_assignment":["black","white"],"door_generator_assignment":[1,0],"goal":3,"start":2,"action_noise":0.1,"location_history":"[2,3]","action_history":"[0]","door_history":"[1]","location_rts":"[692]","trial_type":"two-door-navigation","trial_index":44,"time_elapsed":1070738,"internal_node_id":"0.0-2.0-42.0"},{"group":"square cycles (cube, non-group)","room_assignment":["red","purple","yellow","blue","brown","green","pink","grey"],"door_color_assignment":["black","white"],"door_generator_assignment":[1,0],"goal":5,"start":3,"action_noise":0.1,"location_history":"[3,2,6,5]","action_history":"[1,1,0]","door_history":"[0,0,1]","location_rts":"[342,275,329]","trial_type":"two-door-navigation","trial_index":45,"time_elapsed":1078278,"internal_node_id":"0.0-2.0-43.0"},{"group":"square cycles (cube, non-group)","room_assignment":["red","purple","yellow","blue","brown","green","pink","grey"],"door_color_assignment":["black","white"],"door_generator_assignment":[1,0],"goal":1,"start":5,"action_noise":0.1,"location_history":"[5,1]","action_history":"[1]","door_history":"[0]","location_rts":"[614]","trial_type":"two-door-navigation","trial_index":46,"time_elapsed":1083427,"internal_node_id":"0.0-2.0-44.0"},{"group":"square cycles (cube, non-group)","room_assignment":["red","purple","yellow","blue","brown","green","pink","grey"],"door_color_assignment":["black","white"],"door_generator_assignment":[1,0],"goal":7,"start":1,"action_noise":0.1,"location_history":"[1,0,1,0,1,0,4,5,1,0,1,0,1,2,6,7]","action_history":"[1,0,1,1,1,1,1,1,1,0,1,0,0,1,1]","door_history":"[0,1,0,0,0,0,0,0,0,1,0,1,1,0,0]","location_rts":"[581,312,327,331,343,315,855,339,308,252,302,225,269,469,414]","trial_type":"two-door-navigation","trial_index":47,"time_elapsed":1108105,"internal_node_id":"0.0-2.0-45.0"},{"group":"square cycles (cube, non-group)","room_assignment":["red","purple","yellow","blue","brown","green","pink","grey"],"door_color_assignment":["black","white"],"door_generator_assignment":[1,0],"goal":6,"start":7,"action_noise":0.1,"location_history":"[7,6]","action_history":"[1]","door_history":"[0]","location_rts":"[1854]","trial_type":"two-door-navigation","trial_index":48,"time_elapsed":1114577,"internal_node_id":"0.0-2.0-46.0"},{"group":"square cycles (cube, non-group)","room_assignment":["red","purple","yellow","blue","brown","green","pink","grey"],"door_color_assignment":["black","white"],"door_generator_assignment":[1,0],"goal":3,"start":6,"action_noise":0.1,"location_history":"[6,5,1,0,4,5,1,0,4,7,6,7,3]","action_history":"[0,1,1,1,1,1,1,1,0,1,1,1]","door_history":"[1,0,0,0,0,0,0,0,1,0,0,0]","location_rts":"[580,349,311,371,372,669,349,461,383,311,78,299]","trial_type":"two-door-navigation","trial_index":49,"time_elapsed":1135080,"internal_node_id":"0.0-2.0-47.0"},{"group":"square cycles (cube, non-group)","room_assignment":["red","purple","yellow","blue","brown","green","pink","grey"],"door_color_assignment":["black","white"],"door_generator_assignment":[1,0],"goal":0,"start":3,"action_noise":0.1,"location_history":"[3,2,3,0]","action_history":"[1,0,0]","door_history":"[0,1,1]","location_rts":"[603,200,368]","trial_type":"two-door-navigation","trial_index":50,"time_elapsed":1142863,"internal_node_id":"0.0-2.0-48.0"},{"group":"square cycles (cube, non-group)","room_assignment":["red","purple","yellow","blue","brown","green","pink","grey"],"door_color_assignment":["black","white"],"door_generator_assignment":[1,0],"goal":2,"start":0,"action_noise":0.1,"location_history":"[0,4,5,4,7,3,2]","action_history":"[1,1,0,0,1,1]","door_history":"[0,0,1,1,0,0]","location_rts":"[637,365,413,320,104447,305]","trial_type":"two-door-navigation","trial_index":51,"time_elapsed":1259188,"internal_node_id":"0.0-2.0-49.0"},{"view_history":"[{\"page_index\":0,\"viewing_time\":21452}]","rt":21454,"trial_type":"instructions","trial_index":52,"time_elapsed":1282609,"internal_node_id":"0.0-3.0"},{"view_history":"[{\"page_index\":0,\"viewing_time\":864},{\"page_index\":1,\"viewing_time\":1263}]","rt":2129,"trial_type":"instructions","trial_index":53,"time_elapsed":1285740,"internal_node_id":"0.0-4.0"},{"group":"tri cycles (cube, non-group)","fractal_assignment":["../images/grn_red.png","../images/blu_wht.png","../images/ylw_pnk.png","../images/pnk_blu.png","../images/ylw_slt.png","../images/cyn_red.png","../images/org_blu.png","../images/gry_blk.png"],"mutagen_generator_assignment":[1,0],"goal":3,"start":0,"action_noise":0.1,"location_history":"[0,3]","action_history":"[1]","mutagen_history":"[0]","location_rts":"[2860]","trial_type":"fractal-mutation","trial_index":54,"time_elapsed":1293283,"internal_node_id":"0.0-5.0-0.0"},{"group":"tri cycles (cube, non-group)","fractal_assignment":["../images/grn_red.png","../images/blu_wht.png","../images/ylw_pnk.png","../images/pnk_blu.png","../images/ylw_slt.png","../images/cyn_red.png","../images/org_blu.png","../images/gry_blk.png"],"mutagen_generator_assignment":[1,0],"goal":1,"start":3,"action_noise":0.1,"location_history":"[3,4,7,6,4,7,3,7,6,4,7,6,5,1]","action_history":"[1,0,0,0,0,1,0,0,0,0,0,1,0]","mutagen_history":"[0,1,1,1,1,0,1,1,1,1,1,0,1]","location_rts":"[6881,30,505,561,1090,1000,664,531,448,730,671,618,605]","trial_type":"fractal-mutation","trial_index":55,"time_elapsed":1326030,"internal_node_id":"0.0-5.0-1.0"},{"group":"tri cycles (cube, non-group)","fractal_assignment":["../images/grn_red.png","../images/blu_wht.png","../images/ylw_pnk.png","../images/pnk_blu.png","../images/ylw_slt.png","../images/cyn_red.png","../images/org_blu.png","../images/gry_blk.png"],"mutagen_generator_assignment":[1,0],"goal":2,"start":1,"action_noise":0.1,"location_history":"[1,5,1,0,2]","action_history":"[1,0,0,0]","mutagen_history":"[0,1,1,1]","location_rts":"[1090,430,116,371]","trial_type":"fractal-mutation","trial_index":56,"time_elapsed":1335930,"internal_node_id":"0.0-5.0-2.0"},{"group":"tri cycles (cube, non-group)","fractal_assignment":["../images/grn_red.png","../images/blu_wht.png","../images/ylw_pnk.png","../images/pnk_blu.png","../images/ylw_slt.png","../images/cyn_red.png","../images/org_blu.png","../images/gry_blk.png"],"mutagen_generator_assignment":[1,0],"goal":6,"start":2,"action_noise":0.1,"location_history":"[2,6]","action_history":"[1]","mutagen_history":"[0]","location_rts":"[1180]","trial_type":"fractal-mutation","trial_index":57,"time_elapsed":1341709,"internal_node_id":"0.0-5.0-3.0"},{"group":"tri cycles (cube, non-group)","fractal_assignment":["../images/grn_red.png","../images/blu_wht.png","../images/ylw_pnk.png","../images/pnk_blu.png","../images/ylw_slt.png","../images/cyn_red.png","../images/org_blu.png","../images/gry_blk.png"],"mutagen_generator_assignment":[1,0],"goal":5,"start":6,"action_noise":0.1,"location_history":"[6,5]","action_history":"[1]","mutagen_history":"[0]","location_rts":"[1003]","trial_type":"fractal-mutation","trial_index":58,"time_elapsed":1347298,"internal_node_id":"0.0-5.0-4.0"},{"group":"tri cycles (cube, non-group)","fractal_assignment":["../images/grn_red.png","../images/blu_wht.png","../images/ylw_pnk.png","../images/pnk_blu.png","../images/ylw_slt.png","../images/cyn_red.png","../images/org_blu.png","../images/gry_blk.png"],"mutagen_generator_assignment":[1,0],"goal":4,"start":5,"action_noise":0.1,"location_history":"[5,1,0,2,1,0,2,1,5,1,0,2,1,5,1,0,2,1,5,2,6,4]","action_history":"[1,0,0,0,0,0,0,1,0,0,0,0,1,0,0,0,0,1,1,1,0]","mutagen_history":"[0,1,1,1,1,1,1,0,1,1,1,1,0,1,1,1,1,0,0,0,1]","location_rts":"[2343,476,400,446,449,415,590,506,412,359,380,448,246,266,381,393,143,275,379,684,454]","trial_type":"fractal-mutation","trial_index":59,"time_elapsed":1384265,"internal_node_id":"0.0-5.0-5.0"},{"group":"tri cycles (cube, non-group)","fractal_assignment":["../images/grn_red.png","../images/blu_wht.png","../images/ylw_pnk.png","../images/pnk_blu.png","../images/ylw_slt.png","../images/cyn_red.png","../images/org_blu.png","../images/gry_blk.png"],"mutagen_generator_assignment":[1,0],"goal":7,"start":4,"action_noise":0.1,"location_history":"[4,7]","action_history":"[0]","mutagen_history":"[1]","location_rts":"[1110]","trial_type":"fractal-mutation","trial_index":60,"time_elapsed":1390017,"internal_node_id":"0.0-5.0-6.0"},{"group":"tri cycles (cube, non-group)","fractal_assignment":["../images/grn_red.png","../images/blu_wht.png","../images/ylw_pnk.png","../images/pnk_blu.png","../images/ylw_slt.png","../images/cyn_red.png","../images/org_blu.png","../images/gry_blk.png"],"mutagen_generator_assignment":[1,0],"goal":4,"start":7,"action_noise":0.1,"location_history":"[7,6,4]","action_history":"[0,0]","mutagen_history":"[1,1]","location_rts":"[1194,377]","trial_type":"fractal-mutation","trial_index":61,"time_elapsed":1397272,"internal_node_id":"0.0-5.0-7.0"},{"group":"tri cycles (cube, non-group)","fractal_assignment":["../images/grn_red.png","../images/blu_wht.png","../images/ylw_pnk.png","../images/pnk_blu.png","../images/ylw_slt.png","../images/cyn_red.png","../images/org_blu.png","../images/gry_blk.png"],"mutagen_generator_assignment":[1,0],"goal":6,"start":4,"action_noise":0.1,"location_history":"[4,0,2,6]","action_history":"[0,0,1]","mutagen_history":"[1,1,0]","location_rts":"[855,386,746]","trial_type":"fractal-mutation","trial_index":62,"time_elapsed":1406072,"internal_node_id":"0.0-5.0-8.0"},{"group":"tri cycles (cube, non-group)","fractal_assignment":["../images/grn_red.png","../images/blu_wht.png","../images/ylw_pnk.png","../images/pnk_blu.png","../images/ylw_slt.png","../images/cyn_red.png","../images/org_blu.png","../images/gry_blk.png"],"mutagen_generator_assignment":[1,0],"goal":0,"start":6,"action_noise":0.1,"location_history":"[6,5,1,0]","action_history":"[1,0,0]","mutagen_history":"[0,1,1]","location_rts":"[1153,636,390]","trial_type":"fractal-mutation","trial_index":63,"time_elapsed":1415126,"internal_node_id":"0.0-5.0-9.0"},{"group":"tri cycles (cube, non-group)","fractal_assignment":["../images/grn_red.png","../images/blu_wht.png","../images/ylw_pnk.png","../images/pnk_blu.png","../images/ylw_slt.png","../images/cyn_red.png","../images/org_blu.png","../images/gry_blk.png"],"mutagen_generator_assignment":[1,0],"goal":1,"start":0,"action_noise":0.1,"location_history":"[0,2,1]","action_history":"[0,0]","mutagen_history":"[1,1]","location_rts":"[1171,326]","trial_type":"fractal-mutation","trial_index":64,"time_elapsed":1422297,"internal_node_id":"0.0-5.0-10.0"},{"group":"tri cycles (cube, non-group)","fractal_assignment":["../images/grn_red.png","../images/blu_wht.png","../images/ylw_pnk.png","../images/pnk_blu.png","../images/ylw_slt.png","../images/cyn_red.png","../images/org_blu.png","../images/gry_blk.png"],"mutagen_generator_assignment":[1,0],"goal":3,"start":1,"action_noise":0.1,"location_history":"[1,0,2,1,0,3]","action_history":"[0,0,0,0,1]","mutagen_history":"[1,1,1,1,0]","location_rts":"[219575,447,374,395,467]","trial_type":"fractal-mutation","trial_index":65,"time_elapsed":1652606,"internal_node_id":"0.0-5.0-11.0"},{"group":"tri cycles (cube, non-group)","fractal_assignment":["../images/grn_red.png","../images/blu_wht.png","../images/ylw_pnk.png","../images/pnk_blu.png","../images/ylw_slt.png","../images/cyn_red.png","../images/org_blu.png","../images/gry_blk.png"],"mutagen_generator_assignment":[1,0],"goal":7,"start":3,"action_noise":0.1,"location_history":"[3,7]","action_history":"[0]","mutagen_history":"[1]","location_rts":"[18072]","trial_type":"fractal-mutation","trial_index":66,"time_elapsed":1675885,"internal_node_id":"0.0-5.0-12.0"},{"group":"tri cycles (cube, non-group)","fractal_assignment":["../images/grn_red.png","../images/blu_wht.png","../images/ylw_pnk.png","../images/pnk_blu.png","../images/ylw_slt.png","../images/cyn_red.png","../images/org_blu.png","../images/gry_blk.png"],"mutagen_generator_assignment":[1,0],"goal":5,"start":7,"action_noise":0.1,"location_history":"[7,3,7,3,7,3,7,6,4,0,2,1,0,2,6,4,0,2,1,0,2,1,0,2,1,5]","action_history":"[1,1,1,1,1,0,0,0,1,0,0,0,0,0,0,1,0,0,0,0,0,0,0,0,1]","mutagen_history":"[0,0,0,0,0,1,1,1,0,1,1,1,1,1,1,0,1,1,1,1,1,1,1,1,0]","location_rts":"[1329,936,428,680,433,415,180,357,730,5574,577,3867,511,387,415,632,535,338,387,409,410,595,566,423,729]","trial_type":"fractal-mutation","trial_index":67,"time_elapsed":1729494,"internal_node_id":"0.0-5.0-13.0"},{"group":"tri cycles (cube, non-group)","fractal_assignment":["../images/grn_red.png","../images/blu_wht.png","../images/ylw_pnk.png","../images/pnk_blu.png","../images/ylw_slt.png","../images/cyn_red.png","../images/org_blu.png","../images/gry_blk.png"],"mutagen_generator_assignment":[1,0],"goal":2,"start":5,"action_noise":0.1,"location_history":"[5,1,0,2]","action_history":"[0,0,0]","mutagen_history":"[1,1,1]","location_rts":"[16782,340,400]","trial_type":"fractal-mutation","trial_index":68,"time_elapsed":1753882,"internal_node_id":"0.0-5.0-14.0"},{"group":"tri cycles (cube, non-group)","fractal_assignment":["../images/grn_red.png","../images/blu_wht.png","../images/ylw_pnk.png","../images/pnk_blu.png","../images/ylw_slt.png","../images/cyn_red.png","../images/org_blu.png","../images/gry_blk.png"],"mutagen_generator_assignment":[1,0],"goal":7,"start":2,"action_noise":0.1,"location_history":"[2,1,0,2,1,5,1,5,2,6,4,7]","action_history":"[1,0,0,1,1,0,1,1,1,0,0]","mutagen_history":"[0,1,1,0,0,1,0,0,0,1,1]","location_rts":"[2190,409,390,352,570,587,396,383,847,472,407]","trial_type":"fractal-mutation","trial_index":69,"time_elapsed":1776395,"internal_node_id":"0.0-5.0-15.0"},{"group":"tri cycles (cube, non-group)","fractal_assignment":["../images/grn_red.png","../images/blu_wht.png","../images/ylw_pnk.png","../images/pnk_blu.png","../images/ylw_slt.png","../images/cyn_red.png","../images/org_blu.png","../images/gry_blk.png"],"mutagen_generator_assignment":[1,0],"goal":4,"start":7,"action_noise":0.1,"location_history":"[7,6,4]","action_history":"[0,0]","mutagen_history":"[1,1]","location_rts":"[3843,482]","trial_type":"fractal-mutation","trial_index":70,"time_elapsed":1786431,"internal_node_id":"0.0-5.0-16.0"},{"group":"tri cycles (cube, non-group)","fractal_assignment":["../images/grn_red.png","../images/blu_wht.png","../images/ylw_pnk.png","../images/pnk_blu.png","../images/ylw_slt.png","../images/cyn_red.png","../images/org_blu.png","../images/gry_blk.png"],"mutagen_generator_assignment":[1,0],"goal":2,"start":4,"action_noise":0.1,"location_history":"[4,0,3,7,6,5,1,0,2]","action_history":"[1,0,0,0,1,0,0,0]","mutagen_history":"[0,1,1,1,0,1,1,1]","location_rts":"[912,791,394,363,488,555,458,407]","trial_type":"fractal-mutation","trial_index":71,"time_elapsed":1803053,"internal_node_id":"0.0-5.0-17.0"},{"group":"tri cycles (cube, non-group)","fractal_assignment":["../images/grn_red.png","../images/blu_wht.png","../images/ylw_pnk.png","../images/pnk_blu.png","../images/ylw_slt.png","../images/cyn_red.png","../images/org_blu.png","../images/gry_blk.png"],"mutagen_generator_assignment":[1,0],"goal":3,"start":2,"action_noise":0.1,"location_history":"[2,1,0,2,1,0,2,6,4,7,6,4,0,3]","action_history":"[0,0,0,0,0,0,1,0,0,0,0,1,1]","mutagen_history":"[1,1,1,1,1,1,0,1,1,1,1,0,0]","location_rts":"[1208,402,400,381,443,359,394,947,140,366,509,483,724]","trial_type":"fractal-mutation","trial_index":72,"time_elapsed":1827680,"internal_node_id":"0.0-5.0-18.0"},{"group":"tri cycles (cube, non-group)","fractal_assignment":["../images/grn_red.png","../images/blu_wht.png","../images/ylw_pnk.png","../images/pnk_blu.png","../images/ylw_slt.png","../images/cyn_red.png","../images/org_blu.png","../images/gry_blk.png"],"mutagen_generator_assignment":[1,0],"goal":6,"start":3,"action_noise":0.1,"location_history":"[3,4,7,6]","action_history":"[1,0,0]","mutagen_history":"[0,1,1]","location_rts":"[1627,429,405]","trial_type":"fractal-mutation","trial_index":73,"time_elapsed":1836959,"internal_node_id":"0.0-5.0-19.0"},{"group":"tri cycles (cube, non-group)","fractal_assignment":["../images/grn_red.png","../images/blu_wht.png","../images/ylw_pnk.png","../images/pnk_blu.png","../images/ylw_slt.png","../images/cyn_red.png","../images/org_blu.png","../images/gry_blk.png"],"mutagen_generator_assignment":[1,0],"goal":5,"start":6,"action_noise":0.1,"location_history":"[6,5]","action_history":"[1]","mutagen_history":"[0]","location_rts":"[1012]","trial_type":"fractal-mutation","trial_index":74,"time_elapsed":1842558,"internal_node_id":"0.0-5.0-20.0"},{"group":"tri cycles (cube, non-group)","fractal_assignment":["../images/grn_red.png","../images/blu_wht.png","../images/ylw_pnk.png","../images/pnk_blu.png","../images/ylw_slt.png","../images/cyn_red.png","../images/org_blu.png","../images/gry_blk.png"],"mutagen_generator_assignment":[1,0],"goal":1,"start":5,"action_noise":0.1,"location_history":"[5,1]","action_history":"[0]","mutagen_history":"[1]","location_rts":"[1323]","trial_type":"fractal-mutation","trial_index":75,"time_elapsed":1848548,"internal_node_id":"0.0-5.0-21.0"},{"group":"tri cycles (cube, non-group)","fractal_assignment":["../images/grn_red.png","../images/blu_wht.png","../images/ylw_pnk.png","../images/pnk_blu.png","../images/ylw_slt.png","../images/cyn_red.png","../images/org_blu.png","../images/gry_blk.png"],"mutagen_generator_assignment":[1,0],"goal":0,"start":1,"action_noise":0.1,"location_history":"[1,0]","action_history":"[0]","mutagen_history":"[1]","location_rts":"[1093]","trial_type":"fractal-mutation","trial_index":76,"time_elapsed":1854220,"internal_node_id":"0.0-5.0-22.0"},{"group":"tri cycles (cube, non-group)","fractal_assignment":["../images/grn_red.png","../images/blu_wht.png","../images/ylw_pnk.png","../images/pnk_blu.png","../images/ylw_slt.png","../images/cyn_red.png","../images/org_blu.png","../images/gry_blk.png"],"mutagen_generator_assignment":[1,0],"goal":2,"start":0,"action_noise":0.1,"location_history":"[0,2]","action_history":"[0]","mutagen_history":"[1]","location_rts":"[879]","trial_type":"fractal-mutation","trial_index":77,"time_elapsed":1859705,"internal_node_id":"0.0-5.0-23.0"},{"group":"tri cycles (cube, non-group)","fractal_assignment":["../images/grn_red.png","../images/blu_wht.png","../images/ylw_pnk.png","../images/pnk_blu.png","../images/ylw_slt.png","../images/cyn_red.png","../images/org_blu.png","../images/gry_blk.png"],"mutagen_generator_assignment":[1,0],"goal":6,"start":2,"action_noise":0.1,"location_history":"[2,6]","action_history":"[1]","mutagen_history":"[0]","location_rts":"[787]","trial_type":"fractal-mutation","trial_index":78,"time_elapsed":1865115,"internal_node_id":"0.0-5.0-24.0"},{"group":"tri cycles (cube, non-group)","fractal_assignment":["../images/grn_red.png","../images/blu_wht.png","../images/ylw_pnk.png","../images/pnk_blu.png","../images/ylw_slt.png","../images/cyn_red.png","../images/org_blu.png","../images/gry_blk.png"],"mutagen_generator_assignment":[1,0],"goal":1,"start":6,"action_noise":0.1,"location_history":"[6,5,1]","action_history":"[1,0]","mutagen_history":"[0,1]","location_rts":"[145426,338]","trial_type":"fractal-mutation","trial_index":79,"time_elapsed":2017780,"internal_node_id":"0.0-5.0-25.0"},{"group":"tri cycles (cube, non-group)","fractal_assignment":["../images/grn_red.png","../images/blu_wht.png","../images/ylw_pnk.png","../images/pnk_blu.png","../images/ylw_slt.png","../images/cyn_red.png","../images/org_blu.png","../images/gry_blk.png"],"mutagen_generator_assignment":[1,0],"goal":3,"start":1,"action_noise":0.1,"location_history":"[1,5,2,1,0,2,6,5,2,1,0,3]","action_history":"[0,1,0,0,1,1,1,1,0,0,1]","mutagen_history":"[1,0,1,1,0,0,0,0,1,1,0]","location_rts":"[769,363,374,396,1211,513,397,466,376,387,335]","trial_type":"fractal-mutation","trial_index":80,"time_elapsed":2038920,"internal_node_id":"0.0-5.0-26.0"},{"group":"tri cycles (cube, non-group)","fractal_assignment":["../images/grn_red.png","../images/blu_wht.png","../images/ylw_pnk.png","../images/pnk_blu.png","../images/ylw_slt.png","../images/cyn_red.png","../images/org_blu.png","../images/gry_blk.png"],"mutagen_generator_assignment":[1,0],"goal":7,"start":3,"action_noise":0.1,"location_history":"[3,4,7]","action_history":"[1,0]","mutagen_history":"[0,1]","location_rts":"[942,541]","trial_type":"fractal-mutation","trial_index":81,"time_elapsed":2046139,"internal_node_id":"0.0-5.0-27.0"},{"group":"tri cycles (cube, non-group)","fractal_assignment":["../images/grn_red.png","../images/blu_wht.png","../images/ylw_pnk.png","../images/pnk_blu.png","../images/ylw_slt.png","../images/cyn_red.png","../images/org_blu.png","../images/gry_blk.png"],"mutagen_generator_assignment":[1,0],"goal":4,"start":7,"action_noise":0.1,"location_history":"[7,6,4]","action_history":"[0,0]","mutagen_history":"[1,1]","location_rts":"[876,395]","trial_type":"fractal-mutation","trial_index":82,"time_elapsed":2053089,"internal_node_id":"0.0-5.0-28.0"},{"group":"tri cycles (cube, non-group)","fractal_assignment":["../images/grn_red.png","../images/blu_wht.png","../images/ylw_pnk.png","../images/pnk_blu.png","../images/ylw_slt.png","../images/cyn_red.png","../images/org_blu.png","../images/gry_blk.png"],"mutagen_generator_assignment":[1,0],"goal":0,"start":4,"action_noise":0.1,"location_history":"[4,7,3,7,3,4,0]","action_history":"[0,1,0,1,1,1]","mutagen_history":"[1,0,1,0,0,0]","location_rts":"[816,57,434,549,441,651]","trial_type":"fractal-mutation","trial_index":83,"time_elapsed":2066117,"internal_node_id":"0.0-5.0-29.0"},{"group":"tri cycles (cube, non-group)","fractal_assignment":["../images/grn_red.png","../images/blu_wht.png","../images/ylw_pnk.png","../images/pnk_blu.png","../images/ylw_slt.png","../images/cyn_red.png","../images/org_blu.png","../images/gry_blk.png"],"mutagen_generator_assignment":[1,0],"goal":5,"start":0,"action_noise":0.1,"location_history":"[0,2,6,4,0,2,1,0,2,1,0,2,1,5]","action_history":"[0,0,0,1,1,1,0,0,0,0,0,0,1]","mutagen_history":"[1,1,1,0,0,0,1,1,1,1,1,1,0]","location_rts":"[1328,320,370,127,770,443,424,369,347,506,458,461,538]","trial_type":"fractal-mutation","trial_index":84,"time_elapsed":2090523,"internal_node_id":"0.0-5.0-30.0"},{"group":"tri cycles (cube, non-group)","fractal_assignment":["../images/grn_red.png","../images/blu_wht.png","../images/ylw_pnk.png","../images/pnk_blu.png","../images/ylw_slt.png","../images/cyn_red.png","../images/org_blu.png","../images/gry_blk.png"],"mutagen_generator_assignment":[1,0],"goal":3,"start":5,"action_noise":0.1,"location_history":"[5,2,6,4,0,3]","action_history":"[1,1,0,1,1]","mutagen_history":"[0,0,1,0,0]","location_rts":"[983,418,387,326,384]","trial_type":"fractal-mutation","trial_index":85,"time_elapsed":2101904,"internal_node_id":"0.0-5.0-31.0"},{"group":"tri cycles (cube, non-group)","fractal_assignment":["../images/grn_red.png","../images/blu_wht.png","../images/ylw_pnk.png","../images/pnk_blu.png","../images/ylw_slt.png","../images/cyn_red.png","../images/org_blu.png","../images/gry_blk.png"],"mutagen_generator_assignment":[1,0],"goal":2,"start":3,"action_noise":0.1,"location_history":"[3,4,7,3,7,3,4,0,2]","action_history":"[1,0,1,0,1,1,1,0]","mutagen_history":"[0,1,0,1,0,0,0,1]","location_rts":"[576,307,324,417,401,421,575,518]","trial_type":"fractal-mutation","trial_index":86,"time_elapsed":2117703,"internal_node_id":"0.0-5.0-32.0"},{"group":"tri cycles (cube, non-group)","fractal_assignment":["../images/grn_red.png","../images/blu_wht.png","../images/ylw_pnk.png","../images/pnk_blu.png","../images/ylw_slt.png","../images/cyn_red.png","../images/org_blu.png","../images/gry_blk.png"],"mutagen_generator_assignment":[1,0],"goal":6,"start":2,"action_noise":0.1,"location_history":"[2,6]","action_history":"[1]","mutagen_history":"[0]","location_rts":"[1147]","trial_type":"fractal-mutation","trial_index":87,"time_elapsed":2123452,"internal_node_id":"0.0-5.0-33.0"},{"group":"tri cycles (cube, non-group)","fractal_assignment":["../images/grn_red.png","../images/blu_wht.png","../images/ylw_pnk.png","../images/pnk_blu.png","../images/ylw_slt.png","../images/cyn_red.png","../images/org_blu.png","../images/gry_blk.png"],"mutagen_generator_assignment":[1,0],"goal":1,"start":6,"action_noise":0.1,"location_history":"[6,5,1]","action_history":"[1,0]","mutagen_history":"[0,1]","location_rts":"[847,498]","trial_type":"fractal-mutation","trial_index":88,"time_elapsed":2130549,"internal_node_id":"0.0-5.0-34.0"},{"group":"tri cycles (cube, non-group)","fractal_assignment":["../images/grn_red.png","../images/blu_wht.png","../images/ylw_pnk.png","../images/pnk_blu.png","../images/ylw_slt.png","../images/cyn_red.png","../images/org_blu.png","../images/gry_blk.png"],"mutagen_generator_assignment":[1,0],"goal":7,"start":1,"action_noise":0.1,"location_history":"[1,5,2,6,4,0,2,1,5,2,6,4,7]","action_history":"[1,1,1,0,0,0,0,1,1,1,0,0]","mutagen_history":"[0,0,0,1,1,1,1,0,0,0,1,1]","location_rts":"[1286,528,778,607,377,481,416,484,385,545,530,429]","trial_type":"fractal-mutation","trial_index":89,"time_elapsed":2153976,"internal_node_id":"0.0-5.0-35.0"},{"group":"tri cycles (cube, non-group)","fractal_assignment":["../images/grn_red.png","../images/blu_wht.png","../images/ylw_pnk.png","../images/pnk_blu.png","../images/ylw_slt.png","../images/cyn_red.png","../images/org_blu.png","../images/gry_blk.png"],"mutagen_generator_assignment":[1,0],"goal":4,"start":7,"action_noise":0.1,"location_history":"[7,6,4]","action_history":"[0,0]","mutagen_history":"[1,1]","location_rts":"[922,418]","trial_type":"fractal-mutation","trial_index":90,"time_elapsed":2161012,"internal_node_id":"0.0-5.0-36.0"},{"group":"tri cycles (cube, non-group)","fractal_assignment":["../images/grn_red.png","../images/blu_wht.png","../images/ylw_pnk.png","../images/pnk_blu.png","../images/ylw_slt.png","../images/cyn_red.png","../images/org_blu.png","../images/gry_blk.png"],"mutagen_generator_assignment":[1,0],"goal":5,"start":4,"action_noise":0.1,"location_history":"[4,0,2,1,5]","action_history":"[1,1,1,1]","mutagen_history":"[0,0,0,0]","location_rts":"[891,873,394,663]","trial_type":"fractal-mutation","trial_index":91,"time_elapsed":2171594,"internal_node_id":"0.0-5.0-37.0"},{"group":"tri cycles (cube, non-group)","fractal_assignment":["../images/grn_red.png","../images/blu_wht.png","../images/ylw_pnk.png","../images/pnk_blu.png","../images/ylw_slt.png","../images/cyn_red.png","../images/org_blu.png","../images/gry_blk.png"],"mutagen_generator_assignment":[1,0],"goal":0,"start":5,"action_noise":0.1,"location_history":"[5,2,6,5,1,0]","action_history":"[1,0,1,0,0]","mutagen_history":"[0,1,0,1,1]","location_rts":"[1064,882,627,497,601]","trial_type":"fractal-mutation","trial_index":92,"time_elapsed":2184117,"internal_node_id":"0.0-5.0-38.0"},{"group":"tri cycles (cube, non-group)","fractal_assignment":["../images/grn_red.png","../images/blu_wht.png","../images/ylw_pnk.png","../images/pnk_blu.png","../images/ylw_slt.png","../images/cyn_red.png","../images/org_blu.png","../images/gry_blk.png"],"mutagen_generator_assignment":[1,0],"goal":4,"start":0,"action_noise":0.1,"location_history":"[0,3,4]","action_history":"[1,0]","mutagen_history":"[0,1]","location_rts":"[1364,1615]","trial_type":"fractal-mutation","trial_index":93,"time_elapsed":2192768,"internal_node_id":"0.0-5.0-39.0"},{"group":"tri cycles (cube, non-group)","fractal_assignment":["../images/grn_red.png","../images/blu_wht.png","../images/ylw_pnk.png","../images/pnk_blu.png","../images/ylw_slt.png","../images/cyn_red.png","../images/org_blu.png","../images/gry_blk.png"],"mutagen_generator_assignment":[1,0],"goal":0,"start":4,"action_noise":0.1,"location_history":"[4,0]","action_history":"[1]","mutagen_history":"[0]","location_rts":"[41718]","trial_type":"fractal-mutation","trial_index":94,"time_elapsed":2239054,"internal_node_id":"0.0-5.0-40.0"},{"group":"tri cycles (cube, non-group)","fractal_assignment":["../images/grn_red.png","../images/blu_wht.png","../images/ylw_pnk.png","../images/pnk_blu.png","../images/ylw_slt.png","../images/cyn_red.png","../images/org_blu.png","../images/gry_blk.png"],"mutagen_generator_assignment":[1,0],"goal":2,"start":0,"action_noise":0.1,"location_history":"[0,2]","action_history":"[0]","mutagen_history":"[1]","location_rts":"[962]","trial_type":"fractal-mutation","trial_index":95,"time_elapsed":2244615,"internal_node_id":"0.0-5.0-41.0"},{"group":"tri cycles (cube, non-group)","fractal_assignment":["../images/grn_red.png","../images/blu_wht.png","../images/ylw_pnk.png","../images/pnk_blu.png","../images/ylw_slt.png","../images/cyn_red.png","../images/org_blu.png","../images/gry_blk.png"],"mutagen_generator_assignment":[1,0],"goal":3,"start":2,"action_noise":0.1,"location_history":"[2,6,5,2,1,5,2,6,5,2,6,5,1,0,3]","action_history":"[1,1,1,0,1,1,1,1,1,0,1,0,0,1]","mutagen_history":"[0,0,0,1,0,0,0,0,0,1,0,1,1,0]","location_rts":"[956,480,458,421,260,453,431,426,700,389,343,82,77,313]","trial_type":"fractal-mutation","trial_index":96,"time_elapsed":2269064,"internal_node_id":"0.0-5.0-42.0"},{"group":"tri cycles (cube, non-group)","fractal_assignment":["../images/grn_red.png","../images/blu_wht.png","../images/ylw_pnk.png","../images/pnk_blu.png","../images/ylw_slt.png","../images/cyn_red.png","../images/org_blu.png","../images/gry_blk.png"],"mutagen_generator_assignment":[1,0],"goal":5,"start":3,"action_noise":0.1,"location_history":"[3,4,7,6,4,0,3,7,6,5]","action_history":"[1,0,0,0,1,1,0,0,1]","mutagen_history":"[0,1,1,1,0,0,1,1,0]","location_rts":"[868,5752,738,19444,1417,2405,758,432,54]","trial_type":"fractal-mutation","trial_index":97,"time_elapsed":2316236,"internal_node_id":"0.0-5.0-43.0"},{"group":"tri cycles (cube, non-group)","fractal_assignment":["../images/grn_red.png","../images/blu_wht.png","../images/ylw_pnk.png","../images/pnk_blu.png","../images/ylw_slt.png","../images/cyn_red.png","../images/org_blu.png","../images/gry_blk.png"],"mutagen_generator_assignment":[1,0],"goal":1,"start":5,"action_noise":0.1,"location_history":"[5,1]","action_history":"[0]","mutagen_history":"[1]","location_rts":"[2551]","trial_type":"fractal-mutation","trial_index":98,"time_elapsed":2323427,"internal_node_id":"0.0-5.0-44.0"},{"group":"tri cycles (cube, non-group)","fractal_assignment":["../images/grn_red.png","../images/blu_wht.png","../images/ylw_pnk.png","../images/pnk_blu.png","../images/ylw_slt.png","../images/cyn_red.png","../images/org_blu.png","../images/gry_blk.png"],"mutagen_generator_assignment":[1,0],"goal":7,"start":1,"action_noise":0.1,"location_history":"[1,5,1,0,2,6,4,7]","action_history":"[1,1,0,1,1,0,0]","mutagen_history":"[0,0,1,0,0,1,1]","location_rts":"[115289,1592,447,436,799,585,401]","trial_type":"fractal-mutation","trial_index":99,"time_elapsed":2454687,"internal_node_id":"0.0-5.0-45.0"},{"group":"tri cycles (cube, non-group)","fractal_assignment":["../images/grn_red.png","../images/blu_wht.png","../images/ylw_pnk.png","../images/pnk_blu.png","../images/ylw_slt.png","../images/cyn_red.png","../images/org_blu.png","../images/gry_blk.png"],"mutagen_generator_assignment":[1,0],"goal":6,"start":7,"action_noise":0.1,"location_history":"[7,6]","action_history":"[0]","mutagen_history":"[1]","location_rts":"[1256]","trial_type":"fractal-mutation","trial_index":100,"time_elapsed":2460564,"internal_node_id":"0.0-5.0-46.0"},{"group":"tri cycles (cube, non-group)","fractal_assignment":["../images/grn_red.png","../images/blu_wht.png","../images/ylw_pnk.png","../images/pnk_blu.png","../images/ylw_slt.png","../images/cyn_red.png","../images/org_blu.png","../images/gry_blk.png"],"mutagen_generator_assignment":[1,0],"goal":3,"start":6,"action_noise":0.1,"location_history":"[6,5,2,6,4,0,3]","action_history":"[1,1,1,0,1,0]","mutagen_history":"[0,0,0,1,0,1]","location_rts":"[968,456,521,920,381,498]","trial_type":"fractal-mutation","trial_index":101,"time_elapsed":2474473,"internal_node_id":"0.0-5.0-47.0"},{"group":"tri cycles (cube, non-group)","fractal_assignment":["../images/grn_red.png","../images/blu_wht.png","../images/ylw_pnk.png","../images/pnk_blu.png","../images/ylw_slt.png","../images/cyn_red.png","../images/org_blu.png","../images/gry_blk.png"],"mutagen_generator_assignment":[1,0],"goal":0,"start":3,"action_noise":0.1,"location_history":"[3,4,7,3,4,0]","action_history":"[1,0,1,1,1]","mutagen_history":"[0,1,0,0,0]","location_rts":"[854,360,325,749,547]","trial_type":"fractal-mutation","trial_index":102,"time_elapsed":2486407,"internal_node_id":"0.0-5.0-48.0"},{"group":"tri cycles (cube, non-group)","fractal_assignment":["../images/grn_red.png","../images/blu_wht.png","../images/ylw_pnk.png","../images/pnk_blu.png","../images/ylw_slt.png","../images/cyn_red.png","../images/org_blu.png","../images/gry_blk.png"],"mutagen_generator_assignment":[1,0],"goal":2,"start":0,"action_noise":0.1,"location_history":"[0,2]","action_history":"[0]","mutagen_history":"[1]","location_rts":"[1043]","trial_type":"fractal-mutation","trial_index":103,"time_elapsed":2492060,"internal_node_id":"0.0-5.0-49.0"},{"view_history":"[{\"page_index\":0,\"viewing_time\":3594}]","rt":3595,"trial_type":"instructions","trial_index":104,"time_elapsed":2496656,"internal_node_id":"0.0-6.0"},{"rt":2052,"responses":"{\"Q0\":\"\"}","trial_type":"survey-text","trial_index":105,"time_elapsed":2499731,"internal_node_id":"0.0-7.0"}]