[{"view_history":"[{\"page_index\":0,\"viewing_time\":2270916},{\"page_index\":1,\"viewing_time\":1460},{\"page_index\":2,\"viewing_time\":53208},{\"page_index\":3,\"viewing_time\":2025}]","rt":2327611,"trial_type":"instructions","trial_index":0,"time_elapsed":2327613,"internal_node_id":"0.0-0.0"},{"view_history":"[{\"page_index\":0,\"viewing_time\":1524},{\"page_index\":1,\"viewing_time\":1315}]","rt":2839,"trial_type":"instructions","trial_index":1,"time_elapsed":2331455,"internal_node_id":"0.0-1.0"},{"group":"square cycles (cube, non-group)","room_assignment":["yellow","purple","grey","pink","brown","green","blue","red"],"door_color_assignment":["black","white"],"door_generator_assignment":[0,1],"goal":3,"start":0,"action_noise":0.1,"location_history":"[0,1,2,3]","action_history":"[1,0,0]","door_history":"[1,0,0]","location_rts":"[2296,1956,749]","trial_type":"two-door-navigation","trial_index":2,"time_elapsed":2343242,"internal_node_id":"0.0-2.0-0.0"},{"group":"square cycles (cube, non-group)","room_assignment":["yellow","purple","grey","pink","brown","green","blue","red"],"door_color_assignment":["black","white"],"door_generator_assignment":[0,1],"goal":1,"start":3,"action_noise":0.1,"location_history":"[3,2,3,2,3,2,6,5,1]","action_history":"[1,0,1,0,1,1,0,1]","door_history":"[1,0,1,0,1,1,0,1]","location_rts":"[1056,3583,1402,3097,1085,768,657,15146]","trial_type":"two-door-navigation","trial_index":3,"time_elapsed":2381948,"internal_node_id":"0.0-2.0-1.0"},{"group":"square cycles (cube, non-group)","room_assignment":["yellow","purple","grey","pink","brown","green","blue","red"],"door_color_assignment":["black","white"],"door_generator_assignment":[0,1],"goal":2,"start":1,"action_noise":0.1,"location_history":"[1,2]","action_history":"[0]","door_history":"[0]","location_rts":"[1550]","trial_type":"two-door-navigation","trial_index":4,"time_elapsed":2388032,"internal_node_id":"0.0-2.0-2.0"},{"group":"square cycles (cube, non-group)","room_assignment":["yellow","purple","grey","pink","brown","green","blue","red"],"door_color_assignment":["black","white"],"door_generator_assignment":[0,1],"goal":6,"start":2,"action_noise":0.1,"location_history":"[2,3,2,3,0,1,0,1,2,3,2,6]","action_history":"[0,1,1,0,0,1,1,0,0,1,1]","door_history":"[0,1,1,0,0,1,1,0,0,1,1]","location_rts":"[1028,1054,1295,1159,819,1186,1237,1320,1097,838,817]","trial_type":"two-door-navigation","trial_index":5,"time_elapsed":2414935,"internal_node_id":"0.0-2.0-3.0"},{"group":"square cycles (cube, non-group)","room_assignment":["yellow","purple","grey","pink","brown","green","blue","red"],"door_color_assignment":["black","white"],"door_generator_assignment":[0,1],"goal":5,"start":6,"action_noise":0.1,"location_history":"[6,5]","action_history":"[0]","door_history":"[0]","location_rts":"[1781]","trial_type":"two-door-navigation","trial_index":6,"time_elapsed":2421284,"internal_node_id":"0.0-2.0-4.0"},{"group":"square cycles (cube, non-group)","room_assignment":["yellow","purple","grey","pink","brown","green","blue","red"],"door_color_assignment":["black","white"],"door_generator_assignment":[0,1],"goal":4,"start":5,"action_noise":0.1,"location_history":"[5,1,2,3,2,6,7,6,5,1,0,1,2,6,7,6,5,4]","action_history":"[1,0,0,1,1,1,0,0,1,1,0,0,1,1,0,0,0]","door_history":"[1,0,0,1,1,1,0,0,1,1,0,0,1,1,0,0,0]","location_rts":"[1297,1910,1193,515,820,1474,925,1257,1617,1630,746,3891,865,1296,2051,1361,3322]","trial_type":"two-door-navigation","trial_index":7,"time_elapsed":2468622,"internal_node_id":"0.0-2.0-5.0"},{"group":"square cycles (cube, non-group)","room_assignment":["yellow","purple","grey","pink","brown","green","blue","red"],"door_color_assignment":["black","white"],"door_generator_assignment":[0,1],"goal":7,"start":4,"action_noise":0.1,"location_history":"[4,5,4,7]","action_history":"[1,0,0]","door_history":"[1,0,0]","location_rts":"[997,782,807]","trial_type":"two-door-navigation","trial_index":8,"time_elapsed":2477805,"internal_node_id":"0.0-2.0-6.0"},{"group":"square cycles (cube, non-group)","room_assignment":["yellow","purple","grey","pink","brown","green","blue","red"],"door_color_assignment":["black","white"],"door_generator_assignment":[0,1],"goal":4,"start":7,"action_noise":0.1,"location_history":"[7,6,7,3,2,6,5,4]","action_history":"[0,1,1,1,0,0,0]","door_history":"[0,1,1,1,0,0,0]","location_rts":"[15659,993,436,517,716,944,989]","trial_type":"two-door-navigation","trial_index":9,"time_elapsed":2508912,"internal_node_id":"0.0-2.0-7.0"},{"group":"square cycles (cube, non-group)","room_assignment":["yellow","purple","grey","pink","brown","green","blue","red"],"door_color_assignment":["black","white"],"door_generator_assignment":[0,1],"goal":6,"start":4,"action_noise":0.1,"location_history":"[4,7,3,2,3,2,3,2,3,2,6]","action_history":"[0,1,1,0,0,1,1,0,1,1]","door_history":"[0,1,1,0,0,1,1,0,1,1]","location_rts":"[1201,1689,855,783,1027,810,787,1423,456,864]","trial_type":"two-door-navigation","trial_index":10,"time_elapsed":2532673,"internal_node_id":"0.0-2.0-8.0"},{"group":"square cycles (cube, non-group)","room_assignment":["yellow","purple","grey","pink","brown","green","blue","red"],"door_color_assignment":["black","white"],"door_generator_assignment":[0,1],"goal":0,"start":6,"action_noise":0.1,"location_history":"[6,7,6,5,1,0]","action_history":"[1,0,0,1,1]","door_history":"[1,0,0,1,1]","location_rts":"[932,767,216,941,890]","trial_type":"two-door-navigation","trial_index":11,"time_elapsed":2545090,"internal_node_id":"0.0-2.0-9.0"},{"group":"square cycles (cube, non-group)","room_assignment":["yellow","purple","grey","pink","brown","green","blue","red"],"door_color_assignment":["black","white"],"door_generator_assignment":[0,1],"goal":1,"start":0,"action_noise":0.1,"location_history":"[0,1]","action_history":"[0]","door_history":"[0]","location_rts":"[1398]","trial_type":"two-door-navigation","trial_index":12,"time_elapsed":2551058,"internal_node_id":"0.0-2.0-10.0"},{"group":"square cycles (cube, non-group)","room_assignment":["yellow","purple","grey","pink","brown","green","blue","red"],"door_color_assignment":["black","white"],"door_generator_assignment":[0,1],"goal":3,"start":1,"action_noise":0.1,"location_history":"[1,2,3]","action_history":"[0,1]","door_history":"[0,1]","location_rts":"[8010,565]","trial_type":"two-door-navigation","trial_index":13,"time_elapsed":2565197,"internal_node_id":"0.0-2.0-11.0"},{"group":"square cycles (cube, non-group)","room_assignment":["yellow","purple","grey","pink","brown","green","blue","red"],"door_color_assignment":["black","white"],"door_generator_assignment":[0,1],"goal":7,"start":3,"action_noise":0.1,"location_history":"[3,2,3,2,3,0,4,7]","action_history":"[1,0,1,1,1,1,0]","door_history":"[1,0,1,1,1,1,0]","location_rts":"[5567,66853,896,768,679,446,544]","trial_type":"two-door-navigation","trial_index":14,"time_elapsed":2651729,"internal_node_id":"0.0-2.0-12.0"},{"group":"square cycles (cube, non-group)","room_assignment":["yellow","purple","grey","pink","brown","green","blue","red"],"door_color_assignment":["black","white"],"door_generator_assignment":[0,1],"goal":5,"start":7,"action_noise":0.1,"location_history":"[7,3,0,1,0,4,7,6,7,6,7,3,2,6,5]","action_history":"[1,0,0,1,1,0,0,1,0,1,0,1,1,0]","door_history":"[1,0,0,1,1,0,0,1,0,1,0,1,1,0]","location_rts":"[854,924,634,641,769,364,817,763,2716,559,3159,2897,714,804]","trial_type":"two-door-navigation","trial_index":15,"time_elapsed":2686409,"internal_node_id":"0.0-2.0-13.0"},{"group":"square cycles (cube, non-group)","room_assignment":["yellow","purple","grey","pink","brown","green","blue","red"],"door_color_assignment":["black","white"],"door_generator_assignment":[0,1],"goal":2,"start":5,"action_noise":0.1,"location_history":"[5,4,5,1,2]","action_history":"[0,1,1,0]","door_history":"[0,1,1,0]","location_rts":"[1115,746,42545,925]","trial_type":"two-door-navigation","trial_index":16,"time_elapsed":2739389,"internal_node_id":"0.0-2.0-14.0"},{"group":"square cycles (cube, non-group)","room_assignment":["yellow","purple","grey","pink","brown","green","blue","red"],"door_color_assignment":["black","white"],"door_generator_assignment":[0,1],"goal":7,"start":2,"action_noise":0.1,"location_history":"[2,3,2,6,5,4,5,4,7]","action_history":"[0,1,1,0,0,1,1,0]","door_history":"[0,1,1,0,0,1,1,0]","location_rts":"[608,670,858,919,740,586,877,1064]","trial_type":"two-door-navigation","trial_index":17,"time_elapsed":2757497,"internal_node_id":"0.0-2.0-15.0"},{"group":"square cycles (cube, non-group)","room_assignment":["yellow","purple","grey","pink","brown","green","blue","red"],"door_color_assignment":["black","white"],"door_generator_assignment":[0,1],"goal":4,"start":7,"action_noise":0.1,"location_history":"[7,6,5,4]","action_history":"[1,0,0]","door_history":"[1,0,0]","location_rts":"[1186,983,830]","trial_type":"two-door-navigation","trial_index":18,"time_elapsed":2767127,"internal_node_id":"0.0-2.0-16.0"},{"group":"square cycles (cube, non-group)","room_assignment":["yellow","purple","grey","pink","brown","green","blue","red"],"door_color_assignment":["black","white"],"door_generator_assignment":[0,1],"goal":2,"start":4,"action_noise":0.1,"location_history":"[4,5,4,7,3,2]","action_history":"[1,0,0,1,1]","door_history":"[1,0,0,1,1]","location_rts":"[907,913,1130,736,1017]","trial_type":"two-door-navigation","trial_index":19,"time_elapsed":2780622,"internal_node_id":"0.0-2.0-17.0"},{"group":"square cycles (cube, non-group)","room_assignment":["yellow","purple","grey","pink","brown","green","blue","red"],"door_color_assignment":["black","white"],"door_generator_assignment":[0,1],"goal":3,"start":2,"action_noise":0.1,"location_history":"[2,3]","action_history":"[0]","door_history":"[0]","location_rts":"[1323]","trial_type":"two-door-navigation","trial_index":20,"time_elapsed":2786504,"internal_node_id":"0.0-2.0-18.0"},{"group":"square cycles (cube, non-group)","room_assignment":["yellow","purple","grey","pink","brown","green","blue","red"],"door_color_assignment":["black","white"],"door_generator_assignment":[0,1],"goal":6,"start":3,"action_noise":0.1,"location_history":"[3,2,3,0,4,7,6]","action_history":"[1,0,0,1,0,0]","door_history":"[1,0,0,1,0,0]","location_rts":"[757,1361,818,627,468,681]","trial_type":"two-door-navigation","trial_index":21,"time_elapsed":2800911,"internal_node_id":"0.0-2.0-19.0"},{"group":"square cycles (cube, non-group)","room_assignment":["yellow","purple","grey","pink","brown","green","blue","red"],"door_color_assignment":["black","white"],"door_generator_assignment":[0,1],"goal":5,"start":6,"action_noise":0.1,"location_history":"[6,7,6,5]","action_history":"[1,0,0]","door_history":"[1,0,0]","location_rts":"[1736,793,1991]","trial_type":"two-door-navigation","trial_index":22,"time_elapsed":2812030,"internal_node_id":"0.0-2.0-20.0"},{"group":"square cycles (cube, non-group)","room_assignment":["yellow","purple","grey","pink","brown","green","blue","red"],"door_color_assignment":["black","white"],"door_generator_assignment":[0,1],"goal":1,"start":5,"action_noise":0.1,"location_history":"[5,1]","action_history":"[1]","door_history":"[1]","location_rts":"[922]","trial_type":"two-door-navigation","trial_index":23,"time_elapsed":2817533,"internal_node_id":"0.0-2.0-21.0"},{"group":"square cycles (cube, non-group)","room_assignment":["yellow","purple","grey","pink","brown","green","blue","red"],"door_color_assignment":["black","white"],"door_generator_assignment":[0,1],"goal":0,"start":1,"action_noise":0.1,"location_history":"[1,2,6,5,1,0]","action_history":"[0,1,0,1,1]","door_history":"[0,1,0,1,1]","location_rts":"[1422,9057,3446,721,689]","trial_type":"two-door-navigation","trial_index":24,"time_elapsed":2841555,"internal_node_id":"0.0-2.0-22.0"},{"group":"square cycles (cube, non-group)","room_assignment":["yellow","purple","grey","pink","brown","green","blue","red"],"door_color_assignment":["black","white"],"door_generator_assignment":[0,1],"goal":2,"start":0,"action_noise":0.1,"location_history":"[0,1,2]","action_history":"[0,0]","door_history":"[0,0]","location_rts":"[913,1531]","trial_type":"two-door-navigation","trial_index":25,"time_elapsed":2849576,"internal_node_id":"0.0-2.0-23.0"},{"group":"square cycles (cube, non-group)","room_assignment":["yellow","purple","grey","pink","brown","green","blue","red"],"door_color_assignment":["black","white"],"door_generator_assignment":[0,1],"goal":6,"start":2,"action_noise":0.1,"location_history":"[2,6]","action_history":"[1]","door_history":"[1]","location_rts":"[1141]","trial_type":"two-door-navigation","trial_index":26,"time_elapsed":2855260,"internal_node_id":"0.0-2.0-24.0"},{"group":"square cycles (cube, non-group)","room_assignment":["yellow","purple","grey","pink","brown","green","blue","red"],"door_color_assignment":["black","white"],"door_generator_assignment":[0,1],"goal":1,"start":6,"action_noise":0.1,"location_history":"[6,5,1]","action_history":"[0,1]","door_history":"[0,1]","location_rts":"[1314,2065]","trial_type":"two-door-navigation","trial_index":27,"time_elapsed":2864204,"internal_node_id":"0.0-2.0-25.0"},{"group":"square cycles (cube, non-group)","room_assignment":["yellow","purple","grey","pink","brown","green","blue","red"],"door_color_assignment":["black","white"],"door_generator_assignment":[0,1],"goal":3,"start":1,"action_noise":0.1,"location_history":"[1,0,4,7,3]","action_history":"[1,0,0,1]","door_history":"[1,0,0,1]","location_rts":"[1104,2437,1366,906]","trial_type":"two-door-navigation","trial_index":28,"time_elapsed":2877698,"internal_node_id":"0.0-2.0-26.0"},{"group":"square cycles (cube, non-group)","room_assignment":["yellow","purple","grey","pink","brown","green","blue","red"],"door_color_assignment":["black","white"],"door_generator_assignment":[0,1],"goal":7,"start":3,"action_noise":0.1,"location_history":"[3,0,4,5,1,2,3,2,3,0,4,5,4,7]","action_history":"[0,0,1,1,0,0,1,0,0,1,1,0,0]","door_history":"[0,0,1,1,0,0,1,0,0,1,1,0,0]","location_rts":"[1857,1417,1435,1209,819,1155,1088,757,2605,894,1212,792,2326]","trial_type":"two-door-navigation","trial_index":29,"time_elapsed":2912234,"internal_node_id":"0.0-2.0-27.0"},{"group":"square cycles (cube, non-group)","room_assignment":["yellow","purple","grey","pink","brown","green","blue","red"],"door_color_assignment":["black","white"],"door_generator_assignment":[0,1],"goal":4,"start":7,"action_noise":0.1,"location_history":"[7,6,7,6,5,4]","action_history":"[0,1,0,0,0]","door_history":"[0,1,0,0,0]","location_rts":"[1222,2721,762,1626,1471]","trial_type":"two-door-navigation","trial_index":30,"time_elapsed":2928721,"internal_node_id":"0.0-2.0-28.0"},{"group":"square cycles (cube, non-group)","room_assignment":["yellow","purple","grey","pink","brown","green","blue","red"],"door_color_assignment":["black","white"],"door_generator_assignment":[0,1],"goal":0,"start":4,"action_noise":0.1,"location_history":"[4,7,3,0]","action_history":"[0,1,0]","door_history":"[0,1,0]","location_rts":"[3636,886,4678]","trial_type":"two-door-navigation","trial_index":31,"time_elapsed":2944545,"internal_node_id":"0.0-2.0-29.0"},{"group":"square cycles (cube, non-group)","room_assignment":["yellow","purple","grey","pink","brown","green","blue","red"],"door_color_assignment":["black","white"],"door_generator_assignment":[0,1],"goal":5,"start":0,"action_noise":0.1,"location_history":"[0,4,7,6,7,6,5]","action_history":"[1,0,0,1,0,0]","door_history":"[1,0,0,1,0,0]","location_rts":"[1076,1202,1402,3967,18343,8295]","trial_type":"two-door-navigation","trial_index":32,"time_elapsed":2988544,"internal_node_id":"0.0-2.0-30.0"},{"group":"square cycles (cube, non-group)","room_assignment":["yellow","purple","grey","pink","brown","green","blue","red"],"door_color_assignment":["black","white"],"door_generator_assignment":[0,1],"goal":3,"start":5,"action_noise":0.1,"location_history":"[5,4,7,3]","action_history":"[0,0,1]","door_history":"[0,0,1]","location_rts":"[2869,5377,2254]","trial_type":"two-door-navigation","trial_index":33,"time_elapsed":3005638,"internal_node_id":"0.0-2.0-31.0"},{"group":"square cycles (cube, non-group)","room_assignment":["yellow","purple","grey","pink","brown","green","blue","red"],"door_color_assignment":["black","white"],"door_generator_assignment":[0,1],"goal":2,"start":3,"action_noise":0.1,"location_history":"[3,0,4,5,1,0,4,7,6,5,1,2]","action_history":"[0,1,1,0,0,1,1,0,0,0,1]","door_history":"[0,1,1,0,0,1,1,0,0,0,1]","location_rts":"[1449,1036,1884,3413,1201,1159,1143,1240,907,753,887]","trial_type":"two-door-navigation","trial_index":34,"time_elapsed":3035666,"internal_node_id":"0.0-2.0-32.0"},{"group":"square cycles (cube, non-group)","room_assignment":["yellow","purple","grey","pink","brown","green","blue","red"],"door_color_assignment":["black","white"],"door_generator_assignment":[0,1],"goal":6,"start":2,"action_noise":0.1,"location_history":"[2,3,2,3,0,1,2,3,2,3,0,1,2,6]","action_history":"[0,1,0,0,0,0,0,1,1,0,0,0,1]","door_history":"[0,1,0,0,0,0,0,1,1,0,0,0,1]","location_rts":"[1562,1065,739,968,1554,893,831,859,1340,855,863,852,803]","trial_type":"two-door-navigation","trial_index":35,"time_elapsed":3065905,"internal_node_id":"0.0-2.0-33.0"},{"group":"square cycles (cube, non-group)","room_assignment":["yellow","purple","grey","pink","brown","green","blue","red"],"door_color_assignment":["black","white"],"door_generator_assignment":[0,1],"goal":1,"start":6,"action_noise":0.1,"location_history":"[6,7,6,5,1]","action_history":"[1,0,0,1]","door_history":"[1,0,0,1]","location_rts":"[932,646,784,658]","trial_type":"two-door-navigation","trial_index":36,"time_elapsed":3076594,"internal_node_id":"0.0-2.0-34.0"},{"group":"square cycles (cube, non-group)","room_assignment":["yellow","purple","grey","pink","brown","green","blue","red"],"door_color_assignment":["black","white"],"door_generator_assignment":[0,1],"goal":7,"start":1,"action_noise":0.1,"location_history":"[1,2,3,0,4,5,4,7]","action_history":"[1,0,0,1,1,0,0]","door_history":"[1,0,0,1,1,0,0]","location_rts":"[963,725,758,736,668,754,710]","trial_type":"two-door-navigation","trial_index":37,"time_elapsed":3092691,"internal_node_id":"0.0-2.0-35.0"},{"group":"square cycles (cube, non-group)","room_assignment":["yellow","purple","grey","pink","brown","green","blue","red"],"door_color_assignment":["black","white"],"door_generator_assignment":[0,1],"goal":4,"start":7,"action_noise":0.1,"location_history":"[7,3,0,1,0,1,2,6,5,1,2,6,7,6,5,1,0,4]","action_history":"[1,0,0,1,0,0,1,0,1,0,1,1,0,0,1,1,1]","door_history":"[1,0,0,1,0,0,1,0,1,0,1,1,0,0,1,1,1]","location_rts":"[826,592,750,473,757,1187,1554,1529,1930,993,1123,814,806,869,1393,1302,1319]","trial_type":"two-door-navigation","trial_index":38,"time_elapsed":3132063,"internal_node_id":"0.0-2.0-36.0"},{"group":"square cycles (cube, non-group)","room_assignment":["yellow","purple","grey","pink","brown","green","blue","red"],"door_color_assignment":["black","white"],"door_generator_assignment":[0,1],"goal":5,"start":4,"action_noise":0.1,"location_history":"[4,7,3,0,1,0,1,2,3,2,6,5]","action_history":"[0,1,0,0,1,0,0,0,1,1,0]","door_history":"[0,1,0,0,1,0,0,0,1,1,0]","location_rts":"[1051,5252,98,1594,2634,893,2270,1686,1539,2745,1295]","trial_type":"two-door-navigation","trial_index":39,"time_elapsed":3168082,"internal_node_id":"0.0-2.0-37.0"},{"group":"square cycles (cube, non-group)","room_assignment":["yellow","purple","grey","pink","brown","green","blue","red"],"door_color_assignment":["black","white"],"door_generator_assignment":[0,1],"goal":0,"start":5,"action_noise":0.1,"location_history":"[5,1,2,6,7,6,7,6,7,6,5,1,0]","action_history":"[1,0,0,1,0,1,0,1,0,0,1,0]","door_history":"[1,0,0,1,0,1,0,1,0,0,1,0]","location_rts":"[1689,358,947,710,739,1351,420,857,159,508,519,1632]","trial_type":"two-door-navigation","trial_index":40,"time_elapsed":3194073,"internal_node_id":"0.0-2.0-38.0"},{"group":"square cycles (cube, non-group)","room_assignment":["yellow","purple","grey","pink","brown","green","blue","red"],"door_color_assignment":["black","white"],"door_generator_assignment":[0,1],"goal":4,"start":0,"action_noise":0.1,"location_history":"[0,1,0,1,0,4]","action_history":"[0,1,0,0,0]","door_history":"[0,1,0,0,0]","location_rts":"[894,773,728,2605,1051]","trial_type":"two-door-navigation","trial_index":41,"time_elapsed":3208821,"internal_node_id":"0.0-2.0-39.0"},{"group":"square cycles (cube, non-group)","room_assignment":["yellow","purple","grey","pink","brown","green","blue","red"],"door_color_assignment":["black","white"],"door_generator_assignment":[0,1],"goal":0,"start":4,"action_noise":0.1,"location_history":"[4,7,6,5,4,5,1,2,3,2,6,7,6,5,1,2,3,0]","action_history":"[0,1,0,0,1,1,0,0,1,0,1,0,0,1,1,0,0]","door_history":"[0,1,0,0,1,1,0,0,1,0,1,0,0,1,1,0,0]","location_rts":"[1037,1428,2345,2055,304,1248,2526,15140,3684,1074,3023,1182,5792,864,2061,1524,1426]","trial_type":"two-door-navigation","trial_index":42,"time_elapsed":3276668,"internal_node_id":"0.0-2.0-40.0"},{"group":"square cycles (cube, non-group)","room_assignment":["yellow","purple","grey","pink","brown","green","blue","red"],"door_color_assignment":["black","white"],"door_generator_assignment":[0,1],"goal":2,"start":0,"action_noise":0.1,"location_history":"[0,4,7,6,5,1,2]","action_history":"[1,0,0,0,1,0]","door_history":"[1,0,0,0,1,0]","location_rts":"[991,813,1481,1522,2392,1731]","trial_type":"two-door-navigation","trial_index":43,"time_elapsed":3295362,"internal_node_id":"0.0-2.0-41.0"},{"group":"square cycles (cube, non-group)","room_assignment":["yellow","purple","grey","pink","brown","green","blue","red"],"door_color_assignment":["black","white"],"door_generator_assignment":[0,1],"goal":3,"start":2,"action_noise":0.1,"location_history":"[2,3]","action_history":"[0]","door_history":"[0]","location_rts":"[6269]","trial_type":"two-door-navigation","trial_index":44,"time_elapsed":3306187,"internal_node_id":"0.0-2.0-42.0"},{"group":"square cycles (cube, non-group)","room_assignment":["yellow","purple","grey","pink","brown","green","blue","red"],"door_color_assignment":["black","white"],"door_generator_assignment":[0,1],"goal":5,"start":3,"action_noise":0.1,"location_history":"[3,2,3,2,6,7,6,5]","action_history":"[1,0,1,1,1,0,0]","door_history":"[1,0,1,1,1,0,0]","location_rts":"[1679,3759,1333,1466,1580,544,1330]","trial_type":"two-door-navigation","trial_index":45,"time_elapsed":3328645,"internal_node_id":"0.0-2.0-43.0"},{"group":"square cycles (cube, non-group)","room_assignment":["yellow","purple","grey","pink","brown","green","blue","red"],"door_color_assignment":["black","white"],"door_generator_assignment":[0,1],"goal":1,"start":5,"action_noise":0.1,"location_history":"[5,1]","action_history":"[0]","door_history":"[0]","location_rts":"[471]","trial_type":"two-door-navigation","trial_index":46,"time_elapsed":3333652,"internal_node_id":"0.0-2.0-44.0"},{"group":"square cycles (cube, non-group)","room_assignment":["yellow","purple","grey","pink","brown","green","blue","red"],"door_color_assignment":["black","white"],"door_generator_assignment":[0,1],"goal":7,"start":1,"action_noise":0.1,"location_history":"[1,0,4,7]","action_history":"[0,1,1]","door_history":"[0,1,1]","location_rts":"[1310,1076,2366]","trial_type":"two-door-navigation","trial_index":47,"time_elapsed":3345029,"internal_node_id":"0.0-2.0-45.0"},{"group":"square cycles (cube, non-group)","room_assignment":["yellow","purple","grey","pink","brown","green","blue","red"],"door_color_assignment":["black","white"],"door_generator_assignment":[0,1],"goal":6,"start":7,"action_noise":0.1,"location_history":"[7,6]","action_history":"[0]","door_history":"[0]","location_rts":"[5597]","trial_type":"two-door-navigation","trial_index":48,"time_elapsed":3355171,"internal_node_id":"0.0-2.0-46.0"},{"group":"square cycles (cube, non-group)","room_assignment":["yellow","purple","grey","pink","brown","green","blue","red"],"door_color_assignment":["black","white"],"door_generator_assignment":[0,1],"goal":3,"start":6,"action_noise":0.1,"location_history":"[6,5,1,2,3]","action_history":"[0,1,0,0]","door_history":"[0,1,0,0]","location_rts":"[1719,1210,1295,2445]","trial_type":"two-door-navigation","trial_index":49,"time_elapsed":3369532,"internal_node_id":"0.0-2.0-47.0"},{"group":"square cycles (cube, non-group)","room_assignment":["yellow","purple","grey","pink","brown","green","blue","red"],"door_color_assignment":["black","white"],"door_generator_assignment":[0,1],"goal":0,"start":3,"action_noise":0.1,"location_history":"[3,2,3,0]","action_history":"[1,0,0]","door_history":"[1,0,0]","location_rts":"[1118,2311,2199]","trial_type":"two-door-navigation","trial_index":50,"time_elapsed":3381767,"internal_node_id":"0.0-2.0-48.0"},{"group":"square cycles (cube, non-group)","room_assignment":["yellow","purple","grey","pink","brown","green","blue","red"],"door_color_assignment":["black","white"],"door_generator_assignment":[0,1],"goal":2,"start":0,"action_noise":0.1,"location_history":"[0,1,2]","action_history":"[0,0]","door_history":"[0,0]","location_rts":"[1173,3461]","trial_type":"two-door-navigation","trial_index":51,"time_elapsed":3391970,"internal_node_id":"0.0-2.0-49.0"},{"view_history":"[{\"page_index\":0,\"viewing_time\":2158}]","rt":2158,"trial_type":"instructions","trial_index":52,"time_elapsed":3395131,"internal_node_id":"0.0-3.0"},{"view_history":"[{\"page_index\":0,\"viewing_time\":1863},{\"page_index\":1,\"viewing_time\":1762}]","rt":3626,"trial_type":"instructions","trial_index":53,"time_elapsed":3399759,"internal_node_id":"0.0-4.0"},{"group":"square cycles (cube, non-group)","fractal_assignment":["../images/cyn_red.png","../images/pnk_blu.png","../images/ylw_slt.png","../images/grn_red.png","../images/blu_wht.png","../images/org_blu.png","../images/ylw_pnk.png","../images/gry_blk.png"],"mutagen_generator_assignment":[1,0],"goal":3,"start":0,"action_noise":0.1,"location_history":"[0,4,7,6,7,3]","action_history":"[1,0,0,1,1]","mutagen_history":"[0,1,1,0,0]","location_rts":"[12306,1374,913,429,1887]","trial_type":"fractal-mutation","trial_index":54,"time_elapsed":3426065,"internal_node_id":"0.0-5.0-0.0"},{"group":"square cycles (cube, non-group)","fractal_assignment":["../images/cyn_red.png","../images/pnk_blu.png","../images/ylw_slt.png","../images/grn_red.png","../images/blu_wht.png","../images/org_blu.png","../images/ylw_pnk.png","../images/gry_blk.png"],"mutagen_generator_assignment":[1,0],"goal":1,"start":3,"action_noise":0.1,"location_history":"[3,2,3,2,3,0,1]","action_history":"[1,0,0,0,0,0]","mutagen_history":"[0,1,1,1,1,1]","location_rts":"[1924,999,497,486,1128,1294]","trial_type":"fractal-mutation","trial_index":55,"time_elapsed":3443570,"internal_node_id":"0.0-5.0-1.0"},{"group":"square cycles (cube, non-group)","fractal_assignment":["../images/cyn_red.png","../images/pnk_blu.png","../images/ylw_slt.png","../images/grn_red.png","../images/blu_wht.png","../images/org_blu.png","../images/ylw_pnk.png","../images/gry_blk.png"],"mutagen_generator_assignment":[1,0],"goal":2,"start":1,"action_noise":0.1,"location_history":"[1,0,1,2]","action_history":"[1,0,0]","mutagen_history":"[0,1,1]","location_rts":"[4156,2523,367]","trial_type":"fractal-mutation","trial_index":56,"time_elapsed":3457642,"internal_node_id":"0.0-5.0-2.0"},{"group":"square cycles (cube, non-group)","fractal_assignment":["../images/cyn_red.png","../images/pnk_blu.png","../images/ylw_slt.png","../images/grn_red.png","../images/blu_wht.png","../images/org_blu.png","../images/ylw_pnk.png","../images/gry_blk.png"],"mutagen_generator_assignment":[1,0],"goal":6,"start":2,"action_noise":0.1,"location_history":"[2,6]","action_history":"[1]","mutagen_history":"[0]","location_rts":"[10147]","trial_type":"fractal-mutation","trial_index":57,"time_elapsed":3472453,"internal_node_id":"0.0-5.0-3.0"},{"group":"square cycles (cube, non-group)","fractal_assignment":["../images/cyn_red.png","../images/pnk_blu.png","../images/ylw_slt.png","../images/grn_red.png","../images/blu_wht.png","../images/org_blu.png","../images/ylw_pnk.png","../images/gry_blk.png"],"mutagen_generator_assignment":[1,0],"goal":5,"start":6,"action_noise":0.1,"location_history":"[6,5]","action_history":"[0]","mutagen_history":"[1]","location_rts":"[3301]","trial_type":"fractal-mutation","trial_index":58,"time_elapsed":3480558,"internal_node_id":"0.0-5.0-4.0"},{"group":"square cycles (cube, non-group)","fractal_assignment":["../images/cyn_red.png","../images/pnk_blu.png","../images/ylw_slt.png","../images/grn_red.png","../images/blu_wht.png","../images/org_blu.png","../images/ylw_pnk.png","../images/gry_blk.png"],"mutagen_generator_assignment":[1,0],"goal":4,"start":5,"action_noise":0.1,"location_history":"[5,1,0,4]","action_history":"[1,1,1]","mutagen_history":"[0,0,0]","location_rts":"[2247,1382,1013]","trial_type":"fractal-mutation","trial_index":59,"time_elapsed":3492173,"internal_node_id":"0.0-5.0-5.0"},{"group":"square cycles (cube, non-group)","fractal_assignment":["../images/cyn_red.png","../images/pnk_blu.png","../images/ylw_slt.png","../images/grn_red.png","../images/blu_wht.png","../images/org_blu.png","../images/ylw_pnk.png","../images/gry_blk.png"],"mutagen_generator_assignment":[1,0],"goal":7,"start":4,"action_noise":0.1,"location_history":"[4,7]","action_history":"[0]","mutagen_history":"[1]","location_rts":"[2077]","trial_type":"fractal-mutation","trial_index":60,"time_elapsed":3499042,"internal_node_id":"0.0-5.0-6.0"},{"group":"square cycles (cube, non-group)","fractal_assignment":["../images/cyn_red.png","../images/pnk_blu.png","../images/ylw_slt.png","../images/grn_red.png","../images/blu_wht.png","../images/org_blu.png","../images/ylw_pnk.png","../images/gry_blk.png"],"mutagen_generator_assignment":[1,0],"goal":4,"start":7,"action_noise":0.1,"location_history":"[7,6,5,4]","action_history":"[0,0,0]","mutagen_history":"[1,1,1]","location_rts":"[1565,962,1318]","trial_type":"fractal-mutation","trial_index":61,"time_elapsed":3509998,"internal_node_id":"0.0-5.0-7.0"},{"group":"square cycles (cube, non-group)","fractal_assignment":["../images/cyn_red.png","../images/pnk_blu.png","../images/ylw_slt.png","../images/grn_red.png","../images/blu_wht.png","../images/org_blu.png","../images/ylw_pnk.png","../images/gry_blk.png"],"mutagen_generator_assignment":[1,0],"goal":6,"start":4,"action_noise":0.1,"location_history":"[4,5,4,5,1,0,1,0,1,0,1,2,3,2,6]","action_history":"[1,1,1,1,1,1,1,1,1,0,0,1,1,1]","mutagen_history":"[0,0,0,0,0,0,0,0,0,1,1,0,0,0]","location_rts":"[4346,2641,1816,946,1193,2395,1249,2922,2316,958,789,1499,3308,2936]","trial_type":"fractal-mutation","trial_index":62,"time_elapsed":3558831,"internal_node_id":"0.0-5.0-8.0"},{"group":"square cycles (cube, non-group)","fractal_assignment":["../images/cyn_red.png","../images/pnk_blu.png","../images/ylw_slt.png","../images/grn_red.png","../images/blu_wht.png","../images/org_blu.png","../images/ylw_pnk.png","../images/gry_blk.png"],"mutagen_generator_assignment":[1,0],"goal":0,"start":6,"action_noise":0.1,"location_history":"[6,7,3,0]","action_history":"[1,1,0]","mutagen_history":"[0,0,1]","location_rts":"[2895,1664,1122]","trial_type":"fractal-mutation","trial_index":63,"time_elapsed":3571534,"internal_node_id":"0.0-5.0-9.0"},{"group":"square cycles (cube, non-group)","fractal_assignment":["../images/cyn_red.png","../images/pnk_blu.png","../images/ylw_slt.png","../images/grn_red.png","../images/blu_wht.png","../images/org_blu.png","../images/ylw_pnk.png","../images/gry_blk.png"],"mutagen_generator_assignment":[1,0],"goal":1,"start":0,"action_noise":0.1,"location_history":"[0,1]","action_history":"[0]","mutagen_history":"[1]","location_rts":"[263]","trial_type":"fractal-mutation","trial_index":64,"time_elapsed":3576486,"internal_node_id":"0.0-5.0-10.0"},{"group":"square cycles (cube, non-group)","fractal_assignment":["../images/cyn_red.png","../images/pnk_blu.png","../images/ylw_slt.png","../images/grn_red.png","../images/blu_wht.png","../images/org_blu.png","../images/ylw_pnk.png","../images/gry_blk.png"],"mutagen_generator_assignment":[1,0],"goal":3,"start":1,"action_noise":0.1,"location_history":"[1,2,3]","action_history":"[0,0]","mutagen_history":"[1,1]","location_rts":"[1034,880]","trial_type":"fractal-mutation","trial_index":65,"time_elapsed":3584296,"internal_node_id":"0.0-5.0-11.0"},{"group":"square cycles (cube, non-group)","fractal_assignment":["../images/cyn_red.png","../images/pnk_blu.png","../images/ylw_slt.png","../images/grn_red.png","../images/blu_wht.png","../images/org_blu.png","../images/ylw_pnk.png","../images/gry_blk.png"],"mutagen_generator_assignment":[1,0],"goal":7,"start":3,"action_noise":0.1,"location_history":"[3,0,4,7]","action_history":"[0,1,0]","mutagen_history":"[1,0,1]","location_rts":"[1788,825,3942]","trial_type":"fractal-mutation","trial_index":66,"time_elapsed":3598055,"internal_node_id":"0.0-5.0-12.0"},{"group":"square cycles (cube, non-group)","fractal_assignment":["../images/cyn_red.png","../images/pnk_blu.png","../images/ylw_slt.png","../images/grn_red.png","../images/blu_wht.png","../images/org_blu.png","../images/ylw_pnk.png","../images/gry_blk.png"],"mutagen_generator_assignment":[1,0],"goal":5,"start":7,"action_noise":0.1,"location_history":"[7,6,5]","action_history":"[0,0]","mutagen_history":"[1,1]","location_rts":"[2035,1315]","trial_type":"fractal-mutation","trial_index":67,"time_elapsed":3607350,"internal_node_id":"0.0-5.0-13.0"},{"group":"square cycles (cube, non-group)","fractal_assignment":["../images/cyn_red.png","../images/pnk_blu.png","../images/ylw_slt.png","../images/grn_red.png","../images/blu_wht.png","../images/org_blu.png","../images/ylw_pnk.png","../images/gry_blk.png"],"mutagen_generator_assignment":[1,0],"goal":2,"start":5,"action_noise":0.1,"location_history":"[5,1,2]","action_history":"[1,0]","mutagen_history":"[0,1]","location_rts":"[3985,3995]","trial_type":"fractal-mutation","trial_index":68,"time_elapsed":3621111,"internal_node_id":"0.0-5.0-14.0"},{"group":"square cycles (cube, non-group)","fractal_assignment":["../images/cyn_red.png","../images/pnk_blu.png","../images/ylw_slt.png","../images/grn_red.png","../images/blu_wht.png","../images/org_blu.png","../images/ylw_pnk.png","../images/gry_blk.png"],"mutagen_generator_assignment":[1,0],"goal":7,"start":2,"action_noise":0.1,"location_history":"[2,3,0,1,2,3,0,1,2,3,0,1,2,3,0,4,7]","action_history":"[1,0,0,1,0,0,0,0,0,0,0,0,0,0,1,0]","mutagen_history":"[0,1,1,0,1,1,1,1,1,1,1,1,1,1,0,1]","location_rts":"[3216,1656,863,2714,878,1341,1783,1613,787,936,1154,1259,1264,2002,1571,1414]","trial_type":"fractal-mutation","trial_index":69,"time_elapsed":3668201,"internal_node_id":"0.0-5.0-15.0"},{"group":"square cycles (cube, non-group)","fractal_assignment":["../images/cyn_red.png","../images/pnk_blu.png","../images/ylw_slt.png","../images/grn_red.png","../images/blu_wht.png","../images/org_blu.png","../images/ylw_pnk.png","../images/gry_blk.png"],"mutagen_generator_assignment":[1,0],"goal":4,"start":7,"action_noise":0.1,"location_history":"[7,6,5,4]","action_history":"[0,0,0]","mutagen_history":"[1,1,1]","location_rts":"[1321,3140,2697]","trial_type":"fractal-mutation","trial_index":70,"time_elapsed":3682476,"internal_node_id":"0.0-5.0-16.0"},{"group":"square cycles (cube, non-group)","fractal_assignment":["../images/cyn_red.png","../images/pnk_blu.png","../images/ylw_slt.png","../images/grn_red.png","../images/blu_wht.png","../images/org_blu.png","../images/ylw_pnk.png","../images/gry_blk.png"],"mutagen_generator_assignment":[1,0],"goal":2,"start":4,"action_noise":0.1,"location_history":"[4,7,6,5,4,7,6,5,4,7,6,7,3,0,1,2]","action_history":"[0,0,0,0,0,0,0,0,0,0,1,1,0,0,0]","mutagen_history":"[1,1,1,1,1,1,1,1,1,1,0,0,1,1,1]","location_rts":"[3029,1678,999,1233,850,1091,1023,1522,1161,939,1343,1840,1302,996,973]","trial_type":"fractal-mutation","trial_index":71,"time_elapsed":3724188,"internal_node_id":"0.0-5.0-17.0"},{"group":"square cycles (cube, non-group)","fractal_assignment":["../images/cyn_red.png","../images/pnk_blu.png","../images/ylw_slt.png","../images/grn_red.png","../images/blu_wht.png","../images/org_blu.png","../images/ylw_pnk.png","../images/gry_blk.png"],"mutagen_generator_assignment":[1,0],"goal":3,"start":2,"action_noise":0.1,"location_history":"[2,3]","action_history":"[0]","mutagen_history":"[1]","location_rts":"[1488]","trial_type":"fractal-mutation","trial_index":72,"time_elapsed":3730445,"internal_node_id":"0.0-5.0-18.0"},{"group":"square cycles (cube, non-group)","fractal_assignment":["../images/cyn_red.png","../images/pnk_blu.png","../images/ylw_slt.png","../images/grn_red.png","../images/blu_wht.png","../images/org_blu.png","../images/ylw_pnk.png","../images/gry_blk.png"],"mutagen_generator_assignment":[1,0],"goal":6,"start":3,"action_noise":0.1,"location_history":"[3,0,4,5,1,2,6]","action_history":"[0,1,1,1,1,1]","mutagen_history":"[1,0,0,0,0,0]","location_rts":"[1289,907,973,1184,943,823]","trial_type":"fractal-mutation","trial_index":73,"time_elapsed":3746969,"internal_node_id":"0.0-5.0-19.0"},{"group":"square cycles (cube, non-group)","fractal_assignment":["../images/cyn_red.png","../images/pnk_blu.png","../images/ylw_slt.png","../images/grn_red.png","../images/blu_wht.png","../images/org_blu.png","../images/ylw_pnk.png","../images/gry_blk.png"],"mutagen_generator_assignment":[1,0],"goal":5,"start":6,"action_noise":0.1,"location_history":"[6,7,6,5]","action_history":"[1,0,0]","mutagen_history":"[0,1,1]","location_rts":"[2589,1213,1958]","trial_type":"fractal-mutation","trial_index":74,"time_elapsed":3759756,"internal_node_id":"0.0-5.0-20.0"},{"group":"square cycles (cube, non-group)","fractal_assignment":["../images/cyn_red.png","../images/pnk_blu.png","../images/ylw_slt.png","../images/grn_red.png","../images/blu_wht.png","../images/org_blu.png","../images/ylw_pnk.png","../images/gry_blk.png"],"mutagen_generator_assignment":[1,0],"goal":1,"start":5,"action_noise":0.1,"location_history":"[5,4,5,4,7,6,5,4,5,1]","action_history":"[0,1,0,0,0,0,0,1,1]","mutagen_history":"[1,0,1,1,1,1,1,0,0]","location_rts":"[1025,955,1517,1250,1131,1432,999,1498,1144]","trial_type":"fractal-mutation","trial_index":75,"time_elapsed":3785126,"internal_node_id":"0.0-5.0-21.0"},{"group":"square cycles (cube, non-group)","fractal_assignment":["../images/cyn_red.png","../images/pnk_blu.png","../images/ylw_slt.png","../images/grn_red.png","../images/blu_wht.png","../images/org_blu.png","../images/ylw_pnk.png","../images/gry_blk.png"],"mutagen_generator_assignment":[1,0],"goal":0,"start":1,"action_noise":0.1,"location_history":"[1,0]","action_history":"[1]","mutagen_history":"[0]","location_rts":"[3158]","trial_type":"fractal-mutation","trial_index":76,"time_elapsed":3792937,"internal_node_id":"0.0-5.0-22.0"},{"group":"square cycles (cube, non-group)","fractal_assignment":["../images/cyn_red.png","../images/pnk_blu.png","../images/ylw_slt.png","../images/grn_red.png","../images/blu_wht.png","../images/org_blu.png","../images/ylw_pnk.png","../images/gry_blk.png"],"mutagen_generator_assignment":[1,0],"goal":2,"start":0,"action_noise":0.1,"location_history":"[0,1,2]","action_history":"[0,0]","mutagen_history":"[1,1]","location_rts":"[1291,1380]","trial_type":"fractal-mutation","trial_index":77,"time_elapsed":3801594,"internal_node_id":"0.0-5.0-23.0"},{"group":"square cycles (cube, non-group)","fractal_assignment":["../images/cyn_red.png","../images/pnk_blu.png","../images/ylw_slt.png","../images/grn_red.png","../images/blu_wht.png","../images/org_blu.png","../images/ylw_pnk.png","../images/gry_blk.png"],"mutagen_generator_assignment":[1,0],"goal":6,"start":2,"action_noise":0.1,"location_history":"[2,3,2,3,2,6]","action_history":"[0,1,0,1,1]","mutagen_history":"[1,0,1,0,0]","location_rts":"[1339,2239,1363,2089,998]","trial_type":"fractal-mutation","trial_index":78,"time_elapsed":3818854,"internal_node_id":"0.0-5.0-24.0"},{"group":"square cycles (cube, non-group)","fractal_assignment":["../images/cyn_red.png","../images/pnk_blu.png","../images/ylw_slt.png","../images/grn_red.png","../images/blu_wht.png","../images/org_blu.png","../images/ylw_pnk.png","../images/gry_blk.png"],"mutagen_generator_assignment":[1,0],"goal":1,"start":6,"action_noise":0.1,"location_history":"[6,7,6,5,1]","action_history":"[1,0,0,0]","mutagen_history":"[0,1,1,1]","location_rts":"[3277,964,803,696]","trial_type":"fractal-mutation","trial_index":79,"time_elapsed":3832944,"internal_node_id":"0.0-5.0-25.0"},{"group":"square cycles (cube, non-group)","fractal_assignment":["../images/cyn_red.png","../images/pnk_blu.png","../images/ylw_slt.png","../images/grn_red.png","../images/blu_wht.png","../images/org_blu.png","../images/ylw_pnk.png","../images/gry_blk.png"],"mutagen_generator_assignment":[1,0],"goal":3,"start":1,"action_noise":0.1,"location_history":"[1,0,1,0,1,0,4,7,3]","action_history":"[1,0,1,0,1,1,0,1]","mutagen_history":"[0,1,0,1,0,0,1,0]","location_rts":"[700,1402,2527,2024,923,900,1995,2781]","trial_type":"fractal-mutation","trial_index":80,"time_elapsed":3859228,"internal_node_id":"0.0-5.0-26.0"},{"group":"square cycles (cube, non-group)","fractal_assignment":["../images/cyn_red.png","../images/pnk_blu.png","../images/ylw_slt.png","../images/grn_red.png","../images/blu_wht.png","../images/org_blu.png","../images/ylw_pnk.png","../images/gry_blk.png"],"mutagen_generator_assignment":[1,0],"goal":7,"start":3,"action_noise":0.1,"location_history":"[3,0,1,0,1,0,1,0,1,0,1,2,6,5,1,0,1,2,3,0,4,7]","action_history":"[0,0,0,1,1,0,0,0,1,0,0,0,0,1,0,0,0,0,0,1,0]","mutagen_history":"[1,1,1,0,0,1,1,1,0,1,1,1,1,0,1,1,1,1,1,0,1]","location_rts":"[2839,1205,2061,1686,1385,1626,1950,938,1833,776,727,797,2721,1315,947,813,1134,1208,2630,805,1012]","trial_type":"fractal-mutation","trial_index":81,"time_elapsed":3918499,"internal_node_id":"0.0-5.0-27.0"},{"group":"square cycles (cube, non-group)","fractal_assignment":["../images/cyn_red.png","../images/pnk_blu.png","../images/ylw_slt.png","../images/grn_red.png","../images/blu_wht.png","../images/org_blu.png","../images/ylw_pnk.png","../images/gry_blk.png"],"mutagen_generator_assignment":[1,0],"goal":4,"start":7,"action_noise":0.1,"location_history":"[7,6,5,1,2,3,0,1,0,4]","action_history":"[0,0,1,0,0,0,0,0,0]","mutagen_history":"[1,1,0,1,1,1,1,1,1]","location_rts":"[1052,873,737,813,1514,940,957,1546,1035]","trial_type":"fractal-mutation","trial_index":82,"time_elapsed":3942429,"internal_node_id":"0.0-5.0-28.0"},{"group":"square cycles (cube, non-group)","fractal_assignment":["../images/cyn_red.png","../images/pnk_blu.png","../images/ylw_slt.png","../images/grn_red.png","../images/blu_wht.png","../images/org_blu.png","../images/ylw_pnk.png","../images/gry_blk.png"],"mutagen_generator_assignment":[1,0],"goal":0,"start":4,"action_noise":0.1,"location_history":"[4,7,3,2,3,0]","action_history":"[0,1,1,0,0]","mutagen_history":"[1,0,0,1,1]","location_rts":"[1051,736,765,1167,848]","trial_type":"fractal-mutation","trial_index":83,"time_elapsed":3956554,"internal_node_id":"0.0-5.0-29.0"},{"group":"square cycles (cube, non-group)","fractal_assignment":["../images/cyn_red.png","../images/pnk_blu.png","../images/ylw_slt.png","../images/grn_red.png","../images/blu_wht.png","../images/org_blu.png","../images/ylw_pnk.png","../images/gry_blk.png"],"mutagen_generator_assignment":[1,0],"goal":5,"start":0,"action_noise":0.1,"location_history":"[0,1,0,4,5]","action_history":"[0,0,1,1]","mutagen_history":"[1,1,0,0]","location_rts":"[2216,3151,887,1472]","trial_type":"fractal-mutation","trial_index":84,"time_elapsed":3972676,"internal_node_id":"0.0-5.0-30.0"},{"group":"square cycles (cube, non-group)","fractal_assignment":["../images/cyn_red.png","../images/pnk_blu.png","../images/ylw_slt.png","../images/grn_red.png","../images/blu_wht.png","../images/org_blu.png","../images/ylw_pnk.png","../images/gry_blk.png"],"mutagen_generator_assignment":[1,0],"goal":3,"start":5,"action_noise":0.1,"location_history":"[5,4,5,1,2,6,5,1,0,4,7,6,7,3]","action_history":"[0,1,1,0,0,0,1,1,1,0,0,1,1]","mutagen_history":"[1,0,0,1,1,1,0,0,0,1,1,0,0]","location_rts":"[999,2172,1107,826,603,397,1143,1165,947,1156,1041,2257,934]","trial_type":"fractal-mutation","trial_index":85,"time_elapsed":4006325,"internal_node_id":"0.0-5.0-31.0"},{"group":"square cycles (cube, non-group)","fractal_assignment":["../images/cyn_red.png","../images/pnk_blu.png","../images/ylw_slt.png","../images/grn_red.png","../images/blu_wht.png","../images/org_blu.png","../images/ylw_pnk.png","../images/gry_blk.png"],"mutagen_generator_assignment":[1,0],"goal":2,"start":3,"action_noise":0.1,"location_history":"[3,0,4,7,6,7,3,2]","action_history":"[1,1,0,0,1,1,1]","mutagen_history":"[0,0,1,1,0,0,0]","location_rts":"[19081,990,389,142,2123,1153,4815]","trial_type":"fractal-mutation","trial_index":86,"time_elapsed":4046712,"internal_node_id":"0.0-5.0-32.0"},{"group":"square cycles (cube, non-group)","fractal_assignment":["../images/cyn_red.png","../images/pnk_blu.png","../images/ylw_slt.png","../images/grn_red.png","../images/blu_wht.png","../images/org_blu.png","../images/ylw_pnk.png","../images/gry_blk.png"],"mutagen_generator_assignment":[1,0],"goal":6,"start":2,"action_noise":0.1,"location_history":"[2,6]","action_history":"[1]","mutagen_history":"[0]","location_rts":"[4008]","trial_type":"fractal-mutation","trial_index":87,"time_elapsed":4055361,"internal_node_id":"0.0-5.0-33.0"},{"group":"square cycles (cube, non-group)","fractal_assignment":["../images/cyn_red.png","../images/pnk_blu.png","../images/ylw_slt.png","../images/grn_red.png","../images/blu_wht.png","../images/org_blu.png","../images/ylw_pnk.png","../images/gry_blk.png"],"mutagen_generator_assignment":[1,0],"goal":1,"start":6,"action_noise":0.1,"location_history":"[6,7,3,2,6,5,4,5,1]","action_history":"[1,1,1,1,0,0,1,1]","mutagen_history":"[0,0,0,0,1,1,0,0]","location_rts":"[2319,1471,2015,1103,995,646,962,628]","trial_type":"fractal-mutation","trial_index":88,"time_elapsed":4078273,"internal_node_id":"0.0-5.0-34.0"},{"group":"square cycles (cube, non-group)","fractal_assignment":["../images/cyn_red.png","../images/pnk_blu.png","../images/ylw_slt.png","../images/grn_red.png","../images/blu_wht.png","../images/org_blu.png","../images/ylw_pnk.png","../images/gry_blk.png"],"mutagen_generator_assignment":[1,0],"goal":7,"start":1,"action_noise":0.1,"location_history":"[1,2,3,0,1,0,1,0,4,5,4,7]","action_history":"[0,0,0,0,1,0,1,1,1,0,0]","mutagen_history":"[1,1,1,1,0,1,0,0,0,1,1]","location_rts":"[27000,955,805,1366,1133,1631,1451,2781,3247,1000,1057]","trial_type":"fractal-mutation","trial_index":89,"time_elapsed":4137260,"internal_node_id":"0.0-5.0-35.0"},{"group":"square cycles (cube, non-group)","fractal_assignment":["../images/cyn_red.png","../images/pnk_blu.png","../images/ylw_slt.png","../images/grn_red.png","../images/blu_wht.png","../images/org_blu.png","../images/ylw_pnk.png","../images/gry_blk.png"],"mutagen_generator_assignment":[1,0],"goal":4,"start":7,"action_noise":0.1,"location_history":"[7,3,2,6,5,4]","action_history":"[1,1,1,0,0]","mutagen_history":"[0,0,0,1,1]","location_rts":"[964,1085,1254,1378,1128]","trial_type":"fractal-mutation","trial_index":90,"time_elapsed":4152498,"internal_node_id":"0.0-5.0-36.0"},{"group":"square cycles (cube, non-group)","fractal_assignment":["../images/cyn_red.png","../images/pnk_blu.png","../images/ylw_slt.png","../images/grn_red.png","../images/blu_wht.png","../images/org_blu.png","../images/ylw_pnk.png","../images/gry_blk.png"],"mutagen_generator_assignment":[1,0],"goal":5,"start":4,"action_noise":0.1,"location_history":"[4,7,6,7,6,7,3,2,3,0,4,5]","action_history":"[0,0,1,0,1,1,1,0,0,1,1]","mutagen_history":"[1,1,0,1,0,0,0,1,1,0,0]","location_rts":"[6643,1104,1285,890,615,976,167,888,1338,1127,843]","trial_type":"fractal-mutation","trial_index":91,"time_elapsed":4184625,"internal_node_id":"0.0-5.0-37.0"},{"group":"square cycles (cube, non-group)","fractal_assignment":["../images/cyn_red.png","../images/pnk_blu.png","../images/ylw_slt.png","../images/grn_red.png","../images/blu_wht.png","../images/org_blu.png","../images/ylw_pnk.png","../images/gry_blk.png"],"mutagen_generator_assignment":[1,0],"goal":0,"start":5,"action_noise":0.1,"location_history":"[5,1,2,3,0]","action_history":"[1,0,0,0]","mutagen_history":"[0,1,1,1]","location_rts":"[19635,606,807,3351]","trial_type":"fractal-mutation","trial_index":92,"time_elapsed":4217354,"internal_node_id":"0.0-5.0-38.0"},{"group":"square cycles (cube, non-group)","fractal_assignment":["../images/cyn_red.png","../images/pnk_blu.png","../images/ylw_slt.png","../images/grn_red.png","../images/blu_wht.png","../images/org_blu.png","../images/ylw_pnk.png","../images/gry_blk.png"],"mutagen_generator_assignment":[1,0],"goal":4,"start":0,"action_noise":0.1,"location_history":"[0,1,2,6,5,4]","action_history":"[0,0,1,1,1]","mutagen_history":"[1,1,0,0,0]","location_rts":"[20153,270,1982,1494,942]","trial_type":"fractal-mutation","trial_index":93,"time_elapsed":4251739,"internal_node_id":"0.0-5.0-39.0"},{"group":"square cycles (cube, non-group)","fractal_assignment":["../images/cyn_red.png","../images/pnk_blu.png","../images/ylw_slt.png","../images/grn_red.png","../images/blu_wht.png","../images/org_blu.png","../images/ylw_pnk.png","../images/gry_blk.png"],"mutagen_generator_assignment":[1,0],"goal":0,"start":4,"action_noise":0.1,"location_history":"[4,7,3,2,6,5,4,7,3,2,6,5,4,7,6,7,3,2,3,0]","action_history":"[0,1,1,1,0,0,1,1,1,1,0,0,0,0,1,1,1,0,0]","mutagen_history":"[1,0,0,0,1,1,0,0,0,0,1,1,1,1,0,0,0,1,1]","location_rts":"[2646,1580,1311,2219,601,467,281,541,229,770,829,706,594,338,587,687,791,1554,1084]","trial_type":"fractal-mutation","trial_index":94,"time_elapsed":4295271,"internal_node_id":"0.0-5.0-40.0"},{"group":"square cycles (cube, non-group)","fractal_assignment":["../images/cyn_red.png","../images/pnk_blu.png","../images/ylw_slt.png","../images/grn_red.png","../images/blu_wht.png","../images/org_blu.png","../images/ylw_pnk.png","../images/gry_blk.png"],"mutagen_generator_assignment":[1,0],"goal":2,"start":0,"action_noise":0.1,"location_history":"[0,1,0,4,5,4,7,6,5,4,7,3,0,1,0,1,2]","action_history":"[1,1,1,1,0,0,0,0,0,1,1,0,0,1,1,0]","mutagen_history":"[0,0,0,0,1,1,1,1,1,0,0,1,1,0,0,1]","location_rts":"[895,3439,1013,1469,2028,2527,1428,1678,866,1308,1467,617,2355,1193,1195,1778]","trial_type":"fractal-mutation","trial_index":95,"time_elapsed":4342807,"internal_node_id":"0.0-5.0-41.0"},{"group":"square cycles (cube, non-group)","fractal_assignment":["../images/cyn_red.png","../images/pnk_blu.png","../images/ylw_slt.png","../images/grn_red.png","../images/blu_wht.png","../images/org_blu.png","../images/ylw_pnk.png","../images/gry_blk.png"],"mutagen_generator_assignment":[1,0],"goal":3,"start":2,"action_noise":0.1,"location_history":"[2,6,7,3]","action_history":"[1,1,1]","mutagen_history":"[0,0,0]","location_rts":"[4584,3740,1115]","trial_type":"fractal-mutation","trial_index":96,"time_elapsed":4359054,"internal_node_id":"0.0-5.0-42.0"},{"group":"square cycles (cube, non-group)","fractal_assignment":["../images/cyn_red.png","../images/pnk_blu.png","../images/ylw_slt.png","../images/grn_red.png","../images/blu_wht.png","../images/org_blu.png","../images/ylw_pnk.png","../images/gry_blk.png"],"mutagen_generator_assignment":[1,0],"goal":5,"start":3,"action_noise":0.1,"location_history":"[3,0,1,0,4,7,3,0,1,2,3,0,1,2,6,7,3,2,6,5]","action_history":"[0,1,1,1,1,1,0,0,0,0,0,0,0,1,1,1,1,1,0]","mutagen_history":"[1,0,0,0,0,0,1,1,1,1,1,1,1,0,0,0,0,0,1]","location_rts":"[3231,942,844,983,1693,1136,1892,783,810,994,2564,1214,913,723,615,1178,385,422,491]","trial_type":"fractal-mutation","trial_index":97,"time_elapsed":4406879,"internal_node_id":"0.0-5.0-43.0"},{"group":"square cycles (cube, non-group)","fractal_assignment":["../images/cyn_red.png","../images/pnk_blu.png","../images/ylw_slt.png","../images/grn_red.png","../images/blu_wht.png","../images/org_blu.png","../images/ylw_pnk.png","../images/gry_blk.png"],"mutagen_generator_assignment":[1,0],"goal":1,"start":5,"action_noise":0.1,"location_history":"[5,4,5,1]","action_history":"[0,1,1]","mutagen_history":"[1,0,0]","location_rts":"[1396,785,570]","trial_type":"fractal-mutation","trial_index":98,"time_elapsed":4416634,"internal_node_id":"0.0-5.0-44.0"},{"group":"square cycles (cube, non-group)","fractal_assignment":["../images/cyn_red.png","../images/pnk_blu.png","../images/ylw_slt.png","../images/grn_red.png","../images/blu_wht.png","../images/org_blu.png","../images/ylw_pnk.png","../images/gry_blk.png"],"mutagen_generator_assignment":[1,0],"goal":7,"start":1,"action_noise":0.1,"location_history":"[1,2,3,0,4,5,1,2,3,2,6,7]","action_history":"[0,0,0,1,1,1,0,0,1,1,1]","mutagen_history":"[1,1,1,0,0,0,1,1,0,0,0]","location_rts":"[558,1115,1136,530,905,1216,1203,480,769,1802,1070]","trial_type":"fractal-mutation","trial_index":99,"time_elapsed":4444012,"internal_node_id":"0.0-5.0-45.0"},{"group":"square cycles (cube, non-group)","fractal_assignment":["../images/cyn_red.png","../images/pnk_blu.png","../images/ylw_slt.png","../images/grn_red.png","../images/blu_wht.png","../images/org_blu.png","../images/ylw_pnk.png","../images/gry_blk.png"],"mutagen_generator_assignment":[1,0],"goal":6,"start":7,"action_noise":0.1,"location_history":"[7,3,0,1,2,6]","action_history":"[1,0,0,0,1]","mutagen_history":"[0,1,1,1,0]","location_rts":"[1096,883,675,1416,1077]","trial_type":"fractal-mutation","trial_index":100,"time_elapsed":4458489,"internal_node_id":"0.0-5.0-46.0"},{"group":"square cycles (cube, non-group)","fractal_assignment":["../images/cyn_red.png","../images/pnk_blu.png","../images/ylw_slt.png","../images/grn_red.png","../images/blu_wht.png","../images/org_blu.png","../images/ylw_pnk.png","../images/gry_blk.png"],"mutagen_generator_assignment":[1,0],"goal":3,"start":6,"action_noise":0.1,"location_history":"[6,7,6,5,1,0,1,2,6,7,3]","action_history":"[1,0,0,1,1,0,0,1,1,1]","mutagen_history":"[0,1,1,0,0,1,1,0,0,0]","location_rts":"[2928,2181,3785,534,1183,668,712,250,787,1087]","trial_type":"fractal-mutation","trial_index":101,"time_elapsed":4487769,"internal_node_id":"0.0-5.0-47.0"},{"group":"square cycles (cube, non-group)","fractal_assignment":["../images/cyn_red.png","../images/pnk_blu.png","../images/ylw_slt.png","../images/grn_red.png","../images/blu_wht.png","../images/org_blu.png","../images/ylw_pnk.png","../images/gry_blk.png"],"mutagen_generator_assignment":[1,0],"goal":0,"start":3,"action_noise":0.1,"location_history":"[3,0]","action_history":"[1]","mutagen_history":"[0]","location_rts":"[1262]","trial_type":"fractal-mutation","trial_index":102,"time_elapsed":4493709,"internal_node_id":"0.0-5.0-48.0"},{"group":"square cycles (cube, non-group)","fractal_assignment":["../images/cyn_red.png","../images/pnk_blu.png","../images/ylw_slt.png","../images/grn_red.png","../images/blu_wht.png","../images/org_blu.png","../images/ylw_pnk.png","../images/gry_blk.png"],"mutagen_generator_assignment":[1,0],"goal":2,"start":0,"action_noise":0.1,"location_history":"[0,4,5,4,7,6,7,3,0,4,5,4,5,1,0,4,5,4,5,1,2]","action_history":"[0,1,0,1,0,1,1,0,1,1,0,1,1,1,1,0,0,1,1,0]","mutagen_history":"[1,0,1,0,1,0,0,1,0,0,1,0,0,0,0,1,1,0,0,1]","location_rts":"[1338,1973,709,579,338,1125,931,301,647,810,731,393,1401,1742,482,507,413,642,989,515]","trial_type":"fractal-mutation","trial_index":103,"time_elapsed":4537097,"internal_node_id":"0.0-5.0-49.0"},{"view_history":"[{\"page_index\":0,\"viewing_time\":6669}]","rt":6670,"trial_type":"instructions","trial_index":104,"time_elapsed":4544770,"internal_node_id":"0.0-6.0"},{"rt":1478,"responses":"{\"Q0\":\"\"}","trial_type":"survey-text","trial_index":105,"time_elapsed":4547272,"internal_node_id":"0.0-7.0"}]