[{"view_history":"[{\"page_index\":0,\"viewing_time\":4650},{\"page_index\":1,\"viewing_time\":5501},{\"page_index\":2,\"viewing_time\":13337},{\"page_index\":3,\"viewing_time\":5943}]","rt":29432,"trial_type":"instructions","trial_index":0,"time_elapsed":29432,"internal_node_id":"0.0-0.0"},{"view_history":"[{\"page_index\":0,\"viewing_time\":1895},{\"page_index\":1,\"viewing_time\":12287}]","rt":14182,"trial_type":"instructions","trial_index":1,"time_elapsed":44616,"internal_node_id":"0.0-1.0"},{"group":"square cycles (cube, non-group)","room_assignment":["red","brown","purple","blue","yellow","pink","green","grey"],"door_color_assignment":["white","black"],"door_generator_assignment":[1,0],"goal":3,"start":0,"action_noise":0.1,"location_history":"[0,4,7,3]","action_history":"[1,1,1]","door_history":"[0,0,0]","location_rts":"[1854,960,597]","trial_type":"two-door-navigation","trial_index":2,"time_elapsed":54547,"internal_node_id":"0.0-2.0-0.0"},{"group":"square cycles (cube, non-group)","room_assignment":["red","brown","purple","blue","yellow","pink","green","grey"],"door_color_assignment":["white","black"],"door_generator_assignment":[1,0],"goal":1,"start":3,"action_noise":0.1,"location_history":"[3,2,6,7,3,2,6,5,4,7,3,2,3,0,1]","action_history":"[1,1,1,1,1,1,1,1,1,1,0,0,0,0]","door_history":"[0,0,0,0,0,0,0,0,0,0,1,1,1,1]","location_rts":"[3619,426,356,452,676,350,371,521,351,370,1073,376,363,373]","trial_type":"two-door-navigation","trial_index":3,"time_elapsed":81792,"internal_node_id":"0.0-2.0-1.0"},{"group":"square cycles (cube, non-group)","room_assignment":["red","brown","purple","blue","yellow","pink","green","grey"],"door_color_assignment":["white","black"],"door_generator_assignment":[1,0],"goal":2,"start":1,"action_noise":0.1,"location_history":"[1,0,4,5,1,0,1,2]","action_history":"[1,1,1,1,1,1,1]","door_history":"[0,0,0,0,0,0,0]","location_rts":"[87912,474,332,861,340,346,262]","trial_type":"two-door-navigation","trial_index":4,"time_elapsed":182849,"internal_node_id":"0.0-2.0-2.0"},{"group":"square cycles (cube, non-group)","room_assignment":["red","brown","purple","blue","yellow","pink","green","grey"],"door_color_assignment":["white","black"],"door_generator_assignment":[1,0],"goal":6,"start":2,"action_noise":0.1,"location_history":"[2,6]","action_history":"[1]","door_history":"[0]","location_rts":"[9071]","trial_type":"two-door-navigation","trial_index":5,"time_elapsed":196426,"internal_node_id":"0.0-2.0-3.0"},{"group":"square cycles (cube, non-group)","room_assignment":["red","brown","purple","blue","yellow","pink","green","grey"],"door_color_assignment":["white","black"],"door_generator_assignment":[1,0],"goal":5,"start":6,"action_noise":0.1,"location_history":"[6,7,3,2,6,7,3,2,6,7,6,7,6,5]","action_history":"[1,1,1,1,1,1,1,1,1,1,0,0,0]","door_history":"[0,0,0,0,0,0,0,0,0,0,1,1,1]","location_rts":"[1085,381,373,722,345,448,775,467,321,764,1219,436,326]","trial_type":"two-door-navigation","trial_index":6,"time_elapsed":220646,"internal_node_id":"0.0-2.0-4.0"},{"group":"square cycles (cube, non-group)","room_assignment":["red","brown","purple","blue","yellow","pink","green","grey"],"door_color_assignment":["white","black"],"door_generator_assignment":[1,0],"goal":4,"start":5,"action_noise":0.1,"location_history":"[5,1,0,1,2,6,7,3,2,6,7,3,2,3,0,4]","action_history":"[1,1,0,0,1,1,1,1,1,1,1,1,0,1,1]","door_history":"[0,0,1,1,0,0,0,0,0,0,0,0,1,0,0]","location_rts":"[1402,397,859,379,342,316,769,14106,251,475,362,397,559,5980,289]","trial_type":"two-door-navigation","trial_index":7,"time_elapsed":266095,"internal_node_id":"0.0-2.0-5.0"},{"group":"square cycles (cube, non-group)","room_assignment":["red","brown","purple","blue","yellow","pink","green","grey"],"door_color_assignment":["white","black"],"door_generator_assignment":[1,0],"goal":7,"start":4,"action_noise":0.1,"location_history":"[4,5,4,7]","action_history":"[1,1,1]","door_history":"[0,0,0]","location_rts":"[1080,307,426]","trial_type":"two-door-navigation","trial_index":8,"time_elapsed":274424,"internal_node_id":"0.0-2.0-6.0"},{"group":"square cycles (cube, non-group)","room_assignment":["red","brown","purple","blue","yellow","pink","green","grey"],"door_color_assignment":["white","black"],"door_generator_assignment":[1,0],"goal":4,"start":7,"action_noise":0.1,"location_history":"[7,3,2,6,7,3,2,6,5,1,0,1,0,4]","action_history":"[1,1,1,1,1,1,1,1,1,1,1,1,1]","door_history":"[0,0,0,0,0,0,0,0,0,0,0,0,0]","location_rts":"[757,334,291,262,306,357,258,258,294,269,883,420,500]","trial_type":"two-door-navigation","trial_index":9,"time_elapsed":296191,"internal_node_id":"0.0-2.0-7.0"},{"group":"square cycles (cube, non-group)","room_assignment":["red","brown","purple","blue","yellow","pink","green","grey"],"door_color_assignment":["white","black"],"door_generator_assignment":[1,0],"goal":6,"start":4,"action_noise":0.1,"location_history":"[4,5,1,0,4,7,3,2,6]","action_history":"[1,1,1,1,1,1,1,1]","door_history":"[0,0,0,0,0,0,0,0]","location_rts":"[1313,225,445,322,428,469,266,621]","trial_type":"two-door-navigation","trial_index":10,"time_elapsed":311823,"internal_node_id":"0.0-2.0-8.0"},{"group":"square cycles (cube, non-group)","room_assignment":["red","brown","purple","blue","yellow","pink","green","grey"],"door_color_assignment":["white","black"],"door_generator_assignment":[1,0],"goal":0,"start":6,"action_noise":0.1,"location_history":"[6,7,3,2,6,7,3,2,6,5,1,0]","action_history":"[1,1,1,1,1,1,1,1,1,1,1]","door_history":"[0,0,0,0,0,0,0,0,0,0,0]","location_rts":"[905,333,931,341,425,393,333,590,322,340,374]","trial_type":"two-door-navigation","trial_index":11,"time_elapsed":331658,"internal_node_id":"0.0-2.0-9.0"},{"group":"square cycles (cube, non-group)","room_assignment":["red","brown","purple","blue","yellow","pink","green","grey"],"door_color_assignment":["white","black"],"door_generator_assignment":[1,0],"goal":1,"start":0,"action_noise":0.1,"location_history":"[0,4,5,1]","action_history":"[1,1,1]","door_history":"[0,0,0]","location_rts":"[2213,484,4181]","trial_type":"two-door-navigation","trial_index":12,"time_elapsed":345058,"internal_node_id":"0.0-2.0-10.0"},{"group":"square cycles (cube, non-group)","room_assignment":["red","brown","purple","blue","yellow","pink","green","grey"],"door_color_assignment":["white","black"],"door_generator_assignment":[1,0],"goal":3,"start":1,"action_noise":0.1,"location_history":"[1,0,4,5,4,5,1,0,4,5,1,0,4,5,1,0,1,0,4,7,3]","action_history":"[1,1,1,1,1,1,1,1,1,1,1,1,1,1,1,0,1,1,1,1]","door_history":"[0,0,0,0,0,0,0,0,0,0,0,0,0,0,0,1,0,0,0,0]","location_rts":"[5813,5761,86,125,247,214,116,350,374,265,298,356,478,579,437,411,207,253,272,94]","trial_type":"two-door-navigation","trial_index":13,"time_elapsed":385369,"internal_node_id":"0.0-2.0-11.0"},{"group":"square cycles (cube, non-group)","room_assignment":["red","brown","purple","blue","yellow","pink","green","grey"],"door_color_assignment":["white","black"],"door_generator_assignment":[1,0],"goal":7,"start":3,"action_noise":0.1,"location_history":"[3,2,6,7]","action_history":"[1,1,1]","door_history":"[0,0,0]","location_rts":"[704,306,215]","trial_type":"two-door-navigation","trial_index":14,"time_elapsed":393102,"internal_node_id":"0.0-2.0-12.0"},{"group":"square cycles (cube, non-group)","room_assignment":["red","brown","purple","blue","yellow","pink","green","grey"],"door_color_assignment":["white","black"],"door_generator_assignment":[1,0],"goal":5,"start":7,"action_noise":0.1,"location_history":"[7,3,2,6,7,3,2,3,2,6,7,3,2,6,7,3,0,4,7,6,7,3,0,1,2,3,2,3,0,1,2,3,0,1,2,3,0,1,2,6,7,3,2,6,7,3,2,6,7,3,2,6,7,3,2,6,7,3,2,6,7,6,7,3,2,6,7,3,2,3,2,3,0,1,2,6,5]","action_history":"[1,1,1,1,1,1,1,1,1,1,1,1,1,1,1,1,1,1,1,1,1,1,0,0,0,0,0,0,0,0,0,0,0,0,0,0,0,0,1,1,1,1,1,1,1,1,1,1,1,1,1,1,1,1,1,1,1,1,1,1,1,1,1,1,1,1,1,1,0,1,1,1,0,1,0,1]","door_history":"[0,0,0,0,0,0,0,0,0,0,0,0,0,0,0,0,0,0,0,0,0,0,1,1,1,1,1,1,1,1,1,1,1,1,1,1,1,1,0,0,0,0,0,0,0,0,0,0,0,0,0,0,0,0,0,0,0,0,0,0,0,0,0,0,0,0,0,0,1,0,0,0,1,0,1,0]","location_rts":"[481,289,347,295,340,363,359,398,213,140,653,444,317,317,352,343,444,1854,475,561,208,555,310,205,101,116,121,189,430,453,284,470,323,289,308,406,362,264,393,247,266,483,196,285,373,474,1493,540,257,12766,307,490,354,926,578,349,387,373,347,593,397,484,572,747,267,354,102,217,341,67,355,157,70,45,3,338]","trial_type":"two-door-navigation","trial_index":15,"time_elapsed":514293,"internal_node_id":"0.0-2.0-13.0"},{"group":"square cycles (cube, non-group)","room_assignment":["red","brown","purple","blue","yellow","pink","green","grey"],"door_color_assignment":["white","black"],"door_generator_assignment":[1,0],"goal":2,"start":5,"action_noise":0.1,"location_history":"[5,1,0,4,5,1,0,4,5,4,5,1,0,4,5,4,5,1,0,4,7,3,2]","action_history":"[1,1,1,1,1,1,1,1,1,1,1,1,1,1,1,1,1,1,1,1,1,1]","door_history":"[0,0,0,0,0,0,0,0,0,0,0,0,0,0,0,0,0,0,0,0,0,0]","location_rts":"[1044,69,320,374,253,261,267,465,270,463,541,299,351,370,166,41,45,124,116,18,132,52]","trial_type":"two-door-navigation","trial_index":16,"time_elapsed":545920,"internal_node_id":"0.0-2.0-14.0"},{"group":"square cycles (cube, non-group)","room_assignment":["red","brown","purple","blue","yellow","pink","green","grey"],"door_color_assignment":["white","black"],"door_generator_assignment":[1,0],"goal":7,"start":2,"action_noise":0.1,"location_history":"[2,6,7]","action_history":"[1,1]","door_history":"[0,0]","location_rts":"[14231,377]","trial_type":"two-door-navigation","trial_index":17,"time_elapsed":566038,"internal_node_id":"0.0-2.0-15.0"},{"group":"square cycles (cube, non-group)","room_assignment":["red","brown","purple","blue","yellow","pink","green","grey"],"door_color_assignment":["white","black"],"door_generator_assignment":[1,0],"goal":4,"start":7,"action_noise":0.1,"location_history":"[7,3,0,4]","action_history":"[1,1,1]","door_history":"[0,0,0]","location_rts":"[121778,241,196]","trial_type":"two-door-navigation","trial_index":18,"time_elapsed":694768,"internal_node_id":"0.0-2.0-16.0"},{"group":"square cycles (cube, non-group)","room_assignment":["red","brown","purple","blue","yellow","pink","green","grey"],"door_color_assignment":["white","black"],"door_generator_assignment":[1,0],"goal":2,"start":4,"action_noise":0.1,"location_history":"[4,5,1,0,4,5,1,0,4,5,1,0,4,5,1,0,4,5,1,0,1,0,4,5,1,2]","action_history":"[1,1,1,1,1,1,1,1,1,1,1,1,1,1,1,1,1,1,1,1,1,1,1,1,1]","door_history":"[0,0,0,0,0,0,0,0,0,0,0,0,0,0,0,0,0,0,0,0,0,0,0,0,0]","location_rts":"[686,324,206,215,244,253,219,148,107,97,82,197,212,203,229,202,172,477,12,4,7,104,3,43,41]","trial_type":"two-door-navigation","trial_index":19,"time_elapsed":727882,"internal_node_id":"0.0-2.0-17.0"},{"group":"square cycles (cube, non-group)","room_assignment":["red","brown","purple","blue","yellow","pink","green","grey"],"door_color_assignment":["white","black"],"door_generator_assignment":[1,0],"goal":3,"start":2,"action_noise":0.1,"location_history":"[2,6,7,3]","action_history":"[1,1,1]","door_history":"[0,0,0]","location_rts":"[654,60,98]","trial_type":"two-door-navigation","trial_index":20,"time_elapsed":735215,"internal_node_id":"0.0-2.0-18.0"},{"group":"square cycles (cube, non-group)","room_assignment":["red","brown","purple","blue","yellow","pink","green","grey"],"door_color_assignment":["white","black"],"door_generator_assignment":[1,0],"goal":6,"start":3,"action_noise":0.1,"location_history":"[3,2,6]","action_history":"[1,1]","door_history":"[0,0]","location_rts":"[481,41]","trial_type":"two-door-navigation","trial_index":21,"time_elapsed":741251,"internal_node_id":"0.0-2.0-19.0"},{"group":"square cycles (cube, non-group)","room_assignment":["red","brown","purple","blue","yellow","pink","green","grey"],"door_color_assignment":["white","black"],"door_generator_assignment":[1,0],"goal":5,"start":6,"action_noise":0.1,"location_history":"[6,7,3,2,6,7,3,2,3,0,4,5]","action_history":"[1,1,1,1,1,1,1,1,1,1,1]","door_history":"[0,0,0,0,0,0,0,0,0,0,0]","location_rts":"[325,99,75,108,102,107,102,131,107,129,164]","trial_type":"two-door-navigation","trial_index":22,"time_elapsed":757254,"internal_node_id":"0.0-2.0-20.0"},{"group":"square cycles (cube, non-group)","room_assignment":["red","brown","purple","blue","yellow","pink","green","grey"],"door_color_assignment":["white","black"],"door_generator_assignment":[1,0],"goal":1,"start":5,"action_noise":0.1,"location_history":"[5,1]","action_history":"[1]","door_history":"[0]","location_rts":"[943]","trial_type":"two-door-navigation","trial_index":23,"time_elapsed":762707,"internal_node_id":"0.0-2.0-21.0"},{"group":"square cycles (cube, non-group)","room_assignment":["red","brown","purple","blue","yellow","pink","green","grey"],"door_color_assignment":["white","black"],"door_generator_assignment":[1,0],"goal":0,"start":1,"action_noise":0.1,"location_history":"[1,2,6,7,3,2,3,2,6,7,3,2,6,7,3,2,6,7,3,2,6,7,3,2,3,2,6,7,6,7,3,2,6,7,3,2,6,7,3,0]","action_history":"[1,1,1,1,1,1,1,1,1,1,1,1,1,1,1,1,1,1,1,1,1,1,1,1,1,1,1,1,1,1,1,1,1,1,1,1,1,1,1]","door_history":"[0,0,0,0,0,0,0,0,0,0,0,0,0,0,0,0,0,0,0,0,0,0,0,0,0,0,0,0,0,0,0,0,0,0,0,0,0,0,0]","location_rts":"[418,171,126,123,89,117,98,116,118,111,95,92,106,277,206,277,116,53,363,109,19611,172,127,123,219,110,68,94,107,17447,64,129,105,153,110,87,129,139,110]","trial_type":"two-door-navigation","trial_index":24,"time_elapsed":847724,"internal_node_id":"0.0-2.0-22.0"},{"group":"square cycles (cube, non-group)","room_assignment":["red","brown","purple","blue","yellow","pink","green","grey"],"door_color_assignment":["white","black"],"door_generator_assignment":[1,0],"goal":2,"start":0,"action_noise":0.1,"location_history":"[0,4,5,1,0,4,5,1,0,4,5,4,7,6,5,4,7,6,5,4,7,6,7,3,2]","action_history":"[1,1,1,1,1,1,1,1,1,1,0,0,0,0,0,0,0,0,0,0,0,0,1,1]","door_history":"[0,0,0,0,0,0,0,0,0,0,1,1,1,1,1,1,1,1,1,1,1,1,0,0]","location_rts":"[322,163,98,105,49,60,66,163,178,169,91,31,123,212,114,613,12,198,417,0,87,266,228,64]","trial_type":"two-door-navigation","trial_index":25,"time_elapsed":879197,"internal_node_id":"0.0-2.0-23.0"},{"group":"square cycles (cube, non-group)","room_assignment":["red","brown","purple","blue","yellow","pink","green","grey"],"door_color_assignment":["white","black"],"door_generator_assignment":[1,0],"goal":6,"start":2,"action_noise":0.1,"location_history":"[2,6]","action_history":"[1]","door_history":"[0]","location_rts":"[11907]","trial_type":"two-door-navigation","trial_index":26,"time_elapsed":895613,"internal_node_id":"0.0-2.0-24.0"},{"group":"square cycles (cube, non-group)","room_assignment":["red","brown","purple","blue","yellow","pink","green","grey"],"door_color_assignment":["white","black"],"door_generator_assignment":[1,0],"goal":1,"start":6,"action_noise":0.1,"location_history":"[6,7,3,2,6,7,3,2,6,5,1]","action_history":"[1,1,1,1,1,1,1,1,1,1]","door_history":"[0,0,0,0,0,0,0,0,0,0]","location_rts":"[8066,235,38,48,93,219,181,50,185,160]","trial_type":"two-door-navigation","trial_index":27,"time_elapsed":918439,"internal_node_id":"0.0-2.0-25.0"},{"group":"square cycles (cube, non-group)","room_assignment":["red","brown","purple","blue","yellow","pink","green","grey"],"door_color_assignment":["white","black"],"door_generator_assignment":[1,0],"goal":3,"start":1,"action_noise":0.1,"location_history":"[1,0,4,5,1,0,4,5,1,0,1,0,4,7,6,7,3]","action_history":"[1,1,1,1,1,1,1,1,1,1,1,1,1,1,1,1]","door_history":"[0,0,0,0,0,0,0,0,0,0,0,0,0,0,0,0]","location_rts":"[256,107,186,52,182,95,107,123,136,78,137,146,106,136,140,187]","trial_type":"two-door-navigation","trial_index":28,"time_elapsed":940208,"internal_node_id":"0.0-2.0-26.0"},{"group":"square cycles (cube, non-group)","room_assignment":["red","brown","purple","blue","yellow","pink","green","grey"],"door_color_assignment":["white","black"],"door_generator_assignment":[1,0],"goal":7,"start":3,"action_noise":0.1,"location_history":"[3,2,6,7]","action_history":"[1,1,1]","door_history":"[0,0,0]","location_rts":"[9321,394,410]","trial_type":"two-door-navigation","trial_index":29,"time_elapsed":956855,"internal_node_id":"0.0-2.0-27.0"},{"group":"square cycles (cube, non-group)","room_assignment":["red","brown","purple","blue","yellow","pink","green","grey"],"door_color_assignment":["white","black"],"door_generator_assignment":[1,0],"goal":4,"start":7,"action_noise":0.1,"location_history":"[7,3,2,6,7,6,7,3,2,3,2,3,2,6,7,6,7,3,2,6,7,3,2,6,7,3,2,6,5,1,0,4]","action_history":"[1,1,1,1,1,1,1,1,1,1,1,1,1,1,1,1,1,1,1,1,1,1,1,1,1,1,1,1,1,1,1]","door_history":"[0,0,0,0,0,0,0,0,0,0,0,0,0,0,0,0,0,0,0,0,0,0,0,0,0,0,0,0,0,0,0]","location_rts":"[776,802,759,369,251,139,164,194,727,20299,30,58,121,124,181,53,216,104,11,196,44,256,234,195,389,221,443,97,178,253,18]","trial_type":"two-door-navigation","trial_index":30,"time_elapsed":1019405,"internal_node_id":"0.0-2.0-28.0"},{"group":"square cycles (cube, non-group)","room_assignment":["red","brown","purple","blue","yellow","pink","green","grey"],"door_color_assignment":["white","black"],"door_generator_assignment":[1,0],"goal":0,"start":4,"action_noise":0.1,"location_history":"[4,5,1,2,6,5,1,2,3,0]","action_history":"[1,1,0,1,0,1,0,1,0]","door_history":"[0,0,1,0,1,0,1,0,1]","location_rts":"[874,292,142,222,77,228,29,101,31]","trial_type":"two-door-navigation","trial_index":31,"time_elapsed":1033948,"internal_node_id":"0.0-2.0-29.0"},{"group":"square cycles (cube, non-group)","room_assignment":["red","brown","purple","blue","yellow","pink","green","grey"],"door_color_assignment":["white","black"],"door_generator_assignment":[1,0],"goal":5,"start":0,"action_noise":0.1,"location_history":"[0,4,7,3,0,4,5]","action_history":"[1,0,1,0,1,0]","door_history":"[0,1,0,1,0,1]","location_rts":"[370,381,429,109,88,125]","trial_type":"two-door-navigation","trial_index":32,"time_elapsed":1044972,"internal_node_id":"0.0-2.0-30.0"},{"group":"square cycles (cube, non-group)","room_assignment":["red","brown","purple","blue","yellow","pink","green","grey"],"door_color_assignment":["white","black"],"door_generator_assignment":[1,0],"goal":3,"start":5,"action_noise":0.1,"location_history":"[5,4,5,4,5,4,5,4,5,4,5,1,2,6,7,3]","action_history":"[0,1,0,1,0,1,0,1,0,1,1,0,1,1,1]","door_history":"[1,0,1,0,1,0,1,0,1,0,0,1,0,0,0]","location_rts":"[635,370,52,356,36,166,52,259,52,541,741,37,75,268,163]","trial_type":"two-door-navigation","trial_index":33,"time_elapsed":1067336,"internal_node_id":"0.0-2.0-31.0"},{"group":"square cycles (cube, non-group)","room_assignment":["red","brown","purple","blue","yellow","pink","green","grey"],"door_color_assignment":["white","black"],"door_generator_assignment":[1,0],"goal":2,"start":3,"action_noise":0.1,"location_history":"[3,2]","action_history":"[1]","door_history":"[0]","location_rts":"[409]","trial_type":"two-door-navigation","trial_index":34,"time_elapsed":1072249,"internal_node_id":"0.0-2.0-32.0"},{"group":"square cycles (cube, non-group)","room_assignment":["red","brown","purple","blue","yellow","pink","green","grey"],"door_color_assignment":["white","black"],"door_generator_assignment":[1,0],"goal":6,"start":2,"action_noise":0.1,"location_history":"[2,3,2,6]","action_history":"[1,1,1]","door_history":"[0,0,0]","location_rts":"[550,689,315]","trial_type":"two-door-navigation","trial_index":35,"time_elapsed":1080322,"internal_node_id":"0.0-2.0-33.0"},{"group":"square cycles (cube, non-group)","room_assignment":["red","brown","purple","blue","yellow","pink","green","grey"],"door_color_assignment":["white","black"],"door_generator_assignment":[1,0],"goal":1,"start":6,"action_noise":0.1,"location_history":"[6,7,3,2,6,7,3,2,6,7,3,2,3,0,1]","action_history":"[1,1,1,1,1,1,1,1,1,1,1,0,0,0]","door_history":"[0,0,0,0,0,0,0,0,0,0,0,1,1,1]","location_rts":"[478,256,278,326,238,468,292,273,278,299,276,445,284,317]","trial_type":"two-door-navigation","trial_index":36,"time_elapsed":1102394,"internal_node_id":"0.0-2.0-34.0"},{"group":"square cycles (cube, non-group)","room_assignment":["red","brown","purple","blue","yellow","pink","green","grey"],"door_color_assignment":["white","black"],"door_generator_assignment":[1,0],"goal":7,"start":1,"action_noise":0.1,"location_history":"[1,0,4,5,1,0,1,2,3,0,4,7]","action_history":"[1,1,1,1,1,0,0,0,0,0,0]","door_history":"[0,0,0,0,0,1,1,1,1,1,1]","location_rts":"[1791,346,443,348,220,996,355,335,259,269,194]","trial_type":"two-door-navigation","trial_index":37,"time_elapsed":1122501,"internal_node_id":"0.0-2.0-35.0"},{"group":"square cycles (cube, non-group)","room_assignment":["red","brown","purple","blue","yellow","pink","green","grey"],"door_color_assignment":["white","black"],"door_generator_assignment":[1,0],"goal":4,"start":7,"action_noise":0.1,"location_history":"[7,6,5,4]","action_history":"[0,0,0]","door_history":"[1,1,1]","location_rts":"[1520,194,251]","trial_type":"two-door-navigation","trial_index":38,"time_elapsed":1130994,"internal_node_id":"0.0-2.0-36.0"},{"group":"square cycles (cube, non-group)","room_assignment":["red","brown","purple","blue","yellow","pink","green","grey"],"door_color_assignment":["white","black"],"door_generator_assignment":[1,0],"goal":5,"start":4,"action_noise":0.1,"location_history":"[4,7,6,5]","action_history":"[0,0,0]","door_history":"[1,1,1]","location_rts":"[670,604,197]","trial_type":"two-door-navigation","trial_index":39,"time_elapsed":1138973,"internal_node_id":"0.0-2.0-37.0"},{"group":"square cycles (cube, non-group)","room_assignment":["red","brown","purple","blue","yellow","pink","green","grey"],"door_color_assignment":["white","black"],"door_generator_assignment":[1,0],"goal":0,"start":5,"action_noise":0.1,"location_history":"[5,4,7,6,5,4,7,3,0]","action_history":"[0,0,0,0,0,0,0,0]","door_history":"[1,1,1,1,1,1,1,1]","location_rts":"[882,374,317,324,345,315,381,389]","trial_type":"two-door-navigation","trial_index":40,"time_elapsed":1153842,"internal_node_id":"0.0-2.0-38.0"},{"group":"square cycles (cube, non-group)","room_assignment":["red","brown","purple","blue","yellow","pink","green","grey"],"door_color_assignment":["white","black"],"door_generator_assignment":[1,0],"goal":4,"start":0,"action_noise":0.1,"location_history":"[0,1,2,3,0,4]","action_history":"[0,0,0,0,0]","door_history":"[1,1,1,1,1]","location_rts":"[583,293,293,211,370]","trial_type":"two-door-navigation","trial_index":41,"time_elapsed":1164113,"internal_node_id":"0.0-2.0-39.0"},{"group":"square cycles (cube, non-group)","room_assignment":["red","brown","purple","blue","yellow","pink","green","grey"],"door_color_assignment":["white","black"],"door_generator_assignment":[1,0],"goal":0,"start":4,"action_noise":0.1,"location_history":"[4,7,6,5,4,7,6,7,6,5,4,7,6,5,4,7,6,5,4,5,4,5,1,0]","action_history":"[0,0,0,0,0,0,0,0,0,0,0,0,0,0,0,0,0,0,1,1,1,1,1]","door_history":"[1,1,1,1,1,1,1,1,1,1,1,1,1,1,1,1,1,1,0,0,0,0,0]","location_rts":"[5349,243,213,299,238,106,234,326,390,388,238,10,429,266,446,372,333,388,144,332,293,331,277]","trial_type":"two-door-navigation","trial_index":42,"time_elapsed":1202353,"internal_node_id":"0.0-2.0-40.0"},{"group":"square cycles (cube, non-group)","room_assignment":["red","brown","purple","blue","yellow","pink","green","grey"],"door_color_assignment":["white","black"],"door_generator_assignment":[1,0],"goal":2,"start":0,"action_noise":0.1,"location_history":"[0,4,5,1,0,4,5,1,0,4,5,1,2]","action_history":"[1,1,1,1,1,1,1,1,1,1,1,1]","door_history":"[0,0,0,0,0,0,0,0,0,0,0,0]","location_rts":"[2045,319,372,252,191,352,146,301,213,237,49,125]","trial_type":"two-door-navigation","trial_index":43,"time_elapsed":1222497,"internal_node_id":"0.0-2.0-41.0"},{"group":"square cycles (cube, non-group)","room_assignment":["red","brown","purple","blue","yellow","pink","green","grey"],"door_color_assignment":["white","black"],"door_generator_assignment":[1,0],"goal":3,"start":2,"action_noise":0.1,"location_history":"[2,3]","action_history":"[1]","door_history":"[0]","location_rts":"[2239]","trial_type":"two-door-navigation","trial_index":44,"time_elapsed":1229241,"internal_node_id":"0.0-2.0-42.0"},{"group":"square cycles (cube, non-group)","room_assignment":["red","brown","purple","blue","yellow","pink","green","grey"],"door_color_assignment":["white","black"],"door_generator_assignment":[1,0],"goal":5,"start":3,"action_noise":0.1,"location_history":"[3,2,6,7,3,2,6,7,3,0,4,5]","action_history":"[1,1,1,1,1,1,1,1,1,1,1]","door_history":"[0,0,0,0,0,0,0,0,0,0,0]","location_rts":"[422,585,258,357,449,614,220,218,272,306,373]","trial_type":"two-door-navigation","trial_index":45,"time_elapsed":1247877,"internal_node_id":"0.0-2.0-43.0"},{"group":"square cycles (cube, non-group)","room_assignment":["red","brown","purple","blue","yellow","pink","green","grey"],"door_color_assignment":["white","black"],"door_generator_assignment":[1,0],"goal":1,"start":5,"action_noise":0.1,"location_history":"[5,1]","action_history":"[1]","door_history":"[0]","location_rts":"[2455]","trial_type":"two-door-navigation","trial_index":46,"time_elapsed":1254839,"internal_node_id":"0.0-2.0-44.0"},{"group":"square cycles (cube, non-group)","room_assignment":["red","brown","purple","blue","yellow","pink","green","grey"],"door_color_assignment":["white","black"],"door_generator_assignment":[1,0],"goal":7,"start":1,"action_noise":0.1,"location_history":"[1,0,4,5,1,0,4,5,1,0,4,5,1,0,4,5,1,0,4,5,1,0,4,5,1,0,4,5,1,0,4,5,1,2,6,7]","action_history":"[1,1,1,1,1,1,1,1,1,1,1,1,1,1,1,1,1,1,1,1,1,1,1,1,1,1,1,1,1,1,1,1,1,1,1]","door_history":"[0,0,0,0,0,0,0,0,0,0,0,0,0,0,0,0,0,0,0,0,0,0,0,0,0,0,0,0,0,0,0,0,0,0,0]","location_rts":"[632,3094,83,150,398,267,517,540,1824,24049,53,168,118,167,6391,219,27,869,86,396,806,86,84,605,596,14522,426,197,116,85,164,229,189,197,102]","trial_type":"two-door-navigation","trial_index":47,"time_elapsed":1351921,"internal_node_id":"0.0-2.0-45.0"},{"group":"square cycles (cube, non-group)","room_assignment":["red","brown","purple","blue","yellow","pink","green","grey"],"door_color_assignment":["white","black"],"door_generator_assignment":[1,0],"goal":6,"start":7,"action_noise":0.1,"location_history":"[7,3,2,6]","action_history":"[1,1,1]","door_history":"[0,0,0]","location_rts":"[47263,30,11]","trial_type":"two-door-navigation","trial_index":48,"time_elapsed":1405739,"internal_node_id":"0.0-2.0-46.0"},{"group":"square cycles (cube, non-group)","room_assignment":["red","brown","purple","blue","yellow","pink","green","grey"],"door_color_assignment":["white","black"],"door_generator_assignment":[1,0],"goal":3,"start":6,"action_noise":0.1,"location_history":"[6,5,4,5,1,0,4,5,1,0,4,7,6,5,4,7,6,5,4,7,6,7,6,5,4,7,6,7,3]","action_history":"[1,1,1,1,1,1,1,1,1,1,0,0,0,0,0,0,0,0,0,0,0,0,0,0,0,1,1,1]","door_history":"[0,0,0,0,0,0,0,0,0,0,1,1,1,1,1,1,1,1,1,1,1,1,1,1,1,0,0,0]","location_rts":"[314,59,60,46,382,350,14,101,331,268,491,261,212,492,348,5,21,404,30,42,298,264,149,132,187,183,83,211]","trial_type":"two-door-navigation","trial_index":49,"time_elapsed":1443096,"internal_node_id":"0.0-2.0-47.0"},{"group":"square cycles (cube, non-group)","room_assignment":["red","brown","purple","blue","yellow","pink","green","grey"],"door_color_assignment":["white","black"],"door_generator_assignment":[1,0],"goal":0,"start":3,"action_noise":0.1,"location_history":"[3,2,6,7,3,0]","action_history":"[1,1,1,1,1]","door_history":"[0,0,0,0,0]","location_rts":"[513,64,70,219,258]","trial_type":"two-door-navigation","trial_index":50,"time_elapsed":1452742,"internal_node_id":"0.0-2.0-48.0"},{"group":"square cycles (cube, non-group)","room_assignment":["red","brown","purple","blue","yellow","pink","green","grey"],"door_color_assignment":["white","black"],"door_generator_assignment":[1,0],"goal":2,"start":0,"action_noise":0.1,"location_history":"[0,4,7,3,2]","action_history":"[1,1,1,1]","door_history":"[0,0,0,0]","location_rts":"[32866,173,76,111]","trial_type":"two-door-navigation","trial_index":51,"time_elapsed":1493484,"internal_node_id":"0.0-2.0-49.0"},{"view_history":"[{\"page_index\":0,\"viewing_time\":2013}]","rt":2013,"trial_type":"instructions","trial_index":52,"time_elapsed":1496497,"internal_node_id":"0.0-3.0"},{"view_history":"[{\"page_index\":0,\"viewing_time\":1206},{\"page_index\":1,\"viewing_time\":13777}]","rt":14983,"trial_type":"instructions","trial_index":53,"time_elapsed":1512481,"internal_node_id":"0.0-4.0"},{"group":"square cycles (cube, non-group)","fractal_assignment":["../images/org_blu.png","../images/grn_red.png","../images/cyn_red.png","../images/ylw_pnk.png","../images/gry_blk.png","../images/ylw_slt.png","../images/blu_wht.png","../images/pnk_blu.png"],"mutagen_generator_assignment":[1,0],"goal":3,"start":0,"action_noise":0.1,"location_history":"[0,4,5,1,0,4,5,4,7,6,5,4,7,3]","action_history":"[1,1,1,1,1,1,0,0,0,0,0,0,1]","mutagen_history":"[0,0,0,0,0,0,1,1,1,1,1,1,0]","location_rts":"[2311,1228,268,527,503,429,432,66,10,692,612,0,393]","trial_type":"fractal-mutation","trial_index":54,"time_elapsed":1536721,"internal_node_id":"0.0-5.0-0.0"},{"group":"square cycles (cube, non-group)","fractal_assignment":["../images/org_blu.png","../images/grn_red.png","../images/cyn_red.png","../images/ylw_pnk.png","../images/gry_blk.png","../images/ylw_slt.png","../images/blu_wht.png","../images/pnk_blu.png"],"mutagen_generator_assignment":[1,0],"goal":1,"start":3,"action_noise":0.1,"location_history":"[3,0,1]","action_history":"[0,0]","mutagen_history":"[1,1]","location_rts":"[1566,439]","trial_type":"fractal-mutation","trial_index":55,"time_elapsed":1544284,"internal_node_id":"0.0-5.0-1.0"},{"group":"square cycles (cube, non-group)","fractal_assignment":["../images/org_blu.png","../images/grn_red.png","../images/cyn_red.png","../images/ylw_pnk.png","../images/gry_blk.png","../images/ylw_slt.png","../images/blu_wht.png","../images/pnk_blu.png"],"mutagen_generator_assignment":[1,0],"goal":2,"start":1,"action_noise":0.1,"location_history":"[1,2]","action_history":"[1]","mutagen_history":"[0]","location_rts":"[499]","trial_type":"fractal-mutation","trial_index":56,"time_elapsed":1549303,"internal_node_id":"0.0-5.0-2.0"},{"group":"square cycles (cube, non-group)","fractal_assignment":["../images/org_blu.png","../images/grn_red.png","../images/cyn_red.png","../images/ylw_pnk.png","../images/gry_blk.png","../images/ylw_slt.png","../images/blu_wht.png","../images/pnk_blu.png"],"mutagen_generator_assignment":[1,0],"goal":6,"start":2,"action_noise":0.1,"location_history":"[2,6]","action_history":"[1]","mutagen_history":"[0]","location_rts":"[515]","trial_type":"fractal-mutation","trial_index":57,"time_elapsed":1554336,"internal_node_id":"0.0-5.0-3.0"},{"group":"square cycles (cube, non-group)","fractal_assignment":["../images/org_blu.png","../images/grn_red.png","../images/cyn_red.png","../images/ylw_pnk.png","../images/gry_blk.png","../images/ylw_slt.png","../images/blu_wht.png","../images/pnk_blu.png"],"mutagen_generator_assignment":[1,0],"goal":5,"start":6,"action_noise":0.1,"location_history":"[6,5]","action_history":"[0]","mutagen_history":"[1]","location_rts":"[4732]","trial_type":"fractal-mutation","trial_index":58,"time_elapsed":1563599,"internal_node_id":"0.0-5.0-4.0"},{"group":"square cycles (cube, non-group)","fractal_assignment":["../images/org_blu.png","../images/grn_red.png","../images/cyn_red.png","../images/ylw_pnk.png","../images/gry_blk.png","../images/ylw_slt.png","../images/blu_wht.png","../images/pnk_blu.png"],"mutagen_generator_assignment":[1,0],"goal":4,"start":5,"action_noise":0.1,"location_history":"[5,4]","action_history":"[0]","mutagen_history":"[1]","location_rts":"[943]","trial_type":"fractal-mutation","trial_index":59,"time_elapsed":1569071,"internal_node_id":"0.0-5.0-5.0"},{"group":"square cycles (cube, non-group)","fractal_assignment":["../images/org_blu.png","../images/grn_red.png","../images/cyn_red.png","../images/ylw_pnk.png","../images/gry_blk.png","../images/ylw_slt.png","../images/blu_wht.png","../images/pnk_blu.png"],"mutagen_generator_assignment":[1,0],"goal":7,"start":4,"action_noise":0.1,"location_history":"[4,5,1,0,1,0,1,0,4,7]","action_history":"[1,1,1,0,1,0,1,0,1]","mutagen_history":"[0,0,0,1,0,1,0,1,0]","location_rts":"[22330,634,354,952,370,308,147,188,180]","trial_type":"fractal-mutation","trial_index":60,"time_elapsed":1607182,"internal_node_id":"0.0-5.0-6.0"},{"group":"square cycles (cube, non-group)","fractal_assignment":["../images/org_blu.png","../images/grn_red.png","../images/cyn_red.png","../images/ylw_pnk.png","../images/gry_blk.png","../images/ylw_slt.png","../images/blu_wht.png","../images/pnk_blu.png"],"mutagen_generator_assignment":[1,0],"goal":4,"start":7,"action_noise":0.1,"location_history":"[7,3,0,4]","action_history":"[1,0,1]","mutagen_history":"[0,1,0]","location_rts":"[81204,2088,453]","trial_type":"fractal-mutation","trial_index":61,"time_elapsed":1697479,"internal_node_id":"0.0-5.0-7.0"},{"group":"square cycles (cube, non-group)","fractal_assignment":["../images/org_blu.png","../images/grn_red.png","../images/cyn_red.png","../images/ylw_pnk.png","../images/gry_blk.png","../images/ylw_slt.png","../images/blu_wht.png","../images/pnk_blu.png"],"mutagen_generator_assignment":[1,0],"goal":6,"start":4,"action_noise":0.1,"location_history":"[4,7,6]","action_history":"[1,0]","mutagen_history":"[0,1]","location_rts":"[735,649]","trial_type":"fractal-mutation","trial_index":62,"time_elapsed":1704401,"internal_node_id":"0.0-5.0-8.0"},{"group":"square cycles (cube, non-group)","fractal_assignment":["../images/org_blu.png","../images/grn_red.png","../images/cyn_red.png","../images/ylw_pnk.png","../images/gry_blk.png","../images/ylw_slt.png","../images/blu_wht.png","../images/pnk_blu.png"],"mutagen_generator_assignment":[1,0],"goal":0,"start":6,"action_noise":0.1,"location_history":"[6,7,3,2,6,7,3,2,6,5,4,7,6,5,4,7,6,7,3,0]","action_history":"[1,1,1,1,1,1,1,0,0,0,0,0,0,0,0,0,0,1,0]","mutagen_history":"[0,0,0,0,0,0,0,1,1,1,1,1,1,1,1,1,1,0,1]","location_rts":"[1727,363,336,339,321,3985,1772,517,408,372,374,446,319,342,353,411,482,480,701]","trial_type":"fractal-mutation","trial_index":63,"time_elapsed":1741278,"internal_node_id":"0.0-5.0-9.0"},{"group":"square cycles (cube, non-group)","fractal_assignment":["../images/org_blu.png","../images/grn_red.png","../images/cyn_red.png","../images/ylw_pnk.png","../images/gry_blk.png","../images/ylw_slt.png","../images/blu_wht.png","../images/pnk_blu.png"],"mutagen_generator_assignment":[1,0],"goal":1,"start":0,"action_noise":0.1,"location_history":"[0,4,7,3,2,3,2,3,0,1]","action_history":"[1,0,0,0,0,1,0,0,0]","mutagen_history":"[0,1,1,1,1,0,1,1,1]","location_rts":"[2396,452,385,347,409,358,400,456,429]","trial_type":"fractal-mutation","trial_index":64,"time_elapsed":1759611,"internal_node_id":"0.0-5.0-10.0"},{"group":"square cycles (cube, non-group)","fractal_assignment":["../images/org_blu.png","../images/grn_red.png","../images/cyn_red.png","../images/ylw_pnk.png","../images/gry_blk.png","../images/ylw_slt.png","../images/blu_wht.png","../images/pnk_blu.png"],"mutagen_generator_assignment":[1,0],"goal":3,"start":1,"action_noise":0.1,"location_history":"[1,0,4,5,1,0,4,5,1,0,1,2,3]","action_history":"[1,1,1,1,1,1,1,1,1,0,0,0]","mutagen_history":"[0,0,0,0,0,0,0,0,0,1,1,1]","location_rts":"[1146,402,372,330,328,354,372,303,415,397,375,350]","trial_type":"fractal-mutation","trial_index":65,"time_elapsed":1780453,"internal_node_id":"0.0-5.0-11.0"},{"group":"square cycles (cube, non-group)","fractal_assignment":["../images/org_blu.png","../images/grn_red.png","../images/cyn_red.png","../images/ylw_pnk.png","../images/gry_blk.png","../images/ylw_slt.png","../images/blu_wht.png","../images/pnk_blu.png"],"mutagen_generator_assignment":[1,0],"goal":7,"start":3,"action_noise":0.1,"location_history":"[3,0,1,2,3,0,1,2,3,0,1,0,1,2,6,5,4,7]","action_history":"[0,0,0,0,0,0,0,0,0,0,0,0,0,1,1,0,1]","mutagen_history":"[1,1,1,1,1,1,1,1,1,1,1,1,1,0,0,1,0]","location_rts":"[1422,405,441,1034,16502,445,418,587,568,394,364,326,342,309,477,487,247]","trial_type":"fractal-mutation","trial_index":66,"time_elapsed":1826054,"internal_node_id":"0.0-5.0-12.0"},{"group":"square cycles (cube, non-group)","fractal_assignment":["../images/org_blu.png","../images/grn_red.png","../images/cyn_red.png","../images/ylw_pnk.png","../images/gry_blk.png","../images/ylw_slt.png","../images/blu_wht.png","../images/pnk_blu.png"],"mutagen_generator_assignment":[1,0],"goal":5,"start":7,"action_noise":0.1,"location_history":"[7,3,0,1,2,3,0,4,7,3,2,6,7,3,0,4,7,6,5]","action_history":"[0,0,0,0,0,0,1,0,1,0,0,0,0,0,1,0,0,0]","mutagen_history":"[1,1,1,1,1,1,0,1,0,1,1,1,1,1,0,1,1,1]","location_rts":"[1509,378,385,292,137,418,130,194,133,83,67,50,45,64,72,139,50,127]","trial_type":"fractal-mutation","trial_index":67,"time_elapsed":1852161,"internal_node_id":"0.0-5.0-13.0"},{"group":"square cycles (cube, non-group)","fractal_assignment":["../images/org_blu.png","../images/grn_red.png","../images/cyn_red.png","../images/ylw_pnk.png","../images/gry_blk.png","../images/ylw_slt.png","../images/blu_wht.png","../images/pnk_blu.png"],"mutagen_generator_assignment":[1,0],"goal":2,"start":5,"action_noise":0.1,"location_history":"[5,4,7,6,5,4,5,4,7,6,5,4,7,6,7,3,2]","action_history":"[0,0,0,0,0,0,0,0,0,0,0,0,0,1,1,1]","mutagen_history":"[1,1,1,1,1,1,1,1,1,1,1,1,1,0,0,0]","location_rts":"[109,185,126,683,24,66,95,108,84,181,185,182,63,655,36,283]","trial_type":"fractal-mutation","trial_index":68,"time_elapsed":1875051,"internal_node_id":"0.0-5.0-14.0"},{"group":"square cycles (cube, non-group)","fractal_assignment":["../images/org_blu.png","../images/grn_red.png","../images/cyn_red.png","../images/ylw_pnk.png","../images/gry_blk.png","../images/ylw_slt.png","../images/blu_wht.png","../images/pnk_blu.png"],"mutagen_generator_assignment":[1,0],"goal":7,"start":2,"action_noise":0.1,"location_history":"[2,6,7]","action_history":"[1,1]","mutagen_history":"[0,0]","location_rts":"[274,182]","trial_type":"fractal-mutation","trial_index":69,"time_elapsed":1881050,"internal_node_id":"0.0-5.0-15.0"},{"group":"square cycles (cube, non-group)","fractal_assignment":["../images/org_blu.png","../images/grn_red.png","../images/cyn_red.png","../images/ylw_pnk.png","../images/gry_blk.png","../images/ylw_slt.png","../images/blu_wht.png","../images/pnk_blu.png"],"mutagen_generator_assignment":[1,0],"goal":4,"start":7,"action_noise":0.1,"location_history":"[7,3,0,1,2,6,7,6,7,3,0,4]","action_history":"[1,0,0,0,1,1,1,1,1,1,1]","mutagen_history":"[0,1,1,1,0,0,0,0,0,0,0]","location_rts":"[334,50,195,24,51,39,409,64,510,296,366]","trial_type":"fractal-mutation","trial_index":70,"time_elapsed":1898073,"internal_node_id":"0.0-5.0-16.0"},{"group":"square cycles (cube, non-group)","fractal_assignment":["../images/org_blu.png","../images/grn_red.png","../images/cyn_red.png","../images/ylw_pnk.png","../images/gry_blk.png","../images/ylw_slt.png","../images/blu_wht.png","../images/pnk_blu.png"],"mutagen_generator_assignment":[1,0],"goal":2,"start":4,"action_noise":0.1,"location_history":"[4,5,1,0,1,0,1,0,1,0,1,2]","action_history":"[1,1,1,1,1,0,1,0,1,0,0]","mutagen_history":"[0,0,0,0,0,1,0,1,0,1,1]","location_rts":"[109,201,35,85,47971,502,336,349,175,174,299]","trial_type":"fractal-mutation","trial_index":71,"time_elapsed":1963006,"internal_node_id":"0.0-5.0-17.0"},{"group":"square cycles (cube, non-group)","fractal_assignment":["../images/org_blu.png","../images/grn_red.png","../images/cyn_red.png","../images/ylw_pnk.png","../images/gry_blk.png","../images/ylw_slt.png","../images/blu_wht.png","../images/pnk_blu.png"],"mutagen_generator_assignment":[1,0],"goal":3,"start":2,"action_noise":0.1,"location_history":"[2,6,7,3]","action_history":"[1,1,1]","mutagen_history":"[0,0,0]","location_rts":"[481,288,295]","trial_type":"fractal-mutation","trial_index":72,"time_elapsed":1970621,"internal_node_id":"0.0-5.0-18.0"},{"group":"square cycles (cube, non-group)","fractal_assignment":["../images/org_blu.png","../images/grn_red.png","../images/cyn_red.png","../images/ylw_pnk.png","../images/gry_blk.png","../images/ylw_slt.png","../images/blu_wht.png","../images/pnk_blu.png"],"mutagen_generator_assignment":[1,0],"goal":6,"start":3,"action_noise":0.1,"location_history":"[3,2,6]","action_history":"[1,1]","mutagen_history":"[0,0]","location_rts":"[1031,254]","trial_type":"fractal-mutation","trial_index":73,"time_elapsed":1977443,"internal_node_id":"0.0-5.0-19.0"},{"group":"square cycles (cube, non-group)","fractal_assignment":["../images/org_blu.png","../images/grn_red.png","../images/cyn_red.png","../images/ylw_pnk.png","../images/gry_blk.png","../images/ylw_slt.png","../images/blu_wht.png","../images/pnk_blu.png"],"mutagen_generator_assignment":[1,0],"goal":5,"start":6,"action_noise":0.1,"location_history":"[6,7,3,2,6,7,3,2,6,5]","action_history":"[1,1,1,1,1,1,1,1,1]","mutagen_history":"[0,0,0,0,0,0,0,0,0]","location_rts":"[868,308,374,295,297,616,302,240,293]","trial_type":"fractal-mutation","trial_index":74,"time_elapsed":1993691,"internal_node_id":"0.0-5.0-20.0"},{"group":"square cycles (cube, non-group)","fractal_assignment":["../images/org_blu.png","../images/grn_red.png","../images/cyn_red.png","../images/ylw_pnk.png","../images/gry_blk.png","../images/ylw_slt.png","../images/blu_wht.png","../images/pnk_blu.png"],"mutagen_generator_assignment":[1,0],"goal":1,"start":5,"action_noise":0.1,"location_history":"[5,1]","action_history":"[1]","mutagen_history":"[0]","location_rts":"[1061]","trial_type":"fractal-mutation","trial_index":75,"time_elapsed":1999272,"internal_node_id":"0.0-5.0-21.0"},{"group":"square cycles (cube, non-group)","fractal_assignment":["../images/org_blu.png","../images/grn_red.png","../images/cyn_red.png","../images/ylw_pnk.png","../images/gry_blk.png","../images/ylw_slt.png","../images/blu_wht.png","../images/pnk_blu.png"],"mutagen_generator_assignment":[1,0],"goal":0,"start":1,"action_noise":0.1,"location_history":"[1,0]","action_history":"[1]","mutagen_history":"[0]","location_rts":"[868]","trial_type":"fractal-mutation","trial_index":76,"time_elapsed":2004654,"internal_node_id":"0.0-5.0-22.0"},{"group":"square cycles (cube, non-group)","fractal_assignment":["../images/org_blu.png","../images/grn_red.png","../images/cyn_red.png","../images/ylw_pnk.png","../images/gry_blk.png","../images/ylw_slt.png","../images/blu_wht.png","../images/pnk_blu.png"],"mutagen_generator_assignment":[1,0],"goal":2,"start":0,"action_noise":0.1,"location_history":"[0,4,5,1,0,4,5,4,5,1,0,4,5,4,7,6,5,4,5,4,5,4,5,4,7,6,7,6,7,6,7,6,7,6,7,6,5,4,7,6,5,4,7,6,5,4,5,1,2]","action_history":"[1,1,1,1,1,1,1,1,1,1,1,1,1,0,0,0,0,0,0,0,0,0,0,0,0,1,0,1,0,1,0,1,0,1,0,0,0,0,0,0,0,0,0,0,1,1,1,1]","mutagen_history":"[0,0,0,0,0,0,0,0,0,0,0,0,0,1,1,1,1,1,1,1,1,1,1,1,1,0,1,0,1,0,1,0,1,0,1,1,1,1,1,1,1,1,1,1,0,0,0,0]","location_rts":"[81333,217,333,568,353,361,313,368,341,317,367,287,353,346,274,288,269,290,373,239,222,295,254,341,462,466,338,312,307,322,370,333,278,344,327,409,357,166,407,363,267,272,193,370,651,202,113,333]","trial_type":"fractal-mutation","trial_index":77,"time_elapsed":2153735,"internal_node_id":"0.0-5.0-23.0"},{"group":"square cycles (cube, non-group)","fractal_assignment":["../images/org_blu.png","../images/grn_red.png","../images/cyn_red.png","../images/ylw_pnk.png","../images/gry_blk.png","../images/ylw_slt.png","../images/blu_wht.png","../images/pnk_blu.png"],"mutagen_generator_assignment":[1,0],"goal":6,"start":2,"action_noise":0.1,"location_history":"[2,6]","action_history":"[1]","mutagen_history":"[0]","location_rts":"[493]","trial_type":"fractal-mutation","trial_index":78,"time_elapsed":2158749,"internal_node_id":"0.0-5.0-24.0"},{"group":"square cycles (cube, non-group)","fractal_assignment":["../images/org_blu.png","../images/grn_red.png","../images/cyn_red.png","../images/ylw_pnk.png","../images/gry_blk.png","../images/ylw_slt.png","../images/blu_wht.png","../images/pnk_blu.png"],"mutagen_generator_assignment":[1,0],"goal":1,"start":6,"action_noise":0.1,"location_history":"[6,7,3,2,6,7,3,2,6,7,3,0,4,5,4,7,6,7,6,7,3,2,6,7,6,7,3,2,6,7,3,0,4,5,1]","action_history":"[1,1,1,1,1,1,1,1,0,1,0,1,1,0,0,0,0,1,1,1,1,1,1,0,1,1,1,1,1,1,1,1,1,1]","mutagen_history":"[0,0,0,0,0,0,0,0,1,0,1,0,0,1,1,1,1,0,0,0,0,0,0,1,0,0,0,0,0,0,0,0,0,0]","location_rts":"[439,268,250,354,367,252426,234,514,309,320,255,218,58961,598,227,115,144,154,235,242,13,258049,4582,4522,21199,41,50,40,44,36,34,48,46,40]","trial_type":"fractal-mutation","trial_index":79,"time_elapsed":2802200,"internal_node_id":"0.0-5.0-25.0"},{"group":"square cycles (cube, non-group)","fractal_assignment":["../images/org_blu.png","../images/grn_red.png","../images/cyn_red.png","../images/ylw_pnk.png","../images/gry_blk.png","../images/ylw_slt.png","../images/blu_wht.png","../images/pnk_blu.png"],"mutagen_generator_assignment":[1,0],"goal":3,"start":1,"action_noise":0.1,"location_history":"[1,2,3]","action_history":"[0,0]","mutagen_history":"[1,1]","location_rts":"[225,44]","trial_type":"fractal-mutation","trial_index":80,"time_elapsed":2808006,"internal_node_id":"0.0-5.0-26.0"},{"group":"square cycles (cube, non-group)","fractal_assignment":["../images/org_blu.png","../images/grn_red.png","../images/cyn_red.png","../images/ylw_pnk.png","../images/gry_blk.png","../images/ylw_slt.png","../images/blu_wht.png","../images/pnk_blu.png"],"mutagen_generator_assignment":[1,0],"goal":7,"start":3,"action_noise":0.1,"location_history":"[3,2,6,7]","action_history":"[1,1,1]","mutagen_history":"[0,0,0]","location_rts":"[261,43,50]","trial_type":"fractal-mutation","trial_index":81,"time_elapsed":2814905,"internal_node_id":"0.0-5.0-27.0"},{"group":"square cycles (cube, non-group)","fractal_assignment":["../images/org_blu.png","../images/grn_red.png","../images/cyn_red.png","../images/ylw_pnk.png","../images/gry_blk.png","../images/ylw_slt.png","../images/blu_wht.png","../images/pnk_blu.png"],"mutagen_generator_assignment":[1,0],"goal":4,"start":7,"action_noise":0.1,"location_history":"[7,6,5,4]","action_history":"[0,0,0]","mutagen_history":"[1,1,1]","location_rts":"[234,44,31]","trial_type":"fractal-mutation","trial_index":82,"time_elapsed":2821773,"internal_node_id":"0.0-5.0-28.0"},{"group":"square cycles (cube, non-group)","fractal_assignment":["../images/org_blu.png","../images/grn_red.png","../images/cyn_red.png","../images/ylw_pnk.png","../images/gry_blk.png","../images/ylw_slt.png","../images/blu_wht.png","../images/pnk_blu.png"],"mutagen_generator_assignment":[1,0],"goal":0,"start":4,"action_noise":0.1,"location_history":"[4,5,1,0]","action_history":"[1,1,1]","mutagen_history":"[0,0,0]","location_rts":"[259,41,47]","trial_type":"fractal-mutation","trial_index":83,"time_elapsed":2828673,"internal_node_id":"0.0-5.0-29.0"},{"group":"square cycles (cube, non-group)","fractal_assignment":["../images/org_blu.png","../images/grn_red.png","../images/cyn_red.png","../images/ylw_pnk.png","../images/gry_blk.png","../images/ylw_slt.png","../images/blu_wht.png","../images/pnk_blu.png"],"mutagen_generator_assignment":[1,0],"goal":5,"start":0,"action_noise":0.1,"location_history":"[0,1,2,3,2,3,2,3,0,1,2,6,5]","action_history":"[0,0,0,0,0,0,0,0,0,0,0,0]","mutagen_history":"[1,1,1,1,1,1,1,1,1,1,1,1]","location_rts":"[252,41,40,46,86,55,39,44,41,29,42,39]","trial_type":"fractal-mutation","trial_index":84,"time_elapsed":2845188,"internal_node_id":"0.0-5.0-30.0"},{"group":"square cycles (cube, non-group)","fractal_assignment":["../images/org_blu.png","../images/grn_red.png","../images/cyn_red.png","../images/ylw_pnk.png","../images/gry_blk.png","../images/ylw_slt.png","../images/blu_wht.png","../images/pnk_blu.png"],"mutagen_generator_assignment":[1,0],"goal":3,"start":5,"action_noise":0.1,"location_history":"[5,1,0,4,5,4,5,1,0,4,5,1,0,1,0,4,7,3]","action_history":"[1,1,1,1,1,1,1,1,1,1,1,1,1,1,1,1,1]","mutagen_history":"[0,0,0,0,0,0,0,0,0,0,0,0,0,0,0,0,0]","location_rts":"[253,52,47,64,46,50,50,45,53,51,49,49,38,49,53,51,44]","trial_type":"fractal-mutation","trial_index":85,"time_elapsed":2866996,"internal_node_id":"0.0-5.0-31.0"},{"group":"square cycles (cube, non-group)","fractal_assignment":["../images/org_blu.png","../images/grn_red.png","../images/cyn_red.png","../images/ylw_pnk.png","../images/gry_blk.png","../images/ylw_slt.png","../images/blu_wht.png","../images/pnk_blu.png"],"mutagen_generator_assignment":[1,0],"goal":2,"start":3,"action_noise":0.1,"location_history":"[3,0,1,2]","action_history":"[0,0,0]","mutagen_history":"[1,1,1]","location_rts":"[241,37,42]","trial_type":"fractal-mutation","trial_index":86,"time_elapsed":2873880,"internal_node_id":"0.0-5.0-32.0"},{"group":"square cycles (cube, non-group)","fractal_assignment":["../images/org_blu.png","../images/grn_red.png","../images/cyn_red.png","../images/ylw_pnk.png","../images/gry_blk.png","../images/ylw_slt.png","../images/blu_wht.png","../images/pnk_blu.png"],"mutagen_generator_assignment":[1,0],"goal":6,"start":2,"action_noise":0.1,"location_history":"[2,6]","action_history":"[1]","mutagen_history":"[0]","location_rts":"[270]","trial_type":"fractal-mutation","trial_index":87,"time_elapsed":2878665,"internal_node_id":"0.0-5.0-33.0"},{"group":"square cycles (cube, non-group)","fractal_assignment":["../images/org_blu.png","../images/grn_red.png","../images/cyn_red.png","../images/ylw_pnk.png","../images/gry_blk.png","../images/ylw_slt.png","../images/blu_wht.png","../images/pnk_blu.png"],"mutagen_generator_assignment":[1,0],"goal":1,"start":6,"action_noise":0.1,"location_history":"[6,5,4,7,6,5,4,7,3,2,6,5,1]","action_history":"[0,0,0,0,0,0,0,1,1,1,1,1]","mutagen_history":"[1,1,1,1,1,1,1,0,0,0,0,0]","location_rts":"[257,39,41,40,46,46,220,427,48,48,41,53]","trial_type":"fractal-mutation","trial_index":88,"time_elapsed":2895667,"internal_node_id":"0.0-5.0-34.0"},{"group":"square cycles (cube, non-group)","fractal_assignment":["../images/org_blu.png","../images/grn_red.png","../images/cyn_red.png","../images/ylw_pnk.png","../images/gry_blk.png","../images/ylw_slt.png","../images/blu_wht.png","../images/pnk_blu.png"],"mutagen_generator_assignment":[1,0],"goal":7,"start":1,"action_noise":0.1,"location_history":"[1,2,3,0,1,2,3,0,1,2,3,0,1,2,3,2,3,2,3,0,1,2,6,7]","action_history":"[0,0,0,0,0,0,0,0,0,0,0,0,0,0,0,0,0,0,0,0,0,0,0]","mutagen_history":"[1,1,1,1,1,1,1,1,1,1,1,1,1,1,1,1,1,1,1,1,1,1,1]","location_rts":"[255,43,41,46,32,51,40,38,48,34,40,36,46,49,44,49,46,50,47,44,44,48,39]","trial_type":"fractal-mutation","trial_index":89,"time_elapsed":2923811,"internal_node_id":"0.0-5.0-35.0"},{"group":"square cycles (cube, non-group)","fractal_assignment":["../images/org_blu.png","../images/grn_red.png","../images/cyn_red.png","../images/ylw_pnk.png","../images/gry_blk.png","../images/ylw_slt.png","../images/blu_wht.png","../images/pnk_blu.png"],"mutagen_generator_assignment":[1,0],"goal":4,"start":7,"action_noise":0.1,"location_history":"[7,3,2,6,7,3,2,6,7,3,2,6,7,3,2,6,7,3,2,6,7,6,7,3,2,6,7,3,2,6,7,3,2,6,7,3,0,4]","action_history":"[1,1,1,1,1,1,1,1,1,1,1,1,1,1,1,1,1,1,1,1,1,1,1,1,1,1,1,1,1,1,1,1,1,1,1,1,1]","mutagen_history":"[0,0,0,0,0,0,0,0,0,0,0,0,0,0,0,0,0,0,0,0,0,0,0,0,0,0,0,0,0,0,0,0,0,0,0,0,0]","location_rts":"[302,56,45,53,52,55,59,62,54,50,49,47,53,47,59,53,61,55,55,58,32,53,45,57,57,53,50,51,54,60,49,59,48,66,55,58,56]","trial_type":"fractal-mutation","trial_index":90,"time_elapsed":2967103,"internal_node_id":"0.0-5.0-36.0"},{"group":"square cycles (cube, non-group)","fractal_assignment":["../images/org_blu.png","../images/grn_red.png","../images/cyn_red.png","../images/ylw_pnk.png","../images/gry_blk.png","../images/ylw_slt.png","../images/blu_wht.png","../images/pnk_blu.png"],"mutagen_generator_assignment":[1,0],"goal":5,"start":4,"action_noise":0.1,"location_history":"[4,7,6,5]","action_history":"[0,0,0]","mutagen_history":"[1,1,1]","location_rts":"[288,46,49]","trial_type":"fractal-mutation","trial_index":91,"time_elapsed":2974045,"internal_node_id":"0.0-5.0-37.0"},{"group":"square cycles (cube, non-group)","fractal_assignment":["../images/org_blu.png","../images/grn_red.png","../images/cyn_red.png","../images/ylw_pnk.png","../images/gry_blk.png","../images/ylw_slt.png","../images/blu_wht.png","../images/pnk_blu.png"],"mutagen_generator_assignment":[1,0],"goal":0,"start":5,"action_noise":0.1,"location_history":"[5,4,5,1,0]","action_history":"[1,1,1,1]","mutagen_history":"[0,0,0,0]","location_rts":"[298,60,53,57]","trial_type":"fractal-mutation","trial_index":92,"time_elapsed":2982079,"internal_node_id":"0.0-5.0-38.0"},{"group":"square cycles (cube, non-group)","fractal_assignment":["../images/org_blu.png","../images/grn_red.png","../images/cyn_red.png","../images/ylw_pnk.png","../images/gry_blk.png","../images/ylw_slt.png","../images/blu_wht.png","../images/pnk_blu.png"],"mutagen_generator_assignment":[1,0],"goal":4,"start":0,"action_noise":0.1,"location_history":"[0,1,2,3,0,1,2,6,5,4]","action_history":"[0,0,0,0,0,0,0,0,0]","mutagen_history":"[1,1,1,1,1,1,1,1,1]","location_rts":"[296,57,54,38,57,55,50,52,41]","trial_type":"fractal-mutation","trial_index":93,"time_elapsed":2995456,"internal_node_id":"0.0-5.0-39.0"},{"group":"square cycles (cube, non-group)","fractal_assignment":["../images/org_blu.png","../images/grn_red.png","../images/cyn_red.png","../images/ylw_pnk.png","../images/gry_blk.png","../images/ylw_slt.png","../images/blu_wht.png","../images/pnk_blu.png"],"mutagen_generator_assignment":[1,0],"goal":0,"start":4,"action_noise":0.1,"location_history":"[4,5,1,0]","action_history":"[1,1,1]","mutagen_history":"[0,0,0]","location_rts":"[296,50,56]","trial_type":"fractal-mutation","trial_index":94,"time_elapsed":3002399,"internal_node_id":"0.0-5.0-40.0"},{"group":"square cycles (cube, non-group)","fractal_assignment":["../images/org_blu.png","../images/grn_red.png","../images/cyn_red.png","../images/ylw_pnk.png","../images/gry_blk.png","../images/ylw_slt.png","../images/blu_wht.png","../images/pnk_blu.png"],"mutagen_generator_assignment":[1,0],"goal":2,"start":0,"action_noise":0.1,"location_history":"[0,1,2]","action_history":"[0,0]","mutagen_history":"[1,1]","location_rts":"[289,49]","trial_type":"fractal-mutation","trial_index":95,"time_elapsed":3008282,"internal_node_id":"0.0-5.0-41.0"},{"group":"square cycles (cube, non-group)","fractal_assignment":["../images/org_blu.png","../images/grn_red.png","../images/cyn_red.png","../images/ylw_pnk.png","../images/gry_blk.png","../images/ylw_slt.png","../images/blu_wht.png","../images/pnk_blu.png"],"mutagen_generator_assignment":[1,0],"goal":3,"start":2,"action_noise":0.1,"location_history":"[2,6,7,3]","action_history":"[1,1,1]","mutagen_history":"[0,0,0]","location_rts":"[292,49,60]","trial_type":"fractal-mutation","trial_index":96,"time_elapsed":3015230,"internal_node_id":"0.0-5.0-42.0"},{"group":"square cycles (cube, non-group)","fractal_assignment":["../images/org_blu.png","../images/grn_red.png","../images/cyn_red.png","../images/ylw_pnk.png","../images/gry_blk.png","../images/ylw_slt.png","../images/blu_wht.png","../images/pnk_blu.png"],"mutagen_generator_assignment":[1,0],"goal":5,"start":3,"action_noise":0.1,"location_history":"[3,0,1,2,3,0,1,2,3,0,1,2,3,0,1,0,1,2,3,0,1,2,3,0,1,2,3,0,1,2,3,0,1,2,3,0,1,2,3,0,1,2,3,0,1,2,3,0,1,2,3,0,1,2,3,0,1,2,3,0,1,2,3,0,1,2,3,0,1,2,3,0,1,2,3,0,1,2,3,0,1,2,3,0,1,0,1,2,3,0,1,2,3,0,1,2,3,0,1,2,3,0,1,2,3,0,1,2,3,2,3,0,1,2,3,0,1,2,3,0,1,2,6,5]","action_history":"[0,0,0,0,0,0,0,0,0,0,0,0,0,0,0,0,0,0,0,0,0,0,0,0,0,0,0,0,0,0,0,0,0,0,0,0,0,0,0,0,0,0,0,0,0,0,0,0,0,0,0,0,0,0,0,0,0,0,0,0,0,0,0,0,0,0,0,0,0,0,0,0,0,0,0,0,0,0,0,0,0,0,0,0,0,0,0,0,0,0,0,0,0,0,0,0,0,0,0,0,0,0,0,0,0,0,0,0,0,0,0,0,0,0,0,0,0,0,0,0,0,0,0]","mutagen_history":"[1,1,1,1,1,1,1,1,1,1,1,1,1,1,1,1,1,1,1,1,1,1,1,1,1,1,1,1,1,1,1,1,1,1,1,1,1,1,1,1,1,1,1,1,1,1,1,1,1,1,1,1,1,1,1,1,1,1,1,1,1,1,1,1,1,1,1,1,1,1,1,1,1,1,1,1,1,1,1,1,1,1,1,1,1,1,1,1,1,1,1,1,1,1,1,1,1,1,1,1,1,1,1,1,1,1,1,1,1,1,1,1,1,1,1,1,1,1,1,1,1,1,1]","location_rts":"[293,54,44,50,52,53,48,55,51,49,46,38,44,49,54,56,52,57,39,54,45,54,50,51,49,55,47,57,52,55,54,40,55,54,52,57,46,51,51,213,56,45,45,51,55,47,54,53,54,46,67,53,53,58,50,52,54,49,43,60,46,57,47,54,45,60,51,47,57,52,61,61,54,51,49,58,51,56,53,47,57,43,61,61,56,54,60,49,50,54,54,52,58,53,64,62,53,50,59,58,57,46,43,59,63,56,59,59,58,52,46,64,53,58,48,60,56,57,63,51,59,57,59]","trial_type":"fractal-mutation","trial_index":97,"time_elapsed":3151035,"internal_node_id":"0.0-5.0-43.0"},{"group":"square cycles (cube, non-group)","fractal_assignment":["../images/org_blu.png","../images/grn_red.png","../images/cyn_red.png","../images/ylw_pnk.png","../images/gry_blk.png","../images/ylw_slt.png","../images/blu_wht.png","../images/pnk_blu.png"],"mutagen_generator_assignment":[1,0],"goal":1,"start":5,"action_noise":0.1,"location_history":"[5,1]","action_history":"[1]","mutagen_history":"[0]","location_rts":"[336]","trial_type":"fractal-mutation","trial_index":98,"time_elapsed":3155890,"internal_node_id":"0.0-5.0-44.0"},{"group":"square cycles (cube, non-group)","fractal_assignment":["../images/org_blu.png","../images/grn_red.png","../images/cyn_red.png","../images/ylw_pnk.png","../images/gry_blk.png","../images/ylw_slt.png","../images/blu_wht.png","../images/pnk_blu.png"],"mutagen_generator_assignment":[1,0],"goal":7,"start":1,"action_noise":0.1,"location_history":"[1,2,3,0,1,2,6,7]","action_history":"[0,0,0,0,0,0,0]","mutagen_history":"[1,1,1,1,1,1,1]","location_rts":"[322,62,61,63,61,58,56]","trial_type":"fractal-mutation","trial_index":99,"time_elapsed":3167207,"internal_node_id":"0.0-5.0-45.0"},{"group":"square cycles (cube, non-group)","fractal_assignment":["../images/org_blu.png","../images/grn_red.png","../images/cyn_red.png","../images/ylw_pnk.png","../images/gry_blk.png","../images/ylw_slt.png","../images/blu_wht.png","../images/pnk_blu.png"],"mutagen_generator_assignment":[1,0],"goal":6,"start":7,"action_noise":0.1,"location_history":"[7,3,2,6]","action_history":"[1,1,1]","mutagen_history":"[0,0,0]","location_rts":"[367,76,79]","trial_type":"fractal-mutation","trial_index":100,"time_elapsed":3174276,"internal_node_id":"0.0-5.0-46.0"},{"group":"square cycles (cube, non-group)","fractal_assignment":["../images/org_blu.png","../images/grn_red.png","../images/cyn_red.png","../images/ylw_pnk.png","../images/gry_blk.png","../images/ylw_slt.png","../images/blu_wht.png","../images/pnk_blu.png"],"mutagen_generator_assignment":[1,0],"goal":3,"start":6,"action_noise":0.1,"location_history":"[6,5,4,7,6,5,4,7,6,5,4,7,6,7,6,5,4,7,6,5,4,7,6,5,4,7,6,5,4,7,3]","action_history":"[0,0,0,0,0,0,0,0,0,0,0,0,0,0,0,0,0,0,0,0,0,0,0,0,0,0,0,0,0,0]","mutagen_history":"[1,1,1,1,1,1,1,1,1,1,1,1,1,1,1,1,1,1,1,1,1,1,1,1,1,1,1,1,1,1]","location_rts":"[325,60,181,54,63,66,60,62,41,61,60,67,55,67,54,65,59,64,55,64,57,59,52,62,51,57,62,64,53,57]","trial_type":"fractal-mutation","trial_index":101,"time_elapsed":3210537,"internal_node_id":"0.0-5.0-47.0"},{"group":"square cycles (cube, non-group)","fractal_assignment":["../images/org_blu.png","../images/grn_red.png","../images/cyn_red.png","../images/ylw_pnk.png","../images/gry_blk.png","../images/ylw_slt.png","../images/blu_wht.png","../images/pnk_blu.png"],"mutagen_generator_assignment":[1,0],"goal":0,"start":3,"action_noise":0.1,"location_history":"[3,2,6,7,3,2,6,7,3,2,6,7,3,2,6,7,3,2,6,7,3,2,6,7,3,2,6,7,3,2,6,7,3,2,6,7,3,2,6,7,6,7,3,0]","action_history":"[1,1,1,1,1,1,1,1,1,1,1,1,1,1,1,1,1,1,1,1,1,1,1,1,1,1,1,1,1,1,1,1,1,1,1,1,1,1,1,1,1,1,1]","mutagen_history":"[0,0,0,0,0,0,0,0,0,0,0,0,0,0,0,0,0,0,0,0,0,0,0,0,0,0,0,0,0,0,0,0,0,0,0,0,0,0,0,0,0,0,0]","location_rts":"[341,71,62,86,65,64,63,61,64,67,71,65,67,58,61,66,71,67,69,55,65,59,79,68,66,66,70,74,72,69,61,71,66,62,63,71,68,73,63,75,66,80,64]","trial_type":"fractal-mutation","trial_index":102,"time_elapsed":3260892,"internal_node_id":"0.0-5.0-48.0"},{"group":"square cycles (cube, non-group)","fractal_assignment":["../images/org_blu.png","../images/grn_red.png","../images/cyn_red.png","../images/ylw_pnk.png","../images/gry_blk.png","../images/ylw_slt.png","../images/blu_wht.png","../images/pnk_blu.png"],"mutagen_generator_assignment":[1,0],"goal":2,"start":0,"action_noise":0.1,"location_history":"[0,1,2]","action_history":"[0,0]","mutagen_history":"[1,1]","location_rts":"[335,58]","trial_type":"fractal-mutation","trial_index":103,"time_elapsed":3266823,"internal_node_id":"0.0-5.0-49.0"},{"view_history":"[{\"page_index\":0,\"viewing_time\":25002}]","rt":25002,"trial_type":"instructions","trial_index":104,"time_elapsed":3292825,"internal_node_id":"0.0-6.0"},{"rt":16310,"responses":"{\"Q0\":\"This was really fun! I think i was bad at it, but it was fun. Thank you.\"}","trial_type":"survey-text","trial_index":105,"time_elapsed":3310140,"internal_node_id":"0.0-7.0"}]