[{"view_history":"[{\"page_index\":0,\"viewing_time\":7387},{\"page_index\":1,\"viewing_time\":161060},{\"page_index\":2,\"viewing_time\":19830},{\"page_index\":3,\"viewing_time\":6350}]","rt":194629,"trial_type":"instructions","trial_index":0,"time_elapsed":194629,"internal_node_id":"0.0-0.0"},{"view_history":"[{\"page_index\":0,\"viewing_time\":2390},{\"page_index\":1,\"viewing_time\":57780}]","rt":60170,"trial_type":"instructions","trial_index":1,"time_elapsed":255800,"internal_node_id":"0.0-1.0"},{"group":"tri cycles (cube, non-group)","room_assignment":["yellow","grey","red","brown","purple","green","pink","blue"],"door_color_assignment":["black","white"],"door_generator_assignment":[0,1],"goal":3,"start":0,"action_noise":0.1,"location_history":"[0,3]","action_history":"[1]","door_history":"[1]","location_rts":"[2870]","trial_type":"two-door-navigation","trial_index":2,"time_elapsed":263189,"internal_node_id":"0.0-2.0-0.0"},{"group":"tri cycles (cube, non-group)","room_assignment":["yellow","grey","red","brown","purple","green","pink","blue"],"door_color_assignment":["black","white"],"door_generator_assignment":[0,1],"goal":1,"start":3,"action_noise":0.1,"location_history":"[3,4,0,3,7,6,4,0,2,1]","action_history":"[1,1,1,0,0,0,0,0,0]","door_history":"[1,1,1,0,0,0,0,0,0]","location_rts":"[2045,1438,1209,1486,845,1016,827,645,591]","trial_type":"two-door-navigation","trial_index":3,"time_elapsed":285858,"internal_node_id":"0.0-2.0-1.0"},{"group":"tri cycles (cube, non-group)","room_assignment":["yellow","grey","red","brown","purple","green","pink","blue"],"door_color_assignment":["black","white"],"door_generator_assignment":[0,1],"goal":2,"start":1,"action_noise":0.1,"location_history":"[1,0,3,7,6,4,7,6,4,7,3,7,3,4,0,3,4,7,6,4,0,2]","action_history":"[0,0,0,0,0,0,0,0,0,1,0,1,1,1,1,1,0,1,0,1,0]","door_history":"[0,0,0,0,0,0,0,0,0,1,0,1,1,1,1,1,0,1,0,1,0]","location_rts":"[2554,484,446,438,506,386,393,401,489,794,812,370,495,465,398,344,741,518,701,820,646]","trial_type":"two-door-navigation","trial_index":4,"time_elapsed":323731,"internal_node_id":"0.0-2.0-2.0"},{"group":"tri cycles (cube, non-group)","room_assignment":["yellow","grey","red","brown","purple","green","pink","blue"],"door_color_assignment":["black","white"],"door_generator_assignment":[0,1],"goal":6,"start":2,"action_noise":0.1,"location_history":"[2,1,0,2,6]","action_history":"[0,0,0,0]","door_history":"[0,0,0,0]","location_rts":"[25070,461,493,406]","trial_type":"two-door-navigation","trial_index":5,"time_elapsed":357686,"internal_node_id":"0.0-2.0-3.0"},{"group":"tri cycles (cube, non-group)","room_assignment":["yellow","grey","red","brown","purple","green","pink","blue"],"door_color_assignment":["black","white"],"door_generator_assignment":[0,1],"goal":5,"start":6,"action_noise":0.1,"location_history":"[6,5]","action_history":"[1]","door_history":"[1]","location_rts":"[1786]","trial_type":"two-door-navigation","trial_index":6,"time_elapsed":363980,"internal_node_id":"0.0-2.0-4.0"},{"group":"tri cycles (cube, non-group)","room_assignment":["yellow","grey","red","brown","purple","green","pink","blue"],"door_color_assignment":["black","white"],"door_generator_assignment":[0,1],"goal":4,"start":5,"action_noise":0.1,"location_history":"[5,1,0,2,1,0,2,1,0,3,4]","action_history":"[0,0,0,0,0,0,0,0,1,1]","door_history":"[0,0,0,0,0,0,0,0,1,1]","location_rts":"[1807,491,500,443,378,403,461,416,385,378]","trial_type":"two-door-navigation","trial_index":7,"time_elapsed":383217,"internal_node_id":"0.0-2.0-5.0"},{"group":"tri cycles (cube, non-group)","room_assignment":["yellow","grey","red","brown","purple","green","pink","blue"],"door_color_assignment":["black","white"],"door_generator_assignment":[0,1],"goal":7,"start":4,"action_noise":0.1,"location_history":"[4,7]","action_history":"[0]","door_history":"[0]","location_rts":"[1904]","trial_type":"two-door-navigation","trial_index":8,"time_elapsed":389628,"internal_node_id":"0.0-2.0-6.0"},{"group":"tri cycles (cube, non-group)","room_assignment":["yellow","grey","red","brown","purple","green","pink","blue"],"door_color_assignment":["black","white"],"door_generator_assignment":[0,1],"goal":4,"start":7,"action_noise":0.1,"location_history":"[7,6,4]","action_history":"[0,0]","door_history":"[0,0]","location_rts":"[2518,384]","trial_type":"two-door-navigation","trial_index":9,"time_elapsed":398048,"internal_node_id":"0.0-2.0-7.0"},{"group":"tri cycles (cube, non-group)","room_assignment":["yellow","grey","red","brown","purple","green","pink","blue"],"door_color_assignment":["black","white"],"door_generator_assignment":[0,1],"goal":6,"start":4,"action_noise":0.1,"location_history":"[4,7,6]","action_history":"[0,0]","door_history":"[0,0]","location_rts":"[1925,373]","trial_type":"two-door-navigation","trial_index":10,"time_elapsed":405860,"internal_node_id":"0.0-2.0-8.0"},{"group":"tri cycles (cube, non-group)","room_assignment":["yellow","grey","red","brown","purple","green","pink","blue"],"door_color_assignment":["black","white"],"door_generator_assignment":[0,1],"goal":0,"start":6,"action_noise":0.1,"location_history":"[6,4,0]","action_history":"[1,1]","door_history":"[1,1]","location_rts":"[2171,325]","trial_type":"two-door-navigation","trial_index":11,"time_elapsed":413872,"internal_node_id":"0.0-2.0-9.0"},{"group":"tri cycles (cube, non-group)","room_assignment":["yellow","grey","red","brown","purple","green","pink","blue"],"door_color_assignment":["black","white"],"door_generator_assignment":[0,1],"goal":1,"start":0,"action_noise":0.1,"location_history":"[0,2,1]","action_history":"[0,0]","door_history":"[0,0]","location_rts":"[1603,375]","trial_type":"two-door-navigation","trial_index":12,"time_elapsed":421357,"internal_node_id":"0.0-2.0-10.0"},{"group":"tri cycles (cube, non-group)","room_assignment":["yellow","grey","red","brown","purple","green","pink","blue"],"door_color_assignment":["black","white"],"door_generator_assignment":[0,1],"goal":3,"start":1,"action_noise":0.1,"location_history":"[1,5,2,6,5,2,6,5,1,0,2,1,0,2,6,5,1,5,1,0,2,6,5,1,0,2,6,5,1,0,2,1,0,2,6,4,0,2,1,5,2,1,0,3]","action_history":"[1,1,1,1,1,1,1,0,0,0,0,0,0,0,1,0,1,0,1,0,1,0,0,0,0,1,1,0,0,0,0,0,0,1,0,1,0,0,1,1,0,0,1]","door_history":"[1,1,1,1,1,1,1,0,0,0,0,0,0,0,1,0,1,0,1,0,1,0,0,0,0,1,1,0,0,0,0,0,0,1,0,1,0,0,1,1,0,0,1]","location_rts":"[2274,357,409,419,457,380,294,1015,296,354,382,965,366,358,1235,427,715,375,685,586,733,384,483,436,380,922,1812,385,425,339,361,372,336,1158,937,796,849,495,429,282,571,306,506]","trial_type":"two-door-navigation","trial_index":13,"time_elapsed":494193,"internal_node_id":"0.0-2.0-11.0"},{"group":"tri cycles (cube, non-group)","room_assignment":["yellow","grey","red","brown","purple","green","pink","blue"],"door_color_assignment":["black","white"],"door_generator_assignment":[0,1],"goal":7,"start":3,"action_noise":0.1,"location_history":"[3,7]","action_history":"[0]","door_history":"[0]","location_rts":"[4940]","trial_type":"two-door-navigation","trial_index":14,"time_elapsed":503641,"internal_node_id":"0.0-2.0-12.0"},{"group":"tri cycles (cube, non-group)","room_assignment":["yellow","grey","red","brown","purple","green","pink","blue"],"door_color_assignment":["black","white"],"door_generator_assignment":[0,1],"goal":5,"start":7,"action_noise":0.1,"location_history":"[7,6,4,7,6,4,0,3,4,0,2,1,0,2,1,5]","action_history":"[0,0,0,0,0,1,1,1,1,0,0,0,0,0,1]","door_history":"[0,0,0,0,0,1,1,1,1,0,0,0,0,0,1]","location_rts":"[1974,342,349,399,348,428,393,763,562,825,322,370,368,480,343]","trial_type":"two-door-navigation","trial_index":15,"time_elapsed":530498,"internal_node_id":"0.0-2.0-13.0"},{"group":"tri cycles (cube, non-group)","room_assignment":["yellow","grey","red","brown","purple","green","pink","blue"],"door_color_assignment":["black","white"],"door_generator_assignment":[0,1],"goal":2,"start":5,"action_noise":0.1,"location_history":"[5,1,0,2]","action_history":"[0,0,0]","door_history":"[0,0,0]","location_rts":"[1772,392,366]","trial_type":"two-door-navigation","trial_index":16,"time_elapsed":539548,"internal_node_id":"0.0-2.0-14.0"},{"group":"tri cycles (cube, non-group)","room_assignment":["yellow","grey","red","brown","purple","green","pink","blue"],"door_color_assignment":["black","white"],"door_generator_assignment":[0,1],"goal":7,"start":2,"action_noise":0.1,"location_history":"[2,1,0,2,1,5,1,0,3,7]","action_history":"[0,0,0,0,0,0,0,0,0]","door_history":"[0,0,0,0,0,0,0,0,0]","location_rts":"[1147,362,313,315,319,342,374,286,357]","trial_type":"two-door-navigation","trial_index":17,"time_elapsed":555926,"internal_node_id":"0.0-2.0-15.0"},{"group":"tri cycles (cube, non-group)","room_assignment":["yellow","grey","red","brown","purple","green","pink","blue"],"door_color_assignment":["black","white"],"door_generator_assignment":[0,1],"goal":4,"start":7,"action_noise":0.1,"location_history":"[7,6,4]","action_history":"[0,0]","door_history":"[0,0]","location_rts":"[1323,336]","trial_type":"two-door-navigation","trial_index":18,"time_elapsed":563099,"internal_node_id":"0.0-2.0-16.0"},{"group":"tri cycles (cube, non-group)","room_assignment":["yellow","grey","red","brown","purple","green","pink","blue"],"door_color_assignment":["black","white"],"door_generator_assignment":[0,1],"goal":2,"start":4,"action_noise":0.1,"location_history":"[4,7,3,7,6,4,7,6,4,0,3,4,0,3,4,0,3,4,0,3,7,3,4,0,2]","action_history":"[0,0,0,0,0,0,0,0,1,1,1,1,1,1,1,1,1,1,1,0,1,1,1,0]","door_history":"[0,0,0,0,0,0,0,0,1,1,1,1,1,1,1,1,1,1,1,0,1,1,1,0]","location_rts":"[1040,325,471,320,462,342,296,320,368,298,338,513,351,358,292,402,383,386,322,975,1408,682,629,1073]","trial_type":"two-door-navigation","trial_index":19,"time_elapsed":603128,"internal_node_id":"0.0-2.0-17.0"},{"group":"tri cycles (cube, non-group)","room_assignment":["yellow","grey","red","brown","purple","green","pink","blue"],"door_color_assignment":["black","white"],"door_generator_assignment":[0,1],"goal":3,"start":2,"action_noise":0.1,"location_history":"[2,1,0,2,1,5,2,6,5,2,6,5,1,0,2,6,5,2,6,5,1,0,2,1,0,3]","action_history":"[0,0,0,0,1,1,1,1,1,1,1,0,0,0,1,1,1,1,1,1,0,0,0,0,1]","door_history":"[0,0,0,0,1,1,1,1,1,1,1,0,0,0,1,1,1,1,1,1,0,0,0,0,1]","location_rts":"[1521,1031,344,451,473,378,329,528,331,365,297,489,308,321,299,274,266,282,250,987,462,399,330,356,1968]","trial_type":"two-door-navigation","trial_index":20,"time_elapsed":644834,"internal_node_id":"0.0-2.0-18.0"},{"group":"tri cycles (cube, non-group)","room_assignment":["yellow","grey","red","brown","purple","green","pink","blue"],"door_color_assignment":["black","white"],"door_generator_assignment":[0,1],"goal":6,"start":3,"action_noise":0.1,"location_history":"[3,7,6]","action_history":"[0,0]","door_history":"[0,0]","location_rts":"[96493,712]","trial_type":"two-door-navigation","trial_index":21,"time_elapsed":747547,"internal_node_id":"0.0-2.0-19.0"},{"group":"tri cycles (cube, non-group)","room_assignment":["yellow","grey","red","brown","purple","green","pink","blue"],"door_color_assignment":["black","white"],"door_generator_assignment":[0,1],"goal":5,"start":6,"action_noise":0.1,"location_history":"[6,4,0,3,7,6,5]","action_history":"[1,1,1,0,0,1]","door_history":"[1,1,1,0,0,1]","location_rts":"[4109,1800,1069,1163,542,1237]","trial_type":"two-door-navigation","trial_index":22,"time_elapsed":767015,"internal_node_id":"0.0-2.0-20.0"},{"group":"tri cycles (cube, non-group)","room_assignment":["yellow","grey","red","brown","purple","green","pink","blue"],"door_color_assignment":["black","white"],"door_generator_assignment":[0,1],"goal":1,"start":5,"action_noise":0.1,"location_history":"[5,2,1]","action_history":"[1,0]","door_history":"[1,0]","location_rts":"[3198,1237]","trial_type":"two-door-navigation","trial_index":23,"time_elapsed":776968,"internal_node_id":"0.0-2.0-21.0"},{"group":"tri cycles (cube, non-group)","room_assignment":["yellow","grey","red","brown","purple","green","pink","blue"],"door_color_assignment":["black","white"],"door_generator_assignment":[0,1],"goal":0,"start":1,"action_noise":0.1,"location_history":"[1,0]","action_history":"[0]","door_history":"[0]","location_rts":"[1009]","trial_type":"two-door-navigation","trial_index":24,"time_elapsed":782487,"internal_node_id":"0.0-2.0-22.0"},{"group":"tri cycles (cube, non-group)","room_assignment":["yellow","grey","red","brown","purple","green","pink","blue"],"door_color_assignment":["black","white"],"door_generator_assignment":[0,1],"goal":2,"start":0,"action_noise":0.1,"location_history":"[0,3,7,6,5,1,0,3,7,6,5,1,5,2]","action_history":"[1,0,0,1,1,0,1,0,0,1,0,1,1]","door_history":"[1,0,0,1,1,0,1,0,0,1,0,1,1]","location_rts":"[1312,1233,655,1170,1370,793,1115,952,412,1028,1550,1820,802]","trial_type":"two-door-navigation","trial_index":25,"time_elapsed":813284,"internal_node_id":"0.0-2.0-23.0"},{"group":"tri cycles (cube, non-group)","room_assignment":["yellow","grey","red","brown","purple","green","pink","blue"],"door_color_assignment":["black","white"],"door_generator_assignment":[0,1],"goal":6,"start":2,"action_noise":0.1,"location_history":"[2,1,0,3,7,6]","action_history":"[0,0,1,0,0]","door_history":"[0,0,1,0,0]","location_rts":"[2722,2617,2731,846,457]","trial_type":"two-door-navigation","trial_index":26,"time_elapsed":831198,"internal_node_id":"0.0-2.0-24.0"},{"group":"tri cycles (cube, non-group)","room_assignment":["yellow","grey","red","brown","purple","green","pink","blue"],"door_color_assignment":["black","white"],"door_generator_assignment":[0,1],"goal":1,"start":6,"action_noise":0.1,"location_history":"[6,4,7,6,5,2,6,5,1]","action_history":"[1,0,0,1,1,1,1,0]","door_history":"[1,0,0,1,1,1,1,0]","location_rts":"[1430,3781,794,942,2239,3596,1193,2928]","trial_type":"two-door-navigation","trial_index":27,"time_elapsed":859666,"internal_node_id":"0.0-2.0-25.0"},{"group":"tri cycles (cube, non-group)","room_assignment":["yellow","grey","red","brown","purple","green","pink","blue"],"door_color_assignment":["black","white"],"door_generator_assignment":[0,1],"goal":3,"start":1,"action_noise":0.1,"location_history":"[1,5,2,6,5,2,6,5,1,0,3]","action_history":"[0,1,1,1,1,1,1,0,0,1]","door_history":"[0,1,1,1,1,1,1,0,0,1]","location_rts":"[1060,1203,2218,1031,1031,1363,2632,333,981,1174]","trial_type":"two-door-navigation","trial_index":28,"time_elapsed":886263,"internal_node_id":"0.0-2.0-26.0"},{"group":"tri cycles (cube, non-group)","room_assignment":["yellow","grey","red","brown","purple","green","pink","blue"],"door_color_assignment":["black","white"],"door_generator_assignment":[0,1],"goal":7,"start":3,"action_noise":0.1,"location_history":"[3,7]","action_history":"[0]","door_history":"[0]","location_rts":"[2142]","trial_type":"two-door-navigation","trial_index":29,"time_elapsed":892916,"internal_node_id":"0.0-2.0-27.0"},{"group":"tri cycles (cube, non-group)","room_assignment":["yellow","grey","red","brown","purple","green","pink","blue"],"door_color_assignment":["black","white"],"door_generator_assignment":[0,1],"goal":4,"start":7,"action_noise":0.1,"location_history":"[7,6,5,1,0,3,7,6,5,1,0,3,7,6,5,2,1,0,3,7,6,5,2,6,5,2,6,4]","action_history":"[0,1,0,0,1,0,0,1,0,0,1,0,0,1,0,0,0,1,0,0,1,1,1,1,1,1,0]","door_history":"[0,1,0,0,1,0,0,1,0,0,1,0,0,1,0,0,0,1,0,0,1,1,1,1,1,1,0]","location_rts":"[1455,1094,1030,848,1279,1785,836,1666,1072,853,1166,848,1179,1007,1140,3787,1621,1109,1144,2113,2024,799,677,613,1078,380,401]","trial_type":"two-door-navigation","trial_index":30,"time_elapsed":956595,"internal_node_id":"0.0-2.0-28.0"},{"group":"tri cycles (cube, non-group)","room_assignment":["yellow","grey","red","brown","purple","green","pink","blue"],"door_color_assignment":["black","white"],"door_generator_assignment":[0,1],"goal":0,"start":4,"action_noise":0.1,"location_history":"[4,0]","action_history":"[1]","door_history":"[1]","location_rts":"[118706]","trial_type":"two-door-navigation","trial_index":31,"time_elapsed":1079810,"internal_node_id":"0.0-2.0-29.0"},{"group":"tri cycles (cube, non-group)","room_assignment":["yellow","grey","red","brown","purple","green","pink","blue"],"door_color_assignment":["black","white"],"door_generator_assignment":[0,1],"goal":5,"start":0,"action_noise":0.1,"location_history":"[0,3,7,6,5]","action_history":"[1,0,0,1]","door_history":"[1,0,0,1]","location_rts":"[2345,1416,684,973]","trial_type":"two-door-navigation","trial_index":32,"time_elapsed":1092754,"internal_node_id":"0.0-2.0-30.0"},{"group":"tri cycles (cube, non-group)","room_assignment":["yellow","grey","red","brown","purple","green","pink","blue"],"door_color_assignment":["black","white"],"door_generator_assignment":[0,1],"goal":3,"start":5,"action_noise":0.1,"location_history":"[5,1,0,3]","action_history":"[0,0,1]","door_history":"[0,0,1]","location_rts":"[2888,1112,1613]","trial_type":"two-door-navigation","trial_index":33,"time_elapsed":1104887,"internal_node_id":"0.0-2.0-31.0"},{"group":"tri cycles (cube, non-group)","room_assignment":["yellow","grey","red","brown","purple","green","pink","blue"],"door_color_assignment":["black","white"],"door_generator_assignment":[0,1],"goal":2,"start":3,"action_noise":0.1,"location_history":"[3,7,6,5,2]","action_history":"[0,0,1,1]","door_history":"[0,0,1,1]","location_rts":"[2200,827,1187,4084]","trial_type":"two-door-navigation","trial_index":34,"time_elapsed":1120714,"internal_node_id":"0.0-2.0-32.0"},{"group":"tri cycles (cube, non-group)","room_assignment":["yellow","grey","red","brown","purple","green","pink","blue"],"door_color_assignment":["black","white"],"door_generator_assignment":[0,1],"goal":6,"start":2,"action_noise":0.1,"location_history":"[2,1,0,3,7,6]","action_history":"[0,0,1,0,0]","door_history":"[0,0,1,0,0]","location_rts":"[1642,1472,1856,1432,707]","trial_type":"two-door-navigation","trial_index":35,"time_elapsed":1136359,"internal_node_id":"0.0-2.0-33.0"},{"group":"tri cycles (cube, non-group)","room_assignment":["yellow","grey","red","brown","purple","green","pink","blue"],"door_color_assignment":["black","white"],"door_generator_assignment":[0,1],"goal":1,"start":6,"action_noise":0.1,"location_history":"[6,5,2,6,5,1]","action_history":"[1,1,1,1,1]","door_history":"[1,1,1,1,1]","location_rts":"[2155,1845,4018,1764,2213]","trial_type":"two-door-navigation","trial_index":36,"time_elapsed":1156893,"internal_node_id":"0.0-2.0-34.0"},{"group":"tri cycles (cube, non-group)","room_assignment":["yellow","grey","red","brown","purple","green","pink","blue"],"door_color_assignment":["black","white"],"door_generator_assignment":[0,1],"goal":7,"start":1,"action_noise":0.1,"location_history":"[1,5,2,1,0,3,7]","action_history":"[0,1,1,0,1,0]","door_history":"[0,1,1,0,1,0]","location_rts":"[1137,1181,967,989,1041,1660]","trial_type":"two-door-navigation","trial_index":37,"time_elapsed":1173411,"internal_node_id":"0.0-2.0-35.0"},{"group":"tri cycles (cube, non-group)","room_assignment":["yellow","grey","red","brown","purple","green","pink","blue"],"door_color_assignment":["black","white"],"door_generator_assignment":[0,1],"goal":4,"start":7,"action_noise":0.1,"location_history":"[7,6,5,2,6,5,2,1,0,3,7,6,5,2,6,4]","action_history":"[0,1,1,1,1,1,0,0,1,0,0,1,1,1,0]","door_history":"[0,1,1,1,1,1,0,0,1,0,0,1,1,1,0]","location_rts":"[1879,984,792,965,1108,3499,740,794,914,1198,589,2288,738,1106,730]","trial_type":"two-door-navigation","trial_index":38,"time_elapsed":1210349,"internal_node_id":"0.0-2.0-36.0"},{"group":"tri cycles (cube, non-group)","room_assignment":["yellow","grey","red","brown","purple","green","pink","blue"],"door_color_assignment":["black","white"],"door_generator_assignment":[0,1],"goal":5,"start":4,"action_noise":0.1,"location_history":"[4,0,3,7,3,7,6,5]","action_history":"[1,1,0,0,0,0,1]","door_history":"[1,1,0,0,0,0,1]","location_rts":"[3266,1687,1108,740,850,661,1375]","trial_type":"two-door-navigation","trial_index":39,"time_elapsed":1230590,"internal_node_id":"0.0-2.0-37.0"},{"group":"tri cycles (cube, non-group)","room_assignment":["yellow","grey","red","brown","purple","green","pink","blue"],"door_color_assignment":["black","white"],"door_generator_assignment":[0,1],"goal":0,"start":5,"action_noise":0.1,"location_history":"[5,1,0]","action_history":"[1,0]","door_history":"[1,0]","location_rts":"[2085,1324]","trial_type":"two-door-navigation","trial_index":40,"time_elapsed":1239513,"internal_node_id":"0.0-2.0-38.0"},{"group":"tri cycles (cube, non-group)","room_assignment":["yellow","grey","red","brown","purple","green","pink","blue"],"door_color_assignment":["black","white"],"door_generator_assignment":[0,1],"goal":4,"start":0,"action_noise":0.1,"location_history":"[0,2,6,5,2,1,0,2,6,4]","action_history":"[1,1,1,1,0,0,1,1,1]","door_history":"[1,1,1,1,0,0,1,1,1]","location_rts":"[1232,2246,1399,19384,1592,26801,1076,626,519]","trial_type":"two-door-navigation","trial_index":41,"time_elapsed":1306949,"internal_node_id":"0.0-2.0-39.0"},{"group":"tri cycles (cube, non-group)","room_assignment":["yellow","grey","red","brown","purple","green","pink","blue"],"door_color_assignment":["black","white"],"door_generator_assignment":[0,1],"goal":0,"start":4,"action_noise":0.1,"location_history":"[4,0]","action_history":"[1]","door_history":"[1]","location_rts":"[1359]","trial_type":"two-door-navigation","trial_index":42,"time_elapsed":1312823,"internal_node_id":"0.0-2.0-40.0"},{"group":"tri cycles (cube, non-group)","room_assignment":["yellow","grey","red","brown","purple","green","pink","blue"],"door_color_assignment":["black","white"],"door_generator_assignment":[0,1],"goal":2,"start":0,"action_noise":0.1,"location_history":"[0,3,7,6,5,2]","action_history":"[1,0,0,1,1]","door_history":"[1,0,0,1,1]","location_rts":"[1449,1105,890,1058,780]","trial_type":"two-door-navigation","trial_index":43,"time_elapsed":1326639,"internal_node_id":"0.0-2.0-41.0"},{"group":"tri cycles (cube, non-group)","room_assignment":["yellow","grey","red","brown","purple","green","pink","blue"],"door_color_assignment":["black","white"],"door_generator_assignment":[0,1],"goal":3,"start":2,"action_noise":0.1,"location_history":"[2,6,5,2,1,0,3]","action_history":"[1,1,1,0,0,1]","door_history":"[1,1,1,0,0,1]","location_rts":"[1107,697,1528,1166,906,1968]","trial_type":"two-door-navigation","trial_index":44,"time_elapsed":1343552,"internal_node_id":"0.0-2.0-42.0"},{"group":"tri cycles (cube, non-group)","room_assignment":["yellow","grey","red","brown","purple","green","pink","blue"],"door_color_assignment":["black","white"],"door_generator_assignment":[0,1],"goal":5,"start":3,"action_noise":0.1,"location_history":"[3,7,6,4,0,3,7,6,4,0,3,7,3,7,6,5]","action_history":"[0,0,1,1,1,0,0,1,1,1,0,0,0,0,1]","door_history":"[0,0,1,1,1,0,0,1,1,1,0,0,0,0,1]","location_rts":"[1298,709,959,848,977,984,876,1075,711,874,1557,1099,789,391,2478]","trial_type":"two-door-navigation","trial_index":45,"time_elapsed":1377791,"internal_node_id":"0.0-2.0-43.0"},{"group":"tri cycles (cube, non-group)","room_assignment":["yellow","grey","red","brown","purple","green","pink","blue"],"door_color_assignment":["black","white"],"door_generator_assignment":[0,1],"goal":1,"start":5,"action_noise":0.1,"location_history":"[5,2,1]","action_history":"[1,0]","door_history":"[1,0]","location_rts":"[1706,1759]","trial_type":"two-door-navigation","trial_index":46,"time_elapsed":1386771,"internal_node_id":"0.0-2.0-44.0"},{"group":"tri cycles (cube, non-group)","room_assignment":["yellow","grey","red","brown","purple","green","pink","blue"],"door_color_assignment":["black","white"],"door_generator_assignment":[0,1],"goal":7,"start":1,"action_noise":0.1,"location_history":"[1,0,3,7]","action_history":"[0,1,0]","door_history":"[0,1,0]","location_rts":"[1803,1102,1157]","trial_type":"two-door-navigation","trial_index":47,"time_elapsed":1397357,"internal_node_id":"0.0-2.0-45.0"},{"group":"tri cycles (cube, non-group)","room_assignment":["yellow","grey","red","brown","purple","green","pink","blue"],"door_color_assignment":["black","white"],"door_generator_assignment":[0,1],"goal":6,"start":7,"action_noise":0.1,"location_history":"[7,6]","action_history":"[0]","door_history":"[0]","location_rts":"[1236]","trial_type":"two-door-navigation","trial_index":48,"time_elapsed":1403098,"internal_node_id":"0.0-2.0-46.0"},{"group":"tri cycles (cube, non-group)","room_assignment":["yellow","grey","red","brown","purple","green","pink","blue"],"door_color_assignment":["black","white"],"door_generator_assignment":[0,1],"goal":3,"start":6,"action_noise":0.1,"location_history":"[6,5,2,1,0,3]","action_history":"[1,1,0,0,1]","door_history":"[1,1,0,0,1]","location_rts":"[2736,1181,907,1968,1261]","trial_type":"two-door-navigation","trial_index":49,"time_elapsed":1419677,"internal_node_id":"0.0-2.0-47.0"},{"group":"tri cycles (cube, non-group)","room_assignment":["yellow","grey","red","brown","purple","green","pink","blue"],"door_color_assignment":["black","white"],"door_generator_assignment":[0,1],"goal":0,"start":3,"action_noise":0.1,"location_history":"[3,7,6,5,2,1,0]","action_history":"[0,0,1,1,0,0]","door_history":"[0,0,1,1,0,0]","location_rts":"[1514,1468,1110,973,1548,890]","trial_type":"two-door-navigation","trial_index":50,"time_elapsed":1436726,"internal_node_id":"0.0-2.0-48.0"},{"group":"tri cycles (cube, non-group)","room_assignment":["yellow","grey","red","brown","purple","green","pink","blue"],"door_color_assignment":["black","white"],"door_generator_assignment":[0,1],"goal":2,"start":0,"action_noise":0.1,"location_history":"[0,2]","action_history":"[1]","door_history":"[1]","location_rts":"[1511]","trial_type":"two-door-navigation","trial_index":51,"time_elapsed":1442746,"internal_node_id":"0.0-2.0-49.0"},{"view_history":"[{\"page_index\":0,\"viewing_time\":149447}]","rt":149447,"trial_type":"instructions","trial_index":52,"time_elapsed":1593550,"internal_node_id":"0.0-3.0"},{"view_history":"[{\"page_index\":0,\"viewing_time\":11915},{\"page_index\":1,\"viewing_time\":32824}]","rt":44739,"trial_type":"instructions","trial_index":53,"time_elapsed":1639290,"internal_node_id":"0.0-4.0"},{"group":"tri cycles (cube, non-group)","fractal_assignment":["../images/cyn_red.png","../images/gry_blk.png","../images/grn_red.png","../images/org_blu.png","../images/pnk_blu.png","../images/ylw_pnk.png","../images/blu_wht.png","../images/ylw_slt.png"],"mutagen_generator_assignment":[0,1],"goal":3,"start":0,"action_noise":0.1,"location_history":"[0,2,6,4,0,3]","action_history":"[0,1,0,0,1]","mutagen_history":"[0,1,0,0,1]","location_rts":"[5264,2003,1600,947,188]","trial_type":"fractal-mutation","trial_index":54,"time_elapsed":1657921,"internal_node_id":"0.0-5.0-0.0"},{"group":"tri cycles (cube, non-group)","fractal_assignment":["../images/cyn_red.png","../images/gry_blk.png","../images/grn_red.png","../images/org_blu.png","../images/pnk_blu.png","../images/ylw_pnk.png","../images/blu_wht.png","../images/ylw_slt.png"],"mutagen_generator_assignment":[0,1],"goal":1,"start":3,"action_noise":0.1,"location_history":"[3,4,0,2,1]","action_history":"[1,1,0,0]","mutagen_history":"[1,1,0,0]","location_rts":"[2073,972,1198,653]","trial_type":"fractal-mutation","trial_index":55,"time_elapsed":1670422,"internal_node_id":"0.0-5.0-1.0"},{"group":"tri cycles (cube, non-group)","fractal_assignment":["../images/cyn_red.png","../images/gry_blk.png","../images/grn_red.png","../images/org_blu.png","../images/pnk_blu.png","../images/ylw_pnk.png","../images/blu_wht.png","../images/ylw_slt.png"],"mutagen_generator_assignment":[0,1],"goal":2,"start":1,"action_noise":0.1,"location_history":"[1,0,2]","action_history":"[0,0]","mutagen_history":"[0,0]","location_rts":"[923,434]","trial_type":"fractal-mutation","trial_index":56,"time_elapsed":1677319,"internal_node_id":"0.0-5.0-2.0"},{"group":"tri cycles (cube, non-group)","fractal_assignment":["../images/cyn_red.png","../images/gry_blk.png","../images/grn_red.png","../images/org_blu.png","../images/pnk_blu.png","../images/ylw_pnk.png","../images/blu_wht.png","../images/ylw_slt.png"],"mutagen_generator_assignment":[0,1],"goal":6,"start":2,"action_noise":0.1,"location_history":"[2,6]","action_history":"[1]","mutagen_history":"[1]","location_rts":"[1244]","trial_type":"fractal-mutation","trial_index":57,"time_elapsed":1683088,"internal_node_id":"0.0-5.0-3.0"},{"group":"tri cycles (cube, non-group)","fractal_assignment":["../images/cyn_red.png","../images/gry_blk.png","../images/grn_red.png","../images/org_blu.png","../images/pnk_blu.png","../images/ylw_pnk.png","../images/blu_wht.png","../images/ylw_slt.png"],"mutagen_generator_assignment":[0,1],"goal":5,"start":6,"action_noise":0.1,"location_history":"[6,5]","action_history":"[0]","mutagen_history":"[0]","location_rts":"[1729]","trial_type":"fractal-mutation","trial_index":58,"time_elapsed":1689336,"internal_node_id":"0.0-5.0-4.0"},{"group":"tri cycles (cube, non-group)","fractal_assignment":["../images/cyn_red.png","../images/gry_blk.png","../images/grn_red.png","../images/org_blu.png","../images/pnk_blu.png","../images/ylw_pnk.png","../images/blu_wht.png","../images/ylw_slt.png"],"mutagen_generator_assignment":[0,1],"goal":4,"start":5,"action_noise":0.1,"location_history":"[5,2,6,5,2,1,0,2,1,5,2,6,5,2,6,4]","action_history":"[1,1,1,1,0,0,0,0,1,1,1,1,0,0,0]","mutagen_history":"[1,1,1,1,0,0,0,0,1,1,1,1,0,0,0]","location_rts":"[1209,455,641,527,478,1293,609,519,433,746,556,608,399,369,641]","trial_type":"fractal-mutation","trial_index":59,"time_elapsed":1718105,"internal_node_id":"0.0-5.0-5.0"},{"group":"tri cycles (cube, non-group)","fractal_assignment":["../images/cyn_red.png","../images/gry_blk.png","../images/grn_red.png","../images/org_blu.png","../images/pnk_blu.png","../images/ylw_pnk.png","../images/blu_wht.png","../images/ylw_slt.png"],"mutagen_generator_assignment":[0,1],"goal":7,"start":4,"action_noise":0.1,"location_history":"[4,0,3,4,0,3,4,7]","action_history":"[1,1,1,1,1,1,0]","mutagen_history":"[1,1,1,1,1,1,0]","location_rts":"[37699,514,612,515,390,373,338]","trial_type":"fractal-mutation","trial_index":60,"time_elapsed":1770202,"internal_node_id":"0.0-5.0-6.0"},{"group":"tri cycles (cube, non-group)","fractal_assignment":["../images/cyn_red.png","../images/gry_blk.png","../images/grn_red.png","../images/org_blu.png","../images/pnk_blu.png","../images/ylw_pnk.png","../images/blu_wht.png","../images/ylw_slt.png"],"mutagen_generator_assignment":[0,1],"goal":4,"start":7,"action_noise":0.1,"location_history":"[7,6,5,2,6,4]","action_history":"[1,1,1,1,0]","mutagen_history":"[1,1,1,1,0]","location_rts":"[1352,387,381,340,472]","trial_type":"fractal-mutation","trial_index":61,"time_elapsed":1781736,"internal_node_id":"0.0-5.0-7.0"},{"group":"tri cycles (cube, non-group)","fractal_assignment":["../images/cyn_red.png","../images/gry_blk.png","../images/grn_red.png","../images/org_blu.png","../images/pnk_blu.png","../images/ylw_pnk.png","../images/blu_wht.png","../images/ylw_slt.png"],"mutagen_generator_assignment":[0,1],"goal":6,"start":4,"action_noise":0.1,"location_history":"[4,7,6]","action_history":"[0,1]","mutagen_history":"[0,1]","location_rts":"[987,457]","trial_type":"fractal-mutation","trial_index":62,"time_elapsed":1788719,"internal_node_id":"0.0-5.0-8.0"},{"group":"tri cycles (cube, non-group)","fractal_assignment":["../images/cyn_red.png","../images/gry_blk.png","../images/grn_red.png","../images/org_blu.png","../images/pnk_blu.png","../images/ylw_pnk.png","../images/blu_wht.png","../images/ylw_slt.png"],"mutagen_generator_assignment":[0,1],"goal":0,"start":6,"action_noise":0.1,"location_history":"[6,5,2,6,5,1,0]","action_history":"[1,1,1,1,0,0]","mutagen_history":"[1,1,1,1,0,0]","location_rts":"[1666,360,308,319,474,470]","trial_type":"fractal-mutation","trial_index":63,"time_elapsed":1801943,"internal_node_id":"0.0-5.0-9.0"},{"group":"tri cycles (cube, non-group)","fractal_assignment":["../images/cyn_red.png","../images/gry_blk.png","../images/grn_red.png","../images/org_blu.png","../images/pnk_blu.png","../images/ylw_pnk.png","../images/blu_wht.png","../images/ylw_slt.png"],"mutagen_generator_assignment":[0,1],"goal":1,"start":0,"action_noise":0.1,"location_history":"[0,3,4,0,3,4,0,2,1]","action_history":"[1,1,1,1,1,1,0,0]","mutagen_history":"[1,1,1,1,1,1,0,0]","location_rts":"[1699,322,316,351,417,429,361,527]","trial_type":"fractal-mutation","trial_index":64,"time_elapsed":1818023,"internal_node_id":"0.0-5.0-10.0"},{"group":"tri cycles (cube, non-group)","fractal_assignment":["../images/cyn_red.png","../images/gry_blk.png","../images/grn_red.png","../images/org_blu.png","../images/pnk_blu.png","../images/ylw_pnk.png","../images/blu_wht.png","../images/ylw_slt.png"],"mutagen_generator_assignment":[0,1],"goal":3,"start":1,"action_noise":0.1,"location_history":"[1,5,1,0,2,6,5,1,0,2,1,0,3]","action_history":"[0,1,1,1,1,1,0,0,0,0,0,1]","mutagen_history":"[0,1,1,1,1,1,0,0,0,0,0,1]","location_rts":"[746,378,351,316,309,306,399,378,346,424,348,416]","trial_type":"fractal-mutation","trial_index":65,"time_elapsed":1838472,"internal_node_id":"0.0-5.0-11.0"},{"group":"tri cycles (cube, non-group)","fractal_assignment":["../images/cyn_red.png","../images/gry_blk.png","../images/grn_red.png","../images/org_blu.png","../images/pnk_blu.png","../images/ylw_pnk.png","../images/blu_wht.png","../images/ylw_slt.png"],"mutagen_generator_assignment":[0,1],"goal":7,"start":3,"action_noise":0.1,"location_history":"[3,7]","action_history":"[0]","mutagen_history":"[0]","location_rts":"[64000]","trial_type":"fractal-mutation","trial_index":66,"time_elapsed":1906990,"internal_node_id":"0.0-5.0-12.0"},{"group":"tri cycles (cube, non-group)","fractal_assignment":["../images/cyn_red.png","../images/gry_blk.png","../images/grn_red.png","../images/org_blu.png","../images/pnk_blu.png","../images/ylw_pnk.png","../images/blu_wht.png","../images/ylw_slt.png"],"mutagen_generator_assignment":[0,1],"goal":5,"start":7,"action_noise":0.1,"location_history":"[7,3,4,7,3,7,6,4,7,3,4,0,3,7,6,4,0,3,7,3,7,6,4,7,3,4,0,2,6,5]","action_history":"[1,1,1,1,0,0,0,0,1,1,1,1,0,0,0,1,1,1,1,0,0,0,0,1,1,1,0,1,1]","mutagen_history":"[1,1,1,1,0,0,0,0,1,1,1,1,0,0,0,1,1,1,1,0,0,0,0,1,1,1,0,1,1]","location_rts":"[859,474,673,1059,367,383,413,369,380,545,409,371,397,390,375,338,390,341,377,292,393,319,319,310,298,337,512,586,434]","trial_type":"fractal-mutation","trial_index":67,"time_elapsed":1952757,"internal_node_id":"0.0-5.0-13.0"},{"group":"tri cycles (cube, non-group)","fractal_assignment":["../images/cyn_red.png","../images/gry_blk.png","../images/grn_red.png","../images/org_blu.png","../images/pnk_blu.png","../images/ylw_pnk.png","../images/blu_wht.png","../images/ylw_slt.png"],"mutagen_generator_assignment":[0,1],"goal":2,"start":5,"action_noise":0.1,"location_history":"[5,1,5,2]","action_history":"[0,1,1]","mutagen_history":"[0,1,1]","location_rts":"[63277,442,313]","trial_type":"fractal-mutation","trial_index":68,"time_elapsed":2023348,"internal_node_id":"0.0-5.0-14.0"},{"group":"tri cycles (cube, non-group)","fractal_assignment":["../images/cyn_red.png","../images/gry_blk.png","../images/grn_red.png","../images/org_blu.png","../images/pnk_blu.png","../images/ylw_pnk.png","../images/blu_wht.png","../images/ylw_slt.png"],"mutagen_generator_assignment":[0,1],"goal":7,"start":2,"action_noise":0.1,"location_history":"[2,6,5,1,0,2,1,0,3,4,0,3,7]","action_history":"[1,1,0,0,0,0,0,1,1,1,1,0]","mutagen_history":"[1,1,0,0,0,0,0,1,1,1,1,0]","location_rts":"[725,329,361,457,344,414,353,330,451,401,308,361]","trial_type":"fractal-mutation","trial_index":69,"time_elapsed":2044103,"internal_node_id":"0.0-5.0-15.0"},{"group":"tri cycles (cube, non-group)","fractal_assignment":["../images/cyn_red.png","../images/gry_blk.png","../images/grn_red.png","../images/org_blu.png","../images/pnk_blu.png","../images/ylw_pnk.png","../images/blu_wht.png","../images/ylw_slt.png"],"mutagen_generator_assignment":[0,1],"goal":4,"start":7,"action_noise":0.1,"location_history":"[7,6,5,2,6,4]","action_history":"[0,1,1,1,0]","mutagen_history":"[0,1,1,1,0]","location_rts":"[69449,456,388,419,467]","trial_type":"fractal-mutation","trial_index":70,"time_elapsed":2124874,"internal_node_id":"0.0-5.0-16.0"},{"group":"tri cycles (cube, non-group)","fractal_assignment":["../images/cyn_red.png","../images/gry_blk.png","../images/grn_red.png","../images/org_blu.png","../images/pnk_blu.png","../images/ylw_pnk.png","../images/blu_wht.png","../images/ylw_slt.png"],"mutagen_generator_assignment":[0,1],"goal":2,"start":4,"action_noise":0.1,"location_history":"[4,0,2]","action_history":"[1,1]","mutagen_history":"[1,1]","location_rts":"[1471,364]","trial_type":"fractal-mutation","trial_index":71,"time_elapsed":2133103,"internal_node_id":"0.0-5.0-17.0"},{"group":"tri cycles (cube, non-group)","fractal_assignment":["../images/cyn_red.png","../images/gry_blk.png","../images/grn_red.png","../images/org_blu.png","../images/pnk_blu.png","../images/ylw_pnk.png","../images/blu_wht.png","../images/ylw_slt.png"],"mutagen_generator_assignment":[0,1],"goal":3,"start":2,"action_noise":0.1,"location_history":"[2,6,5,2,1,0,2,6,5,1,5,1,0,2,6,5,1,5,1,0,2,6,5,1,5,1,5,2,1,5,2,6,5,1,0,2,1,5,1,5,2,6,4,7,6,5,1,0,3]","action_history":"[0,1,1,0,0,0,1,1,0,1,0,0,0,1,1,0,1,0,0,0,1,1,0,1,0,1,1,0,0,1,1,0,0,0,1,0,1,0,0,1,1,0,0,0,1,0,0,1]","mutagen_history":"[0,1,1,0,0,0,1,1,0,1,0,0,0,1,1,0,1,0,0,0,1,1,0,1,0,1,1,0,0,1,1,0,0,0,1,0,1,0,0,1,1,0,0,0,1,0,0,1]","location_rts":"[106060,323,335,384,311,410,297,435,348,310,471,391,407,311,361,268,288,357,317,268,305,229,359,372,312,303,267,299,424,335,415,402,606,409,351,370,368,266,156655,505,494,610,1536,645,600,383,500,543]","trial_type":"fractal-mutation","trial_index":72,"time_elapsed":2468008,"internal_node_id":"0.0-5.0-18.0"},{"group":"tri cycles (cube, non-group)","fractal_assignment":["../images/cyn_red.png","../images/gry_blk.png","../images/grn_red.png","../images/org_blu.png","../images/pnk_blu.png","../images/ylw_pnk.png","../images/blu_wht.png","../images/ylw_slt.png"],"mutagen_generator_assignment":[0,1],"goal":6,"start":3,"action_noise":0.1,"location_history":"[3,4,0,2,1,5,2,6]","action_history":"[1,1,0,0,1,1,1]","mutagen_history":"[1,1,0,0,1,1,1]","location_rts":"[969,557,385,442,288,314,318]","trial_type":"fractal-mutation","trial_index":73,"time_elapsed":2481925,"internal_node_id":"0.0-5.0-19.0"},{"group":"tri cycles (cube, non-group)","fractal_assignment":["../images/cyn_red.png","../images/gry_blk.png","../images/grn_red.png","../images/org_blu.png","../images/pnk_blu.png","../images/ylw_pnk.png","../images/blu_wht.png","../images/ylw_slt.png"],"mutagen_generator_assignment":[0,1],"goal":5,"start":6,"action_noise":0.1,"location_history":"[6,5]","action_history":"[1]","mutagen_history":"[1]","location_rts":"[879]","trial_type":"fractal-mutation","trial_index":74,"time_elapsed":2487331,"internal_node_id":"0.0-5.0-20.0"},{"group":"tri cycles (cube, non-group)","fractal_assignment":["../images/cyn_red.png","../images/gry_blk.png","../images/grn_red.png","../images/org_blu.png","../images/pnk_blu.png","../images/ylw_pnk.png","../images/blu_wht.png","../images/ylw_slt.png"],"mutagen_generator_assignment":[0,1],"goal":1,"start":5,"action_noise":0.1,"location_history":"[5,2,6,4,0,3,4,0,2,6,4,0,2,1]","action_history":"[1,1,0,1,1,1,1,0,0,0,0,0,0]","mutagen_history":"[1,1,0,1,1,1,1,0,0,0,0,0,0]","location_rts":"[712,623,367,328,370,318,299,267,334,465,307,363,360]","trial_type":"fractal-mutation","trial_index":75,"time_elapsed":2510105,"internal_node_id":"0.0-5.0-21.0"},{"group":"tri cycles (cube, non-group)","fractal_assignment":["../images/cyn_red.png","../images/gry_blk.png","../images/grn_red.png","../images/org_blu.png","../images/pnk_blu.png","../images/ylw_pnk.png","../images/blu_wht.png","../images/ylw_slt.png"],"mutagen_generator_assignment":[0,1],"goal":0,"start":1,"action_noise":0.1,"location_history":"[1,0]","action_history":"[0]","mutagen_history":"[0]","location_rts":"[72107]","trial_type":"fractal-mutation","trial_index":76,"time_elapsed":2587729,"internal_node_id":"0.0-5.0-22.0"},{"group":"tri cycles (cube, non-group)","fractal_assignment":["../images/cyn_red.png","../images/gry_blk.png","../images/grn_red.png","../images/org_blu.png","../images/pnk_blu.png","../images/ylw_pnk.png","../images/blu_wht.png","../images/ylw_slt.png"],"mutagen_generator_assignment":[0,1],"goal":2,"start":0,"action_noise":0.1,"location_history":"[0,2]","action_history":"[0]","mutagen_history":"[0]","location_rts":"[3106]","trial_type":"fractal-mutation","trial_index":77,"time_elapsed":2595352,"internal_node_id":"0.0-5.0-23.0"},{"group":"tri cycles (cube, non-group)","fractal_assignment":["../images/cyn_red.png","../images/gry_blk.png","../images/grn_red.png","../images/org_blu.png","../images/pnk_blu.png","../images/ylw_pnk.png","../images/blu_wht.png","../images/ylw_slt.png"],"mutagen_generator_assignment":[0,1],"goal":6,"start":2,"action_noise":0.1,"location_history":"[2,1,5,1,5,2,1,0,2,1,0,2,6]","action_history":"[0,1,1,1,1,1,0,0,0,0,0,1]","mutagen_history":"[0,1,1,1,1,1,0,0,0,0,0,1]","location_rts":"[898,275,374,423,407,426,260,392,316,506,483,1112]","trial_type":"fractal-mutation","trial_index":78,"time_elapsed":2616946,"internal_node_id":"0.0-5.0-24.0"},{"group":"tri cycles (cube, non-group)","fractal_assignment":["../images/cyn_red.png","../images/gry_blk.png","../images/grn_red.png","../images/org_blu.png","../images/pnk_blu.png","../images/ylw_pnk.png","../images/blu_wht.png","../images/ylw_slt.png"],"mutagen_generator_assignment":[0,1],"goal":1,"start":6,"action_noise":0.1,"location_history":"[6,4,7,3,4,0,2,6,5,2,6,4,7,6,4,7,6,5,1]","action_history":"[0,1,1,1,1,1,1,1,1,1,0,0,0,0,0,0,1,0]","mutagen_history":"[0,1,1,1,1,1,1,1,1,1,0,0,0,0,0,0,1,0]","location_rts":"[1025,421,410,367,490,378,466,379,367,363,305,316,367,383,335,309,339,515]","trial_type":"fractal-mutation","trial_index":79,"time_elapsed":2646338,"internal_node_id":"0.0-5.0-25.0"},{"group":"tri cycles (cube, non-group)","fractal_assignment":["../images/cyn_red.png","../images/gry_blk.png","../images/grn_red.png","../images/org_blu.png","../images/pnk_blu.png","../images/ylw_pnk.png","../images/blu_wht.png","../images/ylw_slt.png"],"mutagen_generator_assignment":[0,1],"goal":3,"start":1,"action_noise":0.1,"location_history":"[1,5,2,1,0,2,6,4,7,6,5,2,6,4,0,2,1,0,2,1,5,2,6,5,2,6,5,2,1,0,3]","action_history":"[1,1,0,0,0,1,0,0,0,1,1,0,0,1,0,0,0,0,0,1,1,1,1,1,1,1,0,0,0,1]","mutagen_history":"[1,1,0,0,0,1,0,0,0,1,1,0,0,1,0,0,0,0,0,1,1,1,1,1,1,1,0,0,0,1]","location_rts":"[1352,470,467,413,348,451,359,465,323,312,514,366,379,313,332,341,322,275,302,269,560,587,641,404,282,297,274,321,297,296]","trial_type":"fractal-mutation","trial_index":80,"time_elapsed":2692734,"internal_node_id":"0.0-5.0-26.0"},{"group":"tri cycles (cube, non-group)","fractal_assignment":["../images/cyn_red.png","../images/gry_blk.png","../images/grn_red.png","../images/org_blu.png","../images/pnk_blu.png","../images/ylw_pnk.png","../images/blu_wht.png","../images/ylw_slt.png"],"mutagen_generator_assignment":[0,1],"goal":7,"start":3,"action_noise":0.1,"location_history":"[3,4,7]","action_history":"[1,1]","mutagen_history":"[1,1]","location_rts":"[843,444]","trial_type":"fractal-mutation","trial_index":81,"time_elapsed":2699562,"internal_node_id":"0.0-5.0-27.0"},{"group":"tri cycles (cube, non-group)","fractal_assignment":["../images/cyn_red.png","../images/gry_blk.png","../images/grn_red.png","../images/org_blu.png","../images/pnk_blu.png","../images/ylw_pnk.png","../images/blu_wht.png","../images/ylw_slt.png"],"mutagen_generator_assignment":[0,1],"goal":4,"start":7,"action_noise":0.1,"location_history":"[7,3,7,6,4]","action_history":"[1,0,0,0]","mutagen_history":"[1,0,0,0]","location_rts":"[856,332,368,492]","trial_type":"fractal-mutation","trial_index":82,"time_elapsed":2709178,"internal_node_id":"0.0-5.0-28.0"},{"group":"tri cycles (cube, non-group)","fractal_assignment":["../images/cyn_red.png","../images/gry_blk.png","../images/grn_red.png","../images/org_blu.png","../images/pnk_blu.png","../images/ylw_pnk.png","../images/blu_wht.png","../images/ylw_slt.png"],"mutagen_generator_assignment":[0,1],"goal":0,"start":4,"action_noise":0.1,"location_history":"[4,0]","action_history":"[1]","mutagen_history":"[1]","location_rts":"[784]","trial_type":"fractal-mutation","trial_index":83,"time_elapsed":2714495,"internal_node_id":"0.0-5.0-29.0"},{"group":"tri cycles (cube, non-group)","fractal_assignment":["../images/cyn_red.png","../images/gry_blk.png","../images/grn_red.png","../images/org_blu.png","../images/pnk_blu.png","../images/ylw_pnk.png","../images/blu_wht.png","../images/ylw_slt.png"],"mutagen_generator_assignment":[0,1],"goal":5,"start":0,"action_noise":0.1,"location_history":"[0,3,4,0,3,4,7,6,5]","action_history":"[1,1,1,1,1,0,0,1]","mutagen_history":"[1,1,1,1,1,0,0,1]","location_rts":"[732,461,377,395,459,41469,708,345]","trial_type":"fractal-mutation","trial_index":84,"time_elapsed":2771118,"internal_node_id":"0.0-5.0-30.0"},{"group":"tri cycles (cube, non-group)","fractal_assignment":["../images/cyn_red.png","../images/gry_blk.png","../images/grn_red.png","../images/org_blu.png","../images/pnk_blu.png","../images/ylw_pnk.png","../images/blu_wht.png","../images/ylw_slt.png"],"mutagen_generator_assignment":[0,1],"goal":3,"start":5,"action_noise":0.1,"location_history":"[5,2,6,5,2,6,5,1,0,3]","action_history":"[1,1,1,1,0,1,0,0,1]","mutagen_history":"[1,1,1,1,0,1,0,0,1]","location_rts":"[811,387,339,172,253,328,678,422,340]","trial_type":"fractal-mutation","trial_index":85,"time_elapsed":2787538,"internal_node_id":"0.0-5.0-31.0"},{"group":"tri cycles (cube, non-group)","fractal_assignment":["../images/cyn_red.png","../images/gry_blk.png","../images/grn_red.png","../images/org_blu.png","../images/pnk_blu.png","../images/ylw_pnk.png","../images/blu_wht.png","../images/ylw_slt.png"],"mutagen_generator_assignment":[0,1],"goal":2,"start":3,"action_noise":0.1,"location_history":"[3,7,6,5,1,5,1,0,3,7,3,7,6,4,7,6,5,2]","action_history":"[0,1,1,0,1,0,0,0,0,1,0,0,0,0,0,1,1]","mutagen_history":"[0,1,1,0,1,0,0,0,0,1,0,0,0,0,0,1,1]","location_rts":"[616,310,376,385,424,271,305,361,307,564,272,433,187,268,395,178,314]","trial_type":"fractal-mutation","trial_index":86,"time_elapsed":2814320,"internal_node_id":"0.0-5.0-32.0"},{"group":"tri cycles (cube, non-group)","fractal_assignment":["../images/cyn_red.png","../images/gry_blk.png","../images/grn_red.png","../images/org_blu.png","../images/pnk_blu.png","../images/ylw_pnk.png","../images/blu_wht.png","../images/ylw_slt.png"],"mutagen_generator_assignment":[0,1],"goal":6,"start":2,"action_noise":0.1,"location_history":"[2,1,5,2,6]","action_history":"[1,1,1,1]","mutagen_history":"[1,1,1,1]","location_rts":"[777,311,360,339]","trial_type":"fractal-mutation","trial_index":87,"time_elapsed":2823703,"internal_node_id":"0.0-5.0-33.0"},{"group":"tri cycles (cube, non-group)","fractal_assignment":["../images/cyn_red.png","../images/gry_blk.png","../images/grn_red.png","../images/org_blu.png","../images/pnk_blu.png","../images/ylw_pnk.png","../images/blu_wht.png","../images/ylw_slt.png"],"mutagen_generator_assignment":[0,1],"goal":1,"start":6,"action_noise":0.1,"location_history":"[6,5,1]","action_history":"[1,1]","mutagen_history":"[1,1]","location_rts":"[1036,354]","trial_type":"fractal-mutation","trial_index":88,"time_elapsed":2830640,"internal_node_id":"0.0-5.0-34.0"},{"group":"tri cycles (cube, non-group)","fractal_assignment":["../images/cyn_red.png","../images/gry_blk.png","../images/grn_red.png","../images/org_blu.png","../images/pnk_blu.png","../images/ylw_pnk.png","../images/blu_wht.png","../images/ylw_slt.png"],"mutagen_generator_assignment":[0,1],"goal":7,"start":1,"action_noise":0.1,"location_history":"[1,5,1,5,2,6,5,2,6,5,1,0,2,1,0,2,6,5,2,1,0,2,1,5,2,6,4,7]","action_history":"[1,1,1,1,1,1,1,1,0,0,0,0,0,0,0,1,1,1,0,0,0,0,1,1,1,0,0]","mutagen_history":"[1,1,1,1,1,1,1,1,0,0,0,0,0,0,0,1,1,1,0,0,0,0,1,1,1,0,0]","location_rts":"[755,349,294,317,303,247,275,289,294,357,317,292,499,318,519,336,358,473,219,47,382,731,263,708,539,318,118]","trial_type":"fractal-mutation","trial_index":89,"time_elapsed":2871590,"internal_node_id":"0.0-5.0-35.0"},{"group":"tri cycles (cube, non-group)","fractal_assignment":["../images/cyn_red.png","../images/gry_blk.png","../images/grn_red.png","../images/org_blu.png","../images/pnk_blu.png","../images/ylw_pnk.png","../images/blu_wht.png","../images/ylw_slt.png"],"mutagen_generator_assignment":[0,1],"goal":4,"start":7,"action_noise":0.1,"location_history":"[7,3,4]","action_history":"[1,1]","mutagen_history":"[1,1]","location_rts":"[724,340]","trial_type":"fractal-mutation","trial_index":90,"time_elapsed":2878200,"internal_node_id":"0.0-5.0-36.0"},{"group":"tri cycles (cube, non-group)","fractal_assignment":["../images/cyn_red.png","../images/gry_blk.png","../images/grn_red.png","../images/org_blu.png","../images/pnk_blu.png","../images/ylw_pnk.png","../images/blu_wht.png","../images/ylw_slt.png"],"mutagen_generator_assignment":[0,1],"goal":5,"start":4,"action_noise":0.1,"location_history":"[4,0,3,4,0,3,7,6,4,0,3,4,0,3,7,6,4,7,6,5]","action_history":"[1,1,1,1,1,0,0,0,0,1,1,1,1,0,0,0,0,0,0]","mutagen_history":"[1,1,1,1,1,0,0,0,0,1,1,1,1,0,0,0,0,0,0]","location_rts":"[689,402,498,392,404,315,419,339,362,469,491,307,371,544,241,201,266,321,263]","trial_type":"fractal-mutation","trial_index":91,"time_elapsed":2908332,"internal_node_id":"0.0-5.0-37.0"},{"group":"tri cycles (cube, non-group)","fractal_assignment":["../images/cyn_red.png","../images/gry_blk.png","../images/grn_red.png","../images/org_blu.png","../images/pnk_blu.png","../images/ylw_pnk.png","../images/blu_wht.png","../images/ylw_slt.png"],"mutagen_generator_assignment":[0,1],"goal":0,"start":5,"action_noise":0.1,"location_history":"[5,1,5,2,1,0]","action_history":"[0,1,1,1,0]","mutagen_history":"[0,1,1,1,0]","location_rts":"[38293,519,342,552,477]","trial_type":"fractal-mutation","trial_index":92,"time_elapsed":2957108,"internal_node_id":"0.0-5.0-38.0"},{"group":"tri cycles (cube, non-group)","fractal_assignment":["../images/cyn_red.png","../images/gry_blk.png","../images/grn_red.png","../images/org_blu.png","../images/pnk_blu.png","../images/ylw_pnk.png","../images/blu_wht.png","../images/ylw_slt.png"],"mutagen_generator_assignment":[0,1],"goal":4,"start":0,"action_noise":0.1,"location_history":"[0,2,1,0,2,6,5,2,1,5,2,1,0,2,1,0,3,4]","action_history":"[0,0,0,0,1,1,1,1,1,1,0,0,0,0,0,1,1]","mutagen_history":"[0,0,0,0,1,1,1,1,1,1,0,0,0,0,0,1,1]","location_rts":"[608,295,426,560,507,507,350,409,346,400,314,269,415,240,270,225,323]","trial_type":"fractal-mutation","trial_index":93,"time_elapsed":2984389,"internal_node_id":"0.0-5.0-39.0"},{"group":"tri cycles (cube, non-group)","fractal_assignment":["../images/cyn_red.png","../images/gry_blk.png","../images/grn_red.png","../images/org_blu.png","../images/pnk_blu.png","../images/ylw_pnk.png","../images/blu_wht.png","../images/ylw_slt.png"],"mutagen_generator_assignment":[0,1],"goal":0,"start":4,"action_noise":0.1,"location_history":"[4,0]","action_history":"[1]","mutagen_history":"[1]","location_rts":"[501]","trial_type":"fractal-mutation","trial_index":94,"time_elapsed":2989414,"internal_node_id":"0.0-5.0-40.0"},{"group":"tri cycles (cube, non-group)","fractal_assignment":["../images/cyn_red.png","../images/gry_blk.png","../images/grn_red.png","../images/org_blu.png","../images/pnk_blu.png","../images/ylw_pnk.png","../images/blu_wht.png","../images/ylw_slt.png"],"mutagen_generator_assignment":[0,1],"goal":2,"start":0,"action_noise":0.1,"location_history":"[0,3,4,0,2]","action_history":"[1,1,1,0]","mutagen_history":"[1,1,1,0]","location_rts":"[581,367,259,285]","trial_type":"fractal-mutation","trial_index":95,"time_elapsed":2998490,"internal_node_id":"0.0-5.0-41.0"},{"group":"tri cycles (cube, non-group)","fractal_assignment":["../images/cyn_red.png","../images/gry_blk.png","../images/grn_red.png","../images/org_blu.png","../images/pnk_blu.png","../images/ylw_pnk.png","../images/blu_wht.png","../images/ylw_slt.png"],"mutagen_generator_assignment":[0,1],"goal":3,"start":2,"action_noise":0.1,"location_history":"[2,6,5,2,6,5,2,6,4,7,6,4,7,3]","action_history":"[1,1,1,1,1,1,1,0,0,0,0,0,1]","mutagen_history":"[1,1,1,1,1,1,1,0,0,0,0,0,1]","location_rts":"[554,364,314,309,346,297,308,314,355,343,481,264,259]","trial_type":"fractal-mutation","trial_index":96,"time_elapsed":3019742,"internal_node_id":"0.0-5.0-42.0"},{"group":"tri cycles (cube, non-group)","fractal_assignment":["../images/cyn_red.png","../images/gry_blk.png","../images/grn_red.png","../images/org_blu.png","../images/pnk_blu.png","../images/ylw_pnk.png","../images/blu_wht.png","../images/ylw_slt.png"],"mutagen_generator_assignment":[0,1],"goal":5,"start":3,"action_noise":0.1,"location_history":"[3,4,0,3,4,7,6,4,7,3,4,0,3,4,7,6,4,7,6,4,7,3,4,0,3,4,0,3,7,6,4,0,2,6,4,0,3,7,6,5]","action_history":"[1,1,1,1,0,0,0,0,1,1,1,1,1,0,0,0,0,0,0,0,1,1,1,1,1,1,1,0,0,0,1,0,1,0,1,1,0,0,1]","mutagen_history":"[1,1,1,1,0,0,0,0,1,1,1,1,1,0,0,0,0,0,0,0,1,1,1,1,1,1,1,0,0,0,1,0,1,0,1,1,0,0,1]","location_rts":"[397,304,280,326,152,346,280,256,264,307,249,249,244,217,295,287,202,264,226,32,472,544,348,328,293,241,382,336,371,289,466,512,320,408,191,297,224,273,122]","trial_type":"fractal-mutation","trial_index":97,"time_elapsed":3074582,"internal_node_id":"0.0-5.0-43.0"},{"group":"tri cycles (cube, non-group)","fractal_assignment":["../images/cyn_red.png","../images/gry_blk.png","../images/grn_red.png","../images/org_blu.png","../images/pnk_blu.png","../images/ylw_pnk.png","../images/blu_wht.png","../images/ylw_slt.png"],"mutagen_generator_assignment":[0,1],"goal":1,"start":5,"action_noise":0.1,"location_history":"[5,2,1]","action_history":"[1,1]","mutagen_history":"[1,1]","location_rts":"[1364,409]","trial_type":"fractal-mutation","trial_index":98,"time_elapsed":3081902,"internal_node_id":"0.0-5.0-44.0"},{"group":"tri cycles (cube, non-group)","fractal_assignment":["../images/cyn_red.png","../images/gry_blk.png","../images/grn_red.png","../images/org_blu.png","../images/pnk_blu.png","../images/ylw_pnk.png","../images/blu_wht.png","../images/ylw_slt.png"],"mutagen_generator_assignment":[0,1],"goal":7,"start":1,"action_noise":0.1,"location_history":"[1,5,1,5,1,5,2,6,5,1,0,2,1,0,3,4,0,3,4,7]","action_history":"[1,0,0,0,1,1,1,1,0,0,0,0,0,1,1,1,1,1,0]","mutagen_history":"[1,0,0,0,1,1,1,1,0,0,0,0,0,1,1,1,1,1,0]","location_rts":"[507,172,266,329,312,369,319,310,217,233,410,357,330,249,359,265,310,255,216]","trial_type":"fractal-mutation","trial_index":99,"time_elapsed":3110555,"internal_node_id":"0.0-5.0-45.0"},{"group":"tri cycles (cube, non-group)","fractal_assignment":["../images/cyn_red.png","../images/gry_blk.png","../images/grn_red.png","../images/org_blu.png","../images/pnk_blu.png","../images/ylw_pnk.png","../images/blu_wht.png","../images/ylw_slt.png"],"mutagen_generator_assignment":[0,1],"goal":6,"start":7,"action_noise":0.1,"location_history":"[7,6]","action_history":"[0]","mutagen_history":"[0]","location_rts":"[489]","trial_type":"fractal-mutation","trial_index":100,"time_elapsed":3115559,"internal_node_id":"0.0-5.0-46.0"},{"group":"tri cycles (cube, non-group)","fractal_assignment":["../images/cyn_red.png","../images/gry_blk.png","../images/grn_red.png","../images/org_blu.png","../images/pnk_blu.png","../images/ylw_pnk.png","../images/blu_wht.png","../images/ylw_slt.png"],"mutagen_generator_assignment":[0,1],"goal":3,"start":6,"action_noise":0.1,"location_history":"[6,4,0,3]","action_history":"[0,1,1]","mutagen_history":"[0,1,1]","location_rts":"[659,432,444]","trial_type":"fractal-mutation","trial_index":101,"time_elapsed":3123665,"internal_node_id":"0.0-5.0-47.0"},{"group":"tri cycles (cube, non-group)","fractal_assignment":["../images/cyn_red.png","../images/gry_blk.png","../images/grn_red.png","../images/org_blu.png","../images/pnk_blu.png","../images/ylw_pnk.png","../images/blu_wht.png","../images/ylw_slt.png"],"mutagen_generator_assignment":[0,1],"goal":0,"start":3,"action_noise":0.1,"location_history":"[3,4,0]","action_history":"[1,1]","mutagen_history":"[1,1]","location_rts":"[593,377]","trial_type":"fractal-mutation","trial_index":102,"time_elapsed":3130185,"internal_node_id":"0.0-5.0-48.0"},{"group":"tri cycles (cube, non-group)","fractal_assignment":["../images/cyn_red.png","../images/gry_blk.png","../images/grn_red.png","../images/org_blu.png","../images/pnk_blu.png","../images/ylw_pnk.png","../images/blu_wht.png","../images/ylw_slt.png"],"mutagen_generator_assignment":[0,1],"goal":2,"start":0,"action_noise":0.1,"location_history":"[0,3,4,0,3,7,6,4,7,6,5,2]","action_history":"[1,1,1,1,1,0,0,0,0,1,1]","mutagen_history":"[1,1,1,1,1,0,0,0,0,1,1]","location_rts":"[537,442,267,276,308,274,288,224,182,237,272]","trial_type":"fractal-mutation","trial_index":103,"time_elapsed":3148219,"internal_node_id":"0.0-5.0-49.0"},{"view_history":"[{\"page_index\":0,\"viewing_time\":10220}]","rt":10220,"trial_type":"instructions","trial_index":104,"time_elapsed":3159439,"internal_node_id":"0.0-6.0"},{"rt":6913,"responses":"{\"Q0\":\"None.\"}","trial_type":"survey-text","trial_index":105,"time_elapsed":3167358,"internal_node_id":"0.0-7.0"}]