[{"view_history":"[{\"page_index\":0,\"viewing_time\":4561},{\"page_index\":1,\"viewing_time\":10495},{\"page_index\":2,\"viewing_time\":9917},{\"page_index\":3,\"viewing_time\":4546}]","rt":29520,"trial_type":"instructions","trial_index":0,"time_elapsed":29520,"internal_node_id":"0.0-0.0"},{"view_history":"[{\"page_index\":0,\"viewing_time\":10813},{\"page_index\":1,\"viewing_time\":615329}]","rt":626143,"trial_type":"instructions","trial_index":1,"time_elapsed":656668,"internal_node_id":"0.0-1.0"},{"group":"tri cycles (cube, non-group)","room_assignment":["green","purple","blue","pink","red","grey","yellow","brown"],"door_color_assignment":["white","black"],"door_generator_assignment":[1,0],"goal":3,"start":0,"action_noise":0.1,"location_history":"[0,3]","action_history":"[1]","door_history":"[0]","location_rts":"[2911]","trial_type":"two-door-navigation","trial_index":2,"time_elapsed":664169,"internal_node_id":"0.0-2.0-0.0"},{"group":"tri cycles (cube, non-group)","room_assignment":["green","purple","blue","pink","red","grey","yellow","brown"],"door_color_assignment":["white","black"],"door_generator_assignment":[1,0],"goal":1,"start":3,"action_noise":0.1,"location_history":"[3,4,7,3,7,6,4,0,2,1]","action_history":"[1,1,1,0,0,0,0,0,0]","door_history":"[0,0,0,1,1,1,1,1,1]","location_rts":"[1882,2079,1929,2910,1334,990,2293,1853,872]","trial_type":"two-door-navigation","trial_index":3,"time_elapsed":693488,"internal_node_id":"0.0-2.0-1.0"},{"group":"tri cycles (cube, non-group)","room_assignment":["green","purple","blue","pink","red","grey","yellow","brown"],"door_color_assignment":["white","black"],"door_generator_assignment":[1,0],"goal":2,"start":1,"action_noise":0.1,"location_history":"[1,5,1,5,1,0,2]","action_history":"[0,0,1,0,0,0]","door_history":"[1,1,0,1,1,1]","location_rts":"[2406,946,2429,2111,964,1374]","trial_type":"two-door-navigation","trial_index":4,"time_elapsed":713679,"internal_node_id":"0.0-2.0-2.0"},{"group":"tri cycles (cube, non-group)","room_assignment":["green","purple","blue","pink","red","grey","yellow","brown"],"door_color_assignment":["white","black"],"door_generator_assignment":[1,0],"goal":6,"start":2,"action_noise":0.1,"location_history":"[2,1,5,2,6]","action_history":"[0,1,1,1]","door_history":"[1,0,0,0]","location_rts":"[1964,2085,1042,2846]","trial_type":"two-door-navigation","trial_index":5,"time_elapsed":729418,"internal_node_id":"0.0-2.0-3.0"},{"group":"tri cycles (cube, non-group)","room_assignment":["green","purple","blue","pink","red","grey","yellow","brown"],"door_color_assignment":["white","black"],"door_generator_assignment":[1,0],"goal":5,"start":6,"action_noise":0.1,"location_history":"[6,4,0,2,1,0,2,1,5]","action_history":"[0,0,0,0,0,0,0,1]","door_history":"[1,1,1,1,1,1,1,0]","location_rts":"[2711,1154,863,1000,1496,2393,953,1714]","trial_type":"two-door-navigation","trial_index":6,"time_elapsed":753824,"internal_node_id":"0.0-2.0-4.0"},{"group":"tri cycles (cube, non-group)","room_assignment":["green","purple","blue","pink","red","grey","yellow","brown"],"door_color_assignment":["white","black"],"door_generator_assignment":[1,0],"goal":4,"start":5,"action_noise":0.1,"location_history":"[5,2,6,5,1,5,1,5,1,5,2,1,5,1,5,2,6,5,2,6,4]","action_history":"[1,0,0,0,0,0,1,1,1,1,0,0,0,1,1,1,1,1,1,0]","door_history":"[0,1,1,1,1,1,0,0,0,0,1,1,1,0,0,0,0,0,0,1]","location_rts":"[2308,1347,760,744,706,883,1486,1189,1374,3063,2013,1278,2534,1684,1329,1550,947,1173,1042,1632]","trial_type":"two-door-navigation","trial_index":7,"time_elapsed":807830,"internal_node_id":"0.0-2.0-5.0"},{"group":"tri cycles (cube, non-group)","room_assignment":["green","purple","blue","pink","red","grey","yellow","brown"],"door_color_assignment":["white","black"],"door_generator_assignment":[1,0],"goal":7,"start":4,"action_noise":0.1,"location_history":"[4,7]","action_history":"[0]","door_history":"[1]","location_rts":"[2815]","trial_type":"two-door-navigation","trial_index":8,"time_elapsed":815218,"internal_node_id":"0.0-2.0-6.0"},{"group":"tri cycles (cube, non-group)","room_assignment":["green","purple","blue","pink","red","grey","yellow","brown"],"door_color_assignment":["white","black"],"door_generator_assignment":[1,0],"goal":4,"start":7,"action_noise":0.1,"location_history":"[7,6,5,2,6,5,2,1,0,2,1,5,2,1,5,1,0,2,1,5,2,1,0,3,7,6,4]","action_history":"[0,1,1,1,1,1,0,0,0,0,1,0,0,0,0,0,1,1,1,1,0,0,1,0,0,0]","door_history":"[1,0,0,0,0,0,1,1,1,1,0,1,1,1,1,1,0,0,0,0,1,1,0,1,1,1]","location_rts":"[2394,1371,1072,875,1052,793,1306,900,898,2503,2666,1734,824,895,992,2527,883,922,1677,1370,1485,1162,3678,2448,962,828]","trial_type":"two-door-navigation","trial_index":9,"time_elapsed":884852,"internal_node_id":"0.0-2.0-7.0"},{"group":"tri cycles (cube, non-group)","room_assignment":["green","purple","blue","pink","red","grey","yellow","brown"],"door_color_assignment":["white","black"],"door_generator_assignment":[1,0],"goal":6,"start":4,"action_noise":0.1,"location_history":"[4,7,6]","action_history":"[0,0]","door_history":"[1,1]","location_rts":"[2275,1789]","trial_type":"two-door-navigation","trial_index":10,"time_elapsed":894583,"internal_node_id":"0.0-2.0-8.0"},{"group":"tri cycles (cube, non-group)","room_assignment":["green","purple","blue","pink","red","grey","yellow","brown"],"door_color_assignment":["white","black"],"door_generator_assignment":[1,0],"goal":0,"start":6,"action_noise":0.1,"location_history":"[6,5,1,0]","action_history":"[1,0,0]","door_history":"[0,1,1]","location_rts":"[3776,1509,889]","trial_type":"two-door-navigation","trial_index":11,"time_elapsed":907465,"internal_node_id":"0.0-2.0-9.0"},{"group":"tri cycles (cube, non-group)","room_assignment":["green","purple","blue","pink","red","grey","yellow","brown"],"door_color_assignment":["white","black"],"door_generator_assignment":[1,0],"goal":1,"start":0,"action_noise":0.1,"location_history":"[0,2,1]","action_history":"[0,0]","door_history":"[1,1]","location_rts":"[5213,2094]","trial_type":"two-door-navigation","trial_index":12,"time_elapsed":920427,"internal_node_id":"0.0-2.0-10.0"},{"group":"tri cycles (cube, non-group)","room_assignment":["green","purple","blue","pink","red","grey","yellow","brown"],"door_color_assignment":["white","black"],"door_generator_assignment":[1,0],"goal":3,"start":1,"action_noise":0.1,"location_history":"[1,5,2,6,5,2,6,4,0,3]","action_history":"[1,1,1,1,1,1,0,1,1]","door_history":"[0,0,0,0,0,0,1,0,0]","location_rts":"[7657,851,845,799,760,951,1688,1026,919]","trial_type":"two-door-navigation","trial_index":13,"time_elapsed":949074,"internal_node_id":"0.0-2.0-11.0"},{"group":"tri cycles (cube, non-group)","room_assignment":["green","purple","blue","pink","red","grey","yellow","brown"],"door_color_assignment":["white","black"],"door_generator_assignment":[1,0],"goal":7,"start":3,"action_noise":0.1,"location_history":"[3,4,7]","action_history":"[1,0]","door_history":"[0,1]","location_rts":"[3197,23777]","trial_type":"two-door-navigation","trial_index":14,"time_elapsed":981698,"internal_node_id":"0.0-2.0-12.0"},{"group":"tri cycles (cube, non-group)","room_assignment":["green","purple","blue","pink","red","grey","yellow","brown"],"door_color_assignment":["white","black"],"door_generator_assignment":[1,0],"goal":5,"start":7,"action_noise":0.1,"location_history":"[7,6,5]","action_history":"[0,1]","door_history":"[1,0]","location_rts":"[1655,1888]","trial_type":"two-door-navigation","trial_index":15,"time_elapsed":990893,"internal_node_id":"0.0-2.0-13.0"},{"group":"tri cycles (cube, non-group)","room_assignment":["green","purple","blue","pink","red","grey","yellow","brown"],"door_color_assignment":["white","black"],"door_generator_assignment":[1,0],"goal":2,"start":5,"action_noise":0.1,"location_history":"[5,1,5,2]","action_history":"[0,1,1]","door_history":"[1,0,0]","location_rts":"[3330,857,773]","trial_type":"two-door-navigation","trial_index":16,"time_elapsed":1002581,"internal_node_id":"0.0-2.0-14.0"},{"group":"tri cycles (cube, non-group)","room_assignment":["green","purple","blue","pink","red","grey","yellow","brown"],"door_color_assignment":["white","black"],"door_generator_assignment":[1,0],"goal":7,"start":2,"action_noise":0.1,"location_history":"[2,6,5,1,0,2,1,5,1,5,1,0,3,7]","action_history":"[1,0,0,0,0,0,1,0,1,0,1,1,0]","door_history":"[0,1,1,1,1,1,0,1,0,1,0,0,1]","location_rts":"[2197,855,865,897,827,888,1819,1466,1648,2423,2020,1233,1069]","trial_type":"two-door-navigation","trial_index":17,"time_elapsed":1038248,"internal_node_id":"0.0-2.0-15.0"},{"group":"tri cycles (cube, non-group)","room_assignment":["green","purple","blue","pink","red","grey","yellow","brown"],"door_color_assignment":["white","black"],"door_generator_assignment":[1,0],"goal":4,"start":7,"action_noise":0.1,"location_history":"[7,3,7,6,4]","action_history":"[1,0,0,0]","door_history":"[0,1,1,1]","location_rts":"[2533,2009,2641,846]","trial_type":"two-door-navigation","trial_index":18,"time_elapsed":1054092,"internal_node_id":"0.0-2.0-16.0"},{"group":"tri cycles (cube, non-group)","room_assignment":["green","purple","blue","pink","red","grey","yellow","brown"],"door_color_assignment":["white","black"],"door_generator_assignment":[1,0],"goal":2,"start":4,"action_noise":0.1,"location_history":"[4,7,6,4,7,3,7,6,4,7,6,5,1,0,2]","action_history":"[1,0,0,0,1,0,0,0,0,0,1,0,0,0]","door_history":"[0,1,1,1,0,1,1,1,1,1,0,1,1,1]","location_rts":"[2472,1282,782,927,1904,995,936,951,923,1951,878,1554,885,1028]","trial_type":"two-door-navigation","trial_index":19,"time_elapsed":1090072,"internal_node_id":"0.0-2.0-17.0"},{"group":"tri cycles (cube, non-group)","room_assignment":["green","purple","blue","pink","red","grey","yellow","brown"],"door_color_assignment":["white","black"],"door_generator_assignment":[1,0],"goal":3,"start":2,"action_noise":0.1,"location_history":"[2,1,5,2,6,5,2,1,0,3]","action_history":"[0,1,1,1,1,1,0,1,1]","door_history":"[1,0,0,0,0,0,1,0,0]","location_rts":"[2686,1723,976,1599,903,1017,2695,763,1175]","trial_type":"two-door-navigation","trial_index":20,"time_elapsed":1116794,"internal_node_id":"0.0-2.0-18.0"},{"group":"tri cycles (cube, non-group)","room_assignment":["green","purple","blue","pink","red","grey","yellow","brown"],"door_color_assignment":["white","black"],"door_generator_assignment":[1,0],"goal":6,"start":3,"action_noise":0.1,"location_history":"[3,7,6]","action_history":"[0,0]","door_history":"[1,1]","location_rts":"[3429,2654]","trial_type":"two-door-navigation","trial_index":21,"time_elapsed":1128541,"internal_node_id":"0.0-2.0-19.0"},{"group":"tri cycles (cube, non-group)","room_assignment":["green","purple","blue","pink","red","grey","yellow","brown"],"door_color_assignment":["white","black"],"door_generator_assignment":[1,0],"goal":5,"start":6,"action_noise":0.1,"location_history":"[6,5]","action_history":"[1]","door_history":"[0]","location_rts":"[3585]","trial_type":"two-door-navigation","trial_index":22,"time_elapsed":1136725,"internal_node_id":"0.0-2.0-20.0"},{"group":"tri cycles (cube, non-group)","room_assignment":["green","purple","blue","pink","red","grey","yellow","brown"],"door_color_assignment":["white","black"],"door_generator_assignment":[1,0],"goal":1,"start":5,"action_noise":0.1,"location_history":"[5,2,1]","action_history":"[1,0]","door_history":"[0,1]","location_rts":"[1913,1973]","trial_type":"two-door-navigation","trial_index":23,"time_elapsed":1146255,"internal_node_id":"0.0-2.0-21.0"},{"group":"tri cycles (cube, non-group)","room_assignment":["green","purple","blue","pink","red","grey","yellow","brown"],"door_color_assignment":["white","black"],"door_generator_assignment":[1,0],"goal":0,"start":1,"action_noise":0.1,"location_history":"[1,0]","action_history":"[0]","door_history":"[1]","location_rts":"[1992]","trial_type":"two-door-navigation","trial_index":24,"time_elapsed":1152837,"internal_node_id":"0.0-2.0-22.0"},{"group":"tri cycles (cube, non-group)","room_assignment":["green","purple","blue","pink","red","grey","yellow","brown"],"door_color_assignment":["white","black"],"door_generator_assignment":[1,0],"goal":2,"start":0,"action_noise":0.1,"location_history":"[0,2]","action_history":"[0]","door_history":"[1]","location_rts":"[1855]","trial_type":"two-door-navigation","trial_index":25,"time_elapsed":1159267,"internal_node_id":"0.0-2.0-23.0"},{"group":"tri cycles (cube, non-group)","room_assignment":["green","purple","blue","pink","red","grey","yellow","brown"],"door_color_assignment":["white","black"],"door_generator_assignment":[1,0],"goal":6,"start":2,"action_noise":0.1,"location_history":"[2,1,0,2,1,0,3,7,6]","action_history":"[0,0,0,0,0,1,0,0]","door_history":"[1,1,1,1,1,0,1,1]","location_rts":"[1797,958,923,950,965,1793,763,776]","trial_type":"two-door-navigation","trial_index":26,"time_elapsed":1180278,"internal_node_id":"0.0-2.0-24.0"},{"group":"tri cycles (cube, non-group)","room_assignment":["green","purple","blue","pink","red","grey","yellow","brown"],"door_color_assignment":["white","black"],"door_generator_assignment":[1,0],"goal":1,"start":6,"action_noise":0.1,"location_history":"[6,5,1]","action_history":"[1,0]","door_history":"[0,1]","location_rts":"[2589,760]","trial_type":"two-door-navigation","trial_index":27,"time_elapsed":1189240,"internal_node_id":"0.0-2.0-25.0"},{"group":"tri cycles (cube, non-group)","room_assignment":["green","purple","blue","pink","red","grey","yellow","brown"],"door_color_assignment":["white","black"],"door_generator_assignment":[1,0],"goal":3,"start":1,"action_noise":0.1,"location_history":"[1,0,3]","action_history":"[0,1]","door_history":"[1,0]","location_rts":"[1831,915]","trial_type":"two-door-navigation","trial_index":28,"time_elapsed":1197638,"internal_node_id":"0.0-2.0-26.0"},{"group":"tri cycles (cube, non-group)","room_assignment":["green","purple","blue","pink","red","grey","yellow","brown"],"door_color_assignment":["white","black"],"door_generator_assignment":[1,0],"goal":7,"start":3,"action_noise":0.1,"location_history":"[3,4,7]","action_history":"[1,0]","door_history":"[0,1]","location_rts":"[1487,961]","trial_type":"two-door-navigation","trial_index":29,"time_elapsed":1205745,"internal_node_id":"0.0-2.0-27.0"},{"group":"tri cycles (cube, non-group)","room_assignment":["green","purple","blue","pink","red","grey","yellow","brown"],"door_color_assignment":["white","black"],"door_generator_assignment":[1,0],"goal":4,"start":7,"action_noise":0.1,"location_history":"[7,3,4]","action_history":"[0,1]","door_history":"[1,0]","location_rts":"[1722,908]","trial_type":"two-door-navigation","trial_index":30,"time_elapsed":1214012,"internal_node_id":"0.0-2.0-28.0"},{"group":"tri cycles (cube, non-group)","room_assignment":["green","purple","blue","pink","red","grey","yellow","brown"],"door_color_assignment":["white","black"],"door_generator_assignment":[1,0],"goal":0,"start":4,"action_noise":0.1,"location_history":"[4,0]","action_history":"[1]","door_history":"[0]","location_rts":"[3716]","trial_type":"two-door-navigation","trial_index":31,"time_elapsed":1222288,"internal_node_id":"0.0-2.0-29.0"},{"group":"tri cycles (cube, non-group)","room_assignment":["green","purple","blue","pink","red","grey","yellow","brown"],"door_color_assignment":["white","black"],"door_generator_assignment":[1,0],"goal":5,"start":0,"action_noise":0.1,"location_history":"[0,3,7,3,4,7,3,7,3,7,6,5]","action_history":"[1,0,0,1,0,0,0,1,0,0,1]","door_history":"[0,1,1,0,1,1,1,0,1,1,0]","location_rts":"[2034,979,916,1394,1648,841,1669,829,804,956,2105]","trial_type":"two-door-navigation","trial_index":32,"time_elapsed":1251726,"internal_node_id":"0.0-2.0-30.0"},{"group":"tri cycles (cube, non-group)","room_assignment":["green","purple","blue","pink","red","grey","yellow","brown"],"door_color_assignment":["white","black"],"door_generator_assignment":[1,0],"goal":3,"start":5,"action_noise":0.1,"location_history":"[5,1,5,2,1,5,2,6,5,1,5,2,1,5,2,6,4,7,3]","action_history":"[0,1,1,0,1,1,1,1,1,1,1,0,1,1,1,1,0,1]","door_history":"[1,0,0,1,0,0,0,0,0,0,0,1,0,0,0,0,1,0]","location_rts":"[4110,1036,1484,1477,655,970,1226,819,1081,1275,1950,2270,808,783,951,1217,1451,786]","trial_type":"two-door-navigation","trial_index":33,"time_elapsed":1298798,"internal_node_id":"0.0-2.0-31.0"},{"group":"tri cycles (cube, non-group)","room_assignment":["green","purple","blue","pink","red","grey","yellow","brown"],"door_color_assignment":["white","black"],"door_generator_assignment":[1,0],"goal":2,"start":3,"action_noise":0.1,"location_history":"[3,7,3,4,7,6,4,7,3,4,7,6,4,0,2]","action_history":"[0,0,1,0,0,0,0,1,0,0,0,0,1,0]","door_history":"[1,1,0,1,1,1,1,0,1,1,1,1,0,1]","location_rts":"[2477,938,1436,714,885,1132,961,2100,1417,970,1052,1106,1851,1090]","trial_type":"two-door-navigation","trial_index":34,"time_elapsed":1335432,"internal_node_id":"0.0-2.0-32.0"},{"group":"tri cycles (cube, non-group)","room_assignment":["green","purple","blue","pink","red","grey","yellow","brown"],"door_color_assignment":["white","black"],"door_generator_assignment":[1,0],"goal":6,"start":2,"action_noise":0.1,"location_history":"[2,1,5,1,0,3,4,7,3,7,6]","action_history":"[0,0,0,1,1,1,0,0,0,0]","door_history":"[1,1,1,0,0,0,1,1,1,1]","location_rts":"[1892,1469,1188,1450,2042,1235,1836,921,817,936]","trial_type":"two-door-navigation","trial_index":35,"time_elapsed":1363500,"internal_node_id":"0.0-2.0-33.0"},{"group":"tri cycles (cube, non-group)","room_assignment":["green","purple","blue","pink","red","grey","yellow","brown"],"door_color_assignment":["white","black"],"door_generator_assignment":[1,0],"goal":1,"start":6,"action_noise":0.1,"location_history":"[6,4,7,6,4,7,3,4,7,6,4,0,3,7,3,4,0,2,1]","action_history":"[0,0,0,1,0,1,0,0,0,0,1,0,0,1,1,1,1,0]","door_history":"[1,1,1,0,1,0,1,1,1,1,0,1,1,0,0,0,0,1]","location_rts":"[1827,741,1155,1618,863,1583,711,913,821,1140,1672,1690,902,2386,943,1547,1795,2767]","trial_type":"two-door-navigation","trial_index":36,"time_elapsed":1411419,"internal_node_id":"0.0-2.0-34.0"},{"group":"tri cycles (cube, non-group)","room_assignment":["green","purple","blue","pink","red","grey","yellow","brown"],"door_color_assignment":["white","black"],"door_generator_assignment":[1,0],"goal":7,"start":1,"action_noise":0.1,"location_history":"[1,0,2,1,5,2,6,4,7]","action_history":"[0,0,0,1,1,1,0,0]","door_history":"[1,1,1,0,0,0,1,1]","location_rts":"[1890,955,944,1607,992,954,1678,979]","trial_type":"two-door-navigation","trial_index":37,"time_elapsed":1433543,"internal_node_id":"0.0-2.0-35.0"},{"group":"tri cycles (cube, non-group)","room_assignment":["green","purple","blue","pink","red","grey","yellow","brown"],"door_color_assignment":["white","black"],"door_generator_assignment":[1,0],"goal":4,"start":7,"action_noise":0.1,"location_history":"[7,6,4]","action_history":"[0,0]","door_history":"[1,1]","location_rts":"[1850,1331]","trial_type":"two-door-navigation","trial_index":38,"time_elapsed":1442384,"internal_node_id":"0.0-2.0-36.0"},{"group":"tri cycles (cube, non-group)","room_assignment":["green","purple","blue","pink","red","grey","yellow","brown"],"door_color_assignment":["white","black"],"door_generator_assignment":[1,0],"goal":5,"start":4,"action_noise":0.1,"location_history":"[4,0,3,7,6,5]","action_history":"[1,1,0,0,1]","door_history":"[0,0,1,1,0]","location_rts":"[2664,905,1403,911,1785]","trial_type":"two-door-navigation","trial_index":39,"time_elapsed":1458945,"internal_node_id":"0.0-2.0-37.0"},{"group":"tri cycles (cube, non-group)","room_assignment":["green","purple","blue","pink","red","grey","yellow","brown"],"door_color_assignment":["white","black"],"door_generator_assignment":[1,0],"goal":0,"start":5,"action_noise":0.1,"location_history":"[5,2,1,5,2,1,5,2,1,5,2,6,4,7,3,7,3,7,6,4,0]","action_history":"[0,0,1,1,0,1,1,0,1,1,1,0,0,0,0,1,0,0,0,1]","door_history":"[1,1,0,0,1,0,0,1,0,0,0,1,1,1,1,0,1,1,1,0]","location_rts":"[2117,891,1505,1027,2218,1760,1067,1151,1673,1132,1366,1199,928,788,932,1386,2377,850,906,1407]","trial_type":"two-door-navigation","trial_index":40,"time_elapsed":1510621,"internal_node_id":"0.0-2.0-38.0"},{"group":"tri cycles (cube, non-group)","room_assignment":["green","purple","blue","pink","red","grey","yellow","brown"],"door_color_assignment":["white","black"],"door_generator_assignment":[1,0],"goal":4,"start":0,"action_noise":0.1,"location_history":"[0,2,1,0,3,4]","action_history":"[0,0,0,1,1]","door_history":"[1,1,1,0,0]","location_rts":"[2195,999,1696,714,1053]","trial_type":"two-door-navigation","trial_index":41,"time_elapsed":1526149,"internal_node_id":"0.0-2.0-39.0"},{"group":"tri cycles (cube, non-group)","room_assignment":["green","purple","blue","pink","red","grey","yellow","brown"],"door_color_assignment":["white","black"],"door_generator_assignment":[1,0],"goal":0,"start":4,"action_noise":0.1,"location_history":"[4,7,6,4,0]","action_history":"[0,0,0,1]","door_history":"[1,1,1,0]","location_rts":"[3853,1237,1049,1993]","trial_type":"two-door-navigation","trial_index":42,"time_elapsed":1542080,"internal_node_id":"0.0-2.0-40.0"},{"group":"tri cycles (cube, non-group)","room_assignment":["green","purple","blue","pink","red","grey","yellow","brown"],"door_color_assignment":["white","black"],"door_generator_assignment":[1,0],"goal":2,"start":0,"action_noise":0.1,"location_history":"[0,2]","action_history":"[0]","door_history":"[1]","location_rts":"[2105]","trial_type":"two-door-navigation","trial_index":43,"time_elapsed":1548783,"internal_node_id":"0.0-2.0-41.0"},{"group":"tri cycles (cube, non-group)","room_assignment":["green","purple","blue","pink","red","grey","yellow","brown"],"door_color_assignment":["white","black"],"door_generator_assignment":[1,0],"goal":3,"start":2,"action_noise":0.1,"location_history":"[2,6,4,0,3]","action_history":"[1,1,0,1]","door_history":"[0,0,1,0]","location_rts":"[4339,916,1800,1951]","trial_type":"two-door-navigation","trial_index":44,"time_elapsed":1565609,"internal_node_id":"0.0-2.0-42.0"},{"group":"tri cycles (cube, non-group)","room_assignment":["green","purple","blue","pink","red","grey","yellow","brown"],"door_color_assignment":["white","black"],"door_generator_assignment":[1,0],"goal":5,"start":3,"action_noise":0.1,"location_history":"[3,4,7,6,4,7,3,7,6,4,0,3,4,7,6,4,7,3,4,0,2,1,5]","action_history":"[1,0,0,0,0,1,0,0,0,1,1,1,0,0,0,0,1,1,1,0,0,0]","door_history":"[0,1,1,1,1,0,1,1,1,0,0,0,1,1,1,1,0,0,0,1,1,1]","location_rts":"[2676,1379,930,1042,947,1449,2755,1262,920,1648,2109,1203,1528,889,906,930,1266,1779,915,1407,914,987]","trial_type":"two-door-navigation","trial_index":45,"time_elapsed":1622570,"internal_node_id":"0.0-2.0-43.0"},{"group":"tri cycles (cube, non-group)","room_assignment":["green","purple","blue","pink","red","grey","yellow","brown"],"door_color_assignment":["white","black"],"door_generator_assignment":[1,0],"goal":1,"start":5,"action_noise":0.1,"location_history":"[5,1]","action_history":"[0]","door_history":"[1]","location_rts":"[1912]","trial_type":"two-door-navigation","trial_index":46,"time_elapsed":1629063,"internal_node_id":"0.0-2.0-44.0"},{"group":"tri cycles (cube, non-group)","room_assignment":["green","purple","blue","pink","red","grey","yellow","brown"],"door_color_assignment":["white","black"],"door_generator_assignment":[1,0],"goal":7,"start":1,"action_noise":0.1,"location_history":"[1,0,3,4,7]","action_history":"[0,1,0,0]","door_history":"[1,0,1,1]","location_rts":"[2307,1874,1217,1033]","trial_type":"two-door-navigation","trial_index":47,"time_elapsed":1643302,"internal_node_id":"0.0-2.0-45.0"},{"group":"tri cycles (cube, non-group)","room_assignment":["green","purple","blue","pink","red","grey","yellow","brown"],"door_color_assignment":["white","black"],"door_generator_assignment":[1,0],"goal":6,"start":7,"action_noise":0.1,"location_history":"[7,6]","action_history":"[0]","door_history":"[1]","location_rts":"[1652]","trial_type":"two-door-navigation","trial_index":48,"time_elapsed":1649547,"internal_node_id":"0.0-2.0-46.0"},{"group":"tri cycles (cube, non-group)","room_assignment":["green","purple","blue","pink","red","grey","yellow","brown"],"door_color_assignment":["white","black"],"door_generator_assignment":[1,0],"goal":3,"start":6,"action_noise":0.1,"location_history":"[6,5,1,5,1,5,2,6,5,1,0,3]","action_history":"[1,1,1,0,1,1,1,1,0,1,1]","door_history":"[0,0,0,1,0,0,0,0,1,0,0]","location_rts":"[2543,839,1400,4116,1786,1047,1274,1717,1691,1316,1570]","trial_type":"two-door-navigation","trial_index":49,"time_elapsed":1684157,"internal_node_id":"0.0-2.0-47.0"},{"group":"tri cycles (cube, non-group)","room_assignment":["green","purple","blue","pink","red","grey","yellow","brown"],"door_color_assignment":["white","black"],"door_generator_assignment":[1,0],"goal":0,"start":3,"action_noise":0.1,"location_history":"[3,7,6,4,7,6,4,7,6,5,1,0]","action_history":"[0,0,0,0,1,0,0,0,1,0,0]","door_history":"[1,1,1,1,0,1,1,1,0,1,1]","location_rts":"[2968,933,1328,915,1550,890,1050,1764,914,1221,1050]","trial_type":"two-door-navigation","trial_index":50,"time_elapsed":1714047,"internal_node_id":"0.0-2.0-48.0"},{"group":"tri cycles (cube, non-group)","room_assignment":["green","purple","blue","pink","red","grey","yellow","brown"],"door_color_assignment":["white","black"],"door_generator_assignment":[1,0],"goal":2,"start":0,"action_noise":0.1,"location_history":"[0,2]","action_history":"[0]","door_history":"[1]","location_rts":"[2790]","trial_type":"two-door-navigation","trial_index":51,"time_elapsed":1721418,"internal_node_id":"0.0-2.0-49.0"},{"view_history":"[{\"page_index\":0,\"viewing_time\":2942}]","rt":2943,"trial_type":"instructions","trial_index":52,"time_elapsed":1725365,"internal_node_id":"0.0-3.0"},{"view_history":"[{\"page_index\":0,\"viewing_time\":1682},{\"page_index\":1,\"viewing_time\":17519}]","rt":19201,"trial_type":"instructions","trial_index":53,"time_elapsed":1745570,"internal_node_id":"0.0-4.0"},{"group":"tri cycles (cube, non-group)","fractal_assignment":["../images/ylw_slt.png","../images/cyn_red.png","../images/org_blu.png","../images/pnk_blu.png","../images/ylw_pnk.png","../images/grn_red.png","../images/gry_blk.png","../images/blu_wht.png"],"mutagen_generator_assignment":[1,0],"goal":3,"start":0,"action_noise":0.1,"location_history":"[0,3]","action_history":"[1]","mutagen_history":"[0]","location_rts":"[2686]","trial_type":"fractal-mutation","trial_index":54,"time_elapsed":1752844,"internal_node_id":"0.0-5.0-0.0"},{"group":"tri cycles (cube, non-group)","fractal_assignment":["../images/ylw_slt.png","../images/cyn_red.png","../images/org_blu.png","../images/pnk_blu.png","../images/ylw_pnk.png","../images/grn_red.png","../images/gry_blk.png","../images/blu_wht.png"],"mutagen_generator_assignment":[1,0],"goal":1,"start":3,"action_noise":0.1,"location_history":"[3,7,3,4,0,3,7,6,4,7,3,4,0,3,4,0,3,7,6,4,7,6,5,2,6,4,0,2,1]","action_history":"[0,1,1,0,0,0,0,0,0,1,1,1,1,1,1,1,0,0,0,0,0,1,1,1,0,1,0,1]","mutagen_history":"[1,0,0,1,1,1,1,1,1,0,0,0,0,0,0,0,1,1,1,1,1,0,0,0,1,0,1,0]","location_rts":"[676,2433,1138,1100,1434,1800,982,684,1339,646,688,459,549,673,491,683,1182,1111,829,649,2903,642,1099,817,783,454,1124,37]","trial_type":"fractal-mutation","trial_index":55,"time_elapsed":1813957,"internal_node_id":"0.0-5.0-1.0"},{"group":"tri cycles (cube, non-group)","fractal_assignment":["../images/ylw_slt.png","../images/cyn_red.png","../images/org_blu.png","../images/pnk_blu.png","../images/ylw_pnk.png","../images/grn_red.png","../images/gry_blk.png","../images/blu_wht.png"],"mutagen_generator_assignment":[1,0],"goal":2,"start":1,"action_noise":0.1,"location_history":"[1,5,1,0,3,7,6,4,7,3,4,0,3,4,0,3,4,0,3,7,6,4,7,3,4,7,3,4,0,2]","action_history":"[1,0,0,1,0,0,0,0,1,1,1,1,1,0,1,1,1,1,0,0,1,0,1,1,1,1,1,1,0]","mutagen_history":"[0,1,1,0,1,1,1,1,0,0,0,0,0,1,0,0,0,0,1,1,0,1,0,0,0,0,0,0,1]","location_rts":"[1833,656,963,856,1251,681,473,464,1237,581,947,714,835,998,1904,646,646,683,732,1078,972,1260,526,1089,2015,717,3818,596,1192]","trial_type":"fractal-mutation","trial_index":56,"time_elapsed":1879166,"internal_node_id":"0.0-5.0-2.0"},{"group":"tri cycles (cube, non-group)","fractal_assignment":["../images/ylw_slt.png","../images/cyn_red.png","../images/org_blu.png","../images/pnk_blu.png","../images/ylw_pnk.png","../images/grn_red.png","../images/gry_blk.png","../images/blu_wht.png"],"mutagen_generator_assignment":[1,0],"goal":6,"start":2,"action_noise":0.1,"location_history":"[2,6]","action_history":"[0]","mutagen_history":"[1]","location_rts":"[1370]","trial_type":"fractal-mutation","trial_index":57,"time_elapsed":1885127,"internal_node_id":"0.0-5.0-3.0"},{"group":"tri cycles (cube, non-group)","fractal_assignment":["../images/ylw_slt.png","../images/cyn_red.png","../images/org_blu.png","../images/pnk_blu.png","../images/ylw_pnk.png","../images/grn_red.png","../images/gry_blk.png","../images/blu_wht.png"],"mutagen_generator_assignment":[1,0],"goal":5,"start":6,"action_noise":0.1,"location_history":"[6,5]","action_history":"[1]","mutagen_history":"[0]","location_rts":"[969]","trial_type":"fractal-mutation","trial_index":58,"time_elapsed":1890675,"internal_node_id":"0.0-5.0-4.0"},{"group":"tri cycles (cube, non-group)","fractal_assignment":["../images/ylw_slt.png","../images/cyn_red.png","../images/org_blu.png","../images/pnk_blu.png","../images/ylw_pnk.png","../images/grn_red.png","../images/gry_blk.png","../images/blu_wht.png"],"mutagen_generator_assignment":[1,0],"goal":4,"start":5,"action_noise":0.1,"location_history":"[5,1,0,3,4]","action_history":"[0,0,1,1]","mutagen_history":"[1,1,0,0]","location_rts":"[1382,1204,3992,1565]","trial_type":"fractal-mutation","trial_index":59,"time_elapsed":1906648,"internal_node_id":"0.0-5.0-5.0"},{"group":"tri cycles (cube, non-group)","fractal_assignment":["../images/ylw_slt.png","../images/cyn_red.png","../images/org_blu.png","../images/pnk_blu.png","../images/ylw_pnk.png","../images/grn_red.png","../images/gry_blk.png","../images/blu_wht.png"],"mutagen_generator_assignment":[1,0],"goal":7,"start":4,"action_noise":0.1,"location_history":"[4,7]","action_history":"[0]","mutagen_history":"[1]","location_rts":"[5952]","trial_type":"fractal-mutation","trial_index":60,"time_elapsed":1917193,"internal_node_id":"0.0-5.0-6.0"},{"group":"tri cycles (cube, non-group)","fractal_assignment":["../images/ylw_slt.png","../images/cyn_red.png","../images/org_blu.png","../images/pnk_blu.png","../images/ylw_pnk.png","../images/grn_red.png","../images/gry_blk.png","../images/blu_wht.png"],"mutagen_generator_assignment":[1,0],"goal":4,"start":7,"action_noise":0.1,"location_history":"[7,3,4]","action_history":"[1,1]","mutagen_history":"[0,0]","location_rts":"[2198,486]","trial_type":"fractal-mutation","trial_index":61,"time_elapsed":1925546,"internal_node_id":"0.0-5.0-7.0"},{"group":"tri cycles (cube, non-group)","fractal_assignment":["../images/ylw_slt.png","../images/cyn_red.png","../images/org_blu.png","../images/pnk_blu.png","../images/ylw_pnk.png","../images/grn_red.png","../images/gry_blk.png","../images/blu_wht.png"],"mutagen_generator_assignment":[1,0],"goal":6,"start":4,"action_noise":0.1,"location_history":"[4,0,3,4,7,6]","action_history":"[1,1,1,1,0]","mutagen_history":"[0,0,0,0,1]","location_rts":"[956,458,421,845,1311]","trial_type":"fractal-mutation","trial_index":62,"time_elapsed":1938413,"internal_node_id":"0.0-5.0-8.0"},{"group":"tri cycles (cube, non-group)","fractal_assignment":["../images/ylw_slt.png","../images/cyn_red.png","../images/org_blu.png","../images/pnk_blu.png","../images/ylw_pnk.png","../images/grn_red.png","../images/gry_blk.png","../images/blu_wht.png"],"mutagen_generator_assignment":[1,0],"goal":0,"start":6,"action_noise":0.1,"location_history":"[6,4,7,6,4,7,6,4,7,6,4,0]","action_history":"[0,0,0,0,0,1,0,0,0,1,1]","mutagen_history":"[1,1,1,1,1,0,1,1,1,0,0]","location_rts":"[1491,579,588,873,490,714,839,530,523,787,424]","trial_type":"fractal-mutation","trial_index":63,"time_elapsed":1961630,"internal_node_id":"0.0-5.0-9.0"},{"group":"tri cycles (cube, non-group)","fractal_assignment":["../images/ylw_slt.png","../images/cyn_red.png","../images/org_blu.png","../images/pnk_blu.png","../images/ylw_pnk.png","../images/grn_red.png","../images/gry_blk.png","../images/blu_wht.png"],"mutagen_generator_assignment":[1,0],"goal":1,"start":0,"action_noise":0.1,"location_history":"[0,3,4,0,3,4,7,6,5,2,6,5,1]","action_history":"[1,1,1,1,1,0,0,1,1,1,1,0]","mutagen_history":"[0,0,0,0,0,1,1,0,0,0,0,1]","location_rts":"[2570,528,723,613,726,668,816,671,647,743,724,865]","trial_type":"fractal-mutation","trial_index":64,"time_elapsed":1988388,"internal_node_id":"0.0-5.0-10.0"},{"group":"tri cycles (cube, non-group)","fractal_assignment":["../images/ylw_slt.png","../images/cyn_red.png","../images/org_blu.png","../images/pnk_blu.png","../images/ylw_pnk.png","../images/grn_red.png","../images/gry_blk.png","../images/blu_wht.png"],"mutagen_generator_assignment":[1,0],"goal":3,"start":1,"action_noise":0.1,"location_history":"[1,5,2,1,0,2,1,0,3]","action_history":"[1,1,0,0,0,0,0,1]","mutagen_history":"[0,0,1,1,1,1,1,0]","location_rts":"[2474,501,468,708,524,497,611,816]","trial_type":"fractal-mutation","trial_index":65,"time_elapsed":2007139,"internal_node_id":"0.0-5.0-11.0"},{"group":"tri cycles (cube, non-group)","fractal_assignment":["../images/ylw_slt.png","../images/cyn_red.png","../images/org_blu.png","../images/pnk_blu.png","../images/ylw_pnk.png","../images/grn_red.png","../images/gry_blk.png","../images/blu_wht.png"],"mutagen_generator_assignment":[1,0],"goal":7,"start":3,"action_noise":0.1,"location_history":"[3,7]","action_history":"[1]","mutagen_history":"[0]","location_rts":"[1762]","trial_type":"fractal-mutation","trial_index":66,"time_elapsed":2013495,"internal_node_id":"0.0-5.0-12.0"},{"group":"tri cycles (cube, non-group)","fractal_assignment":["../images/ylw_slt.png","../images/cyn_red.png","../images/org_blu.png","../images/pnk_blu.png","../images/ylw_pnk.png","../images/grn_red.png","../images/gry_blk.png","../images/blu_wht.png"],"mutagen_generator_assignment":[1,0],"goal":5,"start":7,"action_noise":0.1,"location_history":"[7,6,4,7,3,4,0,3,4,0,2,6,5]","action_history":"[0,0,0,1,1,1,1,1,0,1,1,1]","mutagen_history":"[1,1,1,0,0,0,0,0,1,0,0,0]","location_rts":"[1493,690,904,393,406,853,462,715,531,356,658,490]","trial_type":"fractal-mutation","trial_index":67,"time_elapsed":2037907,"internal_node_id":"0.0-5.0-13.0"},{"group":"tri cycles (cube, non-group)","fractal_assignment":["../images/ylw_slt.png","../images/cyn_red.png","../images/org_blu.png","../images/pnk_blu.png","../images/ylw_pnk.png","../images/grn_red.png","../images/gry_blk.png","../images/blu_wht.png"],"mutagen_generator_assignment":[1,0],"goal":2,"start":5,"action_noise":0.1,"location_history":"[5,2]","action_history":"[1]","mutagen_history":"[0]","location_rts":"[1408]","trial_type":"fractal-mutation","trial_index":68,"time_elapsed":2043890,"internal_node_id":"0.0-5.0-14.0"},{"group":"tri cycles (cube, non-group)","fractal_assignment":["../images/ylw_slt.png","../images/cyn_red.png","../images/org_blu.png","../images/pnk_blu.png","../images/ylw_pnk.png","../images/grn_red.png","../images/gry_blk.png","../images/blu_wht.png"],"mutagen_generator_assignment":[1,0],"goal":7,"start":2,"action_noise":0.1,"location_history":"[2,6,4,7]","action_history":"[1,0,0]","mutagen_history":"[0,1,1]","location_rts":"[1243,406,420]","trial_type":"fractal-mutation","trial_index":69,"time_elapsed":2052725,"internal_node_id":"0.0-5.0-15.0"},{"group":"tri cycles (cube, non-group)","fractal_assignment":["../images/ylw_slt.png","../images/cyn_red.png","../images/org_blu.png","../images/pnk_blu.png","../images/ylw_pnk.png","../images/grn_red.png","../images/gry_blk.png","../images/blu_wht.png"],"mutagen_generator_assignment":[1,0],"goal":4,"start":7,"action_noise":0.1,"location_history":"[7,3,4]","action_history":"[1,0]","mutagen_history":"[0,1]","location_rts":"[903,497]","trial_type":"fractal-mutation","trial_index":70,"time_elapsed":2059794,"internal_node_id":"0.0-5.0-16.0"},{"group":"tri cycles (cube, non-group)","fractal_assignment":["../images/ylw_slt.png","../images/cyn_red.png","../images/org_blu.png","../images/pnk_blu.png","../images/ylw_pnk.png","../images/grn_red.png","../images/gry_blk.png","../images/blu_wht.png"],"mutagen_generator_assignment":[1,0],"goal":2,"start":4,"action_noise":0.1,"location_history":"[4,7,3,4,0,3,7,6,4,7,6,5,2]","action_history":"[0,1,1,1,1,0,0,0,0,0,1,1]","mutagen_history":"[1,0,0,0,0,1,1,1,1,1,0,0]","location_rts":"[758,343,564,1045,475,488,855,477,441,1084,730,650]","trial_type":"fractal-mutation","trial_index":71,"time_elapsed":2084159,"internal_node_id":"0.0-5.0-17.0"},{"group":"tri cycles (cube, non-group)","fractal_assignment":["../images/ylw_slt.png","../images/cyn_red.png","../images/org_blu.png","../images/pnk_blu.png","../images/ylw_pnk.png","../images/grn_red.png","../images/gry_blk.png","../images/blu_wht.png"],"mutagen_generator_assignment":[1,0],"goal":3,"start":2,"action_noise":0.1,"location_history":"[2,6,4,7,6,5,2,6,5,2,6,4,7,6,4,7,3]","action_history":"[1,0,0,0,1,1,1,1,1,1,0,0,0,0,0,1]","mutagen_history":"[0,1,1,1,0,0,0,0,0,0,1,1,1,1,1,0]","location_rts":"[1673,458,612,1329,492,609,556,471,472,812,456,629,411,397,369,881]","trial_type":"fractal-mutation","trial_index":72,"time_elapsed":2115584,"internal_node_id":"0.0-5.0-18.0"},{"group":"tri cycles (cube, non-group)","fractal_assignment":["../images/ylw_slt.png","../images/cyn_red.png","../images/org_blu.png","../images/pnk_blu.png","../images/ylw_pnk.png","../images/grn_red.png","../images/gry_blk.png","../images/blu_wht.png"],"mutagen_generator_assignment":[1,0],"goal":6,"start":3,"action_noise":0.1,"location_history":"[3,7,3,4,0,3,7,6]","action_history":"[0,1,1,1,1,0,0]","mutagen_history":"[1,0,0,0,0,1,1]","location_rts":"[1452,783,974,480,479,940,564]","trial_type":"fractal-mutation","trial_index":73,"time_elapsed":2132325,"internal_node_id":"0.0-5.0-19.0"},{"group":"tri cycles (cube, non-group)","fractal_assignment":["../images/ylw_slt.png","../images/cyn_red.png","../images/org_blu.png","../images/pnk_blu.png","../images/ylw_pnk.png","../images/grn_red.png","../images/gry_blk.png","../images/blu_wht.png"],"mutagen_generator_assignment":[1,0],"goal":5,"start":6,"action_noise":0.1,"location_history":"[6,5]","action_history":"[1]","mutagen_history":"[0]","location_rts":"[1546]","trial_type":"fractal-mutation","trial_index":74,"time_elapsed":2138468,"internal_node_id":"0.0-5.0-20.0"},{"group":"tri cycles (cube, non-group)","fractal_assignment":["../images/ylw_slt.png","../images/cyn_red.png","../images/org_blu.png","../images/pnk_blu.png","../images/ylw_pnk.png","../images/grn_red.png","../images/gry_blk.png","../images/blu_wht.png"],"mutagen_generator_assignment":[1,0],"goal":1,"start":5,"action_noise":0.1,"location_history":"[5,1]","action_history":"[0]","mutagen_history":"[1]","location_rts":"[907]","trial_type":"fractal-mutation","trial_index":75,"time_elapsed":2143964,"internal_node_id":"0.0-5.0-21.0"},{"group":"tri cycles (cube, non-group)","fractal_assignment":["../images/ylw_slt.png","../images/cyn_red.png","../images/org_blu.png","../images/pnk_blu.png","../images/ylw_pnk.png","../images/grn_red.png","../images/gry_blk.png","../images/blu_wht.png"],"mutagen_generator_assignment":[1,0],"goal":0,"start":1,"action_noise":0.1,"location_history":"[1,5,1,5,1,5,2,6,4,7,6,5,1,0]","action_history":"[1,0,1,0,1,1,1,0,0,0,1,1,0]","mutagen_history":"[0,1,0,1,0,0,0,1,1,1,0,0,1]","location_rts":"[377,870,865,436,560,502,831,774,522,590,615,661,683]","trial_type":"fractal-mutation","trial_index":76,"time_elapsed":2169815,"internal_node_id":"0.0-5.0-22.0"},{"group":"tri cycles (cube, non-group)","fractal_assignment":["../images/ylw_slt.png","../images/cyn_red.png","../images/org_blu.png","../images/pnk_blu.png","../images/ylw_pnk.png","../images/grn_red.png","../images/gry_blk.png","../images/blu_wht.png"],"mutagen_generator_assignment":[1,0],"goal":2,"start":0,"action_noise":0.1,"location_history":"[0,3,7,6,5,2]","action_history":"[1,0,0,1,1]","mutagen_history":"[0,1,1,0,0]","location_rts":"[1249,652,586,921,692]","trial_type":"fractal-mutation","trial_index":77,"time_elapsed":2182828,"internal_node_id":"0.0-5.0-23.0"},{"group":"tri cycles (cube, non-group)","fractal_assignment":["../images/ylw_slt.png","../images/cyn_red.png","../images/org_blu.png","../images/pnk_blu.png","../images/ylw_pnk.png","../images/grn_red.png","../images/gry_blk.png","../images/blu_wht.png"],"mutagen_generator_assignment":[1,0],"goal":6,"start":2,"action_noise":0.1,"location_history":"[2,6]","action_history":"[1]","mutagen_history":"[0]","location_rts":"[1002]","trial_type":"fractal-mutation","trial_index":78,"time_elapsed":2188418,"internal_node_id":"0.0-5.0-24.0"},{"group":"tri cycles (cube, non-group)","fractal_assignment":["../images/ylw_slt.png","../images/cyn_red.png","../images/org_blu.png","../images/pnk_blu.png","../images/ylw_pnk.png","../images/grn_red.png","../images/gry_blk.png","../images/blu_wht.png"],"mutagen_generator_assignment":[1,0],"goal":1,"start":6,"action_noise":0.1,"location_history":"[6,4,7,3,4,0,2,1]","action_history":"[0,0,1,1,1,1,0]","mutagen_history":"[1,1,0,0,0,0,1]","location_rts":"[513,563,973,844,497,626,482]","trial_type":"fractal-mutation","trial_index":79,"time_elapsed":2203978,"internal_node_id":"0.0-5.0-25.0"},{"group":"tri cycles (cube, non-group)","fractal_assignment":["../images/ylw_slt.png","../images/cyn_red.png","../images/org_blu.png","../images/pnk_blu.png","../images/ylw_pnk.png","../images/grn_red.png","../images/gry_blk.png","../images/blu_wht.png"],"mutagen_generator_assignment":[1,0],"goal":3,"start":1,"action_noise":0.1,"location_history":"[1,5,1,0,2,6,5,1,0,2,6,5,1,0,2,6,5,2,6,5,2,6,4,7,6,5,1,5,2,1,0,2,6,4,0,3]","action_history":"[1,0,0,0,1,1,0,0,0,1,1,0,0,0,1,1,1,1,1,1,0,0,0,0,1,0,1,1,0,0,0,1,0,1,1]","mutagen_history":"[0,1,1,1,0,0,1,1,1,0,0,1,1,1,0,0,0,0,0,0,1,1,1,1,0,1,0,0,1,1,1,0,1,0,0]","location_rts":"[880,899,806,748,826,538,501,878,970,1031,483,743,659,938,1021,587,503,526,708,599,495,650,478,638,912,876,999,775,417,539,461,2915,638,381,842]","trial_type":"fractal-mutation","trial_index":80,"time_elapsed":2272111,"internal_node_id":"0.0-5.0-26.0"},{"group":"tri cycles (cube, non-group)","fractal_assignment":["../images/ylw_slt.png","../images/cyn_red.png","../images/org_blu.png","../images/pnk_blu.png","../images/ylw_pnk.png","../images/grn_red.png","../images/gry_blk.png","../images/blu_wht.png"],"mutagen_generator_assignment":[1,0],"goal":7,"start":3,"action_noise":0.1,"location_history":"[3,4,7]","action_history":"[1,0]","mutagen_history":"[0,1]","location_rts":"[1344,541]","trial_type":"fractal-mutation","trial_index":81,"time_elapsed":2279675,"internal_node_id":"0.0-5.0-27.0"},{"group":"tri cycles (cube, non-group)","fractal_assignment":["../images/ylw_slt.png","../images/cyn_red.png","../images/org_blu.png","../images/pnk_blu.png","../images/ylw_pnk.png","../images/grn_red.png","../images/gry_blk.png","../images/blu_wht.png"],"mutagen_generator_assignment":[1,0],"goal":4,"start":7,"action_noise":0.1,"location_history":"[7,6,4]","action_history":"[0,1]","mutagen_history":"[1,0]","location_rts":"[1183,586]","trial_type":"fractal-mutation","trial_index":82,"time_elapsed":2287104,"internal_node_id":"0.0-5.0-28.0"},{"group":"tri cycles (cube, non-group)","fractal_assignment":["../images/ylw_slt.png","../images/cyn_red.png","../images/org_blu.png","../images/pnk_blu.png","../images/ylw_pnk.png","../images/grn_red.png","../images/gry_blk.png","../images/blu_wht.png"],"mutagen_generator_assignment":[1,0],"goal":0,"start":4,"action_noise":0.1,"location_history":"[4,0]","action_history":"[1]","mutagen_history":"[0]","location_rts":"[1392]","trial_type":"fractal-mutation","trial_index":83,"time_elapsed":2293076,"internal_node_id":"0.0-5.0-29.0"},{"group":"tri cycles (cube, non-group)","fractal_assignment":["../images/ylw_slt.png","../images/cyn_red.png","../images/org_blu.png","../images/pnk_blu.png","../images/ylw_pnk.png","../images/grn_red.png","../images/gry_blk.png","../images/blu_wht.png"],"mutagen_generator_assignment":[1,0],"goal":5,"start":0,"action_noise":0.1,"location_history":"[0,3,7,6,5]","action_history":"[1,0,0,1]","mutagen_history":"[0,1,1,0]","location_rts":"[866,829,733,734]","trial_type":"fractal-mutation","trial_index":84,"time_elapsed":2304063,"internal_node_id":"0.0-5.0-30.0"},{"group":"tri cycles (cube, non-group)","fractal_assignment":["../images/ylw_slt.png","../images/cyn_red.png","../images/org_blu.png","../images/pnk_blu.png","../images/ylw_pnk.png","../images/grn_red.png","../images/gry_blk.png","../images/blu_wht.png"],"mutagen_generator_assignment":[1,0],"goal":3,"start":5,"action_noise":0.1,"location_history":"[5,1,5,2,1,0,2,1,5,2,6,5,1,5,1,5,1,0,3]","action_history":"[0,1,1,0,0,0,0,1,1,1,1,0,1,0,1,0,0,1]","mutagen_history":"[1,0,0,1,1,1,1,0,0,0,0,1,0,1,0,1,1,0]","location_rts":"[1009,823,685,859,738,577,656,701,873,584,634,980,1100,1125,588,551,373,523]","trial_type":"fractal-mutation","trial_index":85,"time_elapsed":2340403,"internal_node_id":"0.0-5.0-31.0"},{"group":"tri cycles (cube, non-group)","fractal_assignment":["../images/ylw_slt.png","../images/cyn_red.png","../images/org_blu.png","../images/pnk_blu.png","../images/ylw_pnk.png","../images/grn_red.png","../images/gry_blk.png","../images/blu_wht.png"],"mutagen_generator_assignment":[1,0],"goal":2,"start":3,"action_noise":0.1,"location_history":"[3,4,7,3,7,3,4,7,3,4,0,2]","action_history":"[1,0,1,0,1,1,0,1,1,1,0]","mutagen_history":"[0,1,0,1,0,0,1,0,0,0,1]","location_rts":"[1385,1569,1123,704,766,335,342,669,320,356,414]","trial_type":"fractal-mutation","trial_index":86,"time_elapsed":2363758,"internal_node_id":"0.0-5.0-32.0"},{"group":"tri cycles (cube, non-group)","fractal_assignment":["../images/ylw_slt.png","../images/cyn_red.png","../images/org_blu.png","../images/pnk_blu.png","../images/ylw_pnk.png","../images/grn_red.png","../images/gry_blk.png","../images/blu_wht.png"],"mutagen_generator_assignment":[1,0],"goal":6,"start":2,"action_noise":0.1,"location_history":"[2,1,5,1,0,3,7,6]","action_history":"[0,1,0,0,1,0,0]","mutagen_history":"[1,0,1,1,0,1,1]","location_rts":"[1338,1166,1102,331,517,633,264]","trial_type":"fractal-mutation","trial_index":87,"time_elapsed":2380166,"internal_node_id":"0.0-5.0-33.0"},{"group":"tri cycles (cube, non-group)","fractal_assignment":["../images/ylw_slt.png","../images/cyn_red.png","../images/org_blu.png","../images/pnk_blu.png","../images/ylw_pnk.png","../images/grn_red.png","../images/gry_blk.png","../images/blu_wht.png"],"mutagen_generator_assignment":[1,0],"goal":1,"start":6,"action_noise":0.1,"location_history":"[6,5,1]","action_history":"[1,0]","mutagen_history":"[0,1]","location_rts":"[1081,1911]","trial_type":"fractal-mutation","trial_index":88,"time_elapsed":2388826,"internal_node_id":"0.0-5.0-34.0"},{"group":"tri cycles (cube, non-group)","fractal_assignment":["../images/ylw_slt.png","../images/cyn_red.png","../images/org_blu.png","../images/pnk_blu.png","../images/ylw_pnk.png","../images/grn_red.png","../images/gry_blk.png","../images/blu_wht.png"],"mutagen_generator_assignment":[1,0],"goal":7,"start":1,"action_noise":0.1,"location_history":"[1,0,2,6,5,1,5,2,6,4,0,2,1,5,1,0,2,1,5,1,0,3,7]","action_history":"[1,0,1,1,0,1,1,1,0,1,1,1,1,0,0,0,0,1,0,0,1,0]","mutagen_history":"[0,1,0,0,1,0,0,0,1,0,0,0,0,1,1,1,1,0,1,1,0,1]","location_rts":"[922,653,659,298,307,614,407,388,572,603,652,258,289,359,516,287,347,721,488,590,254,388]","trial_type":"fractal-mutation","trial_index":89,"time_elapsed":2426686,"internal_node_id":"0.0-5.0-35.0"},{"group":"tri cycles (cube, non-group)","fractal_assignment":["../images/ylw_slt.png","../images/cyn_red.png","../images/org_blu.png","../images/pnk_blu.png","../images/ylw_pnk.png","../images/grn_red.png","../images/gry_blk.png","../images/blu_wht.png"],"mutagen_generator_assignment":[1,0],"goal":4,"start":7,"action_noise":0.1,"location_history":"[7,3,7,3,4]","action_history":"[1,0,1,1]","mutagen_history":"[0,1,0,0]","location_rts":"[1021,782,972,263]","trial_type":"fractal-mutation","trial_index":90,"time_elapsed":2437533,"internal_node_id":"0.0-5.0-36.0"},{"group":"tri cycles (cube, non-group)","fractal_assignment":["../images/ylw_slt.png","../images/cyn_red.png","../images/org_blu.png","../images/pnk_blu.png","../images/ylw_pnk.png","../images/grn_red.png","../images/gry_blk.png","../images/blu_wht.png"],"mutagen_generator_assignment":[1,0],"goal":5,"start":4,"action_noise":0.1,"location_history":"[4,7,6,4,0,3,4,7,3,7,6,5]","action_history":"[0,0,0,1,1,1,0,1,0,0,1]","mutagen_history":"[1,1,1,0,0,0,1,0,1,1,0]","location_rts":"[871,827,947,615,545,693,1683,649,649,374,351]","trial_type":"fractal-mutation","trial_index":91,"time_elapsed":2461142,"internal_node_id":"0.0-5.0-37.0"},{"group":"tri cycles (cube, non-group)","fractal_assignment":["../images/ylw_slt.png","../images/cyn_red.png","../images/org_blu.png","../images/pnk_blu.png","../images/ylw_pnk.png","../images/grn_red.png","../images/gry_blk.png","../images/blu_wht.png"],"mutagen_generator_assignment":[1,0],"goal":0,"start":5,"action_noise":0.1,"location_history":"[5,2,1,0]","action_history":"[1,0,0]","mutagen_history":"[0,1,1]","location_rts":"[1314,950,566]","trial_type":"fractal-mutation","trial_index":92,"time_elapsed":2470738,"internal_node_id":"0.0-5.0-38.0"},{"group":"tri cycles (cube, non-group)","fractal_assignment":["../images/ylw_slt.png","../images/cyn_red.png","../images/org_blu.png","../images/pnk_blu.png","../images/ylw_pnk.png","../images/grn_red.png","../images/gry_blk.png","../images/blu_wht.png"],"mutagen_generator_assignment":[1,0],"goal":4,"start":0,"action_noise":0.1,"location_history":"[0,2,6,4]","action_history":"[0,1,0]","mutagen_history":"[1,0,1]","location_rts":"[1774,520,637]","trial_type":"fractal-mutation","trial_index":93,"time_elapsed":2480425,"internal_node_id":"0.0-5.0-39.0"},{"group":"tri cycles (cube, non-group)","fractal_assignment":["../images/ylw_slt.png","../images/cyn_red.png","../images/org_blu.png","../images/pnk_blu.png","../images/ylw_pnk.png","../images/grn_red.png","../images/gry_blk.png","../images/blu_wht.png"],"mutagen_generator_assignment":[1,0],"goal":0,"start":4,"action_noise":0.1,"location_history":"[4,7,6,5,1,5,1,0]","action_history":"[0,0,1,0,1,0,0]","mutagen_history":"[1,1,0,1,0,1,1]","location_rts":"[665,923,373,1034,347,576,438]","trial_type":"fractal-mutation","trial_index":94,"time_elapsed":2495837,"internal_node_id":"0.0-5.0-40.0"},{"group":"tri cycles (cube, non-group)","fractal_assignment":["../images/ylw_slt.png","../images/cyn_red.png","../images/org_blu.png","../images/pnk_blu.png","../images/ylw_pnk.png","../images/grn_red.png","../images/gry_blk.png","../images/blu_wht.png"],"mutagen_generator_assignment":[1,0],"goal":2,"start":0,"action_noise":0.1,"location_history":"[0,3,7,3,4,7,3,4,0,2]","action_history":"[1,0,1,1,0,1,1,1,0]","mutagen_history":"[0,1,0,0,1,0,0,0,1]","location_rts":"[1040,954,389,300,460,526,296,264,392]","trial_type":"fractal-mutation","trial_index":95,"time_elapsed":2513659,"internal_node_id":"0.0-5.0-41.0"},{"group":"tri cycles (cube, non-group)","fractal_assignment":["../images/ylw_slt.png","../images/cyn_red.png","../images/org_blu.png","../images/pnk_blu.png","../images/ylw_pnk.png","../images/grn_red.png","../images/gry_blk.png","../images/blu_wht.png"],"mutagen_generator_assignment":[1,0],"goal":3,"start":2,"action_noise":0.1,"location_history":"[2,1,0,2,1,5,1,0,3]","action_history":"[0,1,0,0,1,0,0,0]","mutagen_history":"[1,0,1,1,0,1,1,1]","location_rts":"[553,811,626,282,340,835,261,366]","trial_type":"fractal-mutation","trial_index":96,"time_elapsed":2529892,"internal_node_id":"0.0-5.0-42.0"},{"group":"tri cycles (cube, non-group)","fractal_assignment":["../images/ylw_slt.png","../images/cyn_red.png","../images/org_blu.png","../images/pnk_blu.png","../images/ylw_pnk.png","../images/grn_red.png","../images/gry_blk.png","../images/blu_wht.png"],"mutagen_generator_assignment":[1,0],"goal":5,"start":3,"action_noise":0.1,"location_history":"[3,4,0,3,7,3,7,6,5]","action_history":"[1,1,1,0,1,0,0,1]","mutagen_history":"[0,0,0,1,0,1,1,0]","location_rts":"[1601,630,845,1290,557,758,330,313]","trial_type":"fractal-mutation","trial_index":97,"time_elapsed":2548359,"internal_node_id":"0.0-5.0-43.0"},{"group":"tri cycles (cube, non-group)","fractal_assignment":["../images/ylw_slt.png","../images/cyn_red.png","../images/org_blu.png","../images/pnk_blu.png","../images/ylw_pnk.png","../images/grn_red.png","../images/gry_blk.png","../images/blu_wht.png"],"mutagen_generator_assignment":[1,0],"goal":1,"start":5,"action_noise":0.1,"location_history":"[5,2,6,4,0,3,4,7,3,4,0,3,7,6,4,0,2,1]","action_history":"[1,1,0,1,1,1,0,1,1,1,1,0,0,0,1,0,0]","mutagen_history":"[0,0,1,0,0,0,1,0,0,0,0,1,1,1,0,1,1]","location_rts":"[974,580,443,836,271,257,857,1251,359,237,365,366,553,522,430,286,529]","trial_type":"fractal-mutation","trial_index":98,"time_elapsed":2579338,"internal_node_id":"0.0-5.0-44.0"},{"group":"tri cycles (cube, non-group)","fractal_assignment":["../images/ylw_slt.png","../images/cyn_red.png","../images/org_blu.png","../images/pnk_blu.png","../images/ylw_pnk.png","../images/grn_red.png","../images/gry_blk.png","../images/blu_wht.png"],"mutagen_generator_assignment":[1,0],"goal":7,"start":1,"action_noise":0.1,"location_history":"[1,5,1,5,2,1,0,2,6,4,7]","action_history":"[1,0,1,1,0,0,0,1,0,0]","mutagen_history":"[0,1,0,0,1,1,1,0,1,1]","location_rts":"[740,509,820,341,285,1013,426,430,287,499]","trial_type":"fractal-mutation","trial_index":99,"time_elapsed":2599002,"internal_node_id":"0.0-5.0-45.0"},{"group":"tri cycles (cube, non-group)","fractal_assignment":["../images/ylw_slt.png","../images/cyn_red.png","../images/org_blu.png","../images/pnk_blu.png","../images/ylw_pnk.png","../images/grn_red.png","../images/gry_blk.png","../images/blu_wht.png"],"mutagen_generator_assignment":[1,0],"goal":6,"start":7,"action_noise":0.1,"location_history":"[7,3,4,0,3,7,6]","action_history":"[1,1,1,1,0,1]","mutagen_history":"[0,0,0,0,1,0]","location_rts":"[981,449,405,726,530,587]","trial_type":"fractal-mutation","trial_index":100,"time_elapsed":2612665,"internal_node_id":"0.0-5.0-46.0"},{"group":"tri cycles (cube, non-group)","fractal_assignment":["../images/ylw_slt.png","../images/cyn_red.png","../images/org_blu.png","../images/pnk_blu.png","../images/ylw_pnk.png","../images/grn_red.png","../images/gry_blk.png","../images/blu_wht.png"],"mutagen_generator_assignment":[1,0],"goal":3,"start":6,"action_noise":0.1,"location_history":"[6,5,1,0,2,6,4,7,6,5,2,6,4,7,6,4,7,3]","action_history":"[0,1,0,0,1,0,0,0,1,1,1,0,1,0,1,0,1]","mutagen_history":"[1,0,1,1,0,1,1,1,0,0,0,1,0,1,0,1,0]","location_rts":"[1458,565,650,475,271,838,253,285,266,577,326,274,1015,285,708,250,582]","trial_type":"fractal-mutation","trial_index":101,"time_elapsed":2643577,"internal_node_id":"0.0-5.0-47.0"},{"group":"tri cycles (cube, non-group)","fractal_assignment":["../images/ylw_slt.png","../images/cyn_red.png","../images/org_blu.png","../images/pnk_blu.png","../images/ylw_pnk.png","../images/grn_red.png","../images/gry_blk.png","../images/blu_wht.png"],"mutagen_generator_assignment":[1,0],"goal":0,"start":3,"action_noise":0.1,"location_history":"[3,7,3,7,6,4,0]","action_history":"[1,1,0,0,1,1]","mutagen_history":"[0,0,1,1,0,0]","location_rts":"[1337,499,1203,584,257,459]","trial_type":"fractal-mutation","trial_index":102,"time_elapsed":2657896,"internal_node_id":"0.0-5.0-48.0"},{"group":"tri cycles (cube, non-group)","fractal_assignment":["../images/ylw_slt.png","../images/cyn_red.png","../images/org_blu.png","../images/pnk_blu.png","../images/ylw_pnk.png","../images/grn_red.png","../images/gry_blk.png","../images/blu_wht.png"],"mutagen_generator_assignment":[1,0],"goal":2,"start":0,"action_noise":0.1,"location_history":"[0,3,7,3,4,7,3,4,0,2]","action_history":"[1,0,1,1,0,1,1,1,0]","mutagen_history":"[0,1,0,0,1,0,0,0,1]","location_rts":"[653,521,629,378,303,987,194,354,434]","trial_type":"fractal-mutation","trial_index":103,"time_elapsed":2675574,"internal_node_id":"0.0-5.0-49.0"},{"view_history":"[{\"page_index\":0,\"viewing_time\":4428}]","rt":4428,"trial_type":"instructions","trial_index":104,"time_elapsed":2681006,"internal_node_id":"0.0-6.0"},{"rt":2149,"responses":"{\"Q0\":\"\"}","trial_type":"survey-text","trial_index":105,"time_elapsed":2684164,"internal_node_id":"0.0-7.0"}]