[{"view_history":"[{\"page_index\":0,\"viewing_time\":8115},{\"page_index\":1,\"viewing_time\":21880},{\"page_index\":2,\"viewing_time\":24880},{\"page_index\":3,\"viewing_time\":7396}]","rt":62271,"trial_type":"instructions","trial_index":0,"time_elapsed":62272,"internal_node_id":"0.0-0.0"},{"view_history":"[{\"page_index\":0,\"viewing_time\":2890},{\"page_index\":1,\"viewing_time\":34492}]","rt":37382,"trial_type":"instructions","trial_index":1,"time_elapsed":100656,"internal_node_id":"0.0-1.0"},{"group":"square cycles (cube, non-group)","room_assignment":["purple","yellow","blue","green","red","grey","brown","pink"],"door_color_assignment":["white","black"],"door_generator_assignment":[0,1],"goal":3,"start":0,"action_noise":0.1,"location_history":"[0,4,5,4,5,1,0,4,7,6,5,4,5,1,2,6,7,3]","action_history":"[1,1,0,1,1,1,1,1,0,0,1,1,1,1,1,1,1]","door_history":"[1,1,0,1,1,1,1,1,0,0,1,1,1,1,1,1,1]","location_rts":"[3279,3892,1809,4070,849,2224,3248,1198,1459,1471,2216,2096,611,761,875,741,715]","trial_type":"two-door-navigation","trial_index":2,"time_elapsed":153037,"internal_node_id":"0.0-2.0-0.0"},{"group":"square cycles (cube, non-group)","room_assignment":["purple","yellow","blue","green","red","grey","brown","pink"],"door_color_assignment":["white","black"],"door_generator_assignment":[0,1],"goal":1,"start":3,"action_noise":0.1,"location_history":"[3,2,6,7,3,2,6,7,3,0,1]","action_history":"[1,1,1,1,1,1,0,0,0,0]","door_history":"[1,1,1,1,1,1,0,0,0,0]","location_rts":"[1505,857,620,640,1034,684,943,2336,2336,1238]","trial_type":"two-door-navigation","trial_index":3,"time_elapsed":178947,"internal_node_id":"0.0-2.0-1.0"},{"group":"square cycles (cube, non-group)","room_assignment":["purple","yellow","blue","green","red","grey","brown","pink"],"door_color_assignment":["white","black"],"door_generator_assignment":[0,1],"goal":2,"start":1,"action_noise":0.1,"location_history":"[1,2]","action_history":"[0]","door_history":"[0]","location_rts":"[2783]","trial_type":"two-door-navigation","trial_index":4,"time_elapsed":186252,"internal_node_id":"0.0-2.0-2.0"},{"group":"square cycles (cube, non-group)","room_assignment":["purple","yellow","blue","green","red","grey","brown","pink"],"door_color_assignment":["white","black"],"door_generator_assignment":[0,1],"goal":6,"start":2,"action_noise":0.1,"location_history":"[2,3,0,1,0,1,2,6]","action_history":"[0,0,0,0,0,0,1]","door_history":"[0,0,0,0,0,0,1]","location_rts":"[1273,557,583,587,1295,1354,1113]","trial_type":"two-door-navigation","trial_index":5,"time_elapsed":203647,"internal_node_id":"0.0-2.0-3.0"},{"group":"square cycles (cube, non-group)","room_assignment":["purple","yellow","blue","green","red","grey","brown","pink"],"door_color_assignment":["white","black"],"door_generator_assignment":[0,1],"goal":5,"start":6,"action_noise":0.1,"location_history":"[6,7,3,0,1,0,4,7,3,0,1,0,1,2,3,0,4,7,3,2,6,7,3,2,3,0,4,5]","action_history":"[1,1,1,1,1,1,0,0,0,0,1,0,0,0,0,0,0,1,1,1,1,1,1,0,0,1,1]","door_history":"[1,1,1,1,1,1,0,0,0,0,1,0,0,0,0,0,0,1,1,1,1,1,1,0,0,1,1]","location_rts":"[2491,1271,1034,863,887,773,1216,953,565,535,1025,1934,758,498,688,601,599,1364,489,1260,627,893,2031,691,545,634,1917]","trial_type":"two-door-navigation","trial_index":6,"time_elapsed":261787,"internal_node_id":"0.0-2.0-4.0"},{"group":"square cycles (cube, non-group)","room_assignment":["purple","yellow","blue","green","red","grey","brown","pink"],"door_color_assignment":["white","black"],"door_generator_assignment":[0,1],"goal":4,"start":5,"action_noise":0.1,"location_history":"[5,4]","action_history":"[0]","door_history":"[0]","location_rts":"[2272]","trial_type":"two-door-navigation","trial_index":7,"time_elapsed":268587,"internal_node_id":"0.0-2.0-5.0"},{"group":"square cycles (cube, non-group)","room_assignment":["purple","yellow","blue","green","red","grey","brown","pink"],"door_color_assignment":["white","black"],"door_generator_assignment":[0,1],"goal":7,"start":4,"action_noise":0.1,"location_history":"[4,7]","action_history":"[0]","door_history":"[0]","location_rts":"[2076]","trial_type":"two-door-navigation","trial_index":8,"time_elapsed":275189,"internal_node_id":"0.0-2.0-6.0"},{"group":"square cycles (cube, non-group)","room_assignment":["purple","yellow","blue","green","red","grey","brown","pink"],"door_color_assignment":["white","black"],"door_generator_assignment":[0,1],"goal":4,"start":7,"action_noise":0.1,"location_history":"[7,6,7,3,2,6,7,6,7,6,5,4]","action_history":"[0,1,1,1,1,1,0,1,0,0,0]","door_history":"[0,1,1,1,1,1,0,1,0,0,0]","location_rts":"[3058,954,447,855,501,706,2005,762,1414,328,1339]","trial_type":"two-door-navigation","trial_index":9,"time_elapsed":302270,"internal_node_id":"0.0-2.0-7.0"},{"group":"square cycles (cube, non-group)","room_assignment":["purple","yellow","blue","green","red","grey","brown","pink"],"door_color_assignment":["white","black"],"door_generator_assignment":[0,1],"goal":6,"start":4,"action_noise":0.1,"location_history":"[4,5,1,0,1,2,6]","action_history":"[1,1,1,0,0,0]","door_history":"[1,1,1,0,0,0]","location_rts":"[2059,608,660,1128,526,519]","trial_type":"two-door-navigation","trial_index":10,"time_elapsed":317379,"internal_node_id":"0.0-2.0-8.0"},{"group":"square cycles (cube, non-group)","room_assignment":["purple","yellow","blue","green","red","grey","brown","pink"],"door_color_assignment":["white","black"],"door_generator_assignment":[0,1],"goal":0,"start":6,"action_noise":0.1,"location_history":"[6,5,1,0]","action_history":"[1,1,1]","door_history":"[1,1,1]","location_rts":"[1903,420,451]","trial_type":"two-door-navigation","trial_index":11,"time_elapsed":326720,"internal_node_id":"0.0-2.0-9.0"},{"group":"square cycles (cube, non-group)","room_assignment":["purple","yellow","blue","green","red","grey","brown","pink"],"door_color_assignment":["white","black"],"door_generator_assignment":[0,1],"goal":1,"start":0,"action_noise":0.1,"location_history":"[0,4,7,6,5,1]","action_history":"[0,0,0,0,1]","door_history":"[0,0,0,0,1]","location_rts":"[1889,517,751,655,1027]","trial_type":"two-door-navigation","trial_index":12,"time_elapsed":340169,"internal_node_id":"0.0-2.0-10.0"},{"group":"square cycles (cube, non-group)","room_assignment":["purple","yellow","blue","green","red","grey","brown","pink"],"door_color_assignment":["white","black"],"door_generator_assignment":[0,1],"goal":3,"start":1,"action_noise":0.1,"location_history":"[1,2,3]","action_history":"[0,0]","door_history":"[0,0]","location_rts":"[1975,468]","trial_type":"two-door-navigation","trial_index":13,"time_elapsed":348156,"internal_node_id":"0.0-2.0-11.0"},{"group":"square cycles (cube, non-group)","room_assignment":["purple","yellow","blue","green","red","grey","brown","pink"],"door_color_assignment":["white","black"],"door_generator_assignment":[0,1],"goal":7,"start":3,"action_noise":0.1,"location_history":"[3,0,4,5,1,2,3,0,1,2,3,0,4,5,1,0,4,5,1,0,1,2,3,0,1,2,6,5,4,7]","action_history":"[1,1,1,1,0,0,0,0,0,0,0,1,1,1,1,1,1,1,1,0,0,1,0,0,0,0,0,0,0]","door_history":"[1,1,1,1,0,0,0,0,0,0,0,1,1,1,1,1,1,1,1,0,0,1,0,0,0,0,0,0,0]","location_rts":"[1963,667,580,826,761,511,624,842,452,453,605,782,420,438,614,403,675,436,600,813,727,551,987,927,684,433,397,428,521]","trial_type":"two-door-navigation","trial_index":14,"time_elapsed":400307,"internal_node_id":"0.0-2.0-12.0"},{"group":"square cycles (cube, non-group)","room_assignment":["purple","yellow","blue","green","red","grey","brown","pink"],"door_color_assignment":["white","black"],"door_generator_assignment":[0,1],"goal":5,"start":7,"action_noise":0.1,"location_history":"[7,3,0,1,0,4,5]","action_history":"[0,0,0,1,1,1]","door_history":"[0,0,0,1,1,1]","location_rts":"[2244,621,460,381,481,945]","trial_type":"two-door-navigation","trial_index":15,"time_elapsed":415064,"internal_node_id":"0.0-2.0-13.0"},{"group":"square cycles (cube, non-group)","room_assignment":["purple","yellow","blue","green","red","grey","brown","pink"],"door_color_assignment":["white","black"],"door_generator_assignment":[0,1],"goal":2,"start":5,"action_noise":0.1,"location_history":"[5,1,0,1,2]","action_history":"[1,1,0,0]","door_history":"[1,1,0,0]","location_rts":"[1576,614,1055,928]","trial_type":"two-door-navigation","trial_index":16,"time_elapsed":426809,"internal_node_id":"0.0-2.0-14.0"},{"group":"square cycles (cube, non-group)","room_assignment":["purple","yellow","blue","green","red","grey","brown","pink"],"door_color_assignment":["white","black"],"door_generator_assignment":[0,1],"goal":7,"start":2,"action_noise":0.1,"location_history":"[2,3,0,1,0,4,5,1,0,1,0,1,2,3,2,6,7]","action_history":"[0,0,0,1,1,1,1,1,0,0,0,0,0,1,1,1]","door_history":"[0,0,0,1,1,1,1,1,0,0,0,0,0,1,1,1]","location_rts":"[2837,511,814,714,657,813,836,567,1006,563,875,596,473,1042,450,750]","trial_type":"two-door-navigation","trial_index":17,"time_elapsed":460104,"internal_node_id":"0.0-2.0-15.0"},{"group":"square cycles (cube, non-group)","room_assignment":["purple","yellow","blue","green","red","grey","brown","pink"],"door_color_assignment":["white","black"],"door_generator_assignment":[0,1],"goal":4,"start":7,"action_noise":0.1,"location_history":"[7,6,5,1,0,4]","action_history":"[0,0,1,1,1]","door_history":"[0,0,1,1,1]","location_rts":"[1555,903,758,611,551]","trial_type":"two-door-navigation","trial_index":18,"time_elapsed":473086,"internal_node_id":"0.0-2.0-16.0"},{"group":"square cycles (cube, non-group)","room_assignment":["purple","yellow","blue","green","red","grey","brown","pink"],"door_color_assignment":["white","black"],"door_generator_assignment":[0,1],"goal":2,"start":4,"action_noise":0.1,"location_history":"[4,7,6,5,4,5,1,0,4,5,1,2]","action_history":"[0,0,0,0,1,1,1,1,1,1,0]","door_history":"[0,0,0,0,1,1,1,1,1,1,0]","location_rts":"[1699,767,643,1211,602,589,531,1011,1273,609,439]","trial_type":"two-door-navigation","trial_index":19,"time_elapsed":497180,"internal_node_id":"0.0-2.0-17.0"},{"group":"square cycles (cube, non-group)","room_assignment":["purple","yellow","blue","green","red","grey","brown","pink"],"door_color_assignment":["white","black"],"door_generator_assignment":[0,1],"goal":3,"start":2,"action_noise":0.1,"location_history":"[2,6,7,6,5,4,7,6,5,4,7,3]","action_history":"[1,1,0,0,0,0,0,0,0,0,1]","door_history":"[1,1,0,0,0,0,0,0,0,0,1]","location_rts":"[1946,478,809,338,725,519,877,624,550,979,432]","trial_type":"two-door-navigation","trial_index":20,"time_elapsed":520168,"internal_node_id":"0.0-2.0-18.0"},{"group":"square cycles (cube, non-group)","room_assignment":["purple","yellow","blue","green","red","grey","brown","pink"],"door_color_assignment":["white","black"],"door_generator_assignment":[0,1],"goal":6,"start":3,"action_noise":0.1,"location_history":"[3,2,6]","action_history":"[1,1]","door_history":"[1,1]","location_rts":"[4781,786]","trial_type":"two-door-navigation","trial_index":21,"time_elapsed":531267,"internal_node_id":"0.0-2.0-19.0"},{"group":"square cycles (cube, non-group)","room_assignment":["purple","yellow","blue","green","red","grey","brown","pink"],"door_color_assignment":["white","black"],"door_generator_assignment":[0,1],"goal":5,"start":6,"action_noise":0.1,"location_history":"[6,5]","action_history":"[0]","door_history":"[0]","location_rts":"[3133]","trial_type":"two-door-navigation","trial_index":22,"time_elapsed":538918,"internal_node_id":"0.0-2.0-20.0"},{"group":"square cycles (cube, non-group)","room_assignment":["purple","yellow","blue","green","red","grey","brown","pink"],"door_color_assignment":["white","black"],"door_generator_assignment":[0,1],"goal":1,"start":5,"action_noise":0.1,"location_history":"[5,1]","action_history":"[1]","door_history":"[1]","location_rts":"[1417]","trial_type":"two-door-navigation","trial_index":23,"time_elapsed":544857,"internal_node_id":"0.0-2.0-21.0"},{"group":"square cycles (cube, non-group)","room_assignment":["purple","yellow","blue","green","red","grey","brown","pink"],"door_color_assignment":["white","black"],"door_generator_assignment":[0,1],"goal":0,"start":1,"action_noise":0.1,"location_history":"[1,2,3,2,6,7,3,2,6,5,4,5,1,0]","action_history":"[0,0,1,1,1,1,1,1,0,0,1,1,1]","door_history":"[0,0,1,1,1,1,1,1,0,0,1,1,1]","location_rts":"[1401,464,1578,359,684,565,536,692,756,676,1130,386,427]","trial_type":"two-door-navigation","trial_index":24,"time_elapsed":571262,"internal_node_id":"0.0-2.0-22.0"},{"group":"square cycles (cube, non-group)","room_assignment":["purple","yellow","blue","green","red","grey","brown","pink"],"door_color_assignment":["white","black"],"door_generator_assignment":[0,1],"goal":2,"start":0,"action_noise":0.1,"location_history":"[0,1,0,4,7,3,2]","action_history":"[0,1,1,1,1,1]","door_history":"[0,1,1,1,1,1]","location_rts":"[2581,1022,367,383,598,453]","trial_type":"two-door-navigation","trial_index":25,"time_elapsed":586291,"internal_node_id":"0.0-2.0-23.0"},{"group":"square cycles (cube, non-group)","room_assignment":["purple","yellow","blue","green","red","grey","brown","pink"],"door_color_assignment":["white","black"],"door_generator_assignment":[0,1],"goal":6,"start":2,"action_noise":0.1,"location_history":"[2,3,2,3,0,1,0,4,5,1,0,4,7,6]","action_history":"[0,0,0,0,0,1,1,1,1,1,1,0,0]","door_history":"[0,0,0,0,0,1,1,1,1,1,1,0,0]","location_rts":"[1493,403,492,539,439,403,530,356,516,417,522,610,469]","trial_type":"two-door-navigation","trial_index":26,"time_elapsed":610230,"internal_node_id":"0.0-2.0-24.0"},{"group":"square cycles (cube, non-group)","room_assignment":["purple","yellow","blue","green","red","grey","brown","pink"],"door_color_assignment":["white","black"],"door_generator_assignment":[0,1],"goal":1,"start":6,"action_noise":0.1,"location_history":"[6,5,1]","action_history":"[0,1]","door_history":"[0,1]","location_rts":"[969,811]","trial_type":"two-door-navigation","trial_index":27,"time_elapsed":617547,"internal_node_id":"0.0-2.0-25.0"},{"group":"square cycles (cube, non-group)","room_assignment":["purple","yellow","blue","green","red","grey","brown","pink"],"door_color_assignment":["white","black"],"door_generator_assignment":[0,1],"goal":3,"start":1,"action_noise":0.1,"location_history":"[1,2,3]","action_history":"[0,0]","door_history":"[0,0]","location_rts":"[1363,346]","trial_type":"two-door-navigation","trial_index":28,"time_elapsed":624798,"internal_node_id":"0.0-2.0-26.0"},{"group":"square cycles (cube, non-group)","room_assignment":["purple","yellow","blue","green","red","grey","brown","pink"],"door_color_assignment":["white","black"],"door_generator_assignment":[0,1],"goal":7,"start":3,"action_noise":0.1,"location_history":"[3,0,1,0,4,5,4,7]","action_history":"[0,0,1,1,1,1,0]","door_history":"[0,0,1,1,1,1,0]","location_rts":"[873,488,653,490,888,663,619]","trial_type":"two-door-navigation","trial_index":29,"time_elapsed":640095,"internal_node_id":"0.0-2.0-27.0"},{"group":"square cycles (cube, non-group)","room_assignment":["purple","yellow","blue","green","red","grey","brown","pink"],"door_color_assignment":["white","black"],"door_generator_assignment":[0,1],"goal":4,"start":7,"action_noise":0.1,"location_history":"[7,3,2,6,7,3,2,6,7,6,7,6,5,4]","action_history":"[1,1,1,1,1,1,1,1,0,0,0,0,0]","door_history":"[1,1,1,1,1,1,1,1,0,0,0,0,0]","location_rts":"[1674,655,995,426,5053,495,565,522,672,25606,449,419,332]","trial_type":"two-door-navigation","trial_index":30,"time_elapsed":694700,"internal_node_id":"0.0-2.0-28.0"},{"group":"square cycles (cube, non-group)","room_assignment":["purple","yellow","blue","green","red","grey","brown","pink"],"door_color_assignment":["white","black"],"door_generator_assignment":[0,1],"goal":0,"start":4,"action_noise":0.1,"location_history":"[4,5,1,0]","action_history":"[1,1,1]","door_history":"[1,1,1]","location_rts":"[1693,461,346]","trial_type":"two-door-navigation","trial_index":31,"time_elapsed":703766,"internal_node_id":"0.0-2.0-29.0"},{"group":"square cycles (cube, non-group)","room_assignment":["purple","yellow","blue","green","red","grey","brown","pink"],"door_color_assignment":["white","black"],"door_generator_assignment":[0,1],"goal":5,"start":0,"action_noise":0.1,"location_history":"[0,1,2,3,2,3,2,3,0,1,0,4,5]","action_history":"[0,0,0,1,1,1,1,0,0,0,1,1]","door_history":"[0,0,0,1,1,1,1,0,0,0,1,1]","location_rts":"[1258,399,435,373,458,407,463,275,435,461,297,350]","trial_type":"two-door-navigation","trial_index":32,"time_elapsed":725099,"internal_node_id":"0.0-2.0-30.0"},{"group":"square cycles (cube, non-group)","room_assignment":["purple","yellow","blue","green","red","grey","brown","pink"],"door_color_assignment":["white","black"],"door_generator_assignment":[0,1],"goal":3,"start":5,"action_noise":0.1,"location_history":"[5,1,0,1,2,3]","action_history":"[1,1,0,0,0]","door_history":"[1,1,0,0,0]","location_rts":"[1000,356,1227,595,460]","trial_type":"two-door-navigation","trial_index":33,"time_elapsed":737324,"internal_node_id":"0.0-2.0-31.0"},{"group":"square cycles (cube, non-group)","room_assignment":["purple","yellow","blue","green","red","grey","brown","pink"],"door_color_assignment":["white","black"],"door_generator_assignment":[0,1],"goal":2,"start":3,"action_noise":0.1,"location_history":"[3,0,1,2]","action_history":"[0,0,0]","door_history":"[0,0,0]","location_rts":"[2379,1721,428]","trial_type":"two-door-navigation","trial_index":34,"time_elapsed":748411,"internal_node_id":"0.0-2.0-32.0"},{"group":"square cycles (cube, non-group)","room_assignment":["purple","yellow","blue","green","red","grey","brown","pink"],"door_color_assignment":["white","black"],"door_generator_assignment":[0,1],"goal":6,"start":2,"action_noise":0.1,"location_history":"[2,6]","action_history":"[1]","door_history":"[1]","location_rts":"[1703]","trial_type":"two-door-navigation","trial_index":35,"time_elapsed":754636,"internal_node_id":"0.0-2.0-33.0"},{"group":"square cycles (cube, non-group)","room_assignment":["purple","yellow","blue","green","red","grey","brown","pink"],"door_color_assignment":["white","black"],"door_generator_assignment":[0,1],"goal":1,"start":6,"action_noise":0.1,"location_history":"[6,5,4,5,4,5,1]","action_history":"[0,0,1,1,1,1]","door_history":"[0,0,1,1,1,1]","location_rts":"[1195,624,736,412,439,771]","trial_type":"two-door-navigation","trial_index":36,"time_elapsed":768441,"internal_node_id":"0.0-2.0-34.0"},{"group":"square cycles (cube, non-group)","room_assignment":["purple","yellow","blue","green","red","grey","brown","pink"],"door_color_assignment":["white","black"],"door_generator_assignment":[0,1],"goal":7,"start":1,"action_noise":0.1,"location_history":"[1,2,3,2,6,7]","action_history":"[0,0,1,1,1]","door_history":"[0,0,1,1,1]","location_rts":"[706,401,1024,508,500]","trial_type":"two-door-navigation","trial_index":37,"time_elapsed":780178,"internal_node_id":"0.0-2.0-35.0"},{"group":"square cycles (cube, non-group)","room_assignment":["purple","yellow","blue","green","red","grey","brown","pink"],"door_color_assignment":["white","black"],"door_generator_assignment":[0,1],"goal":4,"start":7,"action_noise":0.1,"location_history":"[7,6,5,4]","action_history":"[0,0,1]","door_history":"[0,0,1]","location_rts":"[1031,366,601]","trial_type":"two-door-navigation","trial_index":38,"time_elapsed":788737,"internal_node_id":"0.0-2.0-36.0"},{"group":"square cycles (cube, non-group)","room_assignment":["purple","yellow","blue","green","red","grey","brown","pink"],"door_color_assignment":["white","black"],"door_generator_assignment":[0,1],"goal":5,"start":4,"action_noise":0.1,"location_history":"[4,7,3,2,6,7,6,5]","action_history":"[1,1,1,1,1,1,0]","door_history":"[1,1,1,1,1,1,0]","location_rts":"[1075,708,475,688,414,638,516]","trial_type":"two-door-navigation","trial_index":39,"time_elapsed":803896,"internal_node_id":"0.0-2.0-37.0"},{"group":"square cycles (cube, non-group)","room_assignment":["purple","yellow","blue","green","red","grey","brown","pink"],"door_color_assignment":["white","black"],"door_generator_assignment":[0,1],"goal":0,"start":5,"action_noise":0.1,"location_history":"[5,1,0]","action_history":"[0,0]","door_history":"[0,0]","location_rts":"[1082,409]","trial_type":"two-door-navigation","trial_index":40,"time_elapsed":810928,"internal_node_id":"0.0-2.0-38.0"},{"group":"square cycles (cube, non-group)","room_assignment":["purple","yellow","blue","green","red","grey","brown","pink"],"door_color_assignment":["white","black"],"door_generator_assignment":[0,1],"goal":4,"start":0,"action_noise":0.1,"location_history":"[0,1,2,6,7,3,2,6,7,6,5,4]","action_history":"[0,0,1,1,1,1,1,1,0,0,0]","door_history":"[0,0,1,1,1,1,1,1,0,0,0]","location_rts":"[1122,351,600,558,545,499,396,465,555,430,403]","trial_type":"two-door-navigation","trial_index":41,"time_elapsed":831565,"internal_node_id":"0.0-2.0-39.0"},{"group":"square cycles (cube, non-group)","room_assignment":["purple","yellow","blue","green","red","grey","brown","pink"],"door_color_assignment":["white","black"],"door_generator_assignment":[0,1],"goal":0,"start":4,"action_noise":0.1,"location_history":"[4,7,3,2,6,7,3,2,3,0]","action_history":"[0,1,1,1,1,1,0,0,0]","door_history":"[0,1,1,1,1,1,0,0,0]","location_rts":"[1261,651,546,476,430,673,449,478,467]","trial_type":"two-door-navigation","trial_index":42,"time_elapsed":849660,"internal_node_id":"0.0-2.0-40.0"},{"group":"square cycles (cube, non-group)","room_assignment":["purple","yellow","blue","green","red","grey","brown","pink"],"door_color_assignment":["white","black"],"door_generator_assignment":[0,1],"goal":2,"start":0,"action_noise":0.1,"location_history":"[0,1,2]","action_history":"[0,0]","door_history":"[0,0]","location_rts":"[1034,1326]","trial_type":"two-door-navigation","trial_index":43,"time_elapsed":857565,"internal_node_id":"0.0-2.0-41.0"},{"group":"square cycles (cube, non-group)","room_assignment":["purple","yellow","blue","green","red","grey","brown","pink"],"door_color_assignment":["white","black"],"door_generator_assignment":[0,1],"goal":3,"start":2,"action_noise":0.1,"location_history":"[2,3]","action_history":"[0]","door_history":"[0]","location_rts":"[943]","trial_type":"two-door-navigation","trial_index":44,"time_elapsed":863025,"internal_node_id":"0.0-2.0-42.0"},{"group":"square cycles (cube, non-group)","room_assignment":["purple","yellow","blue","green","red","grey","brown","pink"],"door_color_assignment":["white","black"],"door_generator_assignment":[0,1],"goal":5,"start":3,"action_noise":0.1,"location_history":"[3,0,4,5]","action_history":"[0,1,1]","door_history":"[0,1,1]","location_rts":"[628,1232,404]","trial_type":"two-door-navigation","trial_index":45,"time_elapsed":871856,"internal_node_id":"0.0-2.0-43.0"},{"group":"square cycles (cube, non-group)","room_assignment":["purple","yellow","blue","green","red","grey","brown","pink"],"door_color_assignment":["white","black"],"door_generator_assignment":[0,1],"goal":1,"start":5,"action_noise":0.1,"location_history":"[5,4,5,1]","action_history":"[0,1,1]","door_history":"[0,1,1]","location_rts":"[973,571,401]","trial_type":"two-door-navigation","trial_index":46,"time_elapsed":880362,"internal_node_id":"0.0-2.0-44.0"},{"group":"square cycles (cube, non-group)","room_assignment":["purple","yellow","blue","green","red","grey","brown","pink"],"door_color_assignment":["white","black"],"door_generator_assignment":[0,1],"goal":7,"start":1,"action_noise":0.1,"location_history":"[1,2,6,7]","action_history":"[0,1,1]","door_history":"[0,1,1]","location_rts":"[996,515,411]","trial_type":"two-door-navigation","trial_index":47,"time_elapsed":888847,"internal_node_id":"0.0-2.0-45.0"},{"group":"square cycles (cube, non-group)","room_assignment":["purple","yellow","blue","green","red","grey","brown","pink"],"door_color_assignment":["white","black"],"door_generator_assignment":[0,1],"goal":6,"start":7,"action_noise":0.1,"location_history":"[7,6]","action_history":"[0]","door_history":"[0]","location_rts":"[1255]","trial_type":"two-door-navigation","trial_index":48,"time_elapsed":894623,"internal_node_id":"0.0-2.0-46.0"},{"group":"square cycles (cube, non-group)","room_assignment":["purple","yellow","blue","green","red","grey","brown","pink"],"door_color_assignment":["white","black"],"door_generator_assignment":[0,1],"goal":3,"start":6,"action_noise":0.1,"location_history":"[6,7,3]","action_history":"[1,1]","door_history":"[1,1]","location_rts":"[1191,373]","trial_type":"two-door-navigation","trial_index":49,"time_elapsed":901734,"internal_node_id":"0.0-2.0-47.0"},{"group":"square cycles (cube, non-group)","room_assignment":["purple","yellow","blue","green","red","grey","brown","pink"],"door_color_assignment":["white","black"],"door_generator_assignment":[0,1],"goal":0,"start":3,"action_noise":0.1,"location_history":"[3,0]","action_history":"[0]","door_history":"[0]","location_rts":"[1287]","trial_type":"two-door-navigation","trial_index":50,"time_elapsed":907542,"internal_node_id":"0.0-2.0-48.0"},{"group":"square cycles (cube, non-group)","room_assignment":["purple","yellow","blue","green","red","grey","brown","pink"],"door_color_assignment":["white","black"],"door_generator_assignment":[0,1],"goal":2,"start":0,"action_noise":0.1,"location_history":"[0,4,5,1,2]","action_history":"[1,1,1,0]","door_history":"[1,1,1,0]","location_rts":"[1135,424,597,433]","trial_type":"two-door-navigation","trial_index":51,"time_elapsed":917709,"internal_node_id":"0.0-2.0-49.0"},{"view_history":"[{\"page_index\":0,\"viewing_time\":3804}]","rt":3804,"trial_type":"instructions","trial_index":52,"time_elapsed":922513,"internal_node_id":"0.0-3.0"},{"view_history":"[{\"page_index\":0,\"viewing_time\":4401},{\"page_index\":1,\"viewing_time\":28497}]","rt":32898,"trial_type":"instructions","trial_index":53,"time_elapsed":956413,"internal_node_id":"0.0-4.0"},{"group":"tri cycles (cube, non-group)","fractal_assignment":["../images/grn_red.png","../images/blu_wht.png","../images/org_blu.png","../images/ylw_slt.png","../images/pnk_blu.png","../images/gry_blk.png","../images/cyn_red.png","../images/ylw_pnk.png"],"mutagen_generator_assignment":[0,1],"goal":3,"start":0,"action_noise":0.1,"location_history":"[0,2,6,5,2,1,0,3]","action_history":"[0,1,1,1,0,0,1]","mutagen_history":"[0,1,1,1,0,0,1]","location_rts":"[13981,4018,2159,3227,1619,1701,1016]","trial_type":"fractal-mutation","trial_index":54,"time_elapsed":995020,"internal_node_id":"0.0-5.0-0.0"},{"group":"tri cycles (cube, non-group)","fractal_assignment":["../images/grn_red.png","../images/blu_wht.png","../images/org_blu.png","../images/ylw_slt.png","../images/pnk_blu.png","../images/gry_blk.png","../images/cyn_red.png","../images/ylw_pnk.png"],"mutagen_generator_assignment":[0,1],"goal":1,"start":3,"action_noise":0.1,"location_history":"[3,7,6,4,7,6,4,7,6,4,7,3,4,0,2,1]","action_history":"[0,0,0,0,0,0,0,0,0,0,1,1,1,1,0]","mutagen_history":"[0,0,0,0,0,0,0,0,0,0,1,1,1,1,0]","location_rts":"[4123,1230,1206,1349,1043,1256,1251,893,1123,1114,1958,1264,1271,934,1669]","trial_type":"fractal-mutation","trial_index":55,"time_elapsed":1035822,"internal_node_id":"0.0-5.0-1.0"},{"group":"tri cycles (cube, non-group)","fractal_assignment":["../images/grn_red.png","../images/blu_wht.png","../images/org_blu.png","../images/ylw_slt.png","../images/pnk_blu.png","../images/gry_blk.png","../images/cyn_red.png","../images/ylw_pnk.png"],"mutagen_generator_assignment":[0,1],"goal":2,"start":1,"action_noise":0.1,"location_history":"[1,0,2]","action_history":"[0,0]","mutagen_history":"[0,0]","location_rts":"[2927,1088]","trial_type":"fractal-mutation","trial_index":56,"time_elapsed":1045410,"internal_node_id":"0.0-5.0-2.0"},{"group":"tri cycles (cube, non-group)","fractal_assignment":["../images/grn_red.png","../images/blu_wht.png","../images/org_blu.png","../images/ylw_slt.png","../images/pnk_blu.png","../images/gry_blk.png","../images/cyn_red.png","../images/ylw_pnk.png"],"mutagen_generator_assignment":[0,1],"goal":6,"start":2,"action_noise":0.1,"location_history":"[2,1,0,2,1,0,3,4,7,3,4,0,3,4,7,3,4,0,2,1,0,2,1,5,2,6]","action_history":"[0,0,0,0,0,0,0,0,1,1,1,0,1,1,1,1,0,0,0,0,0,0,1,1,1]","mutagen_history":"[0,0,0,0,0,0,0,0,1,1,1,0,1,1,1,1,0,0,0,0,0,0,1,1,1]","location_rts":"[1466,1274,943,811,846,750,1001,1083,1909,1736,808,1147,1055,673,569,789,550,818,761,806,666,494,818,619,618]","trial_type":"fractal-mutation","trial_index":57,"time_elapsed":1097869,"internal_node_id":"0.0-5.0-3.0"},{"group":"tri cycles (cube, non-group)","fractal_assignment":["../images/grn_red.png","../images/blu_wht.png","../images/org_blu.png","../images/ylw_slt.png","../images/pnk_blu.png","../images/gry_blk.png","../images/cyn_red.png","../images/ylw_pnk.png"],"mutagen_generator_assignment":[0,1],"goal":5,"start":6,"action_noise":0.1,"location_history":"[6,4,7,3,4,0,2,1,0,2,1,5]","action_history":"[0,0,1,1,1,0,0,0,0,0,1]","mutagen_history":"[0,0,1,1,1,0,0,0,0,0,1]","location_rts":"[5104,652,1730,747,694,714,692,684,578,561,445]","trial_type":"fractal-mutation","trial_index":58,"time_elapsed":1125371,"internal_node_id":"0.0-5.0-4.0"},{"group":"tri cycles (cube, non-group)","fractal_assignment":["../images/grn_red.png","../images/blu_wht.png","../images/org_blu.png","../images/ylw_slt.png","../images/pnk_blu.png","../images/gry_blk.png","../images/cyn_red.png","../images/ylw_pnk.png"],"mutagen_generator_assignment":[0,1],"goal":4,"start":5,"action_noise":0.1,"location_history":"[5,1,0,2,6,5,2,6,5,2,1,5,2,1,0,3,7,3,4]","action_history":"[0,0,0,0,1,1,1,1,1,0,1,1,0,0,0,0,1,1]","mutagen_history":"[0,0,0,0,1,1,1,1,1,0,1,1,0,0,0,0,1,1]","location_rts":"[6516,538,875,757,1693,913,951,678,721,327,862,749,797,579,462,777,255,588]","trial_type":"fractal-mutation","trial_index":59,"time_elapsed":1166619,"internal_node_id":"0.0-5.0-5.0"},{"group":"tri cycles (cube, non-group)","fractal_assignment":["../images/grn_red.png","../images/blu_wht.png","../images/org_blu.png","../images/ylw_slt.png","../images/pnk_blu.png","../images/gry_blk.png","../images/cyn_red.png","../images/ylw_pnk.png"],"mutagen_generator_assignment":[0,1],"goal":7,"start":4,"action_noise":0.1,"location_history":"[4,7]","action_history":"[0]","mutagen_history":"[0]","location_rts":"[48219]","trial_type":"fractal-mutation","trial_index":60,"time_elapsed":1219380,"internal_node_id":"0.0-5.0-6.0"},{"group":"tri cycles (cube, non-group)","fractal_assignment":["../images/grn_red.png","../images/blu_wht.png","../images/org_blu.png","../images/ylw_slt.png","../images/pnk_blu.png","../images/gry_blk.png","../images/cyn_red.png","../images/ylw_pnk.png"],"mutagen_generator_assignment":[0,1],"goal":4,"start":7,"action_noise":0.1,"location_history":"[7,6,4]","action_history":"[0,0]","mutagen_history":"[0,0]","location_rts":"[3873,822]","trial_type":"fractal-mutation","trial_index":61,"time_elapsed":1229640,"internal_node_id":"0.0-5.0-7.0"},{"group":"tri cycles (cube, non-group)","fractal_assignment":["../images/grn_red.png","../images/blu_wht.png","../images/org_blu.png","../images/ylw_slt.png","../images/pnk_blu.png","../images/gry_blk.png","../images/cyn_red.png","../images/ylw_pnk.png"],"mutagen_generator_assignment":[0,1],"goal":6,"start":4,"action_noise":0.1,"location_history":"[4,0,3,7,3,4,0,3,4,0,3,7,6]","action_history":"[1,1,1,1,1,1,1,1,1,0,0,0]","mutagen_history":"[1,1,1,1,1,1,1,1,1,0,0,0]","location_rts":"[4800,576,565,484,533,464,549,471,506,1455,513,443]","trial_type":"fractal-mutation","trial_index":62,"time_elapsed":1257033,"internal_node_id":"0.0-5.0-8.0"},{"group":"tri cycles (cube, non-group)","fractal_assignment":["../images/grn_red.png","../images/blu_wht.png","../images/org_blu.png","../images/ylw_slt.png","../images/pnk_blu.png","../images/gry_blk.png","../images/cyn_red.png","../images/ylw_pnk.png"],"mutagen_generator_assignment":[0,1],"goal":0,"start":6,"action_noise":0.1,"location_history":"[6,4,7,6,4,0]","action_history":"[0,0,0,0,1]","mutagen_history":"[0,0,0,0,1]","location_rts":"[2309,533,504,623,1775]","trial_type":"fractal-mutation","trial_index":63,"time_elapsed":1271482,"internal_node_id":"0.0-5.0-9.0"},{"group":"tri cycles (cube, non-group)","fractal_assignment":["../images/grn_red.png","../images/blu_wht.png","../images/org_blu.png","../images/ylw_slt.png","../images/pnk_blu.png","../images/gry_blk.png","../images/cyn_red.png","../images/ylw_pnk.png"],"mutagen_generator_assignment":[0,1],"goal":1,"start":0,"action_noise":0.1,"location_history":"[0,2,1]","action_history":"[0,0]","mutagen_history":"[0,0]","location_rts":"[2421,497]","trial_type":"fractal-mutation","trial_index":64,"time_elapsed":1279983,"internal_node_id":"0.0-5.0-10.0"},{"group":"tri cycles (cube, non-group)","fractal_assignment":["../images/grn_red.png","../images/blu_wht.png","../images/org_blu.png","../images/ylw_slt.png","../images/pnk_blu.png","../images/gry_blk.png","../images/cyn_red.png","../images/ylw_pnk.png"],"mutagen_generator_assignment":[0,1],"goal":3,"start":1,"action_noise":0.1,"location_history":"[1,5,2,6,5,2,6,4,7,6,4,7,6,4,0,3]","action_history":"[1,1,1,1,1,1,0,0,0,0,0,0,0,1,1]","mutagen_history":"[1,1,1,1,1,1,0,0,0,0,0,0,0,1,1]","location_rts":"[3449,466,507,375,381,446,1442,617,609,472,545,628,498,1535,846]","trial_type":"fractal-mutation","trial_index":65,"time_elapsed":1311920,"internal_node_id":"0.0-5.0-11.0"},{"group":"tri cycles (cube, non-group)","fractal_assignment":["../images/grn_red.png","../images/blu_wht.png","../images/org_blu.png","../images/ylw_slt.png","../images/pnk_blu.png","../images/gry_blk.png","../images/cyn_red.png","../images/ylw_pnk.png"],"mutagen_generator_assignment":[0,1],"goal":7,"start":3,"action_noise":0.1,"location_history":"[3,7]","action_history":"[0]","mutagen_history":"[0]","location_rts":"[2269]","trial_type":"fractal-mutation","trial_index":66,"time_elapsed":1318728,"internal_node_id":"0.0-5.0-12.0"},{"group":"tri cycles (cube, non-group)","fractal_assignment":["../images/grn_red.png","../images/blu_wht.png","../images/org_blu.png","../images/ylw_slt.png","../images/pnk_blu.png","../images/gry_blk.png","../images/cyn_red.png","../images/ylw_pnk.png"],"mutagen_generator_assignment":[0,1],"goal":5,"start":7,"action_noise":0.1,"location_history":"[7,6,5]","action_history":"[0,0]","mutagen_history":"[0,0]","location_rts":"[2614,543]","trial_type":"fractal-mutation","trial_index":67,"time_elapsed":1327457,"internal_node_id":"0.0-5.0-13.0"},{"group":"tri cycles (cube, non-group)","fractal_assignment":["../images/grn_red.png","../images/blu_wht.png","../images/org_blu.png","../images/ylw_slt.png","../images/pnk_blu.png","../images/gry_blk.png","../images/cyn_red.png","../images/ylw_pnk.png"],"mutagen_generator_assignment":[0,1],"goal":2,"start":5,"action_noise":0.1,"location_history":"[5,1,0,2]","action_history":"[0,0,0]","mutagen_history":"[0,0,0]","location_rts":"[1613,455,435]","trial_type":"fractal-mutation","trial_index":68,"time_elapsed":1336588,"internal_node_id":"0.0-5.0-14.0"},{"group":"tri cycles (cube, non-group)","fractal_assignment":["../images/grn_red.png","../images/blu_wht.png","../images/org_blu.png","../images/ylw_slt.png","../images/pnk_blu.png","../images/gry_blk.png","../images/cyn_red.png","../images/ylw_pnk.png"],"mutagen_generator_assignment":[0,1],"goal":7,"start":2,"action_noise":0.1,"location_history":"[2,6,4,0,3,7]","action_history":"[0,0,0,0,0]","mutagen_history":"[0,0,0,0,0]","location_rts":"[970,542,509,558,558]","trial_type":"fractal-mutation","trial_index":69,"time_elapsed":1348396,"internal_node_id":"0.0-5.0-15.0"},{"group":"tri cycles (cube, non-group)","fractal_assignment":["../images/grn_red.png","../images/blu_wht.png","../images/org_blu.png","../images/ylw_slt.png","../images/pnk_blu.png","../images/gry_blk.png","../images/cyn_red.png","../images/ylw_pnk.png"],"mutagen_generator_assignment":[0,1],"goal":4,"start":7,"action_noise":0.1,"location_history":"[7,6,4]","action_history":"[0,0]","mutagen_history":"[0,0]","location_rts":"[1402,570]","trial_type":"fractal-mutation","trial_index":70,"time_elapsed":1355947,"internal_node_id":"0.0-5.0-16.0"},{"group":"tri cycles (cube, non-group)","fractal_assignment":["../images/grn_red.png","../images/blu_wht.png","../images/org_blu.png","../images/ylw_slt.png","../images/pnk_blu.png","../images/gry_blk.png","../images/cyn_red.png","../images/ylw_pnk.png"],"mutagen_generator_assignment":[0,1],"goal":2,"start":4,"action_noise":0.1,"location_history":"[4,7,6,4,7,3,7,6,4,0,2]","action_history":"[0,0,0,0,0,0,0,1,1,1]","mutagen_history":"[0,0,0,0,0,0,0,1,1,1]","location_rts":"[1044,645,511,557,645,709,678,1381,547,465]","trial_type":"fractal-mutation","trial_index":71,"time_elapsed":1376994,"internal_node_id":"0.0-5.0-17.0"},{"group":"tri cycles (cube, non-group)","fractal_assignment":["../images/grn_red.png","../images/blu_wht.png","../images/org_blu.png","../images/ylw_slt.png","../images/pnk_blu.png","../images/gry_blk.png","../images/cyn_red.png","../images/ylw_pnk.png"],"mutagen_generator_assignment":[0,1],"goal":3,"start":2,"action_noise":0.1,"location_history":"[2,1,0,2,1,5,1,5,2,6,5,2,6,4,7,6,4,7,3]","action_history":"[0,0,0,0,1,1,1,1,1,1,1,1,0,0,0,0,0,0]","mutagen_history":"[0,0,0,0,1,1,1,1,1,1,1,1,0,0,0,0,0,0]","location_rts":"[2387,440,348,792,580,330,436,369,542,401,536,636,1298,486,501,371,432,474]","trial_type":"fractal-mutation","trial_index":72,"time_elapsed":1410535,"internal_node_id":"0.0-5.0-18.0"},{"group":"tri cycles (cube, non-group)","fractal_assignment":["../images/grn_red.png","../images/blu_wht.png","../images/org_blu.png","../images/ylw_slt.png","../images/pnk_blu.png","../images/gry_blk.png","../images/cyn_red.png","../images/ylw_pnk.png"],"mutagen_generator_assignment":[0,1],"goal":6,"start":3,"action_noise":0.1,"location_history":"[3,7,6]","action_history":"[0,0]","mutagen_history":"[0,0]","location_rts":"[2664,363]","trial_type":"fractal-mutation","trial_index":73,"time_elapsed":1419152,"internal_node_id":"0.0-5.0-19.0"},{"group":"tri cycles (cube, non-group)","fractal_assignment":["../images/grn_red.png","../images/blu_wht.png","../images/org_blu.png","../images/ylw_slt.png","../images/pnk_blu.png","../images/gry_blk.png","../images/cyn_red.png","../images/ylw_pnk.png"],"mutagen_generator_assignment":[0,1],"goal":5,"start":6,"action_noise":0.1,"location_history":"[6,4,7,6,4,7,6,4,7,3,4,0,3,7,6,4,7,3,7,3,7,3,7,3,4,0,3,7,6,4,0,3,4,0,3,4,0,3,4,7,3,4,0,2,1,0,2,1,0,3,4,0,3,7,6,4,7,3,7,3,4,7,6,4,0,3,4,0,3,7,6,4,0,2,1,0,2,1,5]","action_history":"[0,0,0,0,0,0,0,0,1,1,1,1,1,1,1,1,1,1,1,1,1,0,1,1,1,1,0,0,0,1,1,1,1,1,1,1,1,1,1,1,1,1,0,0,0,0,0,0,0,1,1,1,0,0,0,0,0,1,1,1,0,0,0,1,1,1,1,1,0,0,0,0,0,0,0,0,0,1]","mutagen_history":"[0,0,0,0,0,0,0,0,1,1,1,1,1,1,1,1,1,1,1,1,1,0,1,1,1,1,0,0,0,1,1,1,1,1,1,1,1,1,1,1,1,1,0,0,0,0,0,0,0,1,1,1,0,0,0,0,0,1,1,1,0,0,0,1,1,1,1,1,0,0,0,0,0,0,0,0,0,1]","location_rts":"[1279,528,353,535,324,334,494,466,1454,449,372,350,430,372,573,325,324,432,368,315,411,889,1102,407,309,207,184435,569,734,1965,465,1354,3035,645,365,6076,323,737,466,323,337,1115,1883,384,266,505,309,403,346,1666,475,389,228,446,757,1088,481,3754,359,1896,13953,8962,626,753,422,565,465,494,1169,1593,684,4150,2538,1211,1090,1347,725,1381]","trial_type":"fractal-mutation","trial_index":74,"time_elapsed":1777890,"internal_node_id":"0.0-5.0-20.0"},{"group":"tri cycles (cube, non-group)","fractal_assignment":["../images/grn_red.png","../images/blu_wht.png","../images/org_blu.png","../images/ylw_slt.png","../images/pnk_blu.png","../images/gry_blk.png","../images/cyn_red.png","../images/ylw_pnk.png"],"mutagen_generator_assignment":[0,1],"goal":1,"start":5,"action_noise":0.1,"location_history":"[5,1]","action_history":"[0]","mutagen_history":"[0]","location_rts":"[3019]","trial_type":"fractal-mutation","trial_index":75,"time_elapsed":1785446,"internal_node_id":"0.0-5.0-21.0"},{"group":"tri cycles (cube, non-group)","fractal_assignment":["../images/grn_red.png","../images/blu_wht.png","../images/org_blu.png","../images/ylw_slt.png","../images/pnk_blu.png","../images/gry_blk.png","../images/cyn_red.png","../images/ylw_pnk.png"],"mutagen_generator_assignment":[0,1],"goal":0,"start":1,"action_noise":0.1,"location_history":"[1,0]","action_history":"[0]","mutagen_history":"[0]","location_rts":"[1743]","trial_type":"fractal-mutation","trial_index":76,"time_elapsed":1791733,"internal_node_id":"0.0-5.0-22.0"},{"group":"tri cycles (cube, non-group)","fractal_assignment":["../images/grn_red.png","../images/blu_wht.png","../images/org_blu.png","../images/ylw_slt.png","../images/pnk_blu.png","../images/gry_blk.png","../images/cyn_red.png","../images/ylw_pnk.png"],"mutagen_generator_assignment":[0,1],"goal":2,"start":0,"action_noise":0.1,"location_history":"[0,2]","action_history":"[0]","mutagen_history":"[0]","location_rts":"[1775]","trial_type":"fractal-mutation","trial_index":77,"time_elapsed":1798047,"internal_node_id":"0.0-5.0-23.0"},{"group":"tri cycles (cube, non-group)","fractal_assignment":["../images/grn_red.png","../images/blu_wht.png","../images/org_blu.png","../images/ylw_slt.png","../images/pnk_blu.png","../images/gry_blk.png","../images/cyn_red.png","../images/ylw_pnk.png"],"mutagen_generator_assignment":[0,1],"goal":6,"start":2,"action_noise":0.1,"location_history":"[2,1,0,2,6]","action_history":"[0,0,1,1]","mutagen_history":"[0,0,1,1]","location_rts":"[1772,640,2130,445]","trial_type":"fractal-mutation","trial_index":78,"time_elapsed":1810679,"internal_node_id":"0.0-5.0-24.0"},{"group":"tri cycles (cube, non-group)","fractal_assignment":["../images/grn_red.png","../images/blu_wht.png","../images/org_blu.png","../images/ylw_slt.png","../images/pnk_blu.png","../images/gry_blk.png","../images/cyn_red.png","../images/ylw_pnk.png"],"mutagen_generator_assignment":[0,1],"goal":1,"start":6,"action_noise":0.1,"location_history":"[6,4,7,6,4,0,3,4,0,3,7,6,4,7,6,4,0,3,4,0,3,7,6,4,7,3,7,3,7,3,4,0,2,1]","action_history":"[0,0,0,0,1,1,1,1,1,0,0,0,0,0,0,1,1,1,1,1,0,0,0,0,0,0,1,1,1,1,1,0,0]","mutagen_history":"[0,0,0,0,1,1,1,1,1,0,0,0,0,0,0,1,1,1,1,1,0,0,0,0,0,0,1,1,1,1,1,0,0]","location_rts":"[2338,864,519,633,1270,557,506,541,862,1403,458,653,521,610,563,633,407,534,694,451,1074,395,554,467,457,625,322,491,396,339,386,968,324]","trial_type":"fractal-mutation","trial_index":79,"time_elapsed":1870347,"internal_node_id":"0.0-5.0-25.0"},{"group":"tri cycles (cube, non-group)","fractal_assignment":["../images/grn_red.png","../images/blu_wht.png","../images/org_blu.png","../images/ylw_slt.png","../images/pnk_blu.png","../images/gry_blk.png","../images/cyn_red.png","../images/ylw_pnk.png"],"mutagen_generator_assignment":[0,1],"goal":3,"start":1,"action_noise":0.1,"location_history":"[1,0,3]","action_history":"[0,0]","mutagen_history":"[0,0]","location_rts":"[907,388]","trial_type":"fractal-mutation","trial_index":80,"time_elapsed":1877221,"internal_node_id":"0.0-5.0-26.0"},{"group":"tri cycles (cube, non-group)","fractal_assignment":["../images/grn_red.png","../images/blu_wht.png","../images/org_blu.png","../images/ylw_slt.png","../images/pnk_blu.png","../images/gry_blk.png","../images/cyn_red.png","../images/ylw_pnk.png"],"mutagen_generator_assignment":[0,1],"goal":7,"start":3,"action_noise":0.1,"location_history":"[3,7]","action_history":"[0]","mutagen_history":"[0]","location_rts":"[888]","trial_type":"fractal-mutation","trial_index":81,"time_elapsed":1882653,"internal_node_id":"0.0-5.0-27.0"},{"group":"tri cycles (cube, non-group)","fractal_assignment":["../images/grn_red.png","../images/blu_wht.png","../images/org_blu.png","../images/ylw_slt.png","../images/pnk_blu.png","../images/gry_blk.png","../images/cyn_red.png","../images/ylw_pnk.png"],"mutagen_generator_assignment":[0,1],"goal":4,"start":7,"action_noise":0.1,"location_history":"[7,6,4]","action_history":"[0,0]","mutagen_history":"[0,0]","location_rts":"[736,466]","trial_type":"fractal-mutation","trial_index":82,"time_elapsed":1889426,"internal_node_id":"0.0-5.0-28.0"},{"group":"tri cycles (cube, non-group)","fractal_assignment":["../images/grn_red.png","../images/blu_wht.png","../images/org_blu.png","../images/ylw_slt.png","../images/pnk_blu.png","../images/gry_blk.png","../images/cyn_red.png","../images/ylw_pnk.png"],"mutagen_generator_assignment":[0,1],"goal":0,"start":4,"action_noise":0.1,"location_history":"[4,7,6,5,2,6,5,2,1,5,2,1,0]","action_history":"[0,0,1,1,1,1,1,0,1,1,0,0]","mutagen_history":"[0,0,1,1,1,1,1,0,1,1,0,0]","location_rts":"[1139,458,1843,446,586,480,442,313,753,478,376,948]","trial_type":"fractal-mutation","trial_index":83,"time_elapsed":1913644,"internal_node_id":"0.0-5.0-29.0"},{"group":"tri cycles (cube, non-group)","fractal_assignment":["../images/grn_red.png","../images/blu_wht.png","../images/org_blu.png","../images/ylw_slt.png","../images/pnk_blu.png","../images/gry_blk.png","../images/cyn_red.png","../images/ylw_pnk.png"],"mutagen_generator_assignment":[0,1],"goal":5,"start":0,"action_noise":0.1,"location_history":"[0,2,1,0,3,4,7,6,4,0,3,7,6,4,0,3,4,0,2,1,0,3,4,0,2,1,0,2,1,5]","action_history":"[0,0,0,1,1,0,0,0,1,1,0,0,0,1,1,1,1,0,0,0,1,1,1,0,0,0,0,0,1]","mutagen_history":"[0,0,0,1,1,0,0,0,1,1,0,0,0,1,1,1,1,0,0,0,1,1,1,0,0,0,0,0,1]","location_rts":"[1058,963,560,1425,1121,372,556,750,570,719,739,700,764,373,1231,362,459,497,802,603,726,557,404,673,491,584,621,488,398]","trial_type":"fractal-mutation","trial_index":84,"time_elapsed":1966858,"internal_node_id":"0.0-5.0-30.0"},{"group":"tri cycles (cube, non-group)","fractal_assignment":["../images/grn_red.png","../images/blu_wht.png","../images/org_blu.png","../images/ylw_slt.png","../images/pnk_blu.png","../images/gry_blk.png","../images/cyn_red.png","../images/ylw_pnk.png"],"mutagen_generator_assignment":[0,1],"goal":3,"start":5,"action_noise":0.1,"location_history":"[5,1,0,2,6,5,2,6,4,7,6,4,7,6,5,1,0,2,6,4,0,3]","action_history":"[0,0,0,1,1,1,1,1,0,0,0,0,0,0,0,0,0,0,0,1,1]","mutagen_history":"[0,0,0,1,1,1,1,1,0,0,0,0,0,0,0,0,0,0,0,1,1]","location_rts":"[1306,452,527,1587,349,306,452,521,277,742,468,481,540,619,1239,4697,421,691,664,572,502]","trial_type":"fractal-mutation","trial_index":85,"time_elapsed":2009598,"internal_node_id":"0.0-5.0-31.0"},{"group":"tri cycles (cube, non-group)","fractal_assignment":["../images/grn_red.png","../images/blu_wht.png","../images/org_blu.png","../images/ylw_slt.png","../images/pnk_blu.png","../images/gry_blk.png","../images/cyn_red.png","../images/ylw_pnk.png"],"mutagen_generator_assignment":[0,1],"goal":2,"start":3,"action_noise":0.1,"location_history":"[3,7,6,4,0,3,7,3,7,6,4,7,3,4,0,3,4,0,2]","action_history":"[0,0,0,1,1,0,0,0,0,0,0,1,1,1,1,1,1,0]","mutagen_history":"[0,0,0,1,1,0,0,0,0,0,0,1,1,1,1,1,1,0]","location_rts":"[2100,387,446,1400,1622,1236,465,530,22163,559,3212,1765,32882,404,1074,773,1846,1298]","trial_type":"fractal-mutation","trial_index":86,"time_elapsed":2105998,"internal_node_id":"0.0-5.0-32.0"},{"group":"tri cycles (cube, non-group)","fractal_assignment":["../images/grn_red.png","../images/blu_wht.png","../images/org_blu.png","../images/ylw_slt.png","../images/pnk_blu.png","../images/gry_blk.png","../images/cyn_red.png","../images/ylw_pnk.png"],"mutagen_generator_assignment":[0,1],"goal":6,"start":2,"action_noise":0.1,"location_history":"[2,6]","action_history":"[0]","mutagen_history":"[0]","location_rts":"[1006]","trial_type":"fractal-mutation","trial_index":87,"time_elapsed":2111542,"internal_node_id":"0.0-5.0-33.0"},{"group":"tri cycles (cube, non-group)","fractal_assignment":["../images/grn_red.png","../images/blu_wht.png","../images/org_blu.png","../images/ylw_slt.png","../images/pnk_blu.png","../images/gry_blk.png","../images/cyn_red.png","../images/ylw_pnk.png"],"mutagen_generator_assignment":[0,1],"goal":1,"start":6,"action_noise":0.1,"location_history":"[6,4,7,6,4,0,3,4,7,3,4,0,3,7,6,4,7,6,4,0,3,4,7,3,4,7,6,4,7,3,4,0,3,4,7,6,4,0,2,6,5,2,6,5,1]","action_history":"[0,0,0,0,1,1,1,1,1,1,1,0,0,0,0,0,0,1,1,1,1,1,1,1,0,0,0,0,0,1,1,1,1,0,0,0,0,1,1,1,1,1,1,0]","mutagen_history":"[0,0,0,0,1,1,1,1,1,1,1,0,0,0,0,0,0,1,1,1,1,1,1,1,0,0,0,0,0,1,1,1,1,0,0,0,0,1,1,1,1,1,1,0]","location_rts":"[1447,551,532,657,5713,432,466,563,648,759,1625,433,1056,2655,826,537,648,2083,612,385,312,350,398,633,1263,360,642,663,628,1694,430,432,337,502,107,668,450,910,404,318,276,442,606,1141]","trial_type":"fractal-mutation","trial_index":88,"time_elapsed":2197367,"internal_node_id":"0.0-5.0-34.0"},{"group":"tri cycles (cube, non-group)","fractal_assignment":["../images/grn_red.png","../images/blu_wht.png","../images/org_blu.png","../images/ylw_slt.png","../images/pnk_blu.png","../images/gry_blk.png","../images/cyn_red.png","../images/ylw_pnk.png"],"mutagen_generator_assignment":[0,1],"goal":7,"start":1,"action_noise":0.1,"location_history":"[1,0,2,1,0,3,4,0,3,4,7]","action_history":"[0,0,0,0,1,1,1,1,1,0]","mutagen_history":"[0,0,0,0,1,1,1,1,1,0]","location_rts":"[40350,383,585,419,1221,348,371,503,535,1152]","trial_type":"fractal-mutation","trial_index":89,"time_elapsed":2257150,"internal_node_id":"0.0-5.0-35.0"},{"group":"tri cycles (cube, non-group)","fractal_assignment":["../images/grn_red.png","../images/blu_wht.png","../images/org_blu.png","../images/ylw_slt.png","../images/pnk_blu.png","../images/gry_blk.png","../images/cyn_red.png","../images/ylw_pnk.png"],"mutagen_generator_assignment":[0,1],"goal":4,"start":7,"action_noise":0.1,"location_history":"[7,6,4]","action_history":"[0,0]","mutagen_history":"[0,0]","location_rts":"[1669,852]","trial_type":"fractal-mutation","trial_index":90,"time_elapsed":2265241,"internal_node_id":"0.0-5.0-36.0"},{"group":"tri cycles (cube, non-group)","fractal_assignment":["../images/grn_red.png","../images/blu_wht.png","../images/org_blu.png","../images/ylw_slt.png","../images/pnk_blu.png","../images/gry_blk.png","../images/cyn_red.png","../images/ylw_pnk.png"],"mutagen_generator_assignment":[0,1],"goal":5,"start":4,"action_noise":0.1,"location_history":"[4,7,6,4,7,6,4,0,3,7,3,4,0,2,6,5]","action_history":"[0,0,0,0,0,0,1,1,1,1,1,1,0,1,1]","mutagen_history":"[0,0,0,0,0,0,1,1,1,1,1,1,0,1,1]","location_rts":"[4411,229475,869,408,426,578,515,338,332,359,448,423,798,1810,384]","trial_type":"fractal-mutation","trial_index":91,"time_elapsed":2525872,"internal_node_id":"0.0-5.0-37.0"},{"group":"tri cycles (cube, non-group)","fractal_assignment":["../images/grn_red.png","../images/blu_wht.png","../images/org_blu.png","../images/ylw_slt.png","../images/pnk_blu.png","../images/gry_blk.png","../images/cyn_red.png","../images/ylw_pnk.png"],"mutagen_generator_assignment":[0,1],"goal":0,"start":5,"action_noise":0.1,"location_history":"[5,1,0]","action_history":"[0,0]","mutagen_history":"[0,0]","location_rts":"[2668,394]","trial_type":"fractal-mutation","trial_index":92,"time_elapsed":2534501,"internal_node_id":"0.0-5.0-38.0"},{"group":"tri cycles (cube, non-group)","fractal_assignment":["../images/grn_red.png","../images/blu_wht.png","../images/org_blu.png","../images/ylw_slt.png","../images/pnk_blu.png","../images/gry_blk.png","../images/cyn_red.png","../images/ylw_pnk.png"],"mutagen_generator_assignment":[0,1],"goal":4,"start":0,"action_noise":0.1,"location_history":"[0,2,6,4]","action_history":"[0,1,1]","mutagen_history":"[0,1,1]","location_rts":"[11199,1770,423]","trial_type":"fractal-mutation","trial_index":93,"time_elapsed":2554525,"internal_node_id":"0.0-5.0-39.0"},{"group":"tri cycles (cube, non-group)","fractal_assignment":["../images/grn_red.png","../images/blu_wht.png","../images/org_blu.png","../images/ylw_slt.png","../images/pnk_blu.png","../images/gry_blk.png","../images/cyn_red.png","../images/ylw_pnk.png"],"mutagen_generator_assignment":[0,1],"goal":0,"start":4,"action_noise":0.1,"location_history":"[4,7,6,4,0]","action_history":"[0,0,0,1]","mutagen_history":"[0,0,0,1]","location_rts":"[1934,426,499,1182]","trial_type":"fractal-mutation","trial_index":94,"time_elapsed":2566214,"internal_node_id":"0.0-5.0-40.0"},{"group":"tri cycles (cube, non-group)","fractal_assignment":["../images/grn_red.png","../images/blu_wht.png","../images/org_blu.png","../images/ylw_slt.png","../images/pnk_blu.png","../images/gry_blk.png","../images/cyn_red.png","../images/ylw_pnk.png"],"mutagen_generator_assignment":[0,1],"goal":2,"start":0,"action_noise":0.1,"location_history":"[0,3,4,0,2]","action_history":"[1,1,1,0]","mutagen_history":"[1,1,1,0]","location_rts":"[4029,461,489,1330]","trial_type":"fractal-mutation","trial_index":95,"time_elapsed":2580177,"internal_node_id":"0.0-5.0-41.0"},{"group":"tri cycles (cube, non-group)","fractal_assignment":["../images/grn_red.png","../images/blu_wht.png","../images/org_blu.png","../images/ylw_slt.png","../images/pnk_blu.png","../images/gry_blk.png","../images/cyn_red.png","../images/ylw_pnk.png"],"mutagen_generator_assignment":[0,1],"goal":3,"start":2,"action_noise":0.1,"location_history":"[2,1,0,3]","action_history":"[0,0,1]","mutagen_history":"[0,0,1]","location_rts":"[1021,561,1275]","trial_type":"fractal-mutation","trial_index":96,"time_elapsed":2589644,"internal_node_id":"0.0-5.0-42.0"},{"group":"tri cycles (cube, non-group)","fractal_assignment":["../images/grn_red.png","../images/blu_wht.png","../images/org_blu.png","../images/ylw_slt.png","../images/pnk_blu.png","../images/gry_blk.png","../images/cyn_red.png","../images/ylw_pnk.png"],"mutagen_generator_assignment":[0,1],"goal":5,"start":3,"action_noise":0.1,"location_history":"[3,7,3,7,3,4,0,2,6,5]","action_history":"[0,1,1,1,1,1,0,1,1]","mutagen_history":"[0,1,1,1,1,1,0,1,1]","location_rts":"[2775,1563,585,425,531,809,1938,2094,549]","trial_type":"fractal-mutation","trial_index":97,"time_elapsed":2613805,"internal_node_id":"0.0-5.0-43.0"},{"group":"tri cycles (cube, non-group)","fractal_assignment":["../images/grn_red.png","../images/blu_wht.png","../images/org_blu.png","../images/ylw_slt.png","../images/pnk_blu.png","../images/gry_blk.png","../images/cyn_red.png","../images/ylw_pnk.png"],"mutagen_generator_assignment":[0,1],"goal":1,"start":5,"action_noise":0.1,"location_history":"[5,2,1]","action_history":"[0,0]","mutagen_history":"[0,0]","location_rts":"[2102,1284]","trial_type":"fractal-mutation","trial_index":98,"time_elapsed":2622756,"internal_node_id":"0.0-5.0-44.0"},{"group":"tri cycles (cube, non-group)","fractal_assignment":["../images/grn_red.png","../images/blu_wht.png","../images/org_blu.png","../images/ylw_slt.png","../images/pnk_blu.png","../images/gry_blk.png","../images/cyn_red.png","../images/ylw_pnk.png"],"mutagen_generator_assignment":[0,1],"goal":7,"start":1,"action_noise":0.1,"location_history":"[1,0,2,6,5,2,1,0,2,1,5,2,6,5,2,1,0,2,1,5,2,6,5,1,0,2,1,0,3,4,0,3,7]","action_history":"[0,0,1,1,1,0,0,0,0,1,1,1,1,1,0,0,0,0,1,1,1,1,0,0,0,0,0,1,1,1,1,0]","mutagen_history":"[0,0,1,1,1,0,0,0,0,1,1,1,1,1,0,0,0,0,1,1,1,1,0,0,0,0,0,1,1,1,1,0]","location_rts":"[16456,420,1510,480,438,1472,483,495,501,1411,574,594,429,523,860,470,489,613,1312,442,549,378,912,434,415,540,409,1088,744,437,575,1279]","trial_type":"fractal-mutation","trial_index":99,"time_elapsed":2697280,"internal_node_id":"0.0-5.0-45.0"},{"group":"tri cycles (cube, non-group)","fractal_assignment":["../images/grn_red.png","../images/blu_wht.png","../images/org_blu.png","../images/ylw_slt.png","../images/pnk_blu.png","../images/gry_blk.png","../images/cyn_red.png","../images/ylw_pnk.png"],"mutagen_generator_assignment":[0,1],"goal":6,"start":7,"action_noise":0.1,"location_history":"[7,6]","action_history":"[0]","mutagen_history":"[0]","location_rts":"[242801]","trial_type":"fractal-mutation","trial_index":100,"time_elapsed":2944628,"internal_node_id":"0.0-5.0-46.0"},{"group":"tri cycles (cube, non-group)","fractal_assignment":["../images/grn_red.png","../images/blu_wht.png","../images/org_blu.png","../images/ylw_slt.png","../images/pnk_blu.png","../images/gry_blk.png","../images/cyn_red.png","../images/ylw_pnk.png"],"mutagen_generator_assignment":[0,1],"goal":3,"start":6,"action_noise":0.1,"location_history":"[6,4,7,3]","action_history":"[0,0,1]","mutagen_history":"[0,0,1]","location_rts":"[877,700,319]","trial_type":"fractal-mutation","trial_index":101,"time_elapsed":2953152,"internal_node_id":"0.0-5.0-47.0"},{"group":"tri cycles (cube, non-group)","fractal_assignment":["../images/grn_red.png","../images/blu_wht.png","../images/org_blu.png","../images/ylw_slt.png","../images/pnk_blu.png","../images/gry_blk.png","../images/cyn_red.png","../images/ylw_pnk.png"],"mutagen_generator_assignment":[0,1],"goal":0,"start":3,"action_noise":0.1,"location_history":"[3,7,6,4,0]","action_history":"[0,0,0,1]","mutagen_history":"[0,0,0,1]","location_rts":"[35196,442,549,1366]","trial_type":"fractal-mutation","trial_index":102,"time_elapsed":2998365,"internal_node_id":"0.0-5.0-48.0"},{"group":"tri cycles (cube, non-group)","fractal_assignment":["../images/grn_red.png","../images/blu_wht.png","../images/org_blu.png","../images/ylw_slt.png","../images/pnk_blu.png","../images/gry_blk.png","../images/cyn_red.png","../images/ylw_pnk.png"],"mutagen_generator_assignment":[0,1],"goal":2,"start":0,"action_noise":0.1,"location_history":"[0,2]","action_history":"[0]","mutagen_history":"[0]","location_rts":"[2044]","trial_type":"fractal-mutation","trial_index":103,"time_elapsed":3004953,"internal_node_id":"0.0-5.0-49.0"},{"view_history":"[{\"page_index\":0,\"viewing_time\":12843}]","rt":12843,"trial_type":"instructions","trial_index":104,"time_elapsed":3018797,"internal_node_id":"0.0-6.0"},{"rt":5889,"responses":"{\"Q0\":\"no\"}","trial_type":"survey-text","trial_index":105,"time_elapsed":3025694,"internal_node_id":"0.0-7.0"}]