[{"view_history":"[{\"page_index\":0,\"viewing_time\":6212},{\"page_index\":1,\"viewing_time\":11900},{\"page_index\":2,\"viewing_time\":28422},{\"page_index\":3,\"viewing_time\":5244}]","rt":51780,"trial_type":"instructions","trial_index":0,"time_elapsed":51783,"internal_node_id":"0.0-0.0"},{"view_history":"[{\"page_index\":0,\"viewing_time\":2252},{\"page_index\":1,\"viewing_time\":24729}]","rt":26982,"trial_type":"instructions","trial_index":1,"time_elapsed":79766,"internal_node_id":"0.0-1.0"},{"group":"square cycles (cube, non-group)","room_assignment":["grey","pink","purple","green","red","blue","yellow","brown"],"door_color_assignment":["white","black"],"door_generator_assignment":[1,0],"goal":3,"start":0,"action_noise":0.1,"location_history":"[0,1,0,1,0,4,5,1,0,4,7,6,5,4,5,1,2,6,5,4,7,6,5,4,7,6,5,4,5,1,2,3]","action_history":"[0,1,0,1,1,1,1,1,1,0,0,0,0,0,1,0,1,0,0,0,0,0,0,0,0,0,0,1,1,0,1]","door_history":"[1,0,1,0,0,0,0,0,0,1,1,1,1,1,0,1,0,1,1,1,1,1,1,1,1,1,1,0,0,1,0]","location_rts":"[3262,1713,1418,1314,609,1227,1276,1574,922,345,706,1139,991,1175,621,525,2149,500,521,478,357,361,336,309,357,322,242,100,1066,121,763]","trial_type":"two-door-navigation","trial_index":2,"time_elapsed":142264,"internal_node_id":"0.0-2.0-0.0"},{"group":"square cycles (cube, non-group)","room_assignment":["grey","pink","purple","green","red","blue","yellow","brown"],"door_color_assignment":["white","black"],"door_generator_assignment":[1,0],"goal":1,"start":3,"action_noise":0.1,"location_history":"[3,0,4,5,4,5,4,7,6,5,4,7,3,2,3,2,6,5,4,7,3,2,6,7,3,0,1]","action_history":"[0,1,1,0,1,0,0,0,0,0,0,1,1,0,1,1,0,1,0,1,1,1,1,1,1,0]","door_history":"[1,0,0,1,0,1,1,1,1,1,1,0,0,1,0,0,1,0,1,0,0,0,0,0,0,1]","location_rts":"[1865,610,326,551,420,45,377,562,314,129,1984,50,386,1141,379,300,1081,400,746,47,288,859,274,303,398,1351]","trial_type":"two-door-navigation","trial_index":3,"time_elapsed":187609,"internal_node_id":"0.0-2.0-1.0"},{"group":"square cycles (cube, non-group)","room_assignment":["grey","pink","purple","green","red","blue","yellow","brown"],"door_color_assignment":["white","black"],"door_generator_assignment":[1,0],"goal":2,"start":1,"action_noise":0.1,"location_history":"[1,2]","action_history":"[0]","door_history":"[1]","location_rts":"[1466]","trial_type":"two-door-navigation","trial_index":4,"time_elapsed":193602,"internal_node_id":"0.0-2.0-2.0"},{"group":"square cycles (cube, non-group)","room_assignment":["grey","pink","purple","green","red","blue","yellow","brown"],"door_color_assignment":["white","black"],"door_generator_assignment":[1,0],"goal":6,"start":2,"action_noise":0.1,"location_history":"[2,6]","action_history":"[1]","door_history":"[0]","location_rts":"[1357]","trial_type":"two-door-navigation","trial_index":5,"time_elapsed":199489,"internal_node_id":"0.0-2.0-3.0"},{"group":"square cycles (cube, non-group)","room_assignment":["grey","pink","purple","green","red","blue","yellow","brown"],"door_color_assignment":["white","black"],"door_generator_assignment":[1,0],"goal":5,"start":6,"action_noise":0.1,"location_history":"[6,5]","action_history":"[0]","door_history":"[1]","location_rts":"[1321]","trial_type":"two-door-navigation","trial_index":6,"time_elapsed":205343,"internal_node_id":"0.0-2.0-4.0"},{"group":"square cycles (cube, non-group)","room_assignment":["grey","pink","purple","green","red","blue","yellow","brown"],"door_color_assignment":["white","black"],"door_generator_assignment":[1,0],"goal":4,"start":5,"action_noise":0.1,"location_history":"[5,1,2,3,2,3,0,4]","action_history":"[1,1,0,0,0,0,1]","door_history":"[0,0,1,1,1,1,0]","location_rts":"[868,346,378,339,575,354,501]","trial_type":"two-door-navigation","trial_index":7,"time_elapsed":219379,"internal_node_id":"0.0-2.0-5.0"},{"group":"square cycles (cube, non-group)","room_assignment":["grey","pink","purple","green","red","blue","yellow","brown"],"door_color_assignment":["white","black"],"door_generator_assignment":[1,0],"goal":7,"start":4,"action_noise":0.1,"location_history":"[4,7]","action_history":"[0]","door_history":"[1]","location_rts":"[723]","trial_type":"two-door-navigation","trial_index":8,"time_elapsed":224635,"internal_node_id":"0.0-2.0-6.0"},{"group":"square cycles (cube, non-group)","room_assignment":["grey","pink","purple","green","red","blue","yellow","brown"],"door_color_assignment":["white","black"],"door_generator_assignment":[1,0],"goal":4,"start":7,"action_noise":0.1,"location_history":"[7,6,7,6,5,4]","action_history":"[0,1,0,0,0]","door_history":"[1,0,1,1,1]","location_rts":"[895,216,271,354,397]","trial_type":"two-door-navigation","trial_index":9,"time_elapsed":235409,"internal_node_id":"0.0-2.0-7.0"},{"group":"square cycles (cube, non-group)","room_assignment":["grey","pink","purple","green","red","blue","yellow","brown"],"door_color_assignment":["white","black"],"door_generator_assignment":[1,0],"goal":6,"start":4,"action_noise":0.1,"location_history":"[4,7,3,2,6]","action_history":"[0,1,1,1]","door_history":"[1,0,0,0]","location_rts":"[313,215,263,458]","trial_type":"two-door-navigation","trial_index":10,"time_elapsed":244256,"internal_node_id":"0.0-2.0-8.0"},{"group":"square cycles (cube, non-group)","room_assignment":["grey","pink","purple","green","red","blue","yellow","brown"],"door_color_assignment":["white","black"],"door_generator_assignment":[1,0],"goal":0,"start":6,"action_noise":0.1,"location_history":"[6,5,1,0]","action_history":"[0,1,1]","door_history":"[1,0,0]","location_rts":"[1386,580,536]","trial_type":"two-door-navigation","trial_index":11,"time_elapsed":253341,"internal_node_id":"0.0-2.0-9.0"},{"group":"square cycles (cube, non-group)","room_assignment":["grey","pink","purple","green","red","blue","yellow","brown"],"door_color_assignment":["white","black"],"door_generator_assignment":[1,0],"goal":1,"start":0,"action_noise":0.1,"location_history":"[0,4,7,3,0,4,7,3,0,4,7,3,2,3,0,1]","action_history":"[1,0,1,0,1,0,1,0,1,0,1,0,0,1,0]","door_history":"[0,1,0,1,0,1,0,1,0,1,0,1,1,0,1]","location_rts":"[1887,908,495,955,488,454,402,347,298,352,240,216,215,612,841]","trial_type":"two-door-navigation","trial_index":12,"time_elapsed":280910,"internal_node_id":"0.0-2.0-10.0"},{"group":"square cycles (cube, non-group)","room_assignment":["grey","pink","purple","green","red","blue","yellow","brown"],"door_color_assignment":["white","black"],"door_generator_assignment":[1,0],"goal":3,"start":1,"action_noise":0.1,"location_history":"[1,0,4,7,6,7,6,7,3]","action_history":"[0,1,0,0,1,0,1,1]","door_history":"[1,0,1,1,0,1,0,0]","location_rts":"[784,442,377,580,646,1750,446,245]","trial_type":"two-door-navigation","trial_index":13,"time_elapsed":297875,"internal_node_id":"0.0-2.0-11.0"},{"group":"square cycles (cube, non-group)","room_assignment":["grey","pink","purple","green","red","blue","yellow","brown"],"door_color_assignment":["white","black"],"door_generator_assignment":[1,0],"goal":7,"start":3,"action_noise":0.1,"location_history":"[3,0,1,2,3,2,3,2,6,7]","action_history":"[0,1,1,0,1,0,1,1,1]","door_history":"[1,0,0,1,0,1,0,0,0]","location_rts":"[813,237,269,343,109,149,88,233,745]","trial_type":"two-door-navigation","trial_index":14,"time_elapsed":313565,"internal_node_id":"0.0-2.0-12.0"},{"group":"square cycles (cube, non-group)","room_assignment":["grey","pink","purple","green","red","blue","yellow","brown"],"door_color_assignment":["white","black"],"door_generator_assignment":[1,0],"goal":5,"start":7,"action_noise":0.1,"location_history":"[7,6,7,3,2,3,0,1,2,6,7,3,2,6,7,6,5]","action_history":"[0,1,1,0,0,0,0,0,1,1,1,1,1,1,0,0]","door_history":"[1,0,0,1,1,1,1,1,0,0,0,0,0,0,1,1]","location_rts":"[834,345,230,139,522,89,281,244,109,176,348,1171,416,345,210,210]","trial_type":"two-door-navigation","trial_index":15,"time_elapsed":339138,"internal_node_id":"0.0-2.0-13.0"},{"group":"square cycles (cube, non-group)","room_assignment":["grey","pink","purple","green","red","blue","yellow","brown"],"door_color_assignment":["white","black"],"door_generator_assignment":[1,0],"goal":2,"start":5,"action_noise":0.1,"location_history":"[5,4,5,1,0,4,7,3,2]","action_history":"[0,1,1,1,1,1,0,0]","door_history":"[1,0,0,0,0,0,1,1]","location_rts":"[848,1126,236,259,234,846,405,571]","trial_type":"two-door-navigation","trial_index":16,"time_elapsed":355362,"internal_node_id":"0.0-2.0-14.0"},{"group":"square cycles (cube, non-group)","room_assignment":["grey","pink","purple","green","red","blue","yellow","brown"],"door_color_assignment":["white","black"],"door_generator_assignment":[1,0],"goal":7,"start":2,"action_noise":0.1,"location_history":"[2,3,2,6,7]","action_history":"[0,1,1,1]","door_history":"[1,0,0,0]","location_rts":"[849,297,101,234]","trial_type":"two-door-navigation","trial_index":17,"time_elapsed":364435,"internal_node_id":"0.0-2.0-15.0"},{"group":"square cycles (cube, non-group)","room_assignment":["grey","pink","purple","green","red","blue","yellow","brown"],"door_color_assignment":["white","black"],"door_generator_assignment":[1,0],"goal":4,"start":7,"action_noise":0.1,"location_history":"[7,6,5,4]","action_history":"[0,0,0]","door_history":"[1,1,1]","location_rts":"[1544,293,368]","trial_type":"two-door-navigation","trial_index":18,"time_elapsed":373220,"internal_node_id":"0.0-2.0-16.0"},{"group":"square cycles (cube, non-group)","room_assignment":["grey","pink","purple","green","red","blue","yellow","brown"],"door_color_assignment":["white","black"],"door_generator_assignment":[1,0],"goal":2,"start":4,"action_noise":0.1,"location_history":"[4,7,3,2]","action_history":"[0,1,1]","door_history":"[1,0,0]","location_rts":"[853,128,288]","trial_type":"two-door-navigation","trial_index":19,"time_elapsed":381063,"internal_node_id":"0.0-2.0-17.0"},{"group":"square cycles (cube, non-group)","room_assignment":["grey","pink","purple","green","red","blue","yellow","brown"],"door_color_assignment":["white","black"],"door_generator_assignment":[1,0],"goal":3,"start":2,"action_noise":0.1,"location_history":"[2,6,7,3]","action_history":"[0,1,1]","door_history":"[1,0,0]","location_rts":"[446,219,267]","trial_type":"two-door-navigation","trial_index":20,"time_elapsed":388581,"internal_node_id":"0.0-2.0-18.0"},{"group":"square cycles (cube, non-group)","room_assignment":["grey","pink","purple","green","red","blue","yellow","brown"],"door_color_assignment":["white","black"],"door_generator_assignment":[1,0],"goal":6,"start":3,"action_noise":0.1,"location_history":"[3,0,4,5,1,0,1,2,3,2,3,2,6]","action_history":"[0,0,1,1,1,0,0,0,1,0,1,1]","door_history":"[1,1,0,0,0,1,1,1,0,1,0,0]","location_rts":"[346,282,914,183,203,71,266,587,288,265,333,273]","trial_type":"two-door-navigation","trial_index":21,"time_elapsed":408388,"internal_node_id":"0.0-2.0-19.0"},{"group":"square cycles (cube, non-group)","room_assignment":["grey","pink","purple","green","red","blue","yellow","brown"],"door_color_assignment":["white","black"],"door_generator_assignment":[1,0],"goal":5,"start":6,"action_noise":0.1,"location_history":"[6,5]","action_history":"[0]","door_history":"[1]","location_rts":"[617]","trial_type":"two-door-navigation","trial_index":22,"time_elapsed":413535,"internal_node_id":"0.0-2.0-20.0"},{"group":"square cycles (cube, non-group)","room_assignment":["grey","pink","purple","green","red","blue","yellow","brown"],"door_color_assignment":["white","black"],"door_generator_assignment":[1,0],"goal":1,"start":5,"action_noise":0.1,"location_history":"[5,4,7,3,2,6,5,1]","action_history":"[0,0,1,1,1,0,0]","door_history":"[1,1,0,0,0,1,1]","location_rts":"[907,485,662,435,329,292,277]","trial_type":"two-door-navigation","trial_index":23,"time_elapsed":427589,"internal_node_id":"0.0-2.0-21.0"},{"group":"square cycles (cube, non-group)","room_assignment":["grey","pink","purple","green","red","blue","yellow","brown"],"door_color_assignment":["white","black"],"door_generator_assignment":[1,0],"goal":0,"start":1,"action_noise":0.1,"location_history":"[1,2,6,5,1,0]","action_history":"[0,1,1,1,1]","door_history":"[1,0,0,0,0]","location_rts":"[406,265,225,144,228]","trial_type":"two-door-navigation","trial_index":24,"time_elapsed":437477,"internal_node_id":"0.0-2.0-22.0"},{"group":"square cycles (cube, non-group)","room_assignment":["grey","pink","purple","green","red","blue","yellow","brown"],"door_color_assignment":["white","black"],"door_generator_assignment":[1,0],"goal":2,"start":0,"action_noise":0.1,"location_history":"[0,4,7,3,0,1,2]","action_history":"[1,0,1,0,0,0]","door_history":"[0,1,0,1,1,1]","location_rts":"[1332,300,456,231,267,301]","trial_type":"two-door-navigation","trial_index":25,"time_elapsed":450018,"internal_node_id":"0.0-2.0-23.0"},{"group":"square cycles (cube, non-group)","room_assignment":["grey","pink","purple","green","red","blue","yellow","brown"],"door_color_assignment":["white","black"],"door_generator_assignment":[1,0],"goal":6,"start":2,"action_noise":0.1,"location_history":"[2,6]","action_history":"[1]","door_history":"[0]","location_rts":"[449]","trial_type":"two-door-navigation","trial_index":26,"time_elapsed":454999,"internal_node_id":"0.0-2.0-24.0"},{"group":"square cycles (cube, non-group)","room_assignment":["grey","pink","purple","green","red","blue","yellow","brown"],"door_color_assignment":["white","black"],"door_generator_assignment":[1,0],"goal":1,"start":6,"action_noise":0.1,"location_history":"[6,5,4,7,3,0,1]","action_history":"[1,0,1,1,0,0]","door_history":"[0,1,0,0,1,1]","location_rts":"[318,8,162,378,526,460]","trial_type":"two-door-navigation","trial_index":27,"time_elapsed":466512,"internal_node_id":"0.0-2.0-25.0"},{"group":"square cycles (cube, non-group)","room_assignment":["grey","pink","purple","green","red","blue","yellow","brown"],"door_color_assignment":["white","black"],"door_generator_assignment":[1,0],"goal":3,"start":1,"action_noise":0.1,"location_history":"[1,2,6,7,6,5,4,7,3]","action_history":"[0,1,1,1,0,0,0,1]","door_history":"[1,0,0,0,1,1,1,0]","location_rts":"[262,130,444,261,229,241,256,261]","trial_type":"two-door-navigation","trial_index":28,"time_elapsed":480305,"internal_node_id":"0.0-2.0-26.0"},{"group":"square cycles (cube, non-group)","room_assignment":["grey","pink","purple","green","red","blue","yellow","brown"],"door_color_assignment":["white","black"],"door_generator_assignment":[1,0],"goal":7,"start":3,"action_noise":0.1,"location_history":"[3,2,3,0,1,2,3,2,6,7]","action_history":"[1,0,0,0,0,0,1,1,1]","door_history":"[0,1,1,1,1,1,0,0,0]","location_rts":"[4358,869,335,440,406,296,50,216,526]","trial_type":"two-door-navigation","trial_index":29,"time_elapsed":500532,"internal_node_id":"0.0-2.0-27.0"},{"group":"square cycles (cube, non-group)","room_assignment":["grey","pink","purple","green","red","blue","yellow","brown"],"door_color_assignment":["white","black"],"door_generator_assignment":[1,0],"goal":4,"start":7,"action_noise":0.1,"location_history":"[7,3,2,3,0,4]","action_history":"[1,0,0,0,1]","door_history":"[0,1,1,1,0]","location_rts":"[307,107,214,263,383]","trial_type":"two-door-navigation","trial_index":30,"time_elapsed":510437,"internal_node_id":"0.0-2.0-28.0"},{"group":"square cycles (cube, non-group)","room_assignment":["grey","pink","purple","green","red","blue","yellow","brown"],"door_color_assignment":["white","black"],"door_generator_assignment":[1,0],"goal":0,"start":4,"action_noise":0.1,"location_history":"[4,7,6,7,3,2,3,0]","action_history":"[0,0,1,1,1,0,0]","door_history":"[1,1,0,0,0,1,1]","location_rts":"[559,282,48,456,275,103,236]","trial_type":"two-door-navigation","trial_index":31,"time_elapsed":523065,"internal_node_id":"0.0-2.0-29.0"},{"group":"square cycles (cube, non-group)","room_assignment":["grey","pink","purple","green","red","blue","yellow","brown"],"door_color_assignment":["white","black"],"door_generator_assignment":[1,0],"goal":5,"start":0,"action_noise":0.1,"location_history":"[0,1,2,3,2,3,0,1,0,4,5]","action_history":"[0,0,1,1,0,0,0,1,1,1]","door_history":"[1,1,0,0,1,1,1,0,0,0]","location_rts":"[404,344,700,329,697,421,282,122,242,107]","trial_type":"two-door-navigation","trial_index":32,"time_elapsed":540428,"internal_node_id":"0.0-2.0-30.0"},{"group":"square cycles (cube, non-group)","room_assignment":["grey","pink","purple","green","red","blue","yellow","brown"],"door_color_assignment":["white","black"],"door_generator_assignment":[1,0],"goal":3,"start":5,"action_noise":0.1,"location_history":"[5,4,5,4,7,6,7,3]","action_history":"[0,1,0,0,0,1,1]","door_history":"[1,0,1,1,1,0,0]","location_rts":"[5374,121,144,93,236,549,212]","trial_type":"two-door-navigation","trial_index":33,"time_elapsed":557823,"internal_node_id":"0.0-2.0-31.0"},{"group":"square cycles (cube, non-group)","room_assignment":["grey","pink","purple","green","red","blue","yellow","brown"],"door_color_assignment":["white","black"],"door_generator_assignment":[1,0],"goal":2,"start":3,"action_noise":0.1,"location_history":"[3,2]","action_history":"[1]","door_history":"[0]","location_rts":"[353]","trial_type":"two-door-navigation","trial_index":34,"time_elapsed":562708,"internal_node_id":"0.0-2.0-32.0"},{"group":"square cycles (cube, non-group)","room_assignment":["grey","pink","purple","green","red","blue","yellow","brown"],"door_color_assignment":["white","black"],"door_generator_assignment":[1,0],"goal":6,"start":2,"action_noise":0.1,"location_history":"[2,6]","action_history":"[1]","door_history":"[0]","location_rts":"[252]","trial_type":"two-door-navigation","trial_index":35,"time_elapsed":567486,"internal_node_id":"0.0-2.0-33.0"},{"group":"square cycles (cube, non-group)","room_assignment":["grey","pink","purple","green","red","blue","yellow","brown"],"door_color_assignment":["white","black"],"door_generator_assignment":[1,0],"goal":1,"start":6,"action_noise":0.1,"location_history":"[6,5,1]","action_history":"[0,0]","door_history":"[1,1]","location_rts":"[196,349]","trial_type":"two-door-navigation","trial_index":36,"time_elapsed":573589,"internal_node_id":"0.0-2.0-34.0"},{"group":"square cycles (cube, non-group)","room_assignment":["grey","pink","purple","green","red","blue","yellow","brown"],"door_color_assignment":["white","black"],"door_generator_assignment":[1,0],"goal":7,"start":1,"action_noise":0.1,"location_history":"[1,2,6,5,4,7]","action_history":"[1,1,0,0,0]","door_history":"[0,0,1,1,1]","location_rts":"[340,222,1540,275,232]","trial_type":"two-door-navigation","trial_index":37,"time_elapsed":584826,"internal_node_id":"0.0-2.0-35.0"},{"group":"square cycles (cube, non-group)","room_assignment":["grey","pink","purple","green","red","blue","yellow","brown"],"door_color_assignment":["white","black"],"door_generator_assignment":[1,0],"goal":4,"start":7,"action_noise":0.1,"location_history":"[7,3,2,3,0,4]","action_history":"[1,1,0,0,1]","door_history":"[0,0,1,1,0]","location_rts":"[116,228,507,237,301]","trial_type":"two-door-navigation","trial_index":38,"time_elapsed":594847,"internal_node_id":"0.0-2.0-36.0"},{"group":"square cycles (cube, non-group)","room_assignment":["grey","pink","purple","green","red","blue","yellow","brown"],"door_color_assignment":["white","black"],"door_generator_assignment":[1,0],"goal":5,"start":4,"action_noise":0.1,"location_history":"[4,5]","action_history":"[1]","door_history":"[0]","location_rts":"[431]","trial_type":"two-door-navigation","trial_index":39,"time_elapsed":599806,"internal_node_id":"0.0-2.0-37.0"},{"group":"square cycles (cube, non-group)","room_assignment":["grey","pink","purple","green","red","blue","yellow","brown"],"door_color_assignment":["white","black"],"door_generator_assignment":[1,0],"goal":0,"start":5,"action_noise":0.1,"location_history":"[5,1,0]","action_history":"[1,1]","door_history":"[0,0]","location_rts":"[362,243]","trial_type":"two-door-navigation","trial_index":40,"time_elapsed":605969,"internal_node_id":"0.0-2.0-38.0"},{"group":"square cycles (cube, non-group)","room_assignment":["grey","pink","purple","green","red","blue","yellow","brown"],"door_color_assignment":["white","black"],"door_generator_assignment":[1,0],"goal":4,"start":0,"action_noise":0.1,"location_history":"[0,1,2,6,7,3,0,1,0,1,0,1,0,4]","action_history":"[0,0,1,1,1,0,0,0,0,1,1,1,1]","door_history":"[1,1,0,0,0,1,1,1,1,0,0,0,0]","location_rts":"[3626,435,93,86,319,451,310,283,348,286,97,221,9]","trial_type":"two-door-navigation","trial_index":41,"time_elapsed":629380,"internal_node_id":"0.0-2.0-39.0"},{"group":"square cycles (cube, non-group)","room_assignment":["grey","pink","purple","green","red","blue","yellow","brown"],"door_color_assignment":["white","black"],"door_generator_assignment":[1,0],"goal":0,"start":4,"action_noise":0.1,"location_history":"[4,7,6,7,3,2,3,0]","action_history":"[0,0,1,1,1,0,0]","door_history":"[1,1,0,0,0,1,1]","location_rts":"[2482,792,914,245,229,323,207]","trial_type":"two-door-navigation","trial_index":42,"time_elapsed":645258,"internal_node_id":"0.0-2.0-40.0"},{"group":"square cycles (cube, non-group)","room_assignment":["grey","pink","purple","green","red","blue","yellow","brown"],"door_color_assignment":["white","black"],"door_generator_assignment":[1,0],"goal":2,"start":0,"action_noise":0.1,"location_history":"[0,1,0,4,5,4,5,4,7,6,5,1,2]","action_history":"[0,1,1,1,0,1,0,0,0,1,1,1]","door_history":"[1,0,0,0,1,0,1,1,1,0,0,0]","location_rts":"[3065,384,331,321,803,354,94,268,337,59,222,242]","trial_type":"two-door-navigation","trial_index":43,"time_elapsed":667566,"internal_node_id":"0.0-2.0-41.0"},{"group":"square cycles (cube, non-group)","room_assignment":["grey","pink","purple","green","red","blue","yellow","brown"],"door_color_assignment":["white","black"],"door_generator_assignment":[1,0],"goal":3,"start":2,"action_noise":0.1,"location_history":"[2,6,5,4,7,3]","action_history":"[1,0,0,1,1]","door_history":"[0,1,1,0,0]","location_rts":"[1019,273,238,347,126]","trial_type":"two-door-navigation","trial_index":44,"time_elapsed":678211,"internal_node_id":"0.0-2.0-42.0"},{"group":"square cycles (cube, non-group)","room_assignment":["grey","pink","purple","green","red","blue","yellow","brown"],"door_color_assignment":["white","black"],"door_generator_assignment":[1,0],"goal":5,"start":3,"action_noise":0.1,"location_history":"[3,2,3,0,1,2,6,7,6,5]","action_history":"[1,0,0,0,1,1,1,0,0]","door_history":"[0,1,1,1,0,0,0,1,1]","location_rts":"[477,296,243,271,84,244,221,277,768]","trial_type":"two-door-navigation","trial_index":45,"time_elapsed":693824,"internal_node_id":"0.0-2.0-43.0"},{"group":"square cycles (cube, non-group)","room_assignment":["grey","pink","purple","green","red","blue","yellow","brown"],"door_color_assignment":["white","black"],"door_generator_assignment":[1,0],"goal":1,"start":5,"action_noise":0.1,"location_history":"[5,1]","action_history":"[1]","door_history":"[0]","location_rts":"[578]","trial_type":"two-door-navigation","trial_index":46,"time_elapsed":698934,"internal_node_id":"0.0-2.0-44.0"},{"group":"square cycles (cube, non-group)","room_assignment":["grey","pink","purple","green","red","blue","yellow","brown"],"door_color_assignment":["white","black"],"door_generator_assignment":[1,0],"goal":7,"start":1,"action_noise":0.1,"location_history":"[1,2,3,2,6,7]","action_history":"[0,0,0,1,1]","door_history":"[1,1,1,0,0]","location_rts":"[276,515,407,317,824]","trial_type":"two-door-navigation","trial_index":47,"time_elapsed":709913,"internal_node_id":"0.0-2.0-45.0"},{"group":"square cycles (cube, non-group)","room_assignment":["grey","pink","purple","green","red","blue","yellow","brown"],"door_color_assignment":["white","black"],"door_generator_assignment":[1,0],"goal":6,"start":7,"action_noise":0.1,"location_history":"[7,6]","action_history":"[0]","door_history":"[1]","location_rts":"[90]","trial_type":"two-door-navigation","trial_index":48,"time_elapsed":714532,"internal_node_id":"0.0-2.0-46.0"},{"group":"square cycles (cube, non-group)","room_assignment":["grey","pink","purple","green","red","blue","yellow","brown"],"door_color_assignment":["white","black"],"door_generator_assignment":[1,0],"goal":3,"start":6,"action_noise":0.1,"location_history":"[6,7,3]","action_history":"[1,1]","door_history":"[0,0]","location_rts":"[439,277]","trial_type":"two-door-navigation","trial_index":49,"time_elapsed":720806,"internal_node_id":"0.0-2.0-47.0"},{"group":"square cycles (cube, non-group)","room_assignment":["grey","pink","purple","green","red","blue","yellow","brown"],"door_color_assignment":["white","black"],"door_generator_assignment":[1,0],"goal":0,"start":3,"action_noise":0.1,"location_history":"[3,0]","action_history":"[0]","door_history":"[1]","location_rts":"[244]","trial_type":"two-door-navigation","trial_index":50,"time_elapsed":725582,"internal_node_id":"0.0-2.0-48.0"},{"group":"square cycles (cube, non-group)","room_assignment":["grey","pink","purple","green","red","blue","yellow","brown"],"door_color_assignment":["white","black"],"door_generator_assignment":[1,0],"goal":2,"start":0,"action_noise":0.1,"location_history":"[0,4,5,1,2]","action_history":"[1,1,1,0]","door_history":"[0,0,0,1]","location_rts":"[456,338,144,273]","trial_type":"two-door-navigation","trial_index":51,"time_elapsed":734406,"internal_node_id":"0.0-2.0-49.0"},{"view_history":"[{\"page_index\":0,\"viewing_time\":3959}]","rt":3960,"trial_type":"instructions","trial_index":52,"time_elapsed":739367,"internal_node_id":"0.0-3.0"},{"view_history":"[{\"page_index\":0,\"viewing_time\":3445},{\"page_index\":1,\"viewing_time\":23580}]","rt":27026,"trial_type":"instructions","trial_index":53,"time_elapsed":767393,"internal_node_id":"0.0-4.0"},{"group":"square cycles (cube, non-group)","fractal_assignment":["../images/cyn_red.png","../images/gry_blk.png","../images/ylw_pnk.png","../images/blu_wht.png","../images/grn_red.png","../images/ylw_slt.png","../images/org_blu.png","../images/pnk_blu.png"],"mutagen_generator_assignment":[0,1],"goal":3,"start":0,"action_noise":0.1,"location_history":"[0,1,0,4,5,1,0,4,7,6,7,3]","action_history":"[0,1,1,1,1,1,1,0,0,1,1]","mutagen_history":"[0,1,1,1,1,1,1,0,0,1,1]","location_rts":"[4807,1741,579,617,401,350,2092,2608,651,459,569]","trial_type":"fractal-mutation","trial_index":54,"time_elapsed":797448,"internal_node_id":"0.0-5.0-0.0"},{"group":"square cycles (cube, non-group)","fractal_assignment":["../images/cyn_red.png","../images/gry_blk.png","../images/ylw_pnk.png","../images/blu_wht.png","../images/grn_red.png","../images/ylw_slt.png","../images/org_blu.png","../images/pnk_blu.png"],"mutagen_generator_assignment":[0,1],"goal":1,"start":3,"action_noise":0.1,"location_history":"[3,2,6,7,3,2,6,5,4,5,4,7,6,5,4,7,3,2,3,2,6,7,6,5,1]","action_history":"[0,1,1,1,1,1,0,0,1,1,0,0,0,0,0,1,1,0,1,1,1,1,0,0]","mutagen_history":"[0,1,1,1,1,1,0,0,1,1,0,0,0,0,0,1,1,0,1,1,1,1,0,0]","location_rts":"[909,433,374,233,392,396,170,462,366,276,247,313,613,303,105,804,392,272,509,423,243,963,274,354]","trial_type":"fractal-mutation","trial_index":55,"time_elapsed":835956,"internal_node_id":"0.0-5.0-1.0"},{"group":"square cycles (cube, non-group)","fractal_assignment":["../images/cyn_red.png","../images/gry_blk.png","../images/ylw_pnk.png","../images/blu_wht.png","../images/grn_red.png","../images/ylw_slt.png","../images/org_blu.png","../images/pnk_blu.png"],"mutagen_generator_assignment":[0,1],"goal":2,"start":1,"action_noise":0.1,"location_history":"[1,0,4,7,6,7,6,5,4,7,3,2]","action_history":"[1,1,0,0,0,0,0,0,0,1,1]","mutagen_history":"[1,1,0,0,0,0,0,0,0,1,1]","location_rts":"[2807,615,717,561,413,388,644,871,1754,428,689]","trial_type":"fractal-mutation","trial_index":56,"time_elapsed":860863,"internal_node_id":"0.0-5.0-2.0"},{"group":"square cycles (cube, non-group)","fractal_assignment":["../images/cyn_red.png","../images/gry_blk.png","../images/ylw_pnk.png","../images/blu_wht.png","../images/grn_red.png","../images/ylw_slt.png","../images/org_blu.png","../images/pnk_blu.png"],"mutagen_generator_assignment":[0,1],"goal":6,"start":2,"action_noise":0.1,"location_history":"[2,6]","action_history":"[1]","mutagen_history":"[1]","location_rts":"[400]","trial_type":"fractal-mutation","trial_index":57,"time_elapsed":865820,"internal_node_id":"0.0-5.0-3.0"},{"group":"square cycles (cube, non-group)","fractal_assignment":["../images/cyn_red.png","../images/gry_blk.png","../images/ylw_pnk.png","../images/blu_wht.png","../images/grn_red.png","../images/ylw_slt.png","../images/org_blu.png","../images/pnk_blu.png"],"mutagen_generator_assignment":[0,1],"goal":5,"start":6,"action_noise":0.1,"location_history":"[6,5]","action_history":"[0]","mutagen_history":"[0]","location_rts":"[377]","trial_type":"fractal-mutation","trial_index":58,"time_elapsed":870746,"internal_node_id":"0.0-5.0-4.0"},{"group":"square cycles (cube, non-group)","fractal_assignment":["../images/cyn_red.png","../images/gry_blk.png","../images/ylw_pnk.png","../images/blu_wht.png","../images/grn_red.png","../images/ylw_slt.png","../images/org_blu.png","../images/pnk_blu.png"],"mutagen_generator_assignment":[0,1],"goal":4,"start":5,"action_noise":0.1,"location_history":"[5,1,2,3,0,1,2,3,2,6,7,3,2,3,0,4]","action_history":"[1,1,0,0,0,1,1,1,1,1,1,1,0,0,0]","mutagen_history":"[1,1,0,0,0,1,1,1,1,1,1,1,0,0,0]","location_rts":"[411,408,267,266,316,412,419,330,332,498,187,597,110,361,180]","trial_type":"fractal-mutation","trial_index":59,"time_elapsed":895076,"internal_node_id":"0.0-5.0-5.0"},{"group":"square cycles (cube, non-group)","fractal_assignment":["../images/cyn_red.png","../images/gry_blk.png","../images/ylw_pnk.png","../images/blu_wht.png","../images/grn_red.png","../images/ylw_slt.png","../images/org_blu.png","../images/pnk_blu.png"],"mutagen_generator_assignment":[0,1],"goal":7,"start":4,"action_noise":0.1,"location_history":"[4,7]","action_history":"[0]","mutagen_history":"[0]","location_rts":"[729]","trial_type":"fractal-mutation","trial_index":60,"time_elapsed":900352,"internal_node_id":"0.0-5.0-6.0"},{"group":"square cycles (cube, non-group)","fractal_assignment":["../images/cyn_red.png","../images/gry_blk.png","../images/ylw_pnk.png","../images/blu_wht.png","../images/grn_red.png","../images/ylw_slt.png","../images/org_blu.png","../images/pnk_blu.png"],"mutagen_generator_assignment":[0,1],"goal":4,"start":7,"action_noise":0.1,"location_history":"[7,3,2,6,5,4]","action_history":"[1,1,1,0,0]","mutagen_history":"[1,1,1,0,0]","location_rts":"[856,302,519,433,349]","trial_type":"fractal-mutation","trial_index":61,"time_elapsed":911572,"internal_node_id":"0.0-5.0-7.0"},{"group":"square cycles (cube, non-group)","fractal_assignment":["../images/cyn_red.png","../images/gry_blk.png","../images/ylw_pnk.png","../images/blu_wht.png","../images/grn_red.png","../images/ylw_slt.png","../images/org_blu.png","../images/pnk_blu.png"],"mutagen_generator_assignment":[0,1],"goal":6,"start":4,"action_noise":0.1,"location_history":"[4,7,3,2,6]","action_history":"[0,1,1,1]","mutagen_history":"[0,1,1,1]","location_rts":"[16659,241,110,297]","trial_type":"fractal-mutation","trial_index":62,"time_elapsed":936604,"internal_node_id":"0.0-5.0-8.0"},{"group":"square cycles (cube, non-group)","fractal_assignment":["../images/cyn_red.png","../images/gry_blk.png","../images/ylw_pnk.png","../images/blu_wht.png","../images/grn_red.png","../images/ylw_slt.png","../images/org_blu.png","../images/pnk_blu.png"],"mutagen_generator_assignment":[0,1],"goal":0,"start":6,"action_noise":0.1,"location_history":"[6,5,4,7,3,2,6,7,3,2,3,0]","action_history":"[0,0,0,1,1,1,1,1,1,0,0]","mutagen_history":"[0,0,0,1,1,1,1,1,1,0,0]","location_rts":"[917,288,2901,138,385,603,856,1290,273,483,1657]","trial_type":"fractal-mutation","trial_index":63,"time_elapsed":961437,"internal_node_id":"0.0-5.0-9.0"},{"group":"square cycles (cube, non-group)","fractal_assignment":["../images/cyn_red.png","../images/gry_blk.png","../images/ylw_pnk.png","../images/blu_wht.png","../images/grn_red.png","../images/ylw_slt.png","../images/org_blu.png","../images/pnk_blu.png"],"mutagen_generator_assignment":[0,1],"goal":1,"start":0,"action_noise":0.1,"location_history":"[0,1]","action_history":"[0]","mutagen_history":"[0]","location_rts":"[884]","trial_type":"fractal-mutation","trial_index":64,"time_elapsed":966865,"internal_node_id":"0.0-5.0-10.0"},{"group":"square cycles (cube, non-group)","fractal_assignment":["../images/cyn_red.png","../images/gry_blk.png","../images/ylw_pnk.png","../images/blu_wht.png","../images/grn_red.png","../images/ylw_slt.png","../images/org_blu.png","../images/pnk_blu.png"],"mutagen_generator_assignment":[0,1],"goal":3,"start":1,"action_noise":0.1,"location_history":"[1,0,4,7,6,7,6,7,3]","action_history":"[1,1,0,0,1,1,1,1]","mutagen_history":"[1,1,0,0,1,1,1,1]","location_rts":"[495,258,170,150,2761,266,391,417]","trial_type":"fractal-mutation","trial_index":65,"time_elapsed":983674,"internal_node_id":"0.0-5.0-11.0"},{"group":"square cycles (cube, non-group)","fractal_assignment":["../images/cyn_red.png","../images/gry_blk.png","../images/ylw_pnk.png","../images/blu_wht.png","../images/grn_red.png","../images/ylw_slt.png","../images/org_blu.png","../images/pnk_blu.png"],"mutagen_generator_assignment":[0,1],"goal":7,"start":3,"action_noise":0.1,"location_history":"[3,0,4,5,1,0,4,7]","action_history":"[0,1,1,1,1,1,0]","mutagen_history":"[0,1,1,1,1,1,0]","location_rts":"[787,609,596,296,487,437,487]","trial_type":"fractal-mutation","trial_index":66,"time_elapsed":998268,"internal_node_id":"0.0-5.0-12.0"},{"group":"square cycles (cube, non-group)","fractal_assignment":["../images/cyn_red.png","../images/gry_blk.png","../images/ylw_pnk.png","../images/blu_wht.png","../images/grn_red.png","../images/ylw_slt.png","../images/org_blu.png","../images/pnk_blu.png"],"mutagen_generator_assignment":[0,1],"goal":5,"start":7,"action_noise":0.1,"location_history":"[7,6,5]","action_history":"[1,0]","mutagen_history":"[1,0]","location_rts":"[733,509]","trial_type":"fractal-mutation","trial_index":67,"time_elapsed":1005118,"internal_node_id":"0.0-5.0-13.0"},{"group":"square cycles (cube, non-group)","fractal_assignment":["../images/cyn_red.png","../images/gry_blk.png","../images/ylw_pnk.png","../images/blu_wht.png","../images/grn_red.png","../images/ylw_slt.png","../images/org_blu.png","../images/pnk_blu.png"],"mutagen_generator_assignment":[0,1],"goal":2,"start":5,"action_noise":0.1,"location_history":"[5,1,0,4,5,4,7,6,7,3,2]","action_history":"[1,1,1,1,0,0,0,1,1,1]","mutagen_history":"[1,1,1,1,0,0,0,1,1,1]","location_rts":"[820,292,305,1284,714,227,488,461,104,131]","trial_type":"fractal-mutation","trial_index":68,"time_elapsed":1023962,"internal_node_id":"0.0-5.0-14.0"},{"group":"square cycles (cube, non-group)","fractal_assignment":["../images/cyn_red.png","../images/gry_blk.png","../images/ylw_pnk.png","../images/blu_wht.png","../images/grn_red.png","../images/ylw_slt.png","../images/org_blu.png","../images/pnk_blu.png"],"mutagen_generator_assignment":[0,1],"goal":7,"start":2,"action_noise":0.1,"location_history":"[2,3,2,6,7]","action_history":"[0,1,1,1]","mutagen_history":"[0,1,1,1]","location_rts":"[1031,571,409,361]","trial_type":"fractal-mutation","trial_index":69,"time_elapsed":1034065,"internal_node_id":"0.0-5.0-15.0"},{"group":"square cycles (cube, non-group)","fractal_assignment":["../images/cyn_red.png","../images/gry_blk.png","../images/ylw_pnk.png","../images/blu_wht.png","../images/grn_red.png","../images/ylw_slt.png","../images/org_blu.png","../images/pnk_blu.png"],"mutagen_generator_assignment":[0,1],"goal":4,"start":7,"action_noise":0.1,"location_history":"[7,3,2,6,7,3,2,6,7,3,2,3,0,1,0,4]","action_history":"[1,1,1,1,1,1,0,1,1,1,0,0,0,1,1]","mutagen_history":"[1,1,1,1,1,1,0,1,1,1,0,0,0,1,1]","location_rts":"[1695,987,870,316,2423,1821,1129,1628,1711,943,646,1828,363,1244,861]","trial_type":"fractal-mutation","trial_index":70,"time_elapsed":1071810,"internal_node_id":"0.0-5.0-16.0"},{"group":"square cycles (cube, non-group)","fractal_assignment":["../images/cyn_red.png","../images/gry_blk.png","../images/ylw_pnk.png","../images/blu_wht.png","../images/grn_red.png","../images/ylw_slt.png","../images/org_blu.png","../images/pnk_blu.png"],"mutagen_generator_assignment":[0,1],"goal":2,"start":4,"action_noise":0.1,"location_history":"[4,7,3,2]","action_history":"[0,1,1]","mutagen_history":"[0,1,1]","location_rts":"[2191,1546,1283]","trial_type":"fractal-mutation","trial_index":71,"time_elapsed":1083486,"internal_node_id":"0.0-5.0-17.0"},{"group":"square cycles (cube, non-group)","fractal_assignment":["../images/cyn_red.png","../images/gry_blk.png","../images/ylw_pnk.png","../images/blu_wht.png","../images/grn_red.png","../images/ylw_slt.png","../images/org_blu.png","../images/pnk_blu.png"],"mutagen_generator_assignment":[0,1],"goal":3,"start":2,"action_noise":0.1,"location_history":"[2,3]","action_history":"[0]","mutagen_history":"[0]","location_rts":"[941]","trial_type":"fractal-mutation","trial_index":72,"time_elapsed":1088976,"internal_node_id":"0.0-5.0-18.0"},{"group":"square cycles (cube, non-group)","fractal_assignment":["../images/cyn_red.png","../images/gry_blk.png","../images/ylw_pnk.png","../images/blu_wht.png","../images/grn_red.png","../images/ylw_slt.png","../images/org_blu.png","../images/pnk_blu.png"],"mutagen_generator_assignment":[0,1],"goal":6,"start":3,"action_noise":0.1,"location_history":"[3,2,6]","action_history":"[1,1]","mutagen_history":"[1,1]","location_rts":"[710,675]","trial_type":"fractal-mutation","trial_index":73,"time_elapsed":1095980,"internal_node_id":"0.0-5.0-19.0"},{"group":"square cycles (cube, non-group)","fractal_assignment":["../images/cyn_red.png","../images/gry_blk.png","../images/ylw_pnk.png","../images/blu_wht.png","../images/grn_red.png","../images/ylw_slt.png","../images/org_blu.png","../images/pnk_blu.png"],"mutagen_generator_assignment":[0,1],"goal":5,"start":6,"action_noise":0.1,"location_history":"[6,7,3,0,4,7,3,2,6,7,6,5]","action_history":"[1,1,1,1,0,1,1,1,1,0,0]","mutagen_history":"[1,1,1,1,0,1,1,1,1,0,0]","location_rts":"[2376,1165,1055,1719,448,1296,970,644,952,889,958]","trial_type":"fractal-mutation","trial_index":74,"time_elapsed":1123514,"internal_node_id":"0.0-5.0-20.0"},{"group":"square cycles (cube, non-group)","fractal_assignment":["../images/cyn_red.png","../images/gry_blk.png","../images/ylw_pnk.png","../images/blu_wht.png","../images/grn_red.png","../images/ylw_slt.png","../images/org_blu.png","../images/pnk_blu.png"],"mutagen_generator_assignment":[0,1],"goal":1,"start":5,"action_noise":0.1,"location_history":"[5,1]","action_history":"[1]","mutagen_history":"[1]","location_rts":"[1263]","trial_type":"fractal-mutation","trial_index":75,"time_elapsed":1129342,"internal_node_id":"0.0-5.0-21.0"},{"group":"square cycles (cube, non-group)","fractal_assignment":["../images/cyn_red.png","../images/gry_blk.png","../images/ylw_pnk.png","../images/blu_wht.png","../images/grn_red.png","../images/ylw_slt.png","../images/org_blu.png","../images/pnk_blu.png"],"mutagen_generator_assignment":[0,1],"goal":0,"start":1,"action_noise":0.1,"location_history":"[1,2,3,2,3,2,6,7,6,5,4,7,6,5,4,7,3,2,6,7,3,0]","action_history":"[0,0,1,1,1,1,1,0,0,0,0,0,0,0,0,1,1,1,1,1,1]","mutagen_history":"[0,0,1,1,1,1,1,0,0,0,0,0,0,0,0,1,1,1,1,1,1]","location_rts":"[732,1356,1233,509,933,582,1007,583,654,605,964,263,615,393,821,288,1592,2292,2372,189,1712]","trial_type":"fractal-mutation","trial_index":76,"time_elapsed":1174567,"internal_node_id":"0.0-5.0-22.0"},{"group":"square cycles (cube, non-group)","fractal_assignment":["../images/cyn_red.png","../images/gry_blk.png","../images/ylw_pnk.png","../images/blu_wht.png","../images/grn_red.png","../images/ylw_slt.png","../images/org_blu.png","../images/pnk_blu.png"],"mutagen_generator_assignment":[0,1],"goal":2,"start":0,"action_noise":0.1,"location_history":"[0,1,2]","action_history":"[0,0]","mutagen_history":"[0,0]","location_rts":"[931,1557]","trial_type":"fractal-mutation","trial_index":77,"time_elapsed":1182645,"internal_node_id":"0.0-5.0-23.0"},{"group":"square cycles (cube, non-group)","fractal_assignment":["../images/cyn_red.png","../images/gry_blk.png","../images/ylw_pnk.png","../images/blu_wht.png","../images/grn_red.png","../images/ylw_slt.png","../images/org_blu.png","../images/pnk_blu.png"],"mutagen_generator_assignment":[0,1],"goal":6,"start":2,"action_noise":0.1,"location_history":"[2,3,0,4,5,1,2,3,0,4,5,1,0,1,0,1,0,1,2,3,0,1,2,6]","action_history":"[0,0,1,1,1,0,0,0,1,1,1,1,0,0,0,1,0,0,0,0,0,0,0]","mutagen_history":"[0,0,1,1,1,0,0,0,1,1,1,1,0,0,0,1,0,0,0,0,0,0,0]","location_rts":"[641,273,341,132,772,263,34,323,304,365,687,348,375,811,964,1004,897,476,25,274,401,2596,586]","trial_type":"fractal-mutation","trial_index":78,"time_elapsed":1223079,"internal_node_id":"0.0-5.0-24.0"},{"group":"square cycles (cube, non-group)","fractal_assignment":["../images/cyn_red.png","../images/gry_blk.png","../images/ylw_pnk.png","../images/blu_wht.png","../images/grn_red.png","../images/ylw_slt.png","../images/org_blu.png","../images/pnk_blu.png"],"mutagen_generator_assignment":[0,1],"goal":1,"start":6,"action_noise":0.1,"location_history":"[6,5,1]","action_history":"[1,1]","mutagen_history":"[1,1]","location_rts":"[866,665]","trial_type":"fractal-mutation","trial_index":79,"time_elapsed":1230219,"internal_node_id":"0.0-5.0-25.0"},{"group":"square cycles (cube, non-group)","fractal_assignment":["../images/cyn_red.png","../images/gry_blk.png","../images/ylw_pnk.png","../images/blu_wht.png","../images/grn_red.png","../images/ylw_slt.png","../images/org_blu.png","../images/pnk_blu.png"],"mutagen_generator_assignment":[0,1],"goal":3,"start":1,"action_noise":0.1,"location_history":"[1,2,3]","action_history":"[0,0]","mutagen_history":"[0,0]","location_rts":"[410,246]","trial_type":"fractal-mutation","trial_index":80,"time_elapsed":1236470,"internal_node_id":"0.0-5.0-26.0"},{"group":"square cycles (cube, non-group)","fractal_assignment":["../images/cyn_red.png","../images/gry_blk.png","../images/ylw_pnk.png","../images/blu_wht.png","../images/grn_red.png","../images/ylw_slt.png","../images/org_blu.png","../images/pnk_blu.png"],"mutagen_generator_assignment":[0,1],"goal":7,"start":3,"action_noise":0.1,"location_history":"[3,2,6,7]","action_history":"[1,1,1]","mutagen_history":"[1,1,1]","location_rts":"[3589,179,20]","trial_type":"fractal-mutation","trial_index":81,"time_elapsed":1246925,"internal_node_id":"0.0-5.0-27.0"},{"group":"square cycles (cube, non-group)","fractal_assignment":["../images/cyn_red.png","../images/gry_blk.png","../images/ylw_pnk.png","../images/blu_wht.png","../images/grn_red.png","../images/ylw_slt.png","../images/org_blu.png","../images/pnk_blu.png"],"mutagen_generator_assignment":[0,1],"goal":4,"start":7,"action_noise":0.1,"location_history":"[7,3,2,6,5,4]","action_history":"[1,1,1,0,0]","mutagen_history":"[1,1,1,0,0]","location_rts":"[517,267,58,199,248]","trial_type":"fractal-mutation","trial_index":82,"time_elapsed":1256975,"internal_node_id":"0.0-5.0-28.0"},{"group":"square cycles (cube, non-group)","fractal_assignment":["../images/cyn_red.png","../images/gry_blk.png","../images/ylw_pnk.png","../images/blu_wht.png","../images/grn_red.png","../images/ylw_slt.png","../images/org_blu.png","../images/pnk_blu.png"],"mutagen_generator_assignment":[0,1],"goal":0,"start":4,"action_noise":0.1,"location_history":"[4,5,4,7,6,5,4,7,3,2,3,2,6,7,3,2,3,0]","action_history":"[1,0,0,0,0,0,0,0,1,0,1,1,1,1,1,0,0]","mutagen_history":"[1,0,0,0,0,0,0,0,1,0,1,1,1,1,1,0,0]","location_rts":"[382,229,139,279,138,316,97,333,371,156,922,76,1265,404,1327,637,142]","trial_type":"fractal-mutation","trial_index":83,"time_elapsed":1285502,"internal_node_id":"0.0-5.0-29.0"},{"group":"square cycles (cube, non-group)","fractal_assignment":["../images/cyn_red.png","../images/gry_blk.png","../images/ylw_pnk.png","../images/blu_wht.png","../images/grn_red.png","../images/ylw_slt.png","../images/org_blu.png","../images/pnk_blu.png"],"mutagen_generator_assignment":[0,1],"goal":5,"start":0,"action_noise":0.1,"location_history":"[0,1,2,3,0,1,0,4,5]","action_history":"[1,0,0,0,0,1,1,1]","mutagen_history":"[1,0,0,0,0,1,1,1]","location_rts":"[503,515,25,44,178,12,174,120]","trial_type":"fractal-mutation","trial_index":84,"time_elapsed":1298944,"internal_node_id":"0.0-5.0-30.0"},{"group":"square cycles (cube, non-group)","fractal_assignment":["../images/cyn_red.png","../images/gry_blk.png","../images/ylw_pnk.png","../images/blu_wht.png","../images/grn_red.png","../images/ylw_slt.png","../images/org_blu.png","../images/pnk_blu.png"],"mutagen_generator_assignment":[0,1],"goal":3,"start":5,"action_noise":0.1,"location_history":"[5,1,2,3]","action_history":"[1,0,1]","mutagen_history":"[1,0,1]","location_rts":"[833,1506,474]","trial_type":"fractal-mutation","trial_index":85,"time_elapsed":1308407,"internal_node_id":"0.0-5.0-31.0"},{"group":"square cycles (cube, non-group)","fractal_assignment":["../images/cyn_red.png","../images/gry_blk.png","../images/ylw_pnk.png","../images/blu_wht.png","../images/grn_red.png","../images/ylw_slt.png","../images/org_blu.png","../images/pnk_blu.png"],"mutagen_generator_assignment":[0,1],"goal":2,"start":3,"action_noise":0.1,"location_history":"[3,0,1,0,4,5,1,0,1,2]","action_history":"[0,0,1,1,1,1,1,0,0]","mutagen_history":"[0,0,1,1,1,1,1,0,0]","location_rts":"[829,240,1187,381,383,130,442,362,399]","trial_type":"fractal-mutation","trial_index":86,"time_elapsed":1325695,"internal_node_id":"0.0-5.0-32.0"},{"group":"square cycles (cube, non-group)","fractal_assignment":["../images/cyn_red.png","../images/gry_blk.png","../images/ylw_pnk.png","../images/blu_wht.png","../images/grn_red.png","../images/ylw_slt.png","../images/org_blu.png","../images/pnk_blu.png"],"mutagen_generator_assignment":[0,1],"goal":6,"start":2,"action_noise":0.1,"location_history":"[2,6]","action_history":"[1]","mutagen_history":"[1]","location_rts":"[224]","trial_type":"fractal-mutation","trial_index":87,"time_elapsed":1330477,"internal_node_id":"0.0-5.0-33.0"},{"group":"square cycles (cube, non-group)","fractal_assignment":["../images/cyn_red.png","../images/gry_blk.png","../images/ylw_pnk.png","../images/blu_wht.png","../images/grn_red.png","../images/ylw_slt.png","../images/org_blu.png","../images/pnk_blu.png"],"mutagen_generator_assignment":[0,1],"goal":1,"start":6,"action_noise":0.1,"location_history":"[6,5,1]","action_history":"[0,1]","mutagen_history":"[0,1]","location_rts":"[701,247]","trial_type":"fractal-mutation","trial_index":88,"time_elapsed":1337022,"internal_node_id":"0.0-5.0-34.0"},{"group":"square cycles (cube, non-group)","fractal_assignment":["../images/cyn_red.png","../images/gry_blk.png","../images/ylw_pnk.png","../images/blu_wht.png","../images/grn_red.png","../images/ylw_slt.png","../images/org_blu.png","../images/pnk_blu.png"],"mutagen_generator_assignment":[0,1],"goal":7,"start":1,"action_noise":0.1,"location_history":"[1,0,4,7]","action_history":"[1,1,0]","mutagen_history":"[1,1,0]","location_rts":"[123,379,268]","trial_type":"fractal-mutation","trial_index":89,"time_elapsed":1344451,"internal_node_id":"0.0-5.0-35.0"},{"group":"square cycles (cube, non-group)","fractal_assignment":["../images/cyn_red.png","../images/gry_blk.png","../images/ylw_pnk.png","../images/blu_wht.png","../images/grn_red.png","../images/ylw_slt.png","../images/org_blu.png","../images/pnk_blu.png"],"mutagen_generator_assignment":[0,1],"goal":4,"start":7,"action_noise":0.1,"location_history":"[7,6,5,1,0,4]","action_history":"[0,0,1,1,0]","mutagen_history":"[0,0,1,1,0]","location_rts":"[546,76,279,118,342]","trial_type":"fractal-mutation","trial_index":90,"time_elapsed":1354539,"internal_node_id":"0.0-5.0-36.0"},{"group":"square cycles (cube, non-group)","fractal_assignment":["../images/cyn_red.png","../images/gry_blk.png","../images/ylw_pnk.png","../images/blu_wht.png","../images/grn_red.png","../images/ylw_slt.png","../images/org_blu.png","../images/pnk_blu.png"],"mutagen_generator_assignment":[0,1],"goal":5,"start":4,"action_noise":0.1,"location_history":"[4,5]","action_history":"[1]","mutagen_history":"[1]","location_rts":"[370]","trial_type":"fractal-mutation","trial_index":91,"time_elapsed":1359472,"internal_node_id":"0.0-5.0-37.0"},{"group":"square cycles (cube, non-group)","fractal_assignment":["../images/cyn_red.png","../images/gry_blk.png","../images/ylw_pnk.png","../images/blu_wht.png","../images/grn_red.png","../images/ylw_slt.png","../images/org_blu.png","../images/pnk_blu.png"],"mutagen_generator_assignment":[0,1],"goal":0,"start":5,"action_noise":0.1,"location_history":"[5,4,5,1,2,3,0]","action_history":"[0,1,1,0,0,0]","mutagen_history":"[0,1,1,0,0,0]","location_rts":"[801,291,1157,375,338,395]","trial_type":"fractal-mutation","trial_index":92,"time_elapsed":1372607,"internal_node_id":"0.0-5.0-38.0"},{"group":"square cycles (cube, non-group)","fractal_assignment":["../images/cyn_red.png","../images/gry_blk.png","../images/ylw_pnk.png","../images/blu_wht.png","../images/grn_red.png","../images/ylw_slt.png","../images/org_blu.png","../images/pnk_blu.png"],"mutagen_generator_assignment":[0,1],"goal":4,"start":0,"action_noise":0.1,"location_history":"[0,1,2,3,2,6,5,1,0,1,2,3,0,1,2,3,0,4]","action_history":"[0,0,0,1,1,1,1,1,0,0,0,0,0,0,1,0,1]","mutagen_history":"[0,0,0,1,1,1,1,1,0,0,0,0,0,0,1,0,1]","location_rts":"[1576,541,58,159,219,285,328,203,150,129,107,71,156,300,314,339,1253]","trial_type":"fractal-mutation","trial_index":93,"time_elapsed":1400056,"internal_node_id":"0.0-5.0-39.0"},{"group":"square cycles (cube, non-group)","fractal_assignment":["../images/cyn_red.png","../images/gry_blk.png","../images/ylw_pnk.png","../images/blu_wht.png","../images/grn_red.png","../images/ylw_slt.png","../images/org_blu.png","../images/pnk_blu.png"],"mutagen_generator_assignment":[0,1],"goal":0,"start":4,"action_noise":0.1,"location_history":"[4,5,4,5,1,0]","action_history":"[1,0,1,1,0]","mutagen_history":"[1,0,1,1,0]","location_rts":"[591,481,3768,1418,1951]","trial_type":"fractal-mutation","trial_index":94,"time_elapsed":1417022,"internal_node_id":"0.0-5.0-40.0"},{"group":"square cycles (cube, non-group)","fractal_assignment":["../images/cyn_red.png","../images/gry_blk.png","../images/ylw_pnk.png","../images/blu_wht.png","../images/grn_red.png","../images/ylw_slt.png","../images/org_blu.png","../images/pnk_blu.png"],"mutagen_generator_assignment":[0,1],"goal":2,"start":0,"action_noise":0.1,"location_history":"[0,4,5,4,7,6,5,1,0,4,5,4,5,1,0,1,2]","action_history":"[1,1,0,0,0,0,1,1,1,1,0,1,1,1,0,0]","mutagen_history":"[1,1,0,0,0,0,1,1,1,1,0,1,1,1,0,0]","location_rts":"[713,296,732,1147,1031,393,100,129,307,572,153,188,166,153,1458,296]","trial_type":"fractal-mutation","trial_index":95,"time_elapsed":1445152,"internal_node_id":"0.0-5.0-41.0"},{"group":"square cycles (cube, non-group)","fractal_assignment":["../images/cyn_red.png","../images/gry_blk.png","../images/ylw_pnk.png","../images/blu_wht.png","../images/grn_red.png","../images/ylw_slt.png","../images/org_blu.png","../images/pnk_blu.png"],"mutagen_generator_assignment":[0,1],"goal":3,"start":2,"action_noise":0.1,"location_history":"[2,6,7,3]","action_history":"[1,1,1]","mutagen_history":"[1,1,1]","location_rts":"[1102,451,98]","trial_type":"fractal-mutation","trial_index":96,"time_elapsed":1453457,"internal_node_id":"0.0-5.0-42.0"},{"group":"square cycles (cube, non-group)","fractal_assignment":["../images/cyn_red.png","../images/gry_blk.png","../images/ylw_pnk.png","../images/blu_wht.png","../images/grn_red.png","../images/ylw_slt.png","../images/org_blu.png","../images/pnk_blu.png"],"mutagen_generator_assignment":[0,1],"goal":5,"start":3,"action_noise":0.1,"location_history":"[3,0,1,0,4,5]","action_history":"[0,0,1,1,1]","mutagen_history":"[0,0,1,1,1]","location_rts":"[304,284,395,106,268]","trial_type":"fractal-mutation","trial_index":97,"time_elapsed":1463565,"internal_node_id":"0.0-5.0-43.0"},{"group":"square cycles (cube, non-group)","fractal_assignment":["../images/cyn_red.png","../images/gry_blk.png","../images/ylw_pnk.png","../images/blu_wht.png","../images/grn_red.png","../images/ylw_slt.png","../images/org_blu.png","../images/pnk_blu.png"],"mutagen_generator_assignment":[0,1],"goal":1,"start":5,"action_noise":0.1,"location_history":"[5,4,5,1]","action_history":"[0,1,1]","mutagen_history":"[0,1,1]","location_rts":"[437,20,245]","trial_type":"fractal-mutation","trial_index":98,"time_elapsed":1470920,"internal_node_id":"0.0-5.0-44.0"},{"group":"square cycles (cube, non-group)","fractal_assignment":["../images/cyn_red.png","../images/gry_blk.png","../images/ylw_pnk.png","../images/blu_wht.png","../images/grn_red.png","../images/ylw_slt.png","../images/org_blu.png","../images/pnk_blu.png"],"mutagen_generator_assignment":[0,1],"goal":7,"start":1,"action_noise":0.1,"location_history":"[1,0,1,2,3,2,6,5,4,5,4,7]","action_history":"[1,0,0,0,1,1,1,1,1,0,0]","mutagen_history":"[1,0,0,0,1,1,1,1,1,0,0]","location_rts":"[65,286,195,171,162,197,1031,201,519,229,99]","trial_type":"fractal-mutation","trial_index":99,"time_elapsed":1489130,"internal_node_id":"0.0-5.0-45.0"},{"group":"square cycles (cube, non-group)","fractal_assignment":["../images/cyn_red.png","../images/gry_blk.png","../images/ylw_pnk.png","../images/blu_wht.png","../images/grn_red.png","../images/ylw_slt.png","../images/org_blu.png","../images/pnk_blu.png"],"mutagen_generator_assignment":[0,1],"goal":6,"start":7,"action_noise":0.1,"location_history":"[7,3,0,1,0,1,2,3,0,1,0,1,0,4,7,3,2,6]","action_history":"[1,1,1,0,0,0,0,0,0,1,0,1,1,0,0,1,1]","mutagen_history":"[1,1,1,0,0,0,0,0,0,1,0,1,1,0,0,1,1]","location_rts":"[799,886,1427,232,80,220,996,237,190,106,410,167,230,97,1014,181,90]","trial_type":"fractal-mutation","trial_index":100,"time_elapsed":1517820,"internal_node_id":"0.0-5.0-46.0"},{"group":"square cycles (cube, non-group)","fractal_assignment":["../images/cyn_red.png","../images/gry_blk.png","../images/ylw_pnk.png","../images/blu_wht.png","../images/grn_red.png","../images/ylw_slt.png","../images/org_blu.png","../images/pnk_blu.png"],"mutagen_generator_assignment":[0,1],"goal":3,"start":6,"action_noise":0.1,"location_history":"[6,7,3]","action_history":"[0,1]","mutagen_history":"[0,1]","location_rts":"[215,35]","trial_type":"fractal-mutation","trial_index":101,"time_elapsed":1523672,"internal_node_id":"0.0-5.0-47.0"},{"group":"square cycles (cube, non-group)","fractal_assignment":["../images/cyn_red.png","../images/gry_blk.png","../images/ylw_pnk.png","../images/blu_wht.png","../images/grn_red.png","../images/ylw_slt.png","../images/org_blu.png","../images/pnk_blu.png"],"mutagen_generator_assignment":[0,1],"goal":0,"start":3,"action_noise":0.1,"location_history":"[3,2,3,0]","action_history":"[1,0,0]","mutagen_history":"[1,0,0]","location_rts":"[147,414,436]","trial_type":"fractal-mutation","trial_index":102,"time_elapsed":1531311,"internal_node_id":"0.0-5.0-48.0"},{"group":"square cycles (cube, non-group)","fractal_assignment":["../images/cyn_red.png","../images/gry_blk.png","../images/ylw_pnk.png","../images/blu_wht.png","../images/grn_red.png","../images/ylw_slt.png","../images/org_blu.png","../images/pnk_blu.png"],"mutagen_generator_assignment":[0,1],"goal":2,"start":0,"action_noise":0.1,"location_history":"[0,4,5,4,7,6,7,3,2]","action_history":"[1,1,0,0,0,1,1,1]","mutagen_history":"[1,1,0,0,0,1,1,1]","location_rts":"[37,86,117,80,153,189,171,890]","trial_type":"fractal-mutation","trial_index":103,"time_elapsed":1544938,"internal_node_id":"0.0-5.0-49.0"},{"view_history":"[{\"page_index\":0,\"viewing_time\":20877}]","rt":20878,"trial_type":"instructions","trial_index":104,"time_elapsed":1566817,"internal_node_id":"0.0-6.0"},{"rt":4796,"responses":"{\"Q0\":\"\"}","trial_type":"survey-text","trial_index":105,"time_elapsed":1572628,"internal_node_id":"0.0-7.0"}]