[{"view_history":"[{\"page_index\":0,\"viewing_time\":28057},{\"page_index\":1,\"viewing_time\":80982},{\"page_index\":2,\"viewing_time\":36781},{\"page_index\":3,\"viewing_time\":9836}]","rt":155656,"trial_type":"instructions","trial_index":0,"time_elapsed":155657,"internal_node_id":"0.0-0.0"},{"view_history":"[{\"page_index\":0,\"viewing_time\":51207},{\"page_index\":1,\"viewing_time\":38224}]","rt":89431,"trial_type":"instructions","trial_index":1,"time_elapsed":246088,"internal_node_id":"0.0-1.0"},{"group":"square cycles (cube, non-group)","room_assignment":["pink","blue","green","yellow","purple","brown","red","grey"],"door_color_assignment":["white","black"],"door_generator_assignment":[0,1],"goal":3,"start":0,"action_noise":0.1,"location_history":"[0,1,2,3]","action_history":"[0,0,0]","door_history":"[0,0,0]","location_rts":"[6264,3945,2980]","trial_type":"two-door-navigation","trial_index":2,"time_elapsed":265847,"internal_node_id":"0.0-2.0-0.0"},{"group":"square cycles (cube, non-group)","room_assignment":["pink","blue","green","yellow","purple","brown","red","grey"],"door_color_assignment":["white","black"],"door_generator_assignment":[0,1],"goal":1,"start":3,"action_noise":0.1,"location_history":"[3,2,6,7,6,5,4,7,6,5,1]","action_history":"[1,1,1,1,0,0,0,0,0,0]","door_history":"[1,1,1,1,0,0,0,0,0,0]","location_rts":"[2618,1082,1423,1492,3133,1410,2207,2782,943,795]","trial_type":"two-door-navigation","trial_index":3,"time_elapsed":297434,"internal_node_id":"0.0-2.0-1.0"},{"group":"square cycles (cube, non-group)","room_assignment":["pink","blue","green","yellow","purple","brown","red","grey"],"door_color_assignment":["white","black"],"door_generator_assignment":[0,1],"goal":2,"start":1,"action_noise":0.1,"location_history":"[1,2]","action_history":"[0]","door_history":"[0]","location_rts":"[3389]","trial_type":"two-door-navigation","trial_index":4,"time_elapsed":305342,"internal_node_id":"0.0-2.0-2.0"},{"group":"square cycles (cube, non-group)","room_assignment":["pink","blue","green","yellow","purple","brown","red","grey"],"door_color_assignment":["white","black"],"door_generator_assignment":[0,1],"goal":6,"start":2,"action_noise":0.1,"location_history":"[2,6]","action_history":"[1]","door_history":"[1]","location_rts":"[1971]","trial_type":"two-door-navigation","trial_index":5,"time_elapsed":311830,"internal_node_id":"0.0-2.0-3.0"},{"group":"square cycles (cube, non-group)","room_assignment":["pink","blue","green","yellow","purple","brown","red","grey"],"door_color_assignment":["white","black"],"door_generator_assignment":[0,1],"goal":5,"start":6,"action_noise":0.1,"location_history":"[6,7,3,2,6,7,3,2,3,0,4,7,6,7,6,7,3,2,3,2,3,0,1,0,4,5]","action_history":"[1,1,1,1,1,1,1,0,0,0,0,0,0,0,1,1,1,1,1,0,1,1,1,1,1]","door_history":"[1,1,1,1,1,1,1,0,0,0,0,0,0,0,1,1,1,1,1,0,1,1,1,1,1]","location_rts":"[2160,827,880,1350,1099,1023,1263,916,960,819,874,925,1192,1275,1698,5482,481,867,1082,1991,1675,693,1378,1067,1379]","trial_type":"two-door-navigation","trial_index":6,"time_elapsed":374127,"internal_node_id":"0.0-2.0-4.0"},{"group":"square cycles (cube, non-group)","room_assignment":["pink","blue","green","yellow","purple","brown","red","grey"],"door_color_assignment":["white","black"],"door_generator_assignment":[0,1],"goal":4,"start":5,"action_noise":0.1,"location_history":"[5,1,0,1,2,3,0,1,2,3,2,6,7,3,2,6,5,4]","action_history":"[1,1,0,0,0,0,0,0,0,0,1,1,1,1,1,1,0]","door_history":"[1,1,0,0,0,0,0,0,0,0,1,1,1,1,1,1,0]","location_rts":"[2245,702,1523,540,601,681,1030,660,1633,1137,2404,2332,791,1853,1042,876,2058]","trial_type":"two-door-navigation","trial_index":7,"time_elapsed":417015,"internal_node_id":"0.0-2.0-5.0"},{"group":"square cycles (cube, non-group)","room_assignment":["pink","blue","green","yellow","purple","brown","red","grey"],"door_color_assignment":["white","black"],"door_generator_assignment":[0,1],"goal":7,"start":4,"action_noise":0.1,"location_history":"[4,5,1,2,6,7]","action_history":"[1,1,0,1,1]","door_history":"[1,1,0,1,1]","location_rts":"[3491,1747,1213,2224,802]","trial_type":"two-door-navigation","trial_index":8,"time_elapsed":435080,"internal_node_id":"0.0-2.0-6.0"},{"group":"square cycles (cube, non-group)","room_assignment":["pink","blue","green","yellow","purple","brown","red","grey"],"door_color_assignment":["white","black"],"door_generator_assignment":[0,1],"goal":4,"start":7,"action_noise":0.1,"location_history":"[7,3,0,1,2,3,0,1,0,4]","action_history":"[1,0,0,0,0,0,0,0,1]","door_history":"[1,0,0,0,0,0,0,0,1]","location_rts":"[4184,794,601,909,1029,1106,668,1334,1184]","trial_type":"two-door-navigation","trial_index":9,"time_elapsed":459545,"internal_node_id":"0.0-2.0-7.0"},{"group":"square cycles (cube, non-group)","room_assignment":["pink","blue","green","yellow","purple","brown","red","grey"],"door_color_assignment":["white","black"],"door_generator_assignment":[0,1],"goal":6,"start":4,"action_noise":0.1,"location_history":"[4,5,1,0,4,5,1,0,1,0,1,2,3,0,1,0,4,5,4,5,4,5,4,5,4,5,1,2,6]","action_history":"[1,1,1,1,1,1,1,0,1,0,0,0,0,0,1,1,1,0,1,0,1,1,1,0,1,1,0,1]","door_history":"[1,1,1,1,1,1,1,0,1,0,0,0,0,0,1,1,1,0,1,0,1,1,1,0,1,1,0,1]","location_rts":"[2071,939,1196,876,2175,581,622,1236,1836,1641,1083,1042,792,1327,1443,961,942,1219,1683,1080,1535,678,1188,1041,1314,345,1412,800]","trial_type":"two-door-navigation","trial_index":10,"time_elapsed":524580,"internal_node_id":"0.0-2.0-8.0"},{"group":"square cycles (cube, non-group)","room_assignment":["pink","blue","green","yellow","purple","brown","red","grey"],"door_color_assignment":["white","black"],"door_generator_assignment":[0,1],"goal":0,"start":6,"action_noise":0.1,"location_history":"[6,5,4,7,6,5,4,5,4,5,4,7,6,5,4,5,4,7,6,7,3,0]","action_history":"[0,0,0,0,0,1,1,1,1,0,0,0,0,0,1,0,0,0,1,1,0]","door_history":"[0,0,0,0,0,1,1,1,1,0,0,0,0,0,1,0,0,0,1,1,0]","location_rts":"[2762,697,672,717,1019,1318,601,633,718,1053,554,899,588,735,1435,1182,2289,736,2958,578,2164]","trial_type":"two-door-navigation","trial_index":11,"time_elapsed":573764,"internal_node_id":"0.0-2.0-9.0"},{"group":"square cycles (cube, non-group)","room_assignment":["pink","blue","green","yellow","purple","brown","red","grey"],"door_color_assignment":["white","black"],"door_generator_assignment":[0,1],"goal":1,"start":0,"action_noise":0.1,"location_history":"[0,1]","action_history":"[0]","door_history":"[0]","location_rts":"[1999]","trial_type":"two-door-navigation","trial_index":12,"time_elapsed":580283,"internal_node_id":"0.0-2.0-10.0"},{"group":"square cycles (cube, non-group)","room_assignment":["pink","blue","green","yellow","purple","brown","red","grey"],"door_color_assignment":["white","black"],"door_generator_assignment":[0,1],"goal":3,"start":1,"action_noise":0.1,"location_history":"[1,2,3]","action_history":"[0,0]","door_history":"[0,0]","location_rts":"[3412,609]","trial_type":"two-door-navigation","trial_index":13,"time_elapsed":589847,"internal_node_id":"0.0-2.0-11.0"},{"group":"square cycles (cube, non-group)","room_assignment":["pink","blue","green","yellow","purple","brown","red","grey"],"door_color_assignment":["white","black"],"door_generator_assignment":[0,1],"goal":7,"start":3,"action_noise":0.1,"location_history":"[3,2,3,2,6,5,4,7]","action_history":"[1,1,1,1,0,0,0]","door_history":"[1,1,1,1,0,0,0]","location_rts":"[2644,375,526,2022,3317,533,626]","trial_type":"two-door-navigation","trial_index":14,"time_elapsed":610522,"internal_node_id":"0.0-2.0-12.0"},{"group":"square cycles (cube, non-group)","room_assignment":["pink","blue","green","yellow","purple","brown","red","grey"],"door_color_assignment":["white","black"],"door_generator_assignment":[0,1],"goal":5,"start":7,"action_noise":0.1,"location_history":"[7,3,0,4,5]","action_history":"[0,0,1,1]","door_history":"[0,0,1,1]","location_rts":"[4302,490,1125,766]","trial_type":"two-door-navigation","trial_index":15,"time_elapsed":624775,"internal_node_id":"0.0-2.0-13.0"},{"group":"square cycles (cube, non-group)","room_assignment":["pink","blue","green","yellow","purple","brown","red","grey"],"door_color_assignment":["white","black"],"door_generator_assignment":[0,1],"goal":2,"start":5,"action_noise":0.1,"location_history":"[5,4,5,4,5,1,2]","action_history":"[0,0,0,1,1,0]","door_history":"[0,0,0,1,1,0]","location_rts":"[2388,542,941,1282,873,707]","trial_type":"two-door-navigation","trial_index":16,"time_elapsed":641130,"internal_node_id":"0.0-2.0-14.0"},{"group":"square cycles (cube, non-group)","room_assignment":["pink","blue","green","yellow","purple","brown","red","grey"],"door_color_assignment":["white","black"],"door_generator_assignment":[0,1],"goal":7,"start":2,"action_noise":0.1,"location_history":"[2,6,5,4,7]","action_history":"[1,0,0,0]","door_history":"[1,0,0,0]","location_rts":"[3203,941,567,774]","trial_type":"two-door-navigation","trial_index":17,"time_elapsed":654184,"internal_node_id":"0.0-2.0-15.0"},{"group":"square cycles (cube, non-group)","room_assignment":["pink","blue","green","yellow","purple","brown","red","grey"],"door_color_assignment":["white","black"],"door_generator_assignment":[0,1],"goal":4,"start":7,"action_noise":0.1,"location_history":"[7,3,0,1,2,3,2,6,5,4]","action_history":"[1,0,0,0,0,1,1,0,0]","door_history":"[1,0,0,0,0,1,1,0,0]","location_rts":"[2989,1113,495,675,1385,1460,450,1816,479]","trial_type":"two-door-navigation","trial_index":18,"time_elapsed":677712,"internal_node_id":"0.0-2.0-16.0"},{"group":"square cycles (cube, non-group)","room_assignment":["pink","blue","green","yellow","purple","brown","red","grey"],"door_color_assignment":["white","black"],"door_generator_assignment":[0,1],"goal":2,"start":4,"action_noise":0.1,"location_history":"[4,5,1,2]","action_history":"[1,1,0]","door_history":"[1,1,0]","location_rts":"[2981,432,742]","trial_type":"two-door-navigation","trial_index":19,"time_elapsed":688426,"internal_node_id":"0.0-2.0-17.0"},{"group":"square cycles (cube, non-group)","room_assignment":["pink","blue","green","yellow","purple","brown","red","grey"],"door_color_assignment":["white","black"],"door_generator_assignment":[0,1],"goal":3,"start":2,"action_noise":0.1,"location_history":"[2,6,7,6,5,4,5,1,2,3]","action_history":"[1,1,0,0,0,1,1,0,0]","door_history":"[1,1,0,0,0,1,1,0,0]","location_rts":"[4271,699,1434,438,830,1114,1022,824,405]","trial_type":"two-door-navigation","trial_index":20,"time_elapsed":712116,"internal_node_id":"0.0-2.0-18.0"},{"group":"square cycles (cube, non-group)","room_assignment":["pink","blue","green","yellow","purple","brown","red","grey"],"door_color_assignment":["white","black"],"door_generator_assignment":[0,1],"goal":6,"start":3,"action_noise":0.1,"location_history":"[3,2,6]","action_history":"[0,1]","door_history":"[0,1]","location_rts":"[4350,1166]","trial_type":"two-door-navigation","trial_index":21,"time_elapsed":723166,"internal_node_id":"0.0-2.0-19.0"},{"group":"square cycles (cube, non-group)","room_assignment":["pink","blue","green","yellow","purple","brown","red","grey"],"door_color_assignment":["white","black"],"door_generator_assignment":[0,1],"goal":5,"start":6,"action_noise":0.1,"location_history":"[6,7,6,5]","action_history":"[1,0,0]","door_history":"[1,0,0]","location_rts":"[3330,894,561]","trial_type":"two-door-navigation","trial_index":22,"time_elapsed":734511,"internal_node_id":"0.0-2.0-20.0"},{"group":"square cycles (cube, non-group)","room_assignment":["pink","blue","green","yellow","purple","brown","red","grey"],"door_color_assignment":["white","black"],"door_generator_assignment":[0,1],"goal":1,"start":5,"action_noise":0.1,"location_history":"[5,1]","action_history":"[1]","door_history":"[1]","location_rts":"[2213]","trial_type":"two-door-navigation","trial_index":23,"time_elapsed":741244,"internal_node_id":"0.0-2.0-21.0"},{"group":"square cycles (cube, non-group)","room_assignment":["pink","blue","green","yellow","purple","brown","red","grey"],"door_color_assignment":["white","black"],"door_generator_assignment":[0,1],"goal":0,"start":1,"action_noise":0.1,"location_history":"[1,0]","action_history":"[1]","door_history":"[1]","location_rts":"[2535]","trial_type":"two-door-navigation","trial_index":24,"time_elapsed":748303,"internal_node_id":"0.0-2.0-22.0"},{"group":"square cycles (cube, non-group)","room_assignment":["pink","blue","green","yellow","purple","brown","red","grey"],"door_color_assignment":["white","black"],"door_generator_assignment":[0,1],"goal":2,"start":0,"action_noise":0.1,"location_history":"[0,4,7,6,7,6,7,6,5,4,5,1,2]","action_history":"[0,0,0,1,0,0,0,0,0,1,1,0]","door_history":"[0,0,0,1,0,0,0,0,0,1,1,0]","location_rts":"[1995,865,948,3231,1134,369,580,738,1089,988,1428,1346]","trial_type":"two-door-navigation","trial_index":25,"time_elapsed":778742,"internal_node_id":"0.0-2.0-23.0"},{"group":"square cycles (cube, non-group)","room_assignment":["pink","blue","green","yellow","purple","brown","red","grey"],"door_color_assignment":["white","black"],"door_generator_assignment":[0,1],"goal":6,"start":2,"action_noise":0.1,"location_history":"[2,6]","action_history":"[1]","door_history":"[1]","location_rts":"[2240]","trial_type":"two-door-navigation","trial_index":26,"time_elapsed":785492,"internal_node_id":"0.0-2.0-24.0"},{"group":"square cycles (cube, non-group)","room_assignment":["pink","blue","green","yellow","purple","brown","red","grey"],"door_color_assignment":["white","black"],"door_generator_assignment":[0,1],"goal":1,"start":6,"action_noise":0.1,"location_history":"[6,7,6,5,1]","action_history":"[0,0,0,0]","door_history":"[0,0,0,0]","location_rts":"[1885,683,469,548]","trial_type":"two-door-navigation","trial_index":27,"time_elapsed":796655,"internal_node_id":"0.0-2.0-25.0"},{"group":"square cycles (cube, non-group)","room_assignment":["pink","blue","green","yellow","purple","brown","red","grey"],"door_color_assignment":["white","black"],"door_generator_assignment":[0,1],"goal":3,"start":1,"action_noise":0.1,"location_history":"[1,2,6,5,4,7,3]","action_history":"[0,1,0,0,0,1]","door_history":"[0,1,0,0,0,1]","location_rts":"[2512,955,794,443,1267,1161]","trial_type":"two-door-navigation","trial_index":28,"time_elapsed":813400,"internal_node_id":"0.0-2.0-26.0"},{"group":"square cycles (cube, non-group)","room_assignment":["pink","blue","green","yellow","purple","brown","red","grey"],"door_color_assignment":["white","black"],"door_generator_assignment":[0,1],"goal":7,"start":3,"action_noise":0.1,"location_history":"[3,2,6,5,4,7]","action_history":"[1,1,0,0,0]","door_history":"[1,1,0,0,0]","location_rts":"[4147,484,1095,476,644]","trial_type":"two-door-navigation","trial_index":29,"time_elapsed":828833,"internal_node_id":"0.0-2.0-27.0"},{"group":"square cycles (cube, non-group)","room_assignment":["pink","blue","green","yellow","purple","brown","red","grey"],"door_color_assignment":["white","black"],"door_generator_assignment":[0,1],"goal":4,"start":7,"action_noise":0.1,"location_history":"[7,6,7,3,0,1,2,3,2,3,0,4]","action_history":"[0,1,1,0,0,0,0,1,0,0,0]","door_history":"[0,1,1,0,0,0,0,1,0,0,0]","location_rts":"[2603,914,1106,1108,487,647,674,1080,748,580,595]","trial_type":"two-door-navigation","trial_index":30,"time_elapsed":854082,"internal_node_id":"0.0-2.0-28.0"},{"group":"square cycles (cube, non-group)","room_assignment":["pink","blue","green","yellow","purple","brown","red","grey"],"door_color_assignment":["white","black"],"door_generator_assignment":[0,1],"goal":0,"start":4,"action_noise":0.1,"location_history":"[4,5,1,0]","action_history":"[1,1,1]","door_history":"[1,1,1]","location_rts":"[1971,1183,826]","trial_type":"two-door-navigation","trial_index":31,"time_elapsed":864621,"internal_node_id":"0.0-2.0-29.0"},{"group":"square cycles (cube, non-group)","room_assignment":["pink","blue","green","yellow","purple","brown","red","grey"],"door_color_assignment":["white","black"],"door_generator_assignment":[0,1],"goal":5,"start":0,"action_noise":0.1,"location_history":"[0,4,5]","action_history":"[0,1]","door_history":"[0,1]","location_rts":"[2139,1716]","trial_type":"two-door-navigation","trial_index":32,"time_elapsed":874023,"internal_node_id":"0.0-2.0-30.0"},{"group":"square cycles (cube, non-group)","room_assignment":["pink","blue","green","yellow","purple","brown","red","grey"],"door_color_assignment":["white","black"],"door_generator_assignment":[0,1],"goal":3,"start":5,"action_noise":0.1,"location_history":"[5,4,5,1,2,3]","action_history":"[0,0,1,0,0]","door_history":"[0,0,1,0,0]","location_rts":"[2021,1179,1035,742,620]","trial_type":"two-door-navigation","trial_index":33,"time_elapsed":888217,"internal_node_id":"0.0-2.0-31.0"},{"group":"square cycles (cube, non-group)","room_assignment":["pink","blue","green","yellow","purple","brown","red","grey"],"door_color_assignment":["white","black"],"door_generator_assignment":[0,1],"goal":2,"start":3,"action_noise":0.1,"location_history":"[3,2]","action_history":"[1]","door_history":"[1]","location_rts":"[2431]","trial_type":"two-door-navigation","trial_index":34,"time_elapsed":895169,"internal_node_id":"0.0-2.0-32.0"},{"group":"square cycles (cube, non-group)","room_assignment":["pink","blue","green","yellow","purple","brown","red","grey"],"door_color_assignment":["white","black"],"door_generator_assignment":[0,1],"goal":6,"start":2,"action_noise":0.1,"location_history":"[2,3,0,1,2,6]","action_history":"[0,0,0,1,1]","door_history":"[0,0,0,1,1]","location_rts":"[2213,651,1201,1078,1337]","trial_type":"two-door-navigation","trial_index":35,"time_elapsed":910234,"internal_node_id":"0.0-2.0-33.0"},{"group":"square cycles (cube, non-group)","room_assignment":["pink","blue","green","yellow","purple","brown","red","grey"],"door_color_assignment":["white","black"],"door_generator_assignment":[0,1],"goal":1,"start":6,"action_noise":0.1,"location_history":"[6,5,4,5,1]","action_history":"[0,0,0,1]","door_history":"[0,0,0,1]","location_rts":"[1734,933,686,820]","trial_type":"two-door-navigation","trial_index":36,"time_elapsed":921987,"internal_node_id":"0.0-2.0-34.0"},{"group":"square cycles (cube, non-group)","room_assignment":["pink","blue","green","yellow","purple","brown","red","grey"],"door_color_assignment":["white","black"],"door_generator_assignment":[0,1],"goal":7,"start":1,"action_noise":0.1,"location_history":"[1,2,3,2,3,0,1,0,1,2,3,0,4,5,4,7]","action_history":"[0,1,0,0,0,1,1,0,0,0,0,1,1,0,0]","door_history":"[0,1,0,0,0,1,1,0,0,0,0,1,1,0,0]","location_rts":"[1580,1115,846,571,525,991,1010,836,396,476,608,1319,984,809,450]","trial_type":"two-door-navigation","trial_index":37,"time_elapsed":953258,"internal_node_id":"0.0-2.0-35.0"},{"group":"square cycles (cube, non-group)","room_assignment":["pink","blue","green","yellow","purple","brown","red","grey"],"door_color_assignment":["white","black"],"door_generator_assignment":[0,1],"goal":4,"start":7,"action_noise":0.1,"location_history":"[7,3,0,4]","action_history":"[0,0,1]","door_history":"[0,0,1]","location_rts":"[5455,1058,1046]","trial_type":"two-door-navigation","trial_index":38,"time_elapsed":967382,"internal_node_id":"0.0-2.0-36.0"},{"group":"square cycles (cube, non-group)","room_assignment":["pink","blue","green","yellow","purple","brown","red","grey"],"door_color_assignment":["white","black"],"door_generator_assignment":[0,1],"goal":5,"start":4,"action_noise":0.1,"location_history":"[4,5]","action_history":"[1]","door_history":"[1]","location_rts":"[2371]","trial_type":"two-door-navigation","trial_index":39,"time_elapsed":974283,"internal_node_id":"0.0-2.0-37.0"},{"group":"square cycles (cube, non-group)","room_assignment":["pink","blue","green","yellow","purple","brown","red","grey"],"door_color_assignment":["white","black"],"door_generator_assignment":[0,1],"goal":0,"start":5,"action_noise":0.1,"location_history":"[5,4,7,6,5,1,2,6,5,4,5,1,0]","action_history":"[0,0,0,0,1,0,0,0,0,1,1,0]","door_history":"[0,0,0,0,1,0,0,0,0,1,1,0]","location_rts":"[2495,719,676,1012,1551,1440,363,542,719,1033,1194,1393]","trial_type":"two-door-navigation","trial_index":40,"time_elapsed":1003153,"internal_node_id":"0.0-2.0-38.0"},{"group":"square cycles (cube, non-group)","room_assignment":["pink","blue","green","yellow","purple","brown","red","grey"],"door_color_assignment":["white","black"],"door_generator_assignment":[0,1],"goal":4,"start":0,"action_noise":0.1,"location_history":"[0,1,0,1,2,6,5,4]","action_history":"[0,1,0,0,1,0,0]","door_history":"[0,1,0,0,1,0,0]","location_rts":"[4320,2481,2299,448,914,683,540]","trial_type":"two-door-navigation","trial_index":41,"time_elapsed":1025453,"internal_node_id":"0.0-2.0-39.0"},{"group":"square cycles (cube, non-group)","room_assignment":["pink","blue","green","yellow","purple","brown","red","grey"],"door_color_assignment":["white","black"],"door_generator_assignment":[0,1],"goal":0,"start":4,"action_noise":0.1,"location_history":"[4,7,6,5,4,7,6,5,4,5,1,2,3,0]","action_history":"[0,0,0,0,1,0,0,0,1,1,0,0,0]","door_history":"[0,0,0,0,1,0,0,0,1,1,0,0,0]","location_rts":"[4029,1138,510,1000,2252,748,452,719,1140,616,1097,382,427]","trial_type":"two-door-navigation","trial_index":42,"time_elapsed":1056726,"internal_node_id":"0.0-2.0-40.0"},{"group":"square cycles (cube, non-group)","room_assignment":["pink","blue","green","yellow","purple","brown","red","grey"],"door_color_assignment":["white","black"],"door_generator_assignment":[0,1],"goal":2,"start":0,"action_noise":0.1,"location_history":"[0,4,7,6,5,1,2]","action_history":"[1,0,0,0,0,0]","door_history":"[1,0,0,0,0,0]","location_rts":"[1669,3243,563,527,819,552]","trial_type":"two-door-navigation","trial_index":43,"time_elapsed":1073720,"internal_node_id":"0.0-2.0-41.0"},{"group":"square cycles (cube, non-group)","room_assignment":["pink","blue","green","yellow","purple","brown","red","grey"],"door_color_assignment":["white","black"],"door_generator_assignment":[0,1],"goal":3,"start":2,"action_noise":0.1,"location_history":"[2,6,5,4,5,4,7,3]","action_history":"[1,0,0,1,0,0,1]","door_history":"[1,0,0,1,0,0,1]","location_rts":"[2158,2245,947,986,715,605,1230]","trial_type":"two-door-navigation","trial_index":44,"time_elapsed":1093234,"internal_node_id":"0.0-2.0-42.0"},{"group":"square cycles (cube, non-group)","room_assignment":["pink","blue","green","yellow","purple","brown","red","grey"],"door_color_assignment":["white","black"],"door_generator_assignment":[0,1],"goal":5,"start":3,"action_noise":0.1,"location_history":"[3,0,4,5]","action_history":"[0,0,0]","door_history":"[0,0,0]","location_rts":"[1924,521,1122]","trial_type":"two-door-navigation","trial_index":45,"time_elapsed":1103355,"internal_node_id":"0.0-2.0-43.0"},{"group":"square cycles (cube, non-group)","room_assignment":["pink","blue","green","yellow","purple","brown","red","grey"],"door_color_assignment":["white","black"],"door_generator_assignment":[0,1],"goal":1,"start":5,"action_noise":0.1,"location_history":"[5,1]","action_history":"[1]","door_history":"[1]","location_rts":"[1914]","trial_type":"two-door-navigation","trial_index":46,"time_elapsed":1109796,"internal_node_id":"0.0-2.0-44.0"},{"group":"square cycles (cube, non-group)","room_assignment":["pink","blue","green","yellow","purple","brown","red","grey"],"door_color_assignment":["white","black"],"door_generator_assignment":[0,1],"goal":7,"start":1,"action_noise":0.1,"location_history":"[1,2,3,0,1,0,1,0,1,2,6,5,4,7]","action_history":"[0,0,0,0,1,0,1,0,0,1,0,0,0]","door_history":"[0,0,0,0,1,0,1,0,0,1,0,0,0]","location_rts":"[3898,440,555,614,797,1228,871,1281,353,557,867,530,467]","trial_type":"two-door-navigation","trial_index":47,"time_elapsed":1138983,"internal_node_id":"0.0-2.0-45.0"},{"group":"square cycles (cube, non-group)","room_assignment":["pink","blue","green","yellow","purple","brown","red","grey"],"door_color_assignment":["white","black"],"door_generator_assignment":[0,1],"goal":6,"start":7,"action_noise":0.1,"location_history":"[7,6]","action_history":"[0]","door_history":"[0]","location_rts":"[4523]","trial_type":"two-door-navigation","trial_index":48,"time_elapsed":1148030,"internal_node_id":"0.0-2.0-46.0"},{"group":"square cycles (cube, non-group)","room_assignment":["pink","blue","green","yellow","purple","brown","red","grey"],"door_color_assignment":["white","black"],"door_generator_assignment":[0,1],"goal":3,"start":6,"action_noise":0.1,"location_history":"[6,7,6,5,1,2,3]","action_history":"[1,0,0,0,0,0]","door_history":"[1,0,0,0,0,0]","location_rts":"[2112,1252,721,565,580,1800]","trial_type":"two-door-navigation","trial_index":49,"time_elapsed":1164670,"internal_node_id":"0.0-2.0-47.0"},{"group":"square cycles (cube, non-group)","room_assignment":["pink","blue","green","yellow","purple","brown","red","grey"],"door_color_assignment":["white","black"],"door_generator_assignment":[0,1],"goal":0,"start":3,"action_noise":0.1,"location_history":"[3,2,6,7,3,2,3,0]","action_history":"[1,1,1,0,0,0,0]","door_history":"[1,1,1,0,0,0,0]","location_rts":"[2156,2314,1248,1716,553,594,588]","trial_type":"two-door-navigation","trial_index":50,"time_elapsed":1184463,"internal_node_id":"0.0-2.0-48.0"},{"group":"square cycles (cube, non-group)","room_assignment":["pink","blue","green","yellow","purple","brown","red","grey"],"door_color_assignment":["white","black"],"door_generator_assignment":[0,1],"goal":2,"start":0,"action_noise":0.1,"location_history":"[0,1,2]","action_history":"[0,0]","door_history":"[0,0]","location_rts":"[1724,416]","trial_type":"two-door-navigation","trial_index":51,"time_elapsed":1192145,"internal_node_id":"0.0-2.0-49.0"},{"view_history":"[{\"page_index\":0,\"viewing_time\":3062}]","rt":3062,"trial_type":"instructions","trial_index":52,"time_elapsed":1196208,"internal_node_id":"0.0-3.0"},{"view_history":"[{\"page_index\":0,\"viewing_time\":9463},{\"page_index\":1,\"viewing_time\":101795}]","rt":111258,"trial_type":"instructions","trial_index":53,"time_elapsed":1308467,"internal_node_id":"0.0-4.0"},{"group":"tri cycles (cube, non-group)","fractal_assignment":["../images/cyn_red.png","../images/org_blu.png","../images/pnk_blu.png","../images/ylw_slt.png","../images/blu_wht.png","../images/ylw_pnk.png","../images/grn_red.png","../images/gry_blk.png"],"mutagen_generator_assignment":[1,0],"goal":3,"start":0,"action_noise":0.1,"location_history":"[0,2,1,0,2,6,4,7,6,5,1,0,3]","action_history":"[1,0,0,0,1,0,0,0,1,0,0,1]","mutagen_history":"[0,1,1,1,0,1,1,1,0,1,1,0]","location_rts":"[5568,4453,945,866,1255,793,712,829,608,641,740,1097]","trial_type":"fractal-mutation","trial_index":54,"time_elapsed":1342878,"internal_node_id":"0.0-5.0-0.0"},{"group":"tri cycles (cube, non-group)","fractal_assignment":["../images/cyn_red.png","../images/org_blu.png","../images/pnk_blu.png","../images/ylw_slt.png","../images/blu_wht.png","../images/ylw_pnk.png","../images/grn_red.png","../images/gry_blk.png"],"mutagen_generator_assignment":[1,0],"goal":1,"start":3,"action_noise":0.1,"location_history":"[3,4,7,6,4,0,3,7,3,7,6,4,0,3,4,0,2,6,4,0,3,7,3,4,7,6,4,7,3,4,7,6,4,7,6,4,0,2,1]","action_history":"[1,0,0,0,1,1,0,1,0,0,0,1,1,1,1,0,1,0,1,1,0,1,1,0,0,0,0,1,1,0,0,0,0,0,0,1,0,0]","mutagen_history":"[0,1,1,1,0,0,1,0,1,1,1,0,0,0,0,1,0,1,0,0,1,0,0,1,1,1,1,0,0,1,1,1,1,1,1,0,1,1]","location_rts":"[4323,1475,694,993,858,1808,611,1464,1063,516,684,1302,1253,913,881,699,585,1770,823,750,882,808,1289,1081,1117,885,1157,535,1094,1281,728,429,493,423,549,616,1396,878]","trial_type":"fractal-mutation","trial_index":55,"time_elapsed":1424551,"internal_node_id":"0.0-5.0-1.0"},{"group":"tri cycles (cube, non-group)","fractal_assignment":["../images/cyn_red.png","../images/org_blu.png","../images/pnk_blu.png","../images/ylw_slt.png","../images/blu_wht.png","../images/ylw_pnk.png","../images/grn_red.png","../images/gry_blk.png"],"mutagen_generator_assignment":[1,0],"goal":2,"start":1,"action_noise":0.1,"location_history":"[1,5,1,5,2]","action_history":"[1,0,1,1]","mutagen_history":"[0,1,0,0]","location_rts":"[4656,1938,980,422]","trial_type":"fractal-mutation","trial_index":56,"time_elapsed":1440166,"internal_node_id":"0.0-5.0-2.0"},{"group":"tri cycles (cube, non-group)","fractal_assignment":["../images/cyn_red.png","../images/org_blu.png","../images/pnk_blu.png","../images/ylw_slt.png","../images/blu_wht.png","../images/ylw_pnk.png","../images/grn_red.png","../images/gry_blk.png"],"mutagen_generator_assignment":[1,0],"goal":6,"start":2,"action_noise":0.1,"location_history":"[2,1,0,2,6]","action_history":"[0,0,1,1]","mutagen_history":"[1,1,0,0]","location_rts":"[2237,628,772,1143]","trial_type":"fractal-mutation","trial_index":57,"time_elapsed":1452562,"internal_node_id":"0.0-5.0-3.0"},{"group":"tri cycles (cube, non-group)","fractal_assignment":["../images/cyn_red.png","../images/org_blu.png","../images/pnk_blu.png","../images/ylw_slt.png","../images/blu_wht.png","../images/ylw_pnk.png","../images/grn_red.png","../images/gry_blk.png"],"mutagen_generator_assignment":[1,0],"goal":5,"start":6,"action_noise":0.1,"location_history":"[6,4,0,2,1,0,2,6,4,7,6,4,0,3,4,7,6,4,7,6,5]","action_history":"[1,1,0,0,0,0,1,0,0,0,1,1,1,1,0,0,0,0,0,1]","mutagen_history":"[0,0,1,1,1,1,0,1,1,1,0,0,0,0,1,1,1,1,1,0]","location_rts":"[3161,849,887,1062,2340,558,521,1441,1124,594,552,869,1639,634,588,864,1172,736,537,498]","trial_type":"fractal-mutation","trial_index":58,"time_elapsed":1497241,"internal_node_id":"0.0-5.0-4.0"},{"group":"tri cycles (cube, non-group)","fractal_assignment":["../images/cyn_red.png","../images/org_blu.png","../images/pnk_blu.png","../images/ylw_slt.png","../images/blu_wht.png","../images/ylw_pnk.png","../images/grn_red.png","../images/gry_blk.png"],"mutagen_generator_assignment":[1,0],"goal":4,"start":5,"action_noise":0.1,"location_history":"[5,1,0,3,7,6,4]","action_history":"[0,0,1,0,0,0]","mutagen_history":"[1,1,0,1,1,1]","location_rts":"[1625,653,638,557,722,431]","trial_type":"fractal-mutation","trial_index":59,"time_elapsed":1511540,"internal_node_id":"0.0-5.0-5.0"},{"group":"tri cycles (cube, non-group)","fractal_assignment":["../images/cyn_red.png","../images/org_blu.png","../images/pnk_blu.png","../images/ylw_slt.png","../images/blu_wht.png","../images/ylw_pnk.png","../images/grn_red.png","../images/gry_blk.png"],"mutagen_generator_assignment":[1,0],"goal":7,"start":4,"action_noise":0.1,"location_history":"[4,7]","action_history":"[0]","mutagen_history":"[1]","location_rts":"[1295]","trial_type":"fractal-mutation","trial_index":60,"time_elapsed":1517362,"internal_node_id":"0.0-5.0-6.0"},{"group":"tri cycles (cube, non-group)","fractal_assignment":["../images/cyn_red.png","../images/org_blu.png","../images/pnk_blu.png","../images/ylw_slt.png","../images/blu_wht.png","../images/ylw_pnk.png","../images/grn_red.png","../images/gry_blk.png"],"mutagen_generator_assignment":[1,0],"goal":4,"start":7,"action_noise":0.1,"location_history":"[7,6,4]","action_history":"[0,0]","mutagen_history":"[1,1]","location_rts":"[903,657]","trial_type":"fractal-mutation","trial_index":61,"time_elapsed":1524489,"internal_node_id":"0.0-5.0-7.0"},{"group":"tri cycles (cube, non-group)","fractal_assignment":["../images/cyn_red.png","../images/org_blu.png","../images/pnk_blu.png","../images/ylw_slt.png","../images/blu_wht.png","../images/ylw_pnk.png","../images/grn_red.png","../images/gry_blk.png"],"mutagen_generator_assignment":[1,0],"goal":6,"start":4,"action_noise":0.1,"location_history":"[4,7,6]","action_history":"[0,0]","mutagen_history":"[1,1]","location_rts":"[2433,461]","trial_type":"fractal-mutation","trial_index":62,"time_elapsed":1532941,"internal_node_id":"0.0-5.0-8.0"},{"group":"tri cycles (cube, non-group)","fractal_assignment":["../images/cyn_red.png","../images/org_blu.png","../images/pnk_blu.png","../images/ylw_slt.png","../images/blu_wht.png","../images/ylw_pnk.png","../images/grn_red.png","../images/gry_blk.png"],"mutagen_generator_assignment":[1,0],"goal":0,"start":6,"action_noise":0.1,"location_history":"[6,5,1,5,2,1,0]","action_history":"[1,0,0,1,0,0]","mutagen_history":"[0,1,1,0,1,1]","location_rts":"[1221,809,474,758,884,705]","trial_type":"fractal-mutation","trial_index":63,"time_elapsed":1547485,"internal_node_id":"0.0-5.0-9.0"},{"group":"tri cycles (cube, non-group)","fractal_assignment":["../images/cyn_red.png","../images/org_blu.png","../images/pnk_blu.png","../images/ylw_slt.png","../images/blu_wht.png","../images/ylw_pnk.png","../images/grn_red.png","../images/gry_blk.png"],"mutagen_generator_assignment":[1,0],"goal":1,"start":0,"action_noise":0.1,"location_history":"[0,2,1]","action_history":"[0,0]","mutagen_history":"[1,1]","location_rts":"[2054,587]","trial_type":"fractal-mutation","trial_index":64,"time_elapsed":1555690,"internal_node_id":"0.0-5.0-10.0"},{"group":"tri cycles (cube, non-group)","fractal_assignment":["../images/cyn_red.png","../images/org_blu.png","../images/pnk_blu.png","../images/ylw_slt.png","../images/blu_wht.png","../images/ylw_pnk.png","../images/grn_red.png","../images/gry_blk.png"],"mutagen_generator_assignment":[1,0],"goal":3,"start":1,"action_noise":0.1,"location_history":"[1,5,1,5,2,1,5,1,5,2,6,4,7,3]","action_history":"[1,0,0,1,0,0,0,1,1,0,0,0,1]","mutagen_history":"[0,1,1,0,1,1,1,0,0,1,1,1,0]","location_rts":"[1368,680,462,771,436,440,880,374,1193,685,349,478,590]","trial_type":"fractal-mutation","trial_index":65,"time_elapsed":1581226,"internal_node_id":"0.0-5.0-11.0"},{"group":"tri cycles (cube, non-group)","fractal_assignment":["../images/cyn_red.png","../images/org_blu.png","../images/pnk_blu.png","../images/ylw_slt.png","../images/blu_wht.png","../images/ylw_pnk.png","../images/grn_red.png","../images/gry_blk.png"],"mutagen_generator_assignment":[1,0],"goal":7,"start":3,"action_noise":0.1,"location_history":"[3,7]","action_history":"[0]","mutagen_history":"[1]","location_rts":"[1040]","trial_type":"fractal-mutation","trial_index":66,"time_elapsed":1586796,"internal_node_id":"0.0-5.0-12.0"},{"group":"tri cycles (cube, non-group)","fractal_assignment":["../images/cyn_red.png","../images/org_blu.png","../images/pnk_blu.png","../images/ylw_slt.png","../images/blu_wht.png","../images/ylw_pnk.png","../images/grn_red.png","../images/gry_blk.png"],"mutagen_generator_assignment":[1,0],"goal":5,"start":7,"action_noise":0.1,"location_history":"[7,6,5]","action_history":"[0,1]","mutagen_history":"[1,0]","location_rts":"[1133,662]","trial_type":"fractal-mutation","trial_index":67,"time_elapsed":1594151,"internal_node_id":"0.0-5.0-13.0"},{"group":"tri cycles (cube, non-group)","fractal_assignment":["../images/cyn_red.png","../images/org_blu.png","../images/pnk_blu.png","../images/ylw_slt.png","../images/blu_wht.png","../images/ylw_pnk.png","../images/grn_red.png","../images/gry_blk.png"],"mutagen_generator_assignment":[1,0],"goal":2,"start":5,"action_noise":0.1,"location_history":"[5,2]","action_history":"[1]","mutagen_history":"[0]","location_rts":"[1612]","trial_type":"fractal-mutation","trial_index":68,"time_elapsed":1600293,"internal_node_id":"0.0-5.0-14.0"},{"group":"tri cycles (cube, non-group)","fractal_assignment":["../images/cyn_red.png","../images/org_blu.png","../images/pnk_blu.png","../images/ylw_slt.png","../images/blu_wht.png","../images/ylw_pnk.png","../images/grn_red.png","../images/gry_blk.png"],"mutagen_generator_assignment":[1,0],"goal":7,"start":2,"action_noise":0.1,"location_history":"[2,1,0,2,1,5,1,5,2,1,0,2,6,4,7]","action_history":"[0,1,0,0,1,0,1,1,0,0,1,1,0,0]","mutagen_history":"[1,0,1,1,0,1,0,0,1,1,0,0,1,1]","location_rts":"[1348,758,1102,341,741,905,720,852,792,694,1049,1035,681,635]","trial_type":"fractal-mutation","trial_index":69,"time_elapsed":1629834,"internal_node_id":"0.0-5.0-15.0"},{"group":"tri cycles (cube, non-group)","fractal_assignment":["../images/cyn_red.png","../images/org_blu.png","../images/pnk_blu.png","../images/ylw_slt.png","../images/blu_wht.png","../images/ylw_pnk.png","../images/grn_red.png","../images/gry_blk.png"],"mutagen_generator_assignment":[1,0],"goal":4,"start":7,"action_noise":0.1,"location_history":"[7,6,4]","action_history":"[0,0]","mutagen_history":"[1,1]","location_rts":"[935,566]","trial_type":"fractal-mutation","trial_index":70,"time_elapsed":1636894,"internal_node_id":"0.0-5.0-16.0"},{"group":"tri cycles (cube, non-group)","fractal_assignment":["../images/cyn_red.png","../images/org_blu.png","../images/pnk_blu.png","../images/ylw_slt.png","../images/blu_wht.png","../images/ylw_pnk.png","../images/grn_red.png","../images/gry_blk.png"],"mutagen_generator_assignment":[1,0],"goal":2,"start":4,"action_noise":0.1,"location_history":"[4,7,6,5,1,0,3,4,7,6,4,7,3,4,0,2]","action_history":"[0,0,1,0,0,1,1,0,0,1,0,1,1,1,0]","mutagen_history":"[1,1,0,1,1,0,0,1,1,0,1,0,0,0,1]","location_rts":"[1181,417,514,729,485,443,771,525,397,615,1176,428,487,662,1035]","trial_type":"fractal-mutation","trial_index":71,"time_elapsed":1665674,"internal_node_id":"0.0-5.0-17.0"},{"group":"tri cycles (cube, non-group)","fractal_assignment":["../images/cyn_red.png","../images/org_blu.png","../images/pnk_blu.png","../images/ylw_slt.png","../images/blu_wht.png","../images/ylw_pnk.png","../images/grn_red.png","../images/gry_blk.png"],"mutagen_generator_assignment":[1,0],"goal":3,"start":2,"action_noise":0.1,"location_history":"[2,1,5,1,0,2,1,0,3]","action_history":"[0,1,0,0,0,0,1,1]","mutagen_history":"[1,0,1,1,1,1,0,0]","location_rts":"[3538,659,524,435,501,1331,896,804]","trial_type":"fractal-mutation","trial_index":72,"time_elapsed":1686107,"internal_node_id":"0.0-5.0-18.0"},{"group":"tri cycles (cube, non-group)","fractal_assignment":["../images/cyn_red.png","../images/org_blu.png","../images/pnk_blu.png","../images/ylw_slt.png","../images/blu_wht.png","../images/ylw_pnk.png","../images/grn_red.png","../images/gry_blk.png"],"mutagen_generator_assignment":[1,0],"goal":6,"start":3,"action_noise":0.1,"location_history":"[3,7,3,7,6]","action_history":"[0,0,0,0]","mutagen_history":"[1,1,1,1]","location_rts":"[1278,450,502,640]","trial_type":"fractal-mutation","trial_index":73,"time_elapsed":1696581,"internal_node_id":"0.0-5.0-19.0"},{"group":"tri cycles (cube, non-group)","fractal_assignment":["../images/cyn_red.png","../images/org_blu.png","../images/pnk_blu.png","../images/ylw_slt.png","../images/blu_wht.png","../images/ylw_pnk.png","../images/grn_red.png","../images/gry_blk.png"],"mutagen_generator_assignment":[1,0],"goal":5,"start":6,"action_noise":0.1,"location_history":"[6,5]","action_history":"[1]","mutagen_history":"[0]","location_rts":"[1644]","trial_type":"fractal-mutation","trial_index":74,"time_elapsed":1702758,"internal_node_id":"0.0-5.0-20.0"},{"group":"tri cycles (cube, non-group)","fractal_assignment":["../images/cyn_red.png","../images/org_blu.png","../images/pnk_blu.png","../images/ylw_slt.png","../images/blu_wht.png","../images/ylw_pnk.png","../images/grn_red.png","../images/gry_blk.png"],"mutagen_generator_assignment":[1,0],"goal":1,"start":5,"action_noise":0.1,"location_history":"[5,1]","action_history":"[0]","mutagen_history":"[1]","location_rts":"[1316]","trial_type":"fractal-mutation","trial_index":75,"time_elapsed":1708611,"internal_node_id":"0.0-5.0-21.0"},{"group":"tri cycles (cube, non-group)","fractal_assignment":["../images/cyn_red.png","../images/org_blu.png","../images/pnk_blu.png","../images/ylw_slt.png","../images/blu_wht.png","../images/ylw_pnk.png","../images/grn_red.png","../images/gry_blk.png"],"mutagen_generator_assignment":[1,0],"goal":0,"start":1,"action_noise":0.1,"location_history":"[1,5,2,1,0]","action_history":"[1,1,0,0]","mutagen_history":"[0,0,1,1]","location_rts":"[1597,984,2254,624]","trial_type":"fractal-mutation","trial_index":76,"time_elapsed":1721666,"internal_node_id":"0.0-5.0-22.0"},{"group":"tri cycles (cube, non-group)","fractal_assignment":["../images/cyn_red.png","../images/org_blu.png","../images/pnk_blu.png","../images/ylw_slt.png","../images/blu_wht.png","../images/ylw_pnk.png","../images/grn_red.png","../images/gry_blk.png"],"mutagen_generator_assignment":[1,0],"goal":2,"start":0,"action_noise":0.1,"location_history":"[0,2]","action_history":"[0]","mutagen_history":"[1]","location_rts":"[2056]","trial_type":"fractal-mutation","trial_index":77,"time_elapsed":1728268,"internal_node_id":"0.0-5.0-23.0"},{"group":"tri cycles (cube, non-group)","fractal_assignment":["../images/cyn_red.png","../images/org_blu.png","../images/pnk_blu.png","../images/ylw_slt.png","../images/blu_wht.png","../images/ylw_pnk.png","../images/grn_red.png","../images/gry_blk.png"],"mutagen_generator_assignment":[1,0],"goal":6,"start":2,"action_noise":0.1,"location_history":"[2,6]","action_history":"[0]","mutagen_history":"[1]","location_rts":"[1663]","trial_type":"fractal-mutation","trial_index":78,"time_elapsed":1734470,"internal_node_id":"0.0-5.0-24.0"},{"group":"tri cycles (cube, non-group)","fractal_assignment":["../images/cyn_red.png","../images/org_blu.png","../images/pnk_blu.png","../images/ylw_slt.png","../images/blu_wht.png","../images/ylw_pnk.png","../images/grn_red.png","../images/gry_blk.png"],"mutagen_generator_assignment":[1,0],"goal":1,"start":6,"action_noise":0.1,"location_history":"[6,5,1]","action_history":"[1,0]","mutagen_history":"[0,1]","location_rts":"[1113,835]","trial_type":"fractal-mutation","trial_index":79,"time_elapsed":1741985,"internal_node_id":"0.0-5.0-25.0"},{"group":"tri cycles (cube, non-group)","fractal_assignment":["../images/cyn_red.png","../images/org_blu.png","../images/pnk_blu.png","../images/ylw_slt.png","../images/blu_wht.png","../images/ylw_pnk.png","../images/grn_red.png","../images/gry_blk.png"],"mutagen_generator_assignment":[1,0],"goal":3,"start":1,"action_noise":0.1,"location_history":"[1,5,1,0,2,1,0,3]","action_history":"[1,0,0,0,1,0,1]","mutagen_history":"[0,1,1,1,0,1,0]","location_rts":"[2587,666,418,643,1475,789,697]","trial_type":"fractal-mutation","trial_index":80,"time_elapsed":1759965,"internal_node_id":"0.0-5.0-26.0"},{"group":"tri cycles (cube, non-group)","fractal_assignment":["../images/cyn_red.png","../images/org_blu.png","../images/pnk_blu.png","../images/ylw_slt.png","../images/blu_wht.png","../images/ylw_pnk.png","../images/grn_red.png","../images/gry_blk.png"],"mutagen_generator_assignment":[1,0],"goal":7,"start":3,"action_noise":0.1,"location_history":"[3,7]","action_history":"[0]","mutagen_history":"[1]","location_rts":"[1037]","trial_type":"fractal-mutation","trial_index":81,"time_elapsed":1765534,"internal_node_id":"0.0-5.0-27.0"},{"group":"tri cycles (cube, non-group)","fractal_assignment":["../images/cyn_red.png","../images/org_blu.png","../images/pnk_blu.png","../images/ylw_slt.png","../images/blu_wht.png","../images/ylw_pnk.png","../images/grn_red.png","../images/gry_blk.png"],"mutagen_generator_assignment":[1,0],"goal":4,"start":7,"action_noise":0.1,"location_history":"[7,6,4]","action_history":"[0,0]","mutagen_history":"[1,1]","location_rts":"[917,568]","trial_type":"fractal-mutation","trial_index":82,"time_elapsed":1772589,"internal_node_id":"0.0-5.0-28.0"},{"group":"tri cycles (cube, non-group)","fractal_assignment":["../images/cyn_red.png","../images/org_blu.png","../images/pnk_blu.png","../images/ylw_slt.png","../images/blu_wht.png","../images/ylw_pnk.png","../images/grn_red.png","../images/gry_blk.png"],"mutagen_generator_assignment":[1,0],"goal":0,"start":4,"action_noise":0.1,"location_history":"[4,7,6,5,1,5,1,0]","action_history":"[0,0,1,0,1,0,0]","mutagen_history":"[1,1,0,1,0,1,1]","location_rts":"[1693,958,815,667,695,963,540]","trial_type":"fractal-mutation","trial_index":83,"time_elapsed":1789635,"internal_node_id":"0.0-5.0-29.0"},{"group":"tri cycles (cube, non-group)","fractal_assignment":["../images/cyn_red.png","../images/org_blu.png","../images/pnk_blu.png","../images/ylw_slt.png","../images/blu_wht.png","../images/ylw_pnk.png","../images/grn_red.png","../images/gry_blk.png"],"mutagen_generator_assignment":[1,0],"goal":5,"start":0,"action_noise":0.1,"location_history":"[0,3,4,7,3,4,0,3,4,0,3,7,6,5]","action_history":"[1,1,0,1,1,0,1,1,1,1,0,0,1]","mutagen_history":"[0,0,1,0,0,1,0,0,0,0,1,1,0]","location_rts":"[1287,710,771,550,752,584,743,1335,514,881,845,468,551]","trial_type":"fractal-mutation","trial_index":84,"time_elapsed":1816479,"internal_node_id":"0.0-5.0-30.0"},{"group":"tri cycles (cube, non-group)","fractal_assignment":["../images/cyn_red.png","../images/org_blu.png","../images/pnk_blu.png","../images/ylw_slt.png","../images/blu_wht.png","../images/ylw_pnk.png","../images/grn_red.png","../images/gry_blk.png"],"mutagen_generator_assignment":[1,0],"goal":3,"start":5,"action_noise":0.1,"location_history":"[5,1,0,3]","action_history":"[0,0,1]","mutagen_history":"[1,1,0]","location_rts":"[1306,1624,568]","trial_type":"fractal-mutation","trial_index":85,"time_elapsed":1826574,"internal_node_id":"0.0-5.0-31.0"},{"group":"tri cycles (cube, non-group)","fractal_assignment":["../images/cyn_red.png","../images/org_blu.png","../images/pnk_blu.png","../images/ylw_slt.png","../images/blu_wht.png","../images/ylw_pnk.png","../images/grn_red.png","../images/gry_blk.png"],"mutagen_generator_assignment":[1,0],"goal":2,"start":3,"action_noise":0.1,"location_history":"[3,4,0,2]","action_history":"[1,1,0]","mutagen_history":"[0,0,1]","location_rts":"[1443,1562,608]","trial_type":"fractal-mutation","trial_index":86,"time_elapsed":1836775,"internal_node_id":"0.0-5.0-32.0"},{"group":"tri cycles (cube, non-group)","fractal_assignment":["../images/cyn_red.png","../images/org_blu.png","../images/pnk_blu.png","../images/ylw_slt.png","../images/blu_wht.png","../images/ylw_pnk.png","../images/grn_red.png","../images/gry_blk.png"],"mutagen_generator_assignment":[1,0],"goal":6,"start":2,"action_noise":0.1,"location_history":"[2,1,5,2,6]","action_history":"[0,1,0,1]","mutagen_history":"[1,0,1,0]","location_rts":"[2571,773,1325,679]","trial_type":"fractal-mutation","trial_index":87,"time_elapsed":1849743,"internal_node_id":"0.0-5.0-33.0"},{"group":"tri cycles (cube, non-group)","fractal_assignment":["../images/cyn_red.png","../images/org_blu.png","../images/pnk_blu.png","../images/ylw_slt.png","../images/blu_wht.png","../images/ylw_pnk.png","../images/grn_red.png","../images/gry_blk.png"],"mutagen_generator_assignment":[1,0],"goal":1,"start":6,"action_noise":0.1,"location_history":"[6,5,2,1]","action_history":"[1,0,0]","mutagen_history":"[0,1,1]","location_rts":"[1418,563,530]","trial_type":"fractal-mutation","trial_index":88,"time_elapsed":1858853,"internal_node_id":"0.0-5.0-34.0"},{"group":"tri cycles (cube, non-group)","fractal_assignment":["../images/cyn_red.png","../images/org_blu.png","../images/pnk_blu.png","../images/ylw_slt.png","../images/blu_wht.png","../images/ylw_pnk.png","../images/grn_red.png","../images/gry_blk.png"],"mutagen_generator_assignment":[1,0],"goal":7,"start":1,"action_noise":0.1,"location_history":"[1,0,2,1,5,1,5,1,5,1,0,3,7]","action_history":"[0,0,0,1,0,1,1,1,0,0,0,0]","mutagen_history":"[1,1,1,0,1,0,0,0,1,1,1,1]","location_rts":"[780,1193,1319,653,768,1027,378,571,665,645,1496,866]","trial_type":"fractal-mutation","trial_index":89,"time_elapsed":1885057,"internal_node_id":"0.0-5.0-35.0"},{"group":"tri cycles (cube, non-group)","fractal_assignment":["../images/cyn_red.png","../images/org_blu.png","../images/pnk_blu.png","../images/ylw_slt.png","../images/blu_wht.png","../images/ylw_pnk.png","../images/grn_red.png","../images/gry_blk.png"],"mutagen_generator_assignment":[1,0],"goal":4,"start":7,"action_noise":0.1,"location_history":"[7,6,4]","action_history":"[0,0]","mutagen_history":"[1,1]","location_rts":"[985,736]","trial_type":"fractal-mutation","trial_index":90,"time_elapsed":1892331,"internal_node_id":"0.0-5.0-36.0"},{"group":"tri cycles (cube, non-group)","fractal_assignment":["../images/cyn_red.png","../images/org_blu.png","../images/pnk_blu.png","../images/ylw_slt.png","../images/blu_wht.png","../images/ylw_pnk.png","../images/grn_red.png","../images/gry_blk.png"],"mutagen_generator_assignment":[1,0],"goal":5,"start":4,"action_noise":0.1,"location_history":"[4,0,3,4,7,6,5]","action_history":"[1,1,1,0,0,1]","mutagen_history":"[0,0,0,1,1,0]","location_rts":"[2136,1239,799,625,1150,501]","trial_type":"fractal-mutation","trial_index":91,"time_elapsed":1908443,"internal_node_id":"0.0-5.0-37.0"},{"group":"tri cycles (cube, non-group)","fractal_assignment":["../images/cyn_red.png","../images/org_blu.png","../images/pnk_blu.png","../images/ylw_slt.png","../images/blu_wht.png","../images/ylw_pnk.png","../images/grn_red.png","../images/gry_blk.png"],"mutagen_generator_assignment":[1,0],"goal":0,"start":5,"action_noise":0.1,"location_history":"[5,2,1,0]","action_history":"[1,0,0]","mutagen_history":"[0,1,1]","location_rts":"[2857,585,470]","trial_type":"fractal-mutation","trial_index":92,"time_elapsed":1918960,"internal_node_id":"0.0-5.0-38.0"},{"group":"tri cycles (cube, non-group)","fractal_assignment":["../images/cyn_red.png","../images/org_blu.png","../images/pnk_blu.png","../images/ylw_slt.png","../images/blu_wht.png","../images/ylw_pnk.png","../images/grn_red.png","../images/gry_blk.png"],"mutagen_generator_assignment":[1,0],"goal":4,"start":0,"action_noise":0.1,"location_history":"[0,3,7,6,5,2,6,4]","action_history":"[1,0,0,0,1,1,0]","mutagen_history":"[0,1,1,1,0,0,1]","location_rts":"[2200,603,720,853,689,908,635]","trial_type":"fractal-mutation","trial_index":93,"time_elapsed":1936277,"internal_node_id":"0.0-5.0-39.0"},{"group":"tri cycles (cube, non-group)","fractal_assignment":["../images/cyn_red.png","../images/org_blu.png","../images/pnk_blu.png","../images/ylw_slt.png","../images/blu_wht.png","../images/ylw_pnk.png","../images/grn_red.png","../images/gry_blk.png"],"mutagen_generator_assignment":[1,0],"goal":0,"start":4,"action_noise":0.1,"location_history":"[4,0]","action_history":"[1]","mutagen_history":"[0]","location_rts":"[2288]","trial_type":"fractal-mutation","trial_index":94,"time_elapsed":1943093,"internal_node_id":"0.0-5.0-40.0"},{"group":"tri cycles (cube, non-group)","fractal_assignment":["../images/cyn_red.png","../images/org_blu.png","../images/pnk_blu.png","../images/ylw_slt.png","../images/blu_wht.png","../images/ylw_pnk.png","../images/grn_red.png","../images/gry_blk.png"],"mutagen_generator_assignment":[1,0],"goal":2,"start":0,"action_noise":0.1,"location_history":"[0,2]","action_history":"[0]","mutagen_history":"[1]","location_rts":"[2125]","trial_type":"fractal-mutation","trial_index":95,"time_elapsed":1949747,"internal_node_id":"0.0-5.0-41.0"},{"group":"tri cycles (cube, non-group)","fractal_assignment":["../images/cyn_red.png","../images/org_blu.png","../images/pnk_blu.png","../images/ylw_slt.png","../images/blu_wht.png","../images/ylw_pnk.png","../images/grn_red.png","../images/gry_blk.png"],"mutagen_generator_assignment":[1,0],"goal":3,"start":2,"action_noise":0.1,"location_history":"[2,6,5,1,5,1,5,2,1,0,2,1,0,3]","action_history":"[1,0,0,1,0,1,1,0,0,0,0,0,1]","mutagen_history":"[0,1,1,0,1,0,0,1,1,1,1,1,0]","location_rts":"[4241,440,429,524,1566,1041,1131,975,972,1482,1017,457,462]","trial_type":"fractal-mutation","trial_index":96,"time_elapsed":1981360,"internal_node_id":"0.0-5.0-42.0"},{"group":"tri cycles (cube, non-group)","fractal_assignment":["../images/cyn_red.png","../images/org_blu.png","../images/pnk_blu.png","../images/ylw_slt.png","../images/blu_wht.png","../images/ylw_pnk.png","../images/grn_red.png","../images/gry_blk.png"],"mutagen_generator_assignment":[1,0],"goal":5,"start":3,"action_noise":0.1,"location_history":"[3,7,3,4,7,3,4,7,6,5]","action_history":"[1,0,0,0,1,1,0,0,1]","mutagen_history":"[0,1,1,1,0,0,1,1,0]","location_rts":"[3272,799,351,1048,515,901,739,365,584]","trial_type":"fractal-mutation","trial_index":97,"time_elapsed":2002702,"internal_node_id":"0.0-5.0-43.0"},{"group":"tri cycles (cube, non-group)","fractal_assignment":["../images/cyn_red.png","../images/org_blu.png","../images/pnk_blu.png","../images/ylw_slt.png","../images/blu_wht.png","../images/ylw_pnk.png","../images/grn_red.png","../images/gry_blk.png"],"mutagen_generator_assignment":[1,0],"goal":1,"start":5,"action_noise":0.1,"location_history":"[5,1]","action_history":"[0]","mutagen_history":"[1]","location_rts":"[1442]","trial_type":"fractal-mutation","trial_index":98,"time_elapsed":2008675,"internal_node_id":"0.0-5.0-44.0"},{"group":"tri cycles (cube, non-group)","fractal_assignment":["../images/cyn_red.png","../images/org_blu.png","../images/pnk_blu.png","../images/ylw_slt.png","../images/blu_wht.png","../images/ylw_pnk.png","../images/grn_red.png","../images/gry_blk.png"],"mutagen_generator_assignment":[1,0],"goal":7,"start":1,"action_noise":0.1,"location_history":"[1,5,2,1,0,3,7]","action_history":"[1,1,0,0,1,0]","mutagen_history":"[0,0,1,1,0,1]","location_rts":"[1313,1165,633,951,671,1190]","trial_type":"fractal-mutation","trial_index":99,"time_elapsed":2024260,"internal_node_id":"0.0-5.0-45.0"},{"group":"tri cycles (cube, non-group)","fractal_assignment":["../images/cyn_red.png","../images/org_blu.png","../images/pnk_blu.png","../images/ylw_slt.png","../images/blu_wht.png","../images/ylw_pnk.png","../images/grn_red.png","../images/gry_blk.png"],"mutagen_generator_assignment":[1,0],"goal":6,"start":7,"action_noise":0.1,"location_history":"[7,6]","action_history":"[0]","mutagen_history":"[1]","location_rts":"[1479]","trial_type":"fractal-mutation","trial_index":100,"time_elapsed":2030275,"internal_node_id":"0.0-5.0-46.0"},{"group":"tri cycles (cube, non-group)","fractal_assignment":["../images/cyn_red.png","../images/org_blu.png","../images/pnk_blu.png","../images/ylw_slt.png","../images/blu_wht.png","../images/ylw_pnk.png","../images/grn_red.png","../images/gry_blk.png"],"mutagen_generator_assignment":[1,0],"goal":3,"start":6,"action_noise":0.1,"location_history":"[6,4,7,6,5,1,0,3]","action_history":"[0,0,0,1,0,0,1]","mutagen_history":"[1,1,1,0,1,1,0]","location_rts":"[2326,562,649,666,1032,491,1577]","trial_type":"fractal-mutation","trial_index":101,"time_elapsed":2048308,"internal_node_id":"0.0-5.0-47.0"},{"group":"tri cycles (cube, non-group)","fractal_assignment":["../images/cyn_red.png","../images/org_blu.png","../images/pnk_blu.png","../images/ylw_slt.png","../images/blu_wht.png","../images/ylw_pnk.png","../images/grn_red.png","../images/gry_blk.png"],"mutagen_generator_assignment":[1,0],"goal":0,"start":3,"action_noise":0.1,"location_history":"[3,4,0]","action_history":"[1,1]","mutagen_history":"[0,0]","location_rts":"[1350,495]","trial_type":"fractal-mutation","trial_index":102,"time_elapsed":2055709,"internal_node_id":"0.0-5.0-48.0"},{"group":"tri cycles (cube, non-group)","fractal_assignment":["../images/cyn_red.png","../images/org_blu.png","../images/pnk_blu.png","../images/ylw_slt.png","../images/blu_wht.png","../images/ylw_pnk.png","../images/grn_red.png","../images/gry_blk.png"],"mutagen_generator_assignment":[1,0],"goal":2,"start":0,"action_noise":0.1,"location_history":"[0,2]","action_history":"[0]","mutagen_history":"[1]","location_rts":"[2015]","trial_type":"fractal-mutation","trial_index":103,"time_elapsed":2062269,"internal_node_id":"0.0-5.0-49.0"},{"view_history":"[{\"page_index\":0,\"viewing_time\":30855}]","rt":30855,"trial_type":"instructions","trial_index":104,"time_elapsed":2094124,"internal_node_id":"0.0-6.0"},{"rt":28517,"responses":"{\"Q0\":\"Interesting and fun HIT. I look forward to doing the other 2 HITs. Thank you!\"}","trial_type":"survey-text","trial_index":105,"time_elapsed":2123645,"internal_node_id":"0.0-7.0"}]