[{"view_history":"[{\"page_index\":0,\"viewing_time\":2826},{\"page_index\":1,\"viewing_time\":14431},{\"page_index\":2,\"viewing_time\":43190},{\"page_index\":3,\"viewing_time\":8238}]","rt":68686,"trial_type":"instructions","trial_index":0,"time_elapsed":68688,"internal_node_id":"0.0-0.0"},{"view_history":"[{\"page_index\":0,\"viewing_time\":3901},{\"page_index\":1,\"viewing_time\":181097}]","rt":184999,"trial_type":"instructions","trial_index":1,"time_elapsed":254689,"internal_node_id":"0.0-1.0"},{"group":"square cycles (cube, non-group)","room_assignment":["red","brown","blue","yellow","purple","pink","grey","green"],"door_color_assignment":["black","white"],"door_generator_assignment":[0,1],"goal":3,"start":0,"action_noise":0.1,"location_history":"[0,4,5,4,5,1,2,3]","action_history":"[1,1,0,1,1,0,0]","door_history":"[1,1,0,1,1,0,0]","location_rts":"[24537,3448,1546,2373,1677,2942,1044]","trial_type":"two-door-navigation","trial_index":2,"time_elapsed":302931,"internal_node_id":"0.0-2.0-0.0"},{"group":"square cycles (cube, non-group)","room_assignment":["red","brown","blue","yellow","purple","pink","grey","green"],"door_color_assignment":["black","white"],"door_generator_assignment":[0,1],"goal":1,"start":3,"action_noise":0.1,"location_history":"[3,2,3,0,4,5,4,7,3,2,6,5,1]","action_history":"[0,0,0,0,1,0,0,1,1,1,0,1]","door_history":"[0,0,0,0,1,0,0,1,1,1,0,1]","location_rts":"[2145,571,431,402,568,274,370,98,291,270,181,369]","trial_type":"two-door-navigation","trial_index":3,"time_elapsed":324666,"internal_node_id":"0.0-2.0-1.0"},{"group":"square cycles (cube, non-group)","room_assignment":["red","brown","blue","yellow","purple","pink","grey","green"],"door_color_assignment":["black","white"],"door_generator_assignment":[0,1],"goal":2,"start":1,"action_noise":0.1,"location_history":"[1,2]","action_history":"[0]","door_history":"[0]","location_rts":"[1606]","trial_type":"two-door-navigation","trial_index":4,"time_elapsed":330798,"internal_node_id":"0.0-2.0-2.0"},{"group":"square cycles (cube, non-group)","room_assignment":["red","brown","blue","yellow","purple","pink","grey","green"],"door_color_assignment":["black","white"],"door_generator_assignment":[0,1],"goal":6,"start":2,"action_noise":0.1,"location_history":"[2,3,2,6]","action_history":"[0,1,1]","door_history":"[0,1,1]","location_rts":"[1842,664,915]","trial_type":"two-door-navigation","trial_index":5,"time_elapsed":340786,"internal_node_id":"0.0-2.0-3.0"},{"group":"square cycles (cube, non-group)","room_assignment":["red","brown","blue","yellow","purple","pink","grey","green"],"door_color_assignment":["black","white"],"door_generator_assignment":[0,1],"goal":5,"start":6,"action_noise":0.1,"location_history":"[6,7,6,5]","action_history":"[1,0,0]","door_history":"[1,0,0]","location_rts":"[1771,547,474]","trial_type":"two-door-navigation","trial_index":6,"time_elapsed":350146,"internal_node_id":"0.0-2.0-4.0"},{"group":"square cycles (cube, non-group)","room_assignment":["red","brown","blue","yellow","purple","pink","grey","green"],"door_color_assignment":["black","white"],"door_generator_assignment":[0,1],"goal":4,"start":5,"action_noise":0.1,"location_history":"[5,4]","action_history":"[0]","door_history":"[0]","location_rts":"[1372]","trial_type":"two-door-navigation","trial_index":7,"time_elapsed":356042,"internal_node_id":"0.0-2.0-5.0"},{"group":"square cycles (cube, non-group)","room_assignment":["red","brown","blue","yellow","purple","pink","grey","green"],"door_color_assignment":["black","white"],"door_generator_assignment":[0,1],"goal":7,"start":4,"action_noise":0.1,"location_history":"[4,5,1,2,3,0,4,5,4,7]","action_history":"[1,1,0,0,0,1,1,0,0]","door_history":"[1,1,0,0,0,1,1,0,0]","location_rts":"[2350,672,854,791,787,405,466,450,384]","trial_type":"two-door-navigation","trial_index":8,"time_elapsed":375887,"internal_node_id":"0.0-2.0-6.0"},{"group":"square cycles (cube, non-group)","room_assignment":["red","brown","blue","yellow","purple","pink","grey","green"],"door_color_assignment":["black","white"],"door_generator_assignment":[0,1],"goal":4,"start":7,"action_noise":0.1,"location_history":"[7,3,2,6,7,3,2,3,0,4]","action_history":"[1,1,1,1,1,1,0,0,1]","door_history":"[1,1,1,1,1,1,0,0,1]","location_rts":"[1786,384,382,501,479,501,841,436,539]","trial_type":"two-door-navigation","trial_index":9,"time_elapsed":394441,"internal_node_id":"0.0-2.0-7.0"},{"group":"square cycles (cube, non-group)","room_assignment":["red","brown","blue","yellow","purple","pink","grey","green"],"door_color_assignment":["black","white"],"door_generator_assignment":[0,1],"goal":6,"start":4,"action_noise":0.1,"location_history":"[4,7,3,2,6]","action_history":"[0,1,1,1]","door_history":"[0,1,1,1]","location_rts":"[1783,386,40,290]","trial_type":"two-door-navigation","trial_index":10,"time_elapsed":404529,"internal_node_id":"0.0-2.0-8.0"},{"group":"square cycles (cube, non-group)","room_assignment":["red","brown","blue","yellow","purple","pink","grey","green"],"door_color_assignment":["black","white"],"door_generator_assignment":[0,1],"goal":0,"start":6,"action_noise":0.1,"location_history":"[6,5,4,7,3,0]","action_history":"[0,1,0,1,0]","door_history":"[0,1,0,1,0]","location_rts":"[1002,289,86,239,44]","trial_type":"two-door-navigation","trial_index":11,"time_elapsed":414796,"internal_node_id":"0.0-2.0-9.0"},{"group":"square cycles (cube, non-group)","room_assignment":["red","brown","blue","yellow","purple","pink","grey","green"],"door_color_assignment":["black","white"],"door_generator_assignment":[0,1],"goal":1,"start":0,"action_noise":0.1,"location_history":"[0,4,7,3,0,4,7,3,0,1]","action_history":"[1,0,1,0,1,0,1,0,0]","door_history":"[1,0,1,0,1,0,1,0,0]","location_rts":"[846,536,422,398,526,264,409,533,816]","trial_type":"two-door-navigation","trial_index":12,"time_elapsed":432248,"internal_node_id":"0.0-2.0-10.0"},{"group":"square cycles (cube, non-group)","room_assignment":["red","brown","blue","yellow","purple","pink","grey","green"],"door_color_assignment":["black","white"],"door_generator_assignment":[0,1],"goal":3,"start":1,"action_noise":0.1,"location_history":"[1,0,4,5,1,0,4,5,1,0,4,5,4,7,6,5,4,7,6,5,4,7,3]","action_history":"[1,1,1,1,1,1,1,1,1,1,1,1,0,0,0,0,0,0,0,1,0,1]","door_history":"[1,1,1,1,1,1,1,1,1,1,1,1,0,0,0,0,0,0,0,1,0,1]","location_rts":"[1321,313,323,347,549,337,353,295,410,382,416,282,343,496,598,407,525,654,419,473,348,651]","trial_type":"two-door-navigation","trial_index":13,"time_elapsed":468466,"internal_node_id":"0.0-2.0-11.0"},{"group":"square cycles (cube, non-group)","room_assignment":["red","brown","blue","yellow","purple","pink","grey","green"],"door_color_assignment":["black","white"],"door_generator_assignment":[0,1],"goal":7,"start":3,"action_noise":0.1,"location_history":"[3,2,3,0,1,0,1,0,1,0,1,0,1,0,1,2,6,7]","action_history":"[1,0,1,0,1,0,1,0,1,0,1,0,1,0,1,0,1]","door_history":"[1,0,1,0,1,0,1,0,1,0,1,0,1,0,1,0,1]","location_rts":"[1299,49,356,333,266,209,293,249,227,240,200,127,86,282,92,168,338]","trial_type":"two-door-navigation","trial_index":14,"time_elapsed":494136,"internal_node_id":"0.0-2.0-12.0"},{"group":"square cycles (cube, non-group)","room_assignment":["red","brown","blue","yellow","purple","pink","grey","green"],"door_color_assignment":["black","white"],"door_generator_assignment":[0,1],"goal":5,"start":7,"action_noise":0.1,"location_history":"[7,3,2,3,0,1,0,1,0,1,0,1,0,1,0,1,0,4,5]","action_history":"[0,1,0,1,0,1,0,1,0,1,0,1,0,1,0,1,0,1]","door_history":"[0,1,0,1,0,1,0,1,0,1,0,1,0,1,0,1,0,1]","location_rts":"[355,298,117,230,402,231,362,435,474,551,458,402,316,197,360,360,203,299]","trial_type":"two-door-navigation","trial_index":15,"time_elapsed":522072,"internal_node_id":"0.0-2.0-13.0"},{"group":"square cycles (cube, non-group)","room_assignment":["red","brown","blue","yellow","purple","pink","grey","green"],"door_color_assignment":["black","white"],"door_generator_assignment":[0,1],"goal":2,"start":5,"action_noise":0.1,"location_history":"[5,4,5,4,5,4,5,4,5,1,2]","action_history":"[0,1,0,1,0,1,0,1,1,0]","door_history":"[0,1,0,1,0,1,0,1,1,0]","location_rts":"[613,167,1004,352,439,278,316,845,32170,360]","trial_type":"two-door-navigation","trial_index":16,"time_elapsed":572334,"internal_node_id":"0.0-2.0-14.0"},{"group":"square cycles (cube, non-group)","room_assignment":["red","brown","blue","yellow","purple","pink","grey","green"],"door_color_assignment":["black","white"],"door_generator_assignment":[0,1],"goal":7,"start":2,"action_noise":0.1,"location_history":"[2,3,2,3,2,3,2,3,2,3,0,1,2,6,7]","action_history":"[0,1,0,1,0,1,0,1,0,1,0,1,0,1]","door_history":"[0,1,0,1,0,1,0,1,0,1,0,1,0,1]","location_rts":"[1071,128,96,102,211,229,222,184,94,48,787,411,174,1166]","trial_type":"two-door-navigation","trial_index":17,"time_elapsed":595049,"internal_node_id":"0.0-2.0-15.0"},{"group":"square cycles (cube, non-group)","room_assignment":["red","brown","blue","yellow","purple","pink","grey","green"],"door_color_assignment":["black","white"],"door_generator_assignment":[0,1],"goal":4,"start":7,"action_noise":0.1,"location_history":"[7,6,5,1,0,1,2,6,7,6,5,1,0,1,0,1,2,3,2,3,2,3,2,3,2,3,2,3,2,3,0,4]","action_history":"[0,0,1,1,0,0,1,1,0,0,1,1,0,1,0,0,1,1,0,1,0,1,0,1,0,0,1,1,0,0,1]","door_history":"[0,0,1,1,0,0,1,1,0,0,1,1,0,1,0,0,1,1,0,1,0,1,0,1,0,0,1,1,0,0,1]","location_rts":"[679,548,273,346,123,376,1001,479,171,553,144,297,77,232,391,147,302,447,395,147,941,683,524,1043,186,162,130,258,90,876,47]","trial_type":"two-door-navigation","trial_index":18,"time_elapsed":642267,"internal_node_id":"0.0-2.0-16.0"},{"group":"square cycles (cube, non-group)","room_assignment":["red","brown","blue","yellow","purple","pink","grey","green"],"door_color_assignment":["black","white"],"door_generator_assignment":[0,1],"goal":2,"start":4,"action_noise":0.1,"location_history":"[4,7,3,2]","action_history":"[0,1,1]","door_history":"[0,1,1]","location_rts":"[991,226,509]","trial_type":"two-door-navigation","trial_index":19,"time_elapsed":650558,"internal_node_id":"0.0-2.0-17.0"},{"group":"square cycles (cube, non-group)","room_assignment":["red","brown","blue","yellow","purple","pink","grey","green"],"door_color_assignment":["black","white"],"door_generator_assignment":[0,1],"goal":3,"start":2,"action_noise":0.1,"location_history":"[2,3]","action_history":"[0]","door_history":"[0]","location_rts":"[632]","trial_type":"two-door-navigation","trial_index":20,"time_elapsed":655714,"internal_node_id":"0.0-2.0-18.0"},{"group":"square cycles (cube, non-group)","room_assignment":["red","brown","blue","yellow","purple","pink","grey","green"],"door_color_assignment":["black","white"],"door_generator_assignment":[0,1],"goal":6,"start":3,"action_noise":0.1,"location_history":"[3,0,4,5,4,7,3,0,1,0,4,5,4,7,3,0,1,0,4,7,6]","action_history":"[0,1,1,0,0,1,0,0,1,1,1,0,0,1,0,0,1,1,0,1]","door_history":"[0,1,1,0,0,1,0,0,1,1,1,0,0,1,0,0,1,1,0,1]","location_rts":"[1296,262,274,144,482,3265,930,665,1320,3140,543,183,312,2352,674,1893,90,1252,1005,487]","trial_type":"two-door-navigation","trial_index":21,"time_elapsed":700199,"internal_node_id":"0.0-2.0-19.0"},{"group":"square cycles (cube, non-group)","room_assignment":["red","brown","blue","yellow","purple","pink","grey","green"],"door_color_assignment":["black","white"],"door_generator_assignment":[0,1],"goal":5,"start":6,"action_noise":0.1,"location_history":"[6,5]","action_history":"[0]","door_history":"[0]","location_rts":"[1521]","trial_type":"two-door-navigation","trial_index":22,"time_elapsed":706244,"internal_node_id":"0.0-2.0-20.0"},{"group":"square cycles (cube, non-group)","room_assignment":["red","brown","blue","yellow","purple","pink","grey","green"],"door_color_assignment":["black","white"],"door_generator_assignment":[0,1],"goal":1,"start":5,"action_noise":0.1,"location_history":"[5,1]","action_history":"[1]","door_history":"[1]","location_rts":"[873]","trial_type":"two-door-navigation","trial_index":23,"time_elapsed":711642,"internal_node_id":"0.0-2.0-21.0"},{"group":"square cycles (cube, non-group)","room_assignment":["red","brown","blue","yellow","purple","pink","grey","green"],"door_color_assignment":["black","white"],"door_generator_assignment":[0,1],"goal":0,"start":1,"action_noise":0.1,"location_history":"[1,0]","action_history":"[0]","door_history":"[0]","location_rts":"[614]","trial_type":"two-door-navigation","trial_index":24,"time_elapsed":716780,"internal_node_id":"0.0-2.0-22.0"},{"group":"square cycles (cube, non-group)","room_assignment":["red","brown","blue","yellow","purple","pink","grey","green"],"door_color_assignment":["black","white"],"door_generator_assignment":[0,1],"goal":2,"start":0,"action_noise":0.1,"location_history":"[0,4,7,6,7,3,2]","action_history":"[1,0,0,0,1,1]","door_history":"[1,0,0,0,1,1]","location_rts":"[826,407,418,441,168,516]","trial_type":"two-door-navigation","trial_index":25,"time_elapsed":729188,"internal_node_id":"0.0-2.0-23.0"},{"group":"square cycles (cube, non-group)","room_assignment":["red","brown","blue","yellow","purple","pink","grey","green"],"door_color_assignment":["black","white"],"door_generator_assignment":[0,1],"goal":6,"start":2,"action_noise":0.1,"location_history":"[2,3,2,6]","action_history":"[0,1,1]","door_history":"[0,1,1]","location_rts":"[579,117,357]","trial_type":"two-door-navigation","trial_index":26,"time_elapsed":736808,"internal_node_id":"0.0-2.0-24.0"},{"group":"square cycles (cube, non-group)","room_assignment":["red","brown","blue","yellow","purple","pink","grey","green"],"door_color_assignment":["black","white"],"door_generator_assignment":[0,1],"goal":1,"start":6,"action_noise":0.1,"location_history":"[6,5,1]","action_history":"[0,1]","door_history":"[0,1]","location_rts":"[406,508]","trial_type":"two-door-navigation","trial_index":27,"time_elapsed":743267,"internal_node_id":"0.0-2.0-25.0"},{"group":"square cycles (cube, non-group)","room_assignment":["red","brown","blue","yellow","purple","pink","grey","green"],"door_color_assignment":["black","white"],"door_generator_assignment":[0,1],"goal":3,"start":1,"action_noise":0.1,"location_history":"[1,2,3]","action_history":"[0,0]","door_history":"[0,0]","location_rts":"[389,452]","trial_type":"two-door-navigation","trial_index":28,"time_elapsed":749652,"internal_node_id":"0.0-2.0-26.0"},{"group":"square cycles (cube, non-group)","room_assignment":["red","brown","blue","yellow","purple","pink","grey","green"],"door_color_assignment":["black","white"],"door_generator_assignment":[0,1],"goal":7,"start":3,"action_noise":0.1,"location_history":"[3,2,3,2,3,2,3,0,4,5,4,7]","action_history":"[1,0,1,0,1,0,0,1,0,0,1]","door_history":"[1,0,1,0,1,0,0,1,0,0,1]","location_rts":"[2657,539,550,191,682,519,400,425,170,384,303]","trial_type":"two-door-navigation","trial_index":29,"time_elapsed":771207,"internal_node_id":"0.0-2.0-27.0"},{"group":"square cycles (cube, non-group)","room_assignment":["red","brown","blue","yellow","purple","pink","grey","green"],"door_color_assignment":["black","white"],"door_generator_assignment":[0,1],"goal":4,"start":7,"action_noise":0.1,"location_history":"[7,6,7,6,7,6,7,3,0,4]","action_history":"[0,1,0,1,0,1,1,0,1]","door_history":"[0,1,0,1,0,1,1,0,1]","location_rts":"[385,501,1,53,437,1157,1029,2143,796]","trial_type":"two-door-navigation","trial_index":30,"time_elapsed":790402,"internal_node_id":"0.0-2.0-28.0"},{"group":"square cycles (cube, non-group)","room_assignment":["red","brown","blue","yellow","purple","pink","grey","green"],"door_color_assignment":["black","white"],"door_generator_assignment":[0,1],"goal":0,"start":4,"action_noise":0.1,"location_history":"[4,7,3,0]","action_history":"[0,1,1]","door_history":"[0,1,1]","location_rts":"[531,506,596]","trial_type":"two-door-navigation","trial_index":31,"time_elapsed":798601,"internal_node_id":"0.0-2.0-29.0"},{"group":"square cycles (cube, non-group)","room_assignment":["red","brown","blue","yellow","purple","pink","grey","green"],"door_color_assignment":["black","white"],"door_generator_assignment":[0,1],"goal":5,"start":0,"action_noise":0.1,"location_history":"[0,1,0,4,7,6,7,6,7,3,2,6,5]","action_history":"[0,1,1,0,0,1,0,0,1,0,1,0]","door_history":"[0,1,1,0,0,1,0,0,1,0,1,0]","location_rts":"[534,425,429,490,461,434,9,621,487,762,526,572]","trial_type":"two-door-navigation","trial_index":32,"time_elapsed":820103,"internal_node_id":"0.0-2.0-30.0"},{"group":"square cycles (cube, non-group)","room_assignment":["red","brown","blue","yellow","purple","pink","grey","green"],"door_color_assignment":["black","white"],"door_generator_assignment":[0,1],"goal":3,"start":5,"action_noise":0.1,"location_history":"[5,1,2,3]","action_history":"[1,0,0]","door_history":"[1,0,0]","location_rts":"[501,605,488]","trial_type":"two-door-navigation","trial_index":33,"time_elapsed":828265,"internal_node_id":"0.0-2.0-31.0"},{"group":"square cycles (cube, non-group)","room_assignment":["red","brown","blue","yellow","purple","pink","grey","green"],"door_color_assignment":["black","white"],"door_generator_assignment":[0,1],"goal":2,"start":3,"action_noise":0.1,"location_history":"[3,2]","action_history":"[1]","door_history":"[1]","location_rts":"[464]","trial_type":"two-door-navigation","trial_index":34,"time_elapsed":833254,"internal_node_id":"0.0-2.0-32.0"},{"group":"square cycles (cube, non-group)","room_assignment":["red","brown","blue","yellow","purple","pink","grey","green"],"door_color_assignment":["black","white"],"door_generator_assignment":[0,1],"goal":6,"start":2,"action_noise":0.1,"location_history":"[2,3,2,6]","action_history":"[0,1,1]","door_history":"[0,1,1]","location_rts":"[451,452,458]","trial_type":"two-door-navigation","trial_index":35,"time_elapsed":841180,"internal_node_id":"0.0-2.0-33.0"},{"group":"square cycles (cube, non-group)","room_assignment":["red","brown","blue","yellow","purple","pink","grey","green"],"door_color_assignment":["black","white"],"door_generator_assignment":[0,1],"goal":1,"start":6,"action_noise":0.1,"location_history":"[6,5,1]","action_history":"[0,1]","door_history":"[0,1]","location_rts":"[1007,586]","trial_type":"two-door-navigation","trial_index":36,"time_elapsed":848319,"internal_node_id":"0.0-2.0-34.0"},{"group":"square cycles (cube, non-group)","room_assignment":["red","brown","blue","yellow","purple","pink","grey","green"],"door_color_assignment":["black","white"],"door_generator_assignment":[0,1],"goal":7,"start":1,"action_noise":0.1,"location_history":"[1,2,3,2,3,0,4,5,4,7]","action_history":"[0,1,1,0,0,1,1,0,0]","door_history":"[0,1,1,0,0,1,1,0,0]","location_rts":"[405,713,535,316,365,37,445,302,339]","trial_type":"two-door-navigation","trial_index":37,"time_elapsed":864469,"internal_node_id":"0.0-2.0-35.0"},{"group":"square cycles (cube, non-group)","room_assignment":["red","brown","blue","yellow","purple","pink","grey","green"],"door_color_assignment":["black","white"],"door_generator_assignment":[0,1],"goal":4,"start":7,"action_noise":0.1,"location_history":"[7,3,0,1,0,4]","action_history":"[1,0,0,1,1]","door_history":"[1,0,0,1,1]","location_rts":"[622,925,469,385,294]","trial_type":"two-door-navigation","trial_index":38,"time_elapsed":875772,"internal_node_id":"0.0-2.0-36.0"},{"group":"square cycles (cube, non-group)","room_assignment":["red","brown","blue","yellow","purple","pink","grey","green"],"door_color_assignment":["black","white"],"door_generator_assignment":[0,1],"goal":5,"start":4,"action_noise":0.1,"location_history":"[4,7,3,2,3,0,4,5]","action_history":"[0,1,1,0,0,1,1]","door_history":"[0,1,1,0,0,1,1]","location_rts":"[454,593,421,487,399,233,204]","trial_type":"two-door-navigation","trial_index":39,"time_elapsed":889213,"internal_node_id":"0.0-2.0-37.0"},{"group":"square cycles (cube, non-group)","room_assignment":["red","brown","blue","yellow","purple","pink","grey","green"],"door_color_assignment":["black","white"],"door_generator_assignment":[0,1],"goal":0,"start":5,"action_noise":0.1,"location_history":"[5,1,2,3,2,6,7,6,5,1,0]","action_history":"[1,0,0,0,1,1,0,0,1,1]","door_history":"[1,0,0,0,1,1,0,0,1,1]","location_rts":"[658,353,84,429,110,328,367,309,444,238]","trial_type":"two-door-navigation","trial_index":40,"time_elapsed":906244,"internal_node_id":"0.0-2.0-38.0"},{"group":"square cycles (cube, non-group)","room_assignment":["red","brown","blue","yellow","purple","pink","grey","green"],"door_color_assignment":["black","white"],"door_generator_assignment":[0,1],"goal":4,"start":0,"action_noise":0.1,"location_history":"[0,1,0,1,2,3,0,4]","action_history":"[0,1,0,1,0,0,1]","door_history":"[0,1,0,1,0,0,1]","location_rts":"[636,636,610,937,400,399,765]","trial_type":"two-door-navigation","trial_index":41,"time_elapsed":921278,"internal_node_id":"0.0-2.0-39.0"},{"group":"square cycles (cube, non-group)","room_assignment":["red","brown","blue","yellow","purple","pink","grey","green"],"door_color_assignment":["black","white"],"door_generator_assignment":[0,1],"goal":0,"start":4,"action_noise":0.1,"location_history":"[4,7,3,0]","action_history":"[0,1,0]","door_history":"[0,1,0]","location_rts":"[464,434,515]","trial_type":"two-door-navigation","trial_index":42,"time_elapsed":929254,"internal_node_id":"0.0-2.0-40.0"},{"group":"square cycles (cube, non-group)","room_assignment":["red","brown","blue","yellow","purple","pink","grey","green"],"door_color_assignment":["black","white"],"door_generator_assignment":[0,1],"goal":2,"start":0,"action_noise":0.1,"location_history":"[0,1,0,1,0,4,5,4,7,3,0,1,0,1,2]","action_history":"[1,0,0,1,1,0,0,1,1,0,0,1,1,0]","door_history":"[1,0,0,1,1,0,0,1,1,0,0,1,1,0]","location_rts":"[433,1154,403,70,532,345,560,913,909,1145,1529,5058,575,164]","trial_type":"two-door-navigation","trial_index":43,"time_elapsed":960856,"internal_node_id":"0.0-2.0-41.0"},{"group":"square cycles (cube, non-group)","room_assignment":["red","brown","blue","yellow","purple","pink","grey","green"],"door_color_assignment":["black","white"],"door_generator_assignment":[0,1],"goal":3,"start":2,"action_noise":0.1,"location_history":"[2,6,7,3]","action_history":"[0,1,1]","door_history":"[0,1,1]","location_rts":"[1078,649,1513]","trial_type":"two-door-navigation","trial_index":44,"time_elapsed":970663,"internal_node_id":"0.0-2.0-42.0"},{"group":"square cycles (cube, non-group)","room_assignment":["red","brown","blue","yellow","purple","pink","grey","green"],"door_color_assignment":["black","white"],"door_generator_assignment":[0,1],"goal":5,"start":3,"action_noise":0.1,"location_history":"[3,0,4,5]","action_history":"[0,1,1]","door_history":"[0,1,1]","location_rts":"[454,261,289]","trial_type":"two-door-navigation","trial_index":45,"time_elapsed":978236,"internal_node_id":"0.0-2.0-43.0"},{"group":"square cycles (cube, non-group)","room_assignment":["red","brown","blue","yellow","purple","pink","grey","green"],"door_color_assignment":["black","white"],"door_generator_assignment":[0,1],"goal":1,"start":5,"action_noise":0.1,"location_history":"[5,4,7,3,2,3,0,4,7,6,5,1]","action_history":"[0,0,1,1,0,0,1,0,0,0,1]","door_history":"[0,0,1,1,0,0,1,0,0,0,1]","location_rts":"[547,6357,41,1203,680,33,1308,377,395,1499,465]","trial_type":"two-door-navigation","trial_index":46,"time_elapsed":1005870,"internal_node_id":"0.0-2.0-44.0"},{"group":"square cycles (cube, non-group)","room_assignment":["red","brown","blue","yellow","purple","pink","grey","green"],"door_color_assignment":["black","white"],"door_generator_assignment":[0,1],"goal":7,"start":1,"action_noise":0.1,"location_history":"[1,0,1,2,6,7]","action_history":"[1,0,0,1,1]","door_history":"[1,0,0,1,1]","location_rts":"[816,338,379,812,643]","trial_type":"two-door-navigation","trial_index":47,"time_elapsed":1017467,"internal_node_id":"0.0-2.0-45.0"},{"group":"square cycles (cube, non-group)","room_assignment":["red","brown","blue","yellow","purple","pink","grey","green"],"door_color_assignment":["black","white"],"door_generator_assignment":[0,1],"goal":6,"start":7,"action_noise":0.1,"location_history":"[7,6]","action_history":"[0]","door_history":"[0]","location_rts":"[143]","trial_type":"two-door-navigation","trial_index":48,"time_elapsed":1022135,"internal_node_id":"0.0-2.0-46.0"},{"group":"square cycles (cube, non-group)","room_assignment":["red","brown","blue","yellow","purple","pink","grey","green"],"door_color_assignment":["black","white"],"door_generator_assignment":[0,1],"goal":3,"start":6,"action_noise":0.1,"location_history":"[6,5,4,5,4,7,6,5,1,0,1,0,4,7,3]","action_history":"[0,0,1,0,1,0,0,1,1,0,0,1,0,1]","door_history":"[0,0,1,0,1,0,0,1,1,0,0,1,0,1]","location_rts":"[5663,1105,7359,3959,471,193,1529,8,360,160,497,223,2180,435]","trial_type":"two-door-navigation","trial_index":49,"time_elapsed":1064077,"internal_node_id":"0.0-2.0-47.0"},{"group":"square cycles (cube, non-group)","room_assignment":["red","brown","blue","yellow","purple","pink","grey","green"],"door_color_assignment":["black","white"],"door_generator_assignment":[0,1],"goal":0,"start":3,"action_noise":0.1,"location_history":"[3,0]","action_history":"[0]","door_history":"[0]","location_rts":"[315]","trial_type":"two-door-navigation","trial_index":50,"time_elapsed":1068917,"internal_node_id":"0.0-2.0-48.0"},{"group":"square cycles (cube, non-group)","room_assignment":["red","brown","blue","yellow","purple","pink","grey","green"],"door_color_assignment":["black","white"],"door_generator_assignment":[0,1],"goal":2,"start":0,"action_noise":0.1,"location_history":"[0,4,7,6,5,4,7,3,2]","action_history":"[1,0,0,0,0,0,1,1]","door_history":"[1,0,0,0,0,0,1,1]","location_rts":"[301,650,164,1025,2330,1193,633,687]","trial_type":"two-door-navigation","trial_index":51,"time_elapsed":1087572,"internal_node_id":"0.0-2.0-49.0"},{"view_history":"[{\"page_index\":0,\"viewing_time\":24621}]","rt":24622,"trial_type":"instructions","trial_index":52,"time_elapsed":1113195,"internal_node_id":"0.0-3.0"},{"view_history":"[{\"page_index\":0,\"viewing_time\":147534},{\"page_index\":1,\"viewing_time\":31801}]","rt":179335,"trial_type":"instructions","trial_index":53,"time_elapsed":1293531,"internal_node_id":"0.0-4.0"},{"group":"square cycles (cube, non-group)","fractal_assignment":["../images/org_blu.png","../images/cyn_red.png","../images/ylw_pnk.png","../images/grn_red.png","../images/pnk_blu.png","../images/ylw_slt.png","../images/blu_wht.png","../images/gry_blk.png"],"mutagen_generator_assignment":[1,0],"goal":3,"start":0,"action_noise":0.1,"location_history":"[0,4,7,3]","action_history":"[1,0,0]","mutagen_history":"[0,1,1]","location_rts":"[6250,4412,3292]","trial_type":"fractal-mutation","trial_index":54,"time_elapsed":1314438,"internal_node_id":"0.0-5.0-0.0"},{"group":"square cycles (cube, non-group)","fractal_assignment":["../images/org_blu.png","../images/cyn_red.png","../images/ylw_pnk.png","../images/grn_red.png","../images/pnk_blu.png","../images/ylw_slt.png","../images/blu_wht.png","../images/gry_blk.png"],"mutagen_generator_assignment":[1,0],"goal":1,"start":3,"action_noise":0.1,"location_history":"[3,0,1]","action_history":"[0,1]","mutagen_history":"[1,0]","location_rts":"[1119,2551]","trial_type":"fractal-mutation","trial_index":55,"time_elapsed":1323829,"internal_node_id":"0.0-5.0-1.0"},{"group":"square cycles (cube, non-group)","fractal_assignment":["../images/org_blu.png","../images/cyn_red.png","../images/ylw_pnk.png","../images/grn_red.png","../images/pnk_blu.png","../images/ylw_slt.png","../images/blu_wht.png","../images/gry_blk.png"],"mutagen_generator_assignment":[1,0],"goal":2,"start":1,"action_noise":0.1,"location_history":"[1,0,1,2]","action_history":"[1,0,0]","mutagen_history":"[0,1,1]","location_rts":"[853,1174,979]","trial_type":"fractal-mutation","trial_index":56,"time_elapsed":1333701,"internal_node_id":"0.0-5.0-2.0"},{"group":"square cycles (cube, non-group)","fractal_assignment":["../images/org_blu.png","../images/cyn_red.png","../images/ylw_pnk.png","../images/grn_red.png","../images/pnk_blu.png","../images/ylw_slt.png","../images/blu_wht.png","../images/gry_blk.png"],"mutagen_generator_assignment":[1,0],"goal":6,"start":2,"action_noise":0.1,"location_history":"[2,3,0,4,5,1,2,6]","action_history":"[0,0,1,1,0,0,1]","mutagen_history":"[1,1,0,0,1,1,0]","location_rts":"[347,895,738,1304,1234,1014,786]","trial_type":"fractal-mutation","trial_index":57,"time_elapsed":1351388,"internal_node_id":"0.0-5.0-3.0"},{"group":"square cycles (cube, non-group)","fractal_assignment":["../images/org_blu.png","../images/cyn_red.png","../images/ylw_pnk.png","../images/grn_red.png","../images/pnk_blu.png","../images/ylw_slt.png","../images/blu_wht.png","../images/gry_blk.png"],"mutagen_generator_assignment":[1,0],"goal":5,"start":6,"action_noise":0.1,"location_history":"[6,7,6,7,3,2,6,5]","action_history":"[1,0,0,1,1,1,0]","mutagen_history":"[0,1,1,0,0,0,1]","location_rts":"[503,795,691,625,883,882,976]","trial_type":"fractal-mutation","trial_index":58,"time_elapsed":1368008,"internal_node_id":"0.0-5.0-4.0"},{"group":"square cycles (cube, non-group)","fractal_assignment":["../images/org_blu.png","../images/cyn_red.png","../images/ylw_pnk.png","../images/grn_red.png","../images/pnk_blu.png","../images/ylw_slt.png","../images/blu_wht.png","../images/gry_blk.png"],"mutagen_generator_assignment":[1,0],"goal":4,"start":5,"action_noise":0.1,"location_history":"[5,4]","action_history":"[0]","mutagen_history":"[1]","location_rts":"[489]","trial_type":"fractal-mutation","trial_index":59,"time_elapsed":1373149,"internal_node_id":"0.0-5.0-5.0"},{"group":"square cycles (cube, non-group)","fractal_assignment":["../images/org_blu.png","../images/cyn_red.png","../images/ylw_pnk.png","../images/grn_red.png","../images/pnk_blu.png","../images/ylw_slt.png","../images/blu_wht.png","../images/gry_blk.png"],"mutagen_generator_assignment":[1,0],"goal":7,"start":4,"action_noise":0.1,"location_history":"[4,7]","action_history":"[1]","mutagen_history":"[0]","location_rts":"[437]","trial_type":"fractal-mutation","trial_index":60,"time_elapsed":1378175,"internal_node_id":"0.0-5.0-6.0"},{"group":"square cycles (cube, non-group)","fractal_assignment":["../images/org_blu.png","../images/cyn_red.png","../images/ylw_pnk.png","../images/grn_red.png","../images/pnk_blu.png","../images/ylw_slt.png","../images/blu_wht.png","../images/gry_blk.png"],"mutagen_generator_assignment":[1,0],"goal":4,"start":7,"action_noise":0.1,"location_history":"[7,3,0,4]","action_history":"[1,0,1]","mutagen_history":"[0,1,0]","location_rts":"[418,894,1198]","trial_type":"fractal-mutation","trial_index":61,"time_elapsed":1387521,"internal_node_id":"0.0-5.0-7.0"},{"group":"square cycles (cube, non-group)","fractal_assignment":["../images/org_blu.png","../images/cyn_red.png","../images/ylw_pnk.png","../images/grn_red.png","../images/pnk_blu.png","../images/ylw_slt.png","../images/blu_wht.png","../images/gry_blk.png"],"mutagen_generator_assignment":[1,0],"goal":6,"start":4,"action_noise":0.1,"location_history":"[4,5,4,7,3,2,3,0,4,5,4,7,6]","action_history":"[1,0,0,1,1,0,0,1,1,0,0,0]","mutagen_history":"[0,1,1,0,0,1,1,0,0,1,1,1]","location_rts":"[672,920,801,513,664,608,912,810,1303,1103,1264,933]","trial_type":"fractal-mutation","trial_index":62,"time_elapsed":1415016,"internal_node_id":"0.0-5.0-8.0"},{"group":"square cycles (cube, non-group)","fractal_assignment":["../images/org_blu.png","../images/cyn_red.png","../images/ylw_pnk.png","../images/grn_red.png","../images/pnk_blu.png","../images/ylw_slt.png","../images/blu_wht.png","../images/gry_blk.png"],"mutagen_generator_assignment":[1,0],"goal":0,"start":6,"action_noise":0.1,"location_history":"[6,7,3,2,3,2,6,7,6,7,3,2,6,5,4,5,1,2,6,5,4,7,3,2,6,5,1,2,6,5,1,0]","action_history":"[1,1,0,0,1,1,0,0,1,1,0,1,1,0,1,1,0,1,1,0,0,1,1,1,0,0,1,1,0,1,1]","mutagen_history":"[0,0,1,1,0,0,1,1,0,0,1,0,0,1,0,0,1,0,0,1,1,0,0,0,1,1,0,0,1,0,0]","location_rts":"[568,672,503,580,445,531,1696,707,607,531,2266,7922,6315,623,3587,681,456,4827,752,2353,2259,2214,10061,1448,7572,923,546,1405,663,8020,898]","trial_type":"fractal-mutation","trial_index":63,"time_elapsed":1525549,"internal_node_id":"0.0-5.0-9.0"},{"group":"square cycles (cube, non-group)","fractal_assignment":["../images/org_blu.png","../images/cyn_red.png","../images/ylw_pnk.png","../images/grn_red.png","../images/pnk_blu.png","../images/ylw_slt.png","../images/blu_wht.png","../images/gry_blk.png"],"mutagen_generator_assignment":[1,0],"goal":1,"start":0,"action_noise":0.1,"location_history":"[0,1]","action_history":"[0]","mutagen_history":"[1]","location_rts":"[5681]","trial_type":"fractal-mutation","trial_index":64,"time_elapsed":1535868,"internal_node_id":"0.0-5.0-10.0"},{"group":"square cycles (cube, non-group)","fractal_assignment":["../images/org_blu.png","../images/cyn_red.png","../images/ylw_pnk.png","../images/grn_red.png","../images/pnk_blu.png","../images/ylw_slt.png","../images/blu_wht.png","../images/gry_blk.png"],"mutagen_generator_assignment":[1,0],"goal":3,"start":1,"action_noise":0.1,"location_history":"[1,0,1,0,4,5,1,0,1,2,3]","action_history":"[1,0,1,1,1,1,1,0,0,0]","mutagen_history":"[0,1,0,0,0,0,0,1,1,1]","location_rts":"[410,994,615,1870,1865,2761,552,648,431,1569]","trial_type":"fractal-mutation","trial_index":65,"time_elapsed":1562148,"internal_node_id":"0.0-5.0-11.0"},{"group":"square cycles (cube, non-group)","fractal_assignment":["../images/org_blu.png","../images/cyn_red.png","../images/ylw_pnk.png","../images/grn_red.png","../images/pnk_blu.png","../images/ylw_slt.png","../images/blu_wht.png","../images/gry_blk.png"],"mutagen_generator_assignment":[1,0],"goal":7,"start":3,"action_noise":0.1,"location_history":"[3,2,6,5,4,7]","action_history":"[1,1,0,0,0]","mutagen_history":"[0,0,1,1,1]","location_rts":"[464,573,586,490,680]","trial_type":"fractal-mutation","trial_index":66,"time_elapsed":1573962,"internal_node_id":"0.0-5.0-12.0"},{"group":"square cycles (cube, non-group)","fractal_assignment":["../images/org_blu.png","../images/cyn_red.png","../images/ylw_pnk.png","../images/grn_red.png","../images/pnk_blu.png","../images/ylw_slt.png","../images/blu_wht.png","../images/gry_blk.png"],"mutagen_generator_assignment":[1,0],"goal":5,"start":7,"action_noise":0.1,"location_history":"[7,6,5]","action_history":"[0,0]","mutagen_history":"[1,1]","location_rts":"[338,579]","trial_type":"fractal-mutation","trial_index":67,"time_elapsed":1580649,"internal_node_id":"0.0-5.0-13.0"},{"group":"square cycles (cube, non-group)","fractal_assignment":["../images/org_blu.png","../images/cyn_red.png","../images/ylw_pnk.png","../images/grn_red.png","../images/pnk_blu.png","../images/ylw_slt.png","../images/blu_wht.png","../images/gry_blk.png"],"mutagen_generator_assignment":[1,0],"goal":2,"start":5,"action_noise":0.1,"location_history":"[5,1,0,4,7,3,2]","action_history":"[1,1,1,0,1,1]","mutagen_history":"[0,0,0,1,0,0]","location_rts":"[1451,561,850,590,589,1082]","trial_type":"fractal-mutation","trial_index":68,"time_elapsed":1595838,"internal_node_id":"0.0-5.0-14.0"},{"group":"square cycles (cube, non-group)","fractal_assignment":["../images/org_blu.png","../images/cyn_red.png","../images/ylw_pnk.png","../images/grn_red.png","../images/pnk_blu.png","../images/ylw_slt.png","../images/blu_wht.png","../images/gry_blk.png"],"mutagen_generator_assignment":[1,0],"goal":7,"start":2,"action_noise":0.1,"location_history":"[2,3,0,1,2,6,5,4,7]","action_history":"[0,0,0,0,1,0,0,0]","mutagen_history":"[1,1,1,1,0,1,1,1]","location_rts":"[1399,660,1103,683,1156,1832,757,804]","trial_type":"fractal-mutation","trial_index":69,"time_elapsed":1616744,"internal_node_id":"0.0-5.0-15.0"},{"group":"square cycles (cube, non-group)","fractal_assignment":["../images/org_blu.png","../images/cyn_red.png","../images/ylw_pnk.png","../images/grn_red.png","../images/pnk_blu.png","../images/ylw_slt.png","../images/blu_wht.png","../images/gry_blk.png"],"mutagen_generator_assignment":[1,0],"goal":4,"start":7,"action_noise":0.1,"location_history":"[7,6,7,6,5,4]","action_history":"[0,1,0,0,0]","mutagen_history":"[1,0,1,1,1]","location_rts":"[2301,461,1127,870,707]","trial_type":"fractal-mutation","trial_index":70,"time_elapsed":1631312,"internal_node_id":"0.0-5.0-16.0"},{"group":"square cycles (cube, non-group)","fractal_assignment":["../images/org_blu.png","../images/cyn_red.png","../images/ylw_pnk.png","../images/grn_red.png","../images/pnk_blu.png","../images/ylw_slt.png","../images/blu_wht.png","../images/gry_blk.png"],"mutagen_generator_assignment":[1,0],"goal":2,"start":4,"action_noise":0.1,"location_history":"[4,7,3,2]","action_history":"[0,1,1]","mutagen_history":"[1,0,0]","location_rts":"[389,434,527]","trial_type":"fractal-mutation","trial_index":71,"time_elapsed":1639480,"internal_node_id":"0.0-5.0-17.0"},{"group":"square cycles (cube, non-group)","fractal_assignment":["../images/org_blu.png","../images/cyn_red.png","../images/ylw_pnk.png","../images/grn_red.png","../images/pnk_blu.png","../images/ylw_slt.png","../images/blu_wht.png","../images/gry_blk.png"],"mutagen_generator_assignment":[1,0],"goal":3,"start":2,"action_noise":0.1,"location_history":"[2,6,5,1,0,4,5,1,0,4,7,6,7,3]","action_history":"[1,0,1,0,1,1,1,1,1,0,0,1,1]","mutagen_history":"[0,1,0,1,0,0,0,0,0,1,1,0,0]","location_rts":"[482,865,521,797,574,644,657,609,669,580,594,498,618]","trial_type":"fractal-mutation","trial_index":72,"time_elapsed":1665393,"internal_node_id":"0.0-5.0-18.0"},{"group":"square cycles (cube, non-group)","fractal_assignment":["../images/org_blu.png","../images/cyn_red.png","../images/ylw_pnk.png","../images/grn_red.png","../images/pnk_blu.png","../images/ylw_slt.png","../images/blu_wht.png","../images/gry_blk.png"],"mutagen_generator_assignment":[1,0],"goal":6,"start":3,"action_noise":0.1,"location_history":"[3,0,1,2,3,2,3,0,1,2,3,2,6]","action_history":"[1,0,0,0,1,0,0,0,0,0,1,1]","mutagen_history":"[0,1,1,1,0,1,1,1,1,1,0,0]","location_rts":"[867,470,330,403,468,330,379,439,547,466,458,463]","trial_type":"fractal-mutation","trial_index":73,"time_elapsed":1687990,"internal_node_id":"0.0-5.0-19.0"},{"group":"square cycles (cube, non-group)","fractal_assignment":["../images/org_blu.png","../images/cyn_red.png","../images/ylw_pnk.png","../images/grn_red.png","../images/pnk_blu.png","../images/ylw_slt.png","../images/blu_wht.png","../images/gry_blk.png"],"mutagen_generator_assignment":[1,0],"goal":5,"start":6,"action_noise":0.1,"location_history":"[6,5]","action_history":"[0]","mutagen_history":"[1]","location_rts":"[364]","trial_type":"fractal-mutation","trial_index":74,"time_elapsed":1692968,"internal_node_id":"0.0-5.0-20.0"},{"group":"square cycles (cube, non-group)","fractal_assignment":["../images/org_blu.png","../images/cyn_red.png","../images/ylw_pnk.png","../images/grn_red.png","../images/pnk_blu.png","../images/ylw_slt.png","../images/blu_wht.png","../images/gry_blk.png"],"mutagen_generator_assignment":[1,0],"goal":1,"start":5,"action_noise":0.1,"location_history":"[5,4,5,1]","action_history":"[0,1,1]","mutagen_history":"[1,0,0]","location_rts":"[378,534,608]","trial_type":"fractal-mutation","trial_index":75,"time_elapsed":1701296,"internal_node_id":"0.0-5.0-21.0"},{"group":"square cycles (cube, non-group)","fractal_assignment":["../images/org_blu.png","../images/cyn_red.png","../images/ylw_pnk.png","../images/grn_red.png","../images/pnk_blu.png","../images/ylw_slt.png","../images/blu_wht.png","../images/gry_blk.png"],"mutagen_generator_assignment":[1,0],"goal":0,"start":1,"action_noise":0.1,"location_history":"[1,2,3,0]","action_history":"[0,0,1]","mutagen_history":"[1,1,0]","location_rts":"[426,480,500]","trial_type":"fractal-mutation","trial_index":76,"time_elapsed":1709561,"internal_node_id":"0.0-5.0-22.0"},{"group":"square cycles (cube, non-group)","fractal_assignment":["../images/org_blu.png","../images/cyn_red.png","../images/ylw_pnk.png","../images/grn_red.png","../images/pnk_blu.png","../images/ylw_slt.png","../images/blu_wht.png","../images/gry_blk.png"],"mutagen_generator_assignment":[1,0],"goal":2,"start":0,"action_noise":0.1,"location_history":"[0,1,2]","action_history":"[0,0]","mutagen_history":"[1,1]","location_rts":"[472,440]","trial_type":"fractal-mutation","trial_index":77,"time_elapsed":1716260,"internal_node_id":"0.0-5.0-23.0"},{"group":"square cycles (cube, non-group)","fractal_assignment":["../images/org_blu.png","../images/cyn_red.png","../images/ylw_pnk.png","../images/grn_red.png","../images/pnk_blu.png","../images/ylw_slt.png","../images/blu_wht.png","../images/gry_blk.png"],"mutagen_generator_assignment":[1,0],"goal":6,"start":2,"action_noise":0.1,"location_history":"[2,3,2,6]","action_history":"[0,1,1]","mutagen_history":"[1,0,0]","location_rts":"[533,469,508]","trial_type":"fractal-mutation","trial_index":78,"time_elapsed":1724582,"internal_node_id":"0.0-5.0-24.0"},{"group":"square cycles (cube, non-group)","fractal_assignment":["../images/org_blu.png","../images/cyn_red.png","../images/ylw_pnk.png","../images/grn_red.png","../images/pnk_blu.png","../images/ylw_slt.png","../images/blu_wht.png","../images/gry_blk.png"],"mutagen_generator_assignment":[1,0],"goal":1,"start":6,"action_noise":0.1,"location_history":"[6,5,4,7,3,0,1]","action_history":"[0,0,0,1,1,0]","mutagen_history":"[1,1,1,0,0,1]","location_rts":"[519,449,436,455,508,522]","trial_type":"fractal-mutation","trial_index":79,"time_elapsed":1737702,"internal_node_id":"0.0-5.0-25.0"},{"group":"square cycles (cube, non-group)","fractal_assignment":["../images/org_blu.png","../images/cyn_red.png","../images/ylw_pnk.png","../images/grn_red.png","../images/pnk_blu.png","../images/ylw_slt.png","../images/blu_wht.png","../images/gry_blk.png"],"mutagen_generator_assignment":[1,0],"goal":3,"start":1,"action_noise":0.1,"location_history":"[1,0,4,5,4,7,3]","action_history":"[0,1,1,0,0,1]","mutagen_history":"[1,0,0,1,1,0]","location_rts":"[514,444,397,417,520,510]","trial_type":"fractal-mutation","trial_index":80,"time_elapsed":1750674,"internal_node_id":"0.0-5.0-26.0"},{"group":"square cycles (cube, non-group)","fractal_assignment":["../images/org_blu.png","../images/cyn_red.png","../images/ylw_pnk.png","../images/grn_red.png","../images/pnk_blu.png","../images/ylw_slt.png","../images/blu_wht.png","../images/gry_blk.png"],"mutagen_generator_assignment":[1,0],"goal":7,"start":3,"action_noise":0.1,"location_history":"[3,2,3,0,4,7]","action_history":"[1,0,0,1,0]","mutagen_history":"[0,1,1,0,1]","location_rts":"[406,495,453,402,431]","trial_type":"fractal-mutation","trial_index":81,"time_elapsed":1761971,"internal_node_id":"0.0-5.0-27.0"},{"group":"square cycles (cube, non-group)","fractal_assignment":["../images/org_blu.png","../images/cyn_red.png","../images/ylw_pnk.png","../images/grn_red.png","../images/pnk_blu.png","../images/ylw_slt.png","../images/blu_wht.png","../images/gry_blk.png"],"mutagen_generator_assignment":[1,0],"goal":4,"start":7,"action_noise":0.1,"location_history":"[7,6,5,4]","action_history":"[0,0,0]","mutagen_history":"[1,1,1]","location_rts":"[453,1113,243]","trial_type":"fractal-mutation","trial_index":82,"time_elapsed":1770684,"internal_node_id":"0.0-5.0-28.0"},{"group":"square cycles (cube, non-group)","fractal_assignment":["../images/org_blu.png","../images/cyn_red.png","../images/ylw_pnk.png","../images/grn_red.png","../images/pnk_blu.png","../images/ylw_slt.png","../images/blu_wht.png","../images/gry_blk.png"],"mutagen_generator_assignment":[1,0],"goal":0,"start":4,"action_noise":0.1,"location_history":"[4,7,6,7,3,2,3,0]","action_history":"[0,0,1,1,1,0,0]","mutagen_history":"[1,1,0,0,0,1,1]","location_rts":"[587,279,495,835,17670,190,920]","trial_type":"fractal-mutation","trial_index":83,"time_elapsed":1802934,"internal_node_id":"0.0-5.0-29.0"},{"group":"square cycles (cube, non-group)","fractal_assignment":["../images/org_blu.png","../images/cyn_red.png","../images/ylw_pnk.png","../images/grn_red.png","../images/pnk_blu.png","../images/ylw_slt.png","../images/blu_wht.png","../images/gry_blk.png"],"mutagen_generator_assignment":[1,0],"goal":5,"start":0,"action_noise":0.1,"location_history":"[0,1,0,1,2,3,0,1,0,4,7,6,5]","action_history":"[1,1,0,0,0,0,0,1,1,0,0,0]","mutagen_history":"[0,0,1,1,1,1,1,0,0,1,1,1]","location_rts":"[8113,464,58,631,134,1017,805,537,459,197,60,536]","trial_type":"fractal-mutation","trial_index":84,"time_elapsed":1832922,"internal_node_id":"0.0-5.0-30.0"},{"group":"square cycles (cube, non-group)","fractal_assignment":["../images/org_blu.png","../images/cyn_red.png","../images/ylw_pnk.png","../images/grn_red.png","../images/pnk_blu.png","../images/ylw_slt.png","../images/blu_wht.png","../images/gry_blk.png"],"mutagen_generator_assignment":[1,0],"goal":3,"start":5,"action_noise":0.1,"location_history":"[5,4,5,4,5,4,7,3]","action_history":"[0,1,1,1,0,1,1]","mutagen_history":"[1,0,0,0,1,0,0]","location_rts":"[541,239,393,560,744,567,666]","trial_type":"fractal-mutation","trial_index":85,"time_elapsed":1847827,"internal_node_id":"0.0-5.0-31.0"},{"group":"square cycles (cube, non-group)","fractal_assignment":["../images/org_blu.png","../images/cyn_red.png","../images/ylw_pnk.png","../images/grn_red.png","../images/pnk_blu.png","../images/ylw_slt.png","../images/blu_wht.png","../images/gry_blk.png"],"mutagen_generator_assignment":[1,0],"goal":2,"start":3,"action_noise":0.1,"location_history":"[3,2]","action_history":"[1]","mutagen_history":"[0]","location_rts":"[1236]","trial_type":"fractal-mutation","trial_index":86,"time_elapsed":1853654,"internal_node_id":"0.0-5.0-32.0"},{"group":"square cycles (cube, non-group)","fractal_assignment":["../images/org_blu.png","../images/cyn_red.png","../images/ylw_pnk.png","../images/grn_red.png","../images/pnk_blu.png","../images/ylw_slt.png","../images/blu_wht.png","../images/gry_blk.png"],"mutagen_generator_assignment":[1,0],"goal":6,"start":2,"action_noise":0.1,"location_history":"[2,3,0,1,2,3,0,1,0,1,2,6]","action_history":"[0,0,0,0,0,0,0,1,0,0,1]","mutagen_history":"[1,1,1,1,1,1,1,0,1,1,0]","location_rts":"[1480,518,567,515,494,757,929,11205,1621,5650,6061]","trial_type":"fractal-mutation","trial_index":87,"time_elapsed":1899309,"internal_node_id":"0.0-5.0-33.0"},{"group":"square cycles (cube, non-group)","fractal_assignment":["../images/org_blu.png","../images/cyn_red.png","../images/ylw_pnk.png","../images/grn_red.png","../images/pnk_blu.png","../images/ylw_slt.png","../images/blu_wht.png","../images/gry_blk.png"],"mutagen_generator_assignment":[1,0],"goal":1,"start":6,"action_noise":0.1,"location_history":"[6,7,3,2,3,0,1]","action_history":"[1,1,1,0,0,0]","mutagen_history":"[0,0,0,1,1,1]","location_rts":"[2145,6936,5577,393,629,28]","trial_type":"fractal-mutation","trial_index":88,"time_elapsed":1925215,"internal_node_id":"0.0-5.0-34.0"},{"group":"square cycles (cube, non-group)","fractal_assignment":["../images/org_blu.png","../images/cyn_red.png","../images/ylw_pnk.png","../images/grn_red.png","../images/pnk_blu.png","../images/ylw_slt.png","../images/blu_wht.png","../images/gry_blk.png"],"mutagen_generator_assignment":[1,0],"goal":7,"start":1,"action_noise":0.1,"location_history":"[1,0,1,2,6,5,4,7]","action_history":"[1,0,1,1,0,0,0]","mutagen_history":"[0,1,0,0,1,1,1]","location_rts":"[365,653,5299,8477,410,506,1021]","trial_type":"fractal-mutation","trial_index":89,"time_elapsed":1953257,"internal_node_id":"0.0-5.0-35.0"},{"group":"square cycles (cube, non-group)","fractal_assignment":["../images/org_blu.png","../images/cyn_red.png","../images/ylw_pnk.png","../images/grn_red.png","../images/pnk_blu.png","../images/ylw_slt.png","../images/blu_wht.png","../images/gry_blk.png"],"mutagen_generator_assignment":[1,0],"goal":4,"start":7,"action_noise":0.1,"location_history":"[7,6,5,4]","action_history":"[0,0,0]","mutagen_history":"[1,1,1]","location_rts":"[1380,766,600]","trial_type":"fractal-mutation","trial_index":90,"time_elapsed":1962921,"internal_node_id":"0.0-5.0-36.0"},{"group":"square cycles (cube, non-group)","fractal_assignment":["../images/org_blu.png","../images/cyn_red.png","../images/ylw_pnk.png","../images/grn_red.png","../images/pnk_blu.png","../images/ylw_slt.png","../images/blu_wht.png","../images/gry_blk.png"],"mutagen_generator_assignment":[1,0],"goal":5,"start":4,"action_noise":0.1,"location_history":"[4,7,6,5]","action_history":"[0,0,0]","mutagen_history":"[1,1,1]","location_rts":"[1211,692,551]","trial_type":"fractal-mutation","trial_index":91,"time_elapsed":1972278,"internal_node_id":"0.0-5.0-37.0"},{"group":"square cycles (cube, non-group)","fractal_assignment":["../images/org_blu.png","../images/cyn_red.png","../images/ylw_pnk.png","../images/grn_red.png","../images/pnk_blu.png","../images/ylw_slt.png","../images/blu_wht.png","../images/gry_blk.png"],"mutagen_generator_assignment":[1,0],"goal":0,"start":5,"action_noise":0.1,"location_history":"[5,1,2,6,7,6,7,6,7,3,0]","action_history":"[1,1,1,1,1,1,0,1,1,0]","mutagen_history":"[0,0,0,0,0,0,1,0,0,1]","location_rts":"[2061,1108,610,542,519,689,1582,416,561,923]","trial_type":"fractal-mutation","trial_index":92,"time_elapsed":1995754,"internal_node_id":"0.0-5.0-38.0"},{"group":"square cycles (cube, non-group)","fractal_assignment":["../images/org_blu.png","../images/cyn_red.png","../images/ylw_pnk.png","../images/grn_red.png","../images/pnk_blu.png","../images/ylw_slt.png","../images/blu_wht.png","../images/gry_blk.png"],"mutagen_generator_assignment":[1,0],"goal":4,"start":0,"action_noise":0.1,"location_history":"[0,1,2,3,0,1,2,3,2,3,2,6,5,4]","action_history":"[0,0,0,0,0,0,0,1,0,1,1,0,0]","mutagen_history":"[1,1,1,1,1,1,1,0,1,0,0,1,1]","location_rts":"[1728,468,479,409,477,470,503,541,433,1083,803,569,495]","trial_type":"fractal-mutation","trial_index":93,"time_elapsed":2023117,"internal_node_id":"0.0-5.0-39.0"},{"group":"square cycles (cube, non-group)","fractal_assignment":["../images/org_blu.png","../images/cyn_red.png","../images/ylw_pnk.png","../images/grn_red.png","../images/pnk_blu.png","../images/ylw_slt.png","../images/blu_wht.png","../images/gry_blk.png"],"mutagen_generator_assignment":[1,0],"goal":0,"start":4,"action_noise":0.1,"location_history":"[4,5,4,5,1,2,3,2,6,5,4,5,1,2,3,2,6,7,6,5,1,0]","action_history":"[1,0,1,1,0,0,1,1,0,0,1,1,0,0,1,1,1,0,0,1,1]","mutagen_history":"[0,1,0,0,1,1,0,0,1,1,0,0,1,1,0,0,0,1,1,0,0]","location_rts":"[9494,862,1214,998,550,2476,920,405,523,587,689,416,415,620,454,498,477,240,461,470,357]","trial_type":"fractal-mutation","trial_index":94,"time_elapsed":2073949,"internal_node_id":"0.0-5.0-40.0"},{"group":"square cycles (cube, non-group)","fractal_assignment":["../images/org_blu.png","../images/cyn_red.png","../images/ylw_pnk.png","../images/grn_red.png","../images/pnk_blu.png","../images/ylw_slt.png","../images/blu_wht.png","../images/gry_blk.png"],"mutagen_generator_assignment":[1,0],"goal":2,"start":0,"action_noise":0.1,"location_history":"[0,4,5,4,7,3,2]","action_history":"[1,1,0,0,1,1]","mutagen_history":"[0,0,1,1,0,0]","location_rts":"[1052,377,476,272,261,315]","trial_type":"fractal-mutation","trial_index":95,"time_elapsed":2086807,"internal_node_id":"0.0-5.0-41.0"},{"group":"square cycles (cube, non-group)","fractal_assignment":["../images/org_blu.png","../images/cyn_red.png","../images/ylw_pnk.png","../images/grn_red.png","../images/pnk_blu.png","../images/ylw_slt.png","../images/blu_wht.png","../images/gry_blk.png"],"mutagen_generator_assignment":[1,0],"goal":3,"start":2,"action_noise":0.1,"location_history":"[2,6,7,3]","action_history":"[0,1,1]","mutagen_history":"[1,0,0]","location_rts":"[529,446,400]","trial_type":"fractal-mutation","trial_index":96,"time_elapsed":2094974,"internal_node_id":"0.0-5.0-42.0"},{"group":"square cycles (cube, non-group)","fractal_assignment":["../images/org_blu.png","../images/cyn_red.png","../images/ylw_pnk.png","../images/grn_red.png","../images/pnk_blu.png","../images/ylw_slt.png","../images/blu_wht.png","../images/gry_blk.png"],"mutagen_generator_assignment":[1,0],"goal":5,"start":3,"action_noise":0.1,"location_history":"[3,2,6,5]","action_history":"[1,0,0]","mutagen_history":"[0,1,1]","location_rts":"[1059,347,959]","trial_type":"fractal-mutation","trial_index":97,"time_elapsed":2104215,"internal_node_id":"0.0-5.0-43.0"},{"group":"square cycles (cube, non-group)","fractal_assignment":["../images/org_blu.png","../images/cyn_red.png","../images/ylw_pnk.png","../images/grn_red.png","../images/pnk_blu.png","../images/ylw_slt.png","../images/blu_wht.png","../images/gry_blk.png"],"mutagen_generator_assignment":[1,0],"goal":1,"start":5,"action_noise":0.1,"location_history":"[5,1]","action_history":"[1]","mutagen_history":"[0]","location_rts":"[1200]","trial_type":"fractal-mutation","trial_index":98,"time_elapsed":2110000,"internal_node_id":"0.0-5.0-44.0"},{"group":"square cycles (cube, non-group)","fractal_assignment":["../images/org_blu.png","../images/cyn_red.png","../images/ylw_pnk.png","../images/grn_red.png","../images/pnk_blu.png","../images/ylw_slt.png","../images/blu_wht.png","../images/gry_blk.png"],"mutagen_generator_assignment":[1,0],"goal":7,"start":1,"action_noise":0.1,"location_history":"[1,0,1,2,3,2,3,2,6,5,4,7]","action_history":"[0,0,0,0,1,0,1,1,0,0,0]","mutagen_history":"[1,1,1,1,0,1,0,0,1,1,1]","location_rts":"[406,186,671,476,468,440,638,608,530,255,209]","trial_type":"fractal-mutation","trial_index":99,"time_elapsed":2130744,"internal_node_id":"0.0-5.0-45.0"},{"group":"square cycles (cube, non-group)","fractal_assignment":["../images/org_blu.png","../images/cyn_red.png","../images/ylw_pnk.png","../images/grn_red.png","../images/pnk_blu.png","../images/ylw_slt.png","../images/blu_wht.png","../images/gry_blk.png"],"mutagen_generator_assignment":[1,0],"goal":6,"start":7,"action_noise":0.1,"location_history":"[7,6]","action_history":"[0]","mutagen_history":"[1]","location_rts":"[1345]","trial_type":"fractal-mutation","trial_index":100,"time_elapsed":2136747,"internal_node_id":"0.0-5.0-46.0"},{"group":"square cycles (cube, non-group)","fractal_assignment":["../images/org_blu.png","../images/cyn_red.png","../images/ylw_pnk.png","../images/grn_red.png","../images/pnk_blu.png","../images/ylw_slt.png","../images/blu_wht.png","../images/gry_blk.png"],"mutagen_generator_assignment":[1,0],"goal":3,"start":6,"action_noise":0.1,"location_history":"[6,7,6,5,1,2,6,7,3]","action_history":"[1,0,0,1,0,1,1,1]","mutagen_history":"[0,1,1,0,1,0,0,0]","location_rts":"[1373,907,732,557,1543,571,709,385]","trial_type":"fractal-mutation","trial_index":101,"time_elapsed":2155847,"internal_node_id":"0.0-5.0-47.0"},{"group":"square cycles (cube, non-group)","fractal_assignment":["../images/org_blu.png","../images/cyn_red.png","../images/ylw_pnk.png","../images/grn_red.png","../images/pnk_blu.png","../images/ylw_slt.png","../images/blu_wht.png","../images/gry_blk.png"],"mutagen_generator_assignment":[1,0],"goal":0,"start":3,"action_noise":0.1,"location_history":"[3,0]","action_history":"[1]","mutagen_history":"[0]","location_rts":"[1409]","trial_type":"fractal-mutation","trial_index":102,"time_elapsed":2161848,"internal_node_id":"0.0-5.0-48.0"},{"group":"square cycles (cube, non-group)","fractal_assignment":["../images/org_blu.png","../images/cyn_red.png","../images/ylw_pnk.png","../images/grn_red.png","../images/pnk_blu.png","../images/ylw_slt.png","../images/blu_wht.png","../images/gry_blk.png"],"mutagen_generator_assignment":[1,0],"goal":2,"start":0,"action_noise":0.1,"location_history":"[0,4,5,1,2]","action_history":"[1,1,1,1]","mutagen_history":"[0,0,0,0]","location_rts":"[2440,544,632,739]","trial_type":"fractal-mutation","trial_index":103,"time_elapsed":2174055,"internal_node_id":"0.0-5.0-49.0"},{"view_history":"[{\"page_index\":0,\"viewing_time\":14416}]","rt":14416,"trial_type":"instructions","trial_index":104,"time_elapsed":2189471,"internal_node_id":"0.0-6.0"},{"rt":3364,"responses":"{\"Q0\":\"\"}","trial_type":"survey-text","trial_index":105,"time_elapsed":2193841,"internal_node_id":"0.0-7.0"}]