[{"view_history":"[{\"page_index\":0,\"viewing_time\":4292},{\"page_index\":1,\"viewing_time\":19709},{\"page_index\":2,\"viewing_time\":22901},{\"page_index\":3,\"viewing_time\":6805}]","rt":53709,"trial_type":"instructions","trial_index":0,"time_elapsed":53710,"internal_node_id":"0.0-0.0"},{"view_history":"[{\"page_index\":0,\"viewing_time\":2300},{\"page_index\":1,\"viewing_time\":33735}]","rt":36036,"trial_type":"instructions","trial_index":1,"time_elapsed":90748,"internal_node_id":"0.0-1.0"},{"group":"square cycles (cube, non-group)","room_assignment":["green","purple","pink","brown","red","grey","yellow","blue"],"door_color_assignment":["white","black"],"door_generator_assignment":[1,0],"goal":3,"start":0,"action_noise":0.1,"location_history":"[0,4,5,1,0,4,7,6,5,4,7,3]","action_history":"[1,1,1,1,1,0,0,0,0,0,1]","door_history":"[0,0,0,0,0,1,1,1,1,1,0]","location_rts":"[5612,1596,1839,1691,1305,1521,945,655,825,1230,732]","trial_type":"two-door-navigation","trial_index":2,"time_elapsed":123599,"internal_node_id":"0.0-2.0-0.0"},{"group":"square cycles (cube, non-group)","room_assignment":["green","purple","pink","brown","red","grey","yellow","blue"],"door_color_assignment":["white","black"],"door_generator_assignment":[1,0],"goal":1,"start":3,"action_noise":0.1,"location_history":"[3,2,6,7,3,0,1]","action_history":"[1,1,1,1,0,0]","door_history":"[0,0,0,0,1,1]","location_rts":"[2970,2943,526,400,881,559]","trial_type":"two-door-navigation","trial_index":3,"time_elapsed":141572,"internal_node_id":"0.0-2.0-1.0"},{"group":"square cycles (cube, non-group)","room_assignment":["green","purple","pink","brown","red","grey","yellow","blue"],"door_color_assignment":["white","black"],"door_generator_assignment":[1,0],"goal":2,"start":1,"action_noise":0.1,"location_history":"[1,0,1,2]","action_history":"[1,0,0]","door_history":"[0,1,1]","location_rts":"[1407,897,415]","trial_type":"two-door-navigation","trial_index":4,"time_elapsed":150978,"internal_node_id":"0.0-2.0-2.0"},{"group":"square cycles (cube, non-group)","room_assignment":["green","purple","pink","brown","red","grey","yellow","blue"],"door_color_assignment":["white","black"],"door_generator_assignment":[1,0],"goal":6,"start":2,"action_noise":0.1,"location_history":"[2,6]","action_history":"[1]","door_history":"[0]","location_rts":"[4784]","trial_type":"two-door-navigation","trial_index":5,"time_elapsed":160300,"internal_node_id":"0.0-2.0-3.0"},{"group":"square cycles (cube, non-group)","room_assignment":["green","purple","pink","brown","red","grey","yellow","blue"],"door_color_assignment":["white","black"],"door_generator_assignment":[1,0],"goal":5,"start":6,"action_noise":0.1,"location_history":"[6,5]","action_history":"[0]","door_history":"[1]","location_rts":"[1837]","trial_type":"two-door-navigation","trial_index":6,"time_elapsed":166669,"internal_node_id":"0.0-2.0-4.0"},{"group":"square cycles (cube, non-group)","room_assignment":["green","purple","pink","brown","red","grey","yellow","blue"],"door_color_assignment":["white","black"],"door_generator_assignment":[1,0],"goal":4,"start":5,"action_noise":0.1,"location_history":"[5,4]","action_history":"[0]","door_history":"[1]","location_rts":"[1776]","trial_type":"two-door-navigation","trial_index":7,"time_elapsed":172987,"internal_node_id":"0.0-2.0-5.0"},{"group":"square cycles (cube, non-group)","room_assignment":["green","purple","pink","brown","red","grey","yellow","blue"],"door_color_assignment":["white","black"],"door_generator_assignment":[1,0],"goal":7,"start":4,"action_noise":0.1,"location_history":"[4,7]","action_history":"[0]","door_history":"[1]","location_rts":"[2502]","trial_type":"two-door-navigation","trial_index":8,"time_elapsed":180030,"internal_node_id":"0.0-2.0-6.0"},{"group":"square cycles (cube, non-group)","room_assignment":["green","purple","pink","brown","red","grey","yellow","blue"],"door_color_assignment":["white","black"],"door_generator_assignment":[1,0],"goal":4,"start":7,"action_noise":0.1,"location_history":"[7,6,7,3,2,6,5,4]","action_history":"[0,1,1,1,1,0,0]","door_history":"[1,0,0,0,0,1,1]","location_rts":"[1601,1198,521,519,398,913,408]","trial_type":"two-door-navigation","trial_index":9,"time_elapsed":196296,"internal_node_id":"0.0-2.0-7.0"},{"group":"square cycles (cube, non-group)","room_assignment":["green","purple","pink","brown","red","grey","yellow","blue"],"door_color_assignment":["white","black"],"door_generator_assignment":[1,0],"goal":6,"start":4,"action_noise":0.1,"location_history":"[4,7,6]","action_history":"[0,0]","door_history":"[1,1]","location_rts":"[3475,864]","trial_type":"two-door-navigation","trial_index":10,"time_elapsed":206205,"internal_node_id":"0.0-2.0-8.0"},{"group":"square cycles (cube, non-group)","room_assignment":["green","purple","pink","brown","red","grey","yellow","blue"],"door_color_assignment":["white","black"],"door_generator_assignment":[1,0],"goal":0,"start":6,"action_noise":0.1,"location_history":"[6,7,3,2,6,7,3,0]","action_history":"[1,1,1,1,1,1,0]","door_history":"[0,0,0,0,0,0,1]","location_rts":"[2171,358,354,442,435,443,637]","trial_type":"two-door-navigation","trial_index":11,"time_elapsed":221742,"internal_node_id":"0.0-2.0-9.0"},{"group":"square cycles (cube, non-group)","room_assignment":["green","purple","pink","brown","red","grey","yellow","blue"],"door_color_assignment":["white","black"],"door_generator_assignment":[1,0],"goal":1,"start":0,"action_noise":0.1,"location_history":"[0,4,5,1]","action_history":"[1,1,1]","door_history":"[0,0,0]","location_rts":"[43855,962,636]","trial_type":"two-door-navigation","trial_index":12,"time_elapsed":273789,"internal_node_id":"0.0-2.0-10.0"},{"group":"square cycles (cube, non-group)","room_assignment":["green","purple","pink","brown","red","grey","yellow","blue"],"door_color_assignment":["white","black"],"door_generator_assignment":[1,0],"goal":3,"start":1,"action_noise":0.1,"location_history":"[1,2,6,7,3]","action_history":"[0,1,1,1]","door_history":"[1,0,0,0]","location_rts":"[3103,957,464,441]","trial_type":"two-door-navigation","trial_index":13,"time_elapsed":286380,"internal_node_id":"0.0-2.0-11.0"},{"group":"square cycles (cube, non-group)","room_assignment":["green","purple","pink","brown","red","grey","yellow","blue"],"door_color_assignment":["white","black"],"door_generator_assignment":[1,0],"goal":7,"start":3,"action_noise":0.1,"location_history":"[3,0,4,5,1,2,6,5,4,7]","action_history":"[0,1,1,1,1,1,0,0,0]","door_history":"[1,0,0,0,0,0,1,1,1]","location_rts":"[1747,659,466,765,537,502,1088,379,373]","trial_type":"two-door-navigation","trial_index":14,"time_elapsed":305641,"internal_node_id":"0.0-2.0-12.0"},{"group":"square cycles (cube, non-group)","room_assignment":["green","purple","pink","brown","red","grey","yellow","blue"],"door_color_assignment":["white","black"],"door_generator_assignment":[1,0],"goal":5,"start":7,"action_noise":0.1,"location_history":"[7,3,2,6,7,6,5]","action_history":"[1,1,1,1,0,0]","door_history":"[0,0,0,0,1,1]","location_rts":"[4863,531,450,333,1001,386]","trial_type":"two-door-navigation","trial_index":15,"time_elapsed":322880,"internal_node_id":"0.0-2.0-13.0"},{"group":"square cycles (cube, non-group)","room_assignment":["green","purple","pink","brown","red","grey","yellow","blue"],"door_color_assignment":["white","black"],"door_generator_assignment":[1,0],"goal":2,"start":5,"action_noise":0.1,"location_history":"[5,1,0,4,5,1,0,1,2]","action_history":"[1,1,1,1,1,1,0,0]","door_history":"[0,0,0,0,0,0,1,1]","location_rts":"[14090,586,307,346,418,371,446,343]","trial_type":"two-door-navigation","trial_index":16,"time_elapsed":351525,"internal_node_id":"0.0-2.0-14.0"},{"group":"square cycles (cube, non-group)","room_assignment":["green","purple","pink","brown","red","grey","yellow","blue"],"door_color_assignment":["white","black"],"door_generator_assignment":[1,0],"goal":7,"start":2,"action_noise":0.1,"location_history":"[2,3,0,1,2,6,7]","action_history":"[0,0,0,0,1,1]","door_history":"[1,1,1,1,0,0]","location_rts":"[3661,374,395,365,1836,299]","trial_type":"two-door-navigation","trial_index":17,"time_elapsed":368134,"internal_node_id":"0.0-2.0-15.0"},{"group":"square cycles (cube, non-group)","room_assignment":["green","purple","pink","brown","red","grey","yellow","blue"],"door_color_assignment":["white","black"],"door_generator_assignment":[1,0],"goal":4,"start":7,"action_noise":0.1,"location_history":"[7,6,7,6,5,4]","action_history":"[0,0,0,0,0]","door_history":"[1,1,1,1,1]","location_rts":"[3636,344,318,300,494]","trial_type":"two-door-navigation","trial_index":18,"time_elapsed":381891,"internal_node_id":"0.0-2.0-16.0"},{"group":"square cycles (cube, non-group)","room_assignment":["green","purple","pink","brown","red","grey","yellow","blue"],"door_color_assignment":["white","black"],"door_generator_assignment":[1,0],"goal":2,"start":4,"action_noise":0.1,"location_history":"[4,5,1,0,4,5,4,5,1,0,4,7,3,0,4,7,3,2]","action_history":"[1,1,1,1,1,0,1,1,1,1,0,0,0,0,0,1,1]","door_history":"[0,0,0,0,0,1,0,0,0,0,1,1,1,1,1,0,0]","location_rts":"[1368,393,350,416,409,1956,1344,404,969,421,785,349,453,457,425,1198,400]","trial_type":"two-door-navigation","trial_index":19,"time_elapsed":414955,"internal_node_id":"0.0-2.0-17.0"},{"group":"square cycles (cube, non-group)","room_assignment":["green","purple","pink","brown","red","grey","yellow","blue"],"door_color_assignment":["white","black"],"door_generator_assignment":[1,0],"goal":3,"start":2,"action_noise":0.1,"location_history":"[2,3]","action_history":"[0]","door_history":"[1]","location_rts":"[1927]","trial_type":"two-door-navigation","trial_index":20,"time_elapsed":421431,"internal_node_id":"0.0-2.0-18.0"},{"group":"square cycles (cube, non-group)","room_assignment":["green","purple","pink","brown","red","grey","yellow","blue"],"door_color_assignment":["white","black"],"door_generator_assignment":[1,0],"goal":6,"start":3,"action_noise":0.1,"location_history":"[3,0,1,2,3,2,6]","action_history":"[0,0,0,0,1,1]","door_history":"[1,1,1,1,0,0]","location_rts":"[1673,850,375,943,1211,397]","trial_type":"two-door-navigation","trial_index":21,"time_elapsed":436547,"internal_node_id":"0.0-2.0-19.0"},{"group":"square cycles (cube, non-group)","room_assignment":["green","purple","pink","brown","red","grey","yellow","blue"],"door_color_assignment":["white","black"],"door_generator_assignment":[1,0],"goal":5,"start":6,"action_noise":0.1,"location_history":"[6,7,3,2,6,7,3,0,1,2,3,0,4,5]","action_history":"[1,1,1,1,1,1,0,0,0,0,0,1,1]","door_history":"[0,0,0,0,0,0,1,1,1,1,1,0,0]","location_rts":"[1904,439,411,487,368,379,808,376,382,449,445,522,326]","trial_type":"two-door-navigation","trial_index":22,"time_elapsed":460725,"internal_node_id":"0.0-2.0-20.0"},{"group":"square cycles (cube, non-group)","room_assignment":["green","purple","pink","brown","red","grey","yellow","blue"],"door_color_assignment":["white","black"],"door_generator_assignment":[1,0],"goal":1,"start":5,"action_noise":0.1,"location_history":"[5,4,7,6,5,4,5,1]","action_history":"[0,0,0,0,0,1,1]","door_history":"[1,1,1,1,1,0,0]","location_rts":"[4564,336,335,347,712,636,347]","trial_type":"two-door-navigation","trial_index":23,"time_elapsed":478739,"internal_node_id":"0.0-2.0-21.0"},{"group":"square cycles (cube, non-group)","room_assignment":["green","purple","pink","brown","red","grey","yellow","blue"],"door_color_assignment":["white","black"],"door_generator_assignment":[1,0],"goal":0,"start":1,"action_noise":0.1,"location_history":"[1,2,3,2,3,0]","action_history":"[0,0,0,0,0]","door_history":"[1,1,1,1,1]","location_rts":"[1285,352,346,345,303]","trial_type":"two-door-navigation","trial_index":24,"time_elapsed":490022,"internal_node_id":"0.0-2.0-22.0"},{"group":"square cycles (cube, non-group)","room_assignment":["green","purple","pink","brown","red","grey","yellow","blue"],"door_color_assignment":["white","black"],"door_generator_assignment":[1,0],"goal":2,"start":0,"action_noise":0.1,"location_history":"[0,4,5,1,0,4,5,4,7,3,2]","action_history":"[1,1,1,1,1,0,0,1,1,1]","door_history":"[0,0,0,0,0,1,1,0,0,0]","location_rts":"[30479,373,637,498,577,796,419,929,337,1248]","trial_type":"two-door-navigation","trial_index":25,"time_elapsed":540070,"internal_node_id":"0.0-2.0-23.0"},{"group":"square cycles (cube, non-group)","room_assignment":["green","purple","pink","brown","red","grey","yellow","blue"],"door_color_assignment":["white","black"],"door_generator_assignment":[1,0],"goal":6,"start":2,"action_noise":0.1,"location_history":"[2,3,0,1,0,1,2,3,0,4,5,1,2,3,0,1,2,3,2,6]","action_history":"[0,0,0,0,0,0,1,1,1,1,1,0,0,0,0,0,0,1,1]","door_history":"[1,1,1,1,1,1,0,0,0,0,0,1,1,1,1,1,1,0,0]","location_rts":"[1576,3159,480,3940,395,353,818,358,376,530,1194,907,345,391,383,306,363,847,415]","trial_type":"two-door-navigation","trial_index":26,"time_elapsed":580257,"internal_node_id":"0.0-2.0-24.0"},{"group":"square cycles (cube, non-group)","room_assignment":["green","purple","pink","brown","red","grey","yellow","blue"],"door_color_assignment":["white","black"],"door_generator_assignment":[1,0],"goal":1,"start":6,"action_noise":0.1,"location_history":"[6,7,3,2,3,0,1]","action_history":"[1,1,1,0,0,0]","door_history":"[0,0,0,1,1,1]","location_rts":"[1281,1636,724,951,645,435]","trial_type":"two-door-navigation","trial_index":27,"time_elapsed":595594,"internal_node_id":"0.0-2.0-25.0"},{"group":"square cycles (cube, non-group)","room_assignment":["green","purple","pink","brown","red","grey","yellow","blue"],"door_color_assignment":["white","black"],"door_generator_assignment":[1,0],"goal":3,"start":1,"action_noise":0.1,"location_history":"[1,2,3]","action_history":"[0,0]","door_history":"[1,1]","location_rts":"[2998,839]","trial_type":"two-door-navigation","trial_index":28,"time_elapsed":604995,"internal_node_id":"0.0-2.0-26.0"},{"group":"square cycles (cube, non-group)","room_assignment":["green","purple","pink","brown","red","grey","yellow","blue"],"door_color_assignment":["white","black"],"door_generator_assignment":[1,0],"goal":7,"start":3,"action_noise":0.1,"location_history":"[3,0,4,5,4,7]","action_history":"[1,1,1,0,0]","door_history":"[0,0,0,1,1]","location_rts":"[2213,656,1238,391,566]","trial_type":"two-door-navigation","trial_index":29,"time_elapsed":618697,"internal_node_id":"0.0-2.0-27.0"},{"group":"square cycles (cube, non-group)","room_assignment":["green","purple","pink","brown","red","grey","yellow","blue"],"door_color_assignment":["white","black"],"door_generator_assignment":[1,0],"goal":4,"start":7,"action_noise":0.1,"location_history":"[7,6,5,4]","action_history":"[0,0,0]","door_history":"[1,1,1]","location_rts":"[12830,389,1350]","trial_type":"two-door-navigation","trial_index":30,"time_elapsed":639858,"internal_node_id":"0.0-2.0-28.0"},{"group":"square cycles (cube, non-group)","room_assignment":["green","purple","pink","brown","red","grey","yellow","blue"],"door_color_assignment":["white","black"],"door_generator_assignment":[1,0],"goal":0,"start":4,"action_noise":0.1,"location_history":"[4,5,4,7,6,5,4,7,6,5,1,0]","action_history":"[0,0,0,0,0,0,0,0,0,1,1]","door_history":"[1,1,1,1,1,1,1,1,1,0,0]","location_rts":"[6682,345,333,521,373,1474,189,1159,483,6917,321]","trial_type":"two-door-navigation","trial_index":31,"time_elapsed":673479,"internal_node_id":"0.0-2.0-29.0"},{"group":"square cycles (cube, non-group)","room_assignment":["green","purple","pink","brown","red","grey","yellow","blue"],"door_color_assignment":["white","black"],"door_generator_assignment":[1,0],"goal":5,"start":0,"action_noise":0.1,"location_history":"[0,1,2,3,0,1,0,4,5]","action_history":"[0,0,0,0,0,1,1,1]","door_history":"[1,1,1,1,1,0,0,0]","location_rts":"[7207,360,1560,2213,1112,830,381,317]","trial_type":"two-door-navigation","trial_index":32,"time_elapsed":699197,"internal_node_id":"0.0-2.0-30.0"},{"group":"square cycles (cube, non-group)","room_assignment":["green","purple","pink","brown","red","grey","yellow","blue"],"door_color_assignment":["white","black"],"door_generator_assignment":[1,0],"goal":3,"start":5,"action_noise":0.1,"location_history":"[5,4,7,6,5,1,0,4,5,1,2,3]","action_history":"[0,0,0,0,1,1,1,1,1,0,0]","door_history":"[1,1,1,1,0,0,0,0,0,1,1]","location_rts":"[7970,325,329,368,5716,361,541,412,283,587,617]","trial_type":"two-door-navigation","trial_index":33,"time_elapsed":731489,"internal_node_id":"0.0-2.0-31.0"},{"group":"square cycles (cube, non-group)","room_assignment":["green","purple","pink","brown","red","grey","yellow","blue"],"door_color_assignment":["white","black"],"door_generator_assignment":[1,0],"goal":2,"start":3,"action_noise":0.1,"location_history":"[3,0,4,7,3,2]","action_history":"[0,0,0,1,1]","door_history":"[1,1,1,0,0]","location_rts":"[914,465,392,994,310]","trial_type":"two-door-navigation","trial_index":34,"time_elapsed":743200,"internal_node_id":"0.0-2.0-32.0"},{"group":"square cycles (cube, non-group)","room_assignment":["green","purple","pink","brown","red","grey","yellow","blue"],"door_color_assignment":["white","black"],"door_generator_assignment":[1,0],"goal":6,"start":2,"action_noise":0.1,"location_history":"[2,3,0,1,0,4,7,3,2,3,0,1,2,6]","action_history":"[0,0,0,1,1,1,1,1,0,0,0,0,1]","door_history":"[1,1,1,0,0,0,0,0,1,1,1,1,0]","location_rts":"[3605,500,336,313,273,518,358,339,820,339,377,572,707]","trial_type":"two-door-navigation","trial_index":35,"time_elapsed":769126,"internal_node_id":"0.0-2.0-33.0"},{"group":"square cycles (cube, non-group)","room_assignment":["green","purple","pink","brown","red","grey","yellow","blue"],"door_color_assignment":["white","black"],"door_generator_assignment":[1,0],"goal":1,"start":6,"action_noise":0.1,"location_history":"[6,7,6,5,4,7,6,7,3,2,3,2,3,0,1]","action_history":"[1,1,1,0,0,0,1,1,1,0,0,0,0,0]","door_history":"[0,0,0,1,1,1,0,0,0,1,1,1,1,1]","location_rts":"[3150,717,2332,1323,829,1057,787,5547,339,670,298,442,344,368]","trial_type":"two-door-navigation","trial_index":36,"time_elapsed":805222,"internal_node_id":"0.0-2.0-34.0"},{"group":"square cycles (cube, non-group)","room_assignment":["green","purple","pink","brown","red","grey","yellow","blue"],"door_color_assignment":["white","black"],"door_generator_assignment":[1,0],"goal":7,"start":1,"action_noise":0.1,"location_history":"[1,2,3,0,1,2,6,5,1,0,1,2,3,0,1,2,6,7]","action_history":"[0,0,0,0,0,1,1,1,1,1,0,0,0,0,0,1,1]","door_history":"[1,1,1,1,1,0,0,0,0,0,1,1,1,1,1,0,0]","location_rts":"[832,367,481,551,760,1363,335,560,341,405,829,330,294,410,350,1160,259]","trial_type":"two-door-navigation","trial_index":37,"time_elapsed":835820,"internal_node_id":"0.0-2.0-35.0"},{"group":"square cycles (cube, non-group)","room_assignment":["green","purple","pink","brown","red","grey","yellow","blue"],"door_color_assignment":["white","black"],"door_generator_assignment":[1,0],"goal":4,"start":7,"action_noise":0.1,"location_history":"[7,6,7,3,2,6,5,4]","action_history":"[1,1,1,1,1,0,0]","door_history":"[0,0,0,0,0,1,1]","location_rts":"[1916,357,1006,351,329,532,309]","trial_type":"two-door-navigation","trial_index":38,"time_elapsed":851309,"internal_node_id":"0.0-2.0-36.0"},{"group":"square cycles (cube, non-group)","room_assignment":["green","purple","pink","brown","red","grey","yellow","blue"],"door_color_assignment":["white","black"],"door_generator_assignment":[1,0],"goal":5,"start":4,"action_noise":0.1,"location_history":"[4,7,6,5]","action_history":"[0,0,0]","door_history":"[1,1,1]","location_rts":"[842,318,293]","trial_type":"two-door-navigation","trial_index":39,"time_elapsed":859359,"internal_node_id":"0.0-2.0-37.0"},{"group":"square cycles (cube, non-group)","room_assignment":["green","purple","pink","brown","red","grey","yellow","blue"],"door_color_assignment":["white","black"],"door_generator_assignment":[1,0],"goal":0,"start":5,"action_noise":0.1,"location_history":"[5,1,0]","action_history":"[1,1]","door_history":"[0,0]","location_rts":"[5724,274]","trial_type":"two-door-navigation","trial_index":40,"time_elapsed":870914,"internal_node_id":"0.0-2.0-38.0"},{"group":"square cycles (cube, non-group)","room_assignment":["green","purple","pink","brown","red","grey","yellow","blue"],"door_color_assignment":["white","black"],"door_generator_assignment":[1,0],"goal":4,"start":0,"action_noise":0.1,"location_history":"[0,4]","action_history":"[1]","door_history":"[0]","location_rts":"[835]","trial_type":"two-door-navigation","trial_index":41,"time_elapsed":876284,"internal_node_id":"0.0-2.0-39.0"},{"group":"square cycles (cube, non-group)","room_assignment":["green","purple","pink","brown","red","grey","yellow","blue"],"door_color_assignment":["white","black"],"door_generator_assignment":[1,0],"goal":0,"start":4,"action_noise":0.1,"location_history":"[4,7,3,2,6,5,1,2,3,0]","action_history":"[1,1,1,1,1,1,0,0,0]","door_history":"[0,0,0,0,0,0,1,1,1]","location_rts":"[619,1275,266,244,248,239,630,353,333]","trial_type":"two-door-navigation","trial_index":42,"time_elapsed":893252,"internal_node_id":"0.0-2.0-40.0"},{"group":"square cycles (cube, non-group)","room_assignment":["green","purple","pink","brown","red","grey","yellow","blue"],"door_color_assignment":["white","black"],"door_generator_assignment":[1,0],"goal":2,"start":0,"action_noise":0.1,"location_history":"[0,1,0,4,5,1,0,1,2]","action_history":"[1,1,1,1,1,1,0,0]","door_history":"[0,0,0,0,0,0,1,1]","location_rts":"[2081,356,341,277,316,315,668,343]","trial_type":"two-door-navigation","trial_index":43,"time_elapsed":909666,"internal_node_id":"0.0-2.0-41.0"},{"group":"square cycles (cube, non-group)","room_assignment":["green","purple","pink","brown","red","grey","yellow","blue"],"door_color_assignment":["white","black"],"door_generator_assignment":[1,0],"goal":3,"start":2,"action_noise":0.1,"location_history":"[2,6,5,1,0,4,5,1,0,1,0,1,0,4,5,1,0,4,7,6,5,4,7,6,5,4,7,6,7,3]","action_history":"[1,1,1,1,1,1,1,0,0,0,0,1,1,1,1,1,1,0,0,0,0,0,0,0,0,0,0,1,1]","door_history":"[0,0,0,0,0,0,0,1,1,1,1,0,0,0,0,0,0,1,1,1,1,1,1,1,1,1,1,0,0]","location_rts":"[1381,480,234,276,467,416,386,936,307,336,419,927,329,496,368,508,436,777,310,1588,491,449,376,472,458,418,390,657,313]","trial_type":"two-door-navigation","trial_index":44,"time_elapsed":958410,"internal_node_id":"0.0-2.0-42.0"},{"group":"square cycles (cube, non-group)","room_assignment":["green","purple","pink","brown","red","grey","yellow","blue"],"door_color_assignment":["white","black"],"door_generator_assignment":[1,0],"goal":5,"start":3,"action_noise":0.1,"location_history":"[3,2,6,7,6,5]","action_history":"[1,1,1,0,0]","door_history":"[0,0,0,1,1]","location_rts":"[1076,793,477,520,321]","trial_type":"two-door-navigation","trial_index":45,"time_elapsed":970222,"internal_node_id":"0.0-2.0-43.0"},{"group":"square cycles (cube, non-group)","room_assignment":["green","purple","pink","brown","red","grey","yellow","blue"],"door_color_assignment":["white","black"],"door_generator_assignment":[1,0],"goal":1,"start":5,"action_noise":0.1,"location_history":"[5,4,7,6,5,1]","action_history":"[0,0,0,0,0]","door_history":"[1,1,1,1,1]","location_rts":"[561,336,327,327,873]","trial_type":"two-door-navigation","trial_index":46,"time_elapsed":981290,"internal_node_id":"0.0-2.0-44.0"},{"group":"square cycles (cube, non-group)","room_assignment":["green","purple","pink","brown","red","grey","yellow","blue"],"door_color_assignment":["white","black"],"door_generator_assignment":[1,0],"goal":7,"start":1,"action_noise":0.1,"location_history":"[1,2,3,0,4,7]","action_history":"[0,0,0,0,0]","door_history":"[1,1,1,1,1]","location_rts":"[738,316,489,344,522]","trial_type":"two-door-navigation","trial_index":47,"time_elapsed":992349,"internal_node_id":"0.0-2.0-45.0"},{"group":"square cycles (cube, non-group)","room_assignment":["green","purple","pink","brown","red","grey","yellow","blue"],"door_color_assignment":["white","black"],"door_generator_assignment":[1,0],"goal":6,"start":7,"action_noise":0.1,"location_history":"[7,3,2,6]","action_history":"[1,1,1]","door_history":"[0,0,0]","location_rts":"[3027,431,540]","trial_type":"two-door-navigation","trial_index":48,"time_elapsed":1002963,"internal_node_id":"0.0-2.0-46.0"},{"group":"square cycles (cube, non-group)","room_assignment":["green","purple","pink","brown","red","grey","yellow","blue"],"door_color_assignment":["white","black"],"door_generator_assignment":[1,0],"goal":3,"start":6,"action_noise":0.1,"location_history":"[6,7,3]","action_history":"[1,1]","door_history":"[0,0]","location_rts":"[1378,320]","trial_type":"two-door-navigation","trial_index":49,"time_elapsed":1010227,"internal_node_id":"0.0-2.0-47.0"},{"group":"square cycles (cube, non-group)","room_assignment":["green","purple","pink","brown","red","grey","yellow","blue"],"door_color_assignment":["white","black"],"door_generator_assignment":[1,0],"goal":0,"start":3,"action_noise":0.1,"location_history":"[3,0]","action_history":"[0]","door_history":"[1]","location_rts":"[1516]","trial_type":"two-door-navigation","trial_index":50,"time_elapsed":1016280,"internal_node_id":"0.0-2.0-48.0"},{"group":"square cycles (cube, non-group)","room_assignment":["green","purple","pink","brown","red","grey","yellow","blue"],"door_color_assignment":["white","black"],"door_generator_assignment":[1,0],"goal":2,"start":0,"action_noise":0.1,"location_history":"[0,1,2]","action_history":"[0,0]","door_history":"[1,1]","location_rts":"[1178,231]","trial_type":"two-door-navigation","trial_index":51,"time_elapsed":1023263,"internal_node_id":"0.0-2.0-49.0"},{"view_history":"[{\"page_index\":0,\"viewing_time\":19812}]","rt":19813,"trial_type":"instructions","trial_index":52,"time_elapsed":1044078,"internal_node_id":"0.0-3.0"},{"view_history":"[{\"page_index\":0,\"viewing_time\":3028},{\"page_index\":1,\"viewing_time\":54751}]","rt":57780,"trial_type":"instructions","trial_index":53,"time_elapsed":1102861,"internal_node_id":"0.0-4.0"},{"group":"tri cycles (cube, non-group)","fractal_assignment":["../images/ylw_pnk.png","../images/blu_wht.png","../images/ylw_slt.png","../images/org_blu.png","../images/gry_blk.png","../images/grn_red.png","../images/cyn_red.png","../images/pnk_blu.png"],"mutagen_generator_assignment":[0,1],"goal":3,"start":0,"action_noise":0.1,"location_history":"[0,2,6,5,2,1,0,3]","action_history":"[0,1,1,0,0,0,1]","mutagen_history":"[0,1,1,0,0,0,1]","location_rts":"[3498,16,4656,1210,1049,503,619]","trial_type":"fractal-mutation","trial_index":54,"time_elapsed":1125325,"internal_node_id":"0.0-5.0-0.0"},{"group":"tri cycles (cube, non-group)","fractal_assignment":["../images/ylw_pnk.png","../images/blu_wht.png","../images/ylw_slt.png","../images/org_blu.png","../images/gry_blk.png","../images/grn_red.png","../images/cyn_red.png","../images/pnk_blu.png"],"mutagen_generator_assignment":[0,1],"goal":1,"start":3,"action_noise":0.1,"location_history":"[3,7,6,4,7,6,5,2,1]","action_history":"[0,0,0,0,0,0,1,0]","mutagen_history":"[0,0,0,0,0,0,1,0]","location_rts":"[1433,34,446,86,695,42,1730,841]","trial_type":"fractal-mutation","trial_index":55,"time_elapsed":1142630,"internal_node_id":"0.0-5.0-1.0"},{"group":"tri cycles (cube, non-group)","fractal_assignment":["../images/ylw_pnk.png","../images/blu_wht.png","../images/ylw_slt.png","../images/org_blu.png","../images/gry_blk.png","../images/grn_red.png","../images/cyn_red.png","../images/pnk_blu.png"],"mutagen_generator_assignment":[0,1],"goal":2,"start":1,"action_noise":0.1,"location_history":"[1,5,1,0,3,4,7,6,4,0,2]","action_history":"[0,0,0,1,1,0,0,0,1,0]","mutagen_history":"[0,0,0,1,1,0,0,0,1,0]","location_rts":"[13932,441,74,1107,160,134,235,686,1688,1069]","trial_type":"fractal-mutation","trial_index":56,"time_elapsed":1176170,"internal_node_id":"0.0-5.0-2.0"},{"group":"tri cycles (cube, non-group)","fractal_assignment":["../images/ylw_pnk.png","../images/blu_wht.png","../images/ylw_slt.png","../images/org_blu.png","../images/gry_blk.png","../images/grn_red.png","../images/cyn_red.png","../images/pnk_blu.png"],"mutagen_generator_assignment":[0,1],"goal":6,"start":2,"action_noise":0.1,"location_history":"[2,1,0,3,4,7,6]","action_history":"[0,0,1,1,0,0]","mutagen_history":"[0,0,1,1,0,0]","location_rts":"[1167,84,7088,127,353,61]","trial_type":"fractal-mutation","trial_index":57,"time_elapsed":1194878,"internal_node_id":"0.0-5.0-3.0"},{"group":"tri cycles (cube, non-group)","fractal_assignment":["../images/ylw_pnk.png","../images/blu_wht.png","../images/ylw_slt.png","../images/org_blu.png","../images/gry_blk.png","../images/grn_red.png","../images/cyn_red.png","../images/pnk_blu.png"],"mutagen_generator_assignment":[0,1],"goal":5,"start":6,"action_noise":0.1,"location_history":"[6,4,0,2,1,0,2,6,5]","action_history":"[0,0,1,0,0,0,1,1]","mutagen_history":"[0,0,1,0,0,0,1,1]","location_rts":"[955,697,12,770,755,1190,960,778]","trial_type":"fractal-mutation","trial_index":58,"time_elapsed":1212886,"internal_node_id":"0.0-5.0-4.0"},{"group":"tri cycles (cube, non-group)","fractal_assignment":["../images/ylw_pnk.png","../images/blu_wht.png","../images/ylw_slt.png","../images/org_blu.png","../images/gry_blk.png","../images/grn_red.png","../images/cyn_red.png","../images/pnk_blu.png"],"mutagen_generator_assignment":[0,1],"goal":4,"start":5,"action_noise":0.1,"location_history":"[5,1,5,1,0,2,6,4]","action_history":"[0,1,0,0,0,0,0]","mutagen_history":"[0,1,0,0,0,0,0]","location_rts":"[568,689,458,714,516,765,412]","trial_type":"fractal-mutation","trial_index":59,"time_elapsed":1227799,"internal_node_id":"0.0-5.0-5.0"},{"group":"tri cycles (cube, non-group)","fractal_assignment":["../images/ylw_pnk.png","../images/blu_wht.png","../images/ylw_slt.png","../images/org_blu.png","../images/gry_blk.png","../images/grn_red.png","../images/cyn_red.png","../images/pnk_blu.png"],"mutagen_generator_assignment":[0,1],"goal":7,"start":4,"action_noise":0.1,"location_history":"[4,0,3,4,7]","action_history":"[1,1,0,0]","mutagen_history":"[1,1,0,0]","location_rts":"[917,943,60,415]","trial_type":"fractal-mutation","trial_index":60,"time_elapsed":1237826,"internal_node_id":"0.0-5.0-6.0"},{"group":"tri cycles (cube, non-group)","fractal_assignment":["../images/ylw_pnk.png","../images/blu_wht.png","../images/ylw_slt.png","../images/org_blu.png","../images/gry_blk.png","../images/grn_red.png","../images/cyn_red.png","../images/pnk_blu.png"],"mutagen_generator_assignment":[0,1],"goal":4,"start":7,"action_noise":0.1,"location_history":"[7,3,4]","action_history":"[1,1]","mutagen_history":"[1,1]","location_rts":"[675,709]","trial_type":"fractal-mutation","trial_index":61,"time_elapsed":1244832,"internal_node_id":"0.0-5.0-7.0"},{"group":"tri cycles (cube, non-group)","fractal_assignment":["../images/ylw_pnk.png","../images/blu_wht.png","../images/ylw_slt.png","../images/org_blu.png","../images/gry_blk.png","../images/grn_red.png","../images/cyn_red.png","../images/pnk_blu.png"],"mutagen_generator_assignment":[0,1],"goal":6,"start":4,"action_noise":0.1,"location_history":"[4,0,2,6]","action_history":"[1,0,0]","mutagen_history":"[1,0,0]","location_rts":"[1023,13,143]","trial_type":"fractal-mutation","trial_index":62,"time_elapsed":1252650,"internal_node_id":"0.0-5.0-8.0"},{"group":"tri cycles (cube, non-group)","fractal_assignment":["../images/ylw_pnk.png","../images/blu_wht.png","../images/ylw_slt.png","../images/org_blu.png","../images/gry_blk.png","../images/grn_red.png","../images/cyn_red.png","../images/pnk_blu.png"],"mutagen_generator_assignment":[0,1],"goal":0,"start":6,"action_noise":0.1,"location_history":"[6,4,7,6,4,0]","action_history":"[0,1,0,0,0]","mutagen_history":"[0,1,0,0,0]","location_rts":"[566,1689,484,479,447]","trial_type":"fractal-mutation","trial_index":63,"time_elapsed":1265053,"internal_node_id":"0.0-5.0-9.0"},{"group":"tri cycles (cube, non-group)","fractal_assignment":["../images/ylw_pnk.png","../images/blu_wht.png","../images/ylw_slt.png","../images/org_blu.png","../images/gry_blk.png","../images/grn_red.png","../images/cyn_red.png","../images/pnk_blu.png"],"mutagen_generator_assignment":[0,1],"goal":1,"start":0,"action_noise":0.1,"location_history":"[0,3,7,6,4,7,6,4,0,3,4,7,6,5,1]","action_history":"[1,0,0,0,0,0,0,0,1,1,0,0,0,0]","mutagen_history":"[1,0,0,0,0,0,0,0,1,1,0,0,0,0]","location_rts":"[676,783,360,350,378,507,628,1012,427,418,486,578,748,756]","trial_type":"fractal-mutation","trial_index":64,"time_elapsed":1291289,"internal_node_id":"0.0-5.0-10.0"},{"group":"tri cycles (cube, non-group)","fractal_assignment":["../images/ylw_pnk.png","../images/blu_wht.png","../images/ylw_slt.png","../images/org_blu.png","../images/gry_blk.png","../images/grn_red.png","../images/cyn_red.png","../images/pnk_blu.png"],"mutagen_generator_assignment":[0,1],"goal":3,"start":1,"action_noise":0.1,"location_history":"[1,5,2,6,5,1,0,2,1,0,3]","action_history":"[0,0,1,1,1,0,0,1,1,1]","mutagen_history":"[0,0,1,1,1,0,0,1,1,1]","location_rts":"[957,605,67,686,846,760,578,1161,918,647]","trial_type":"fractal-mutation","trial_index":65,"time_elapsed":1312529,"internal_node_id":"0.0-5.0-11.0"},{"group":"tri cycles (cube, non-group)","fractal_assignment":["../images/ylw_pnk.png","../images/blu_wht.png","../images/ylw_slt.png","../images/org_blu.png","../images/gry_blk.png","../images/grn_red.png","../images/cyn_red.png","../images/pnk_blu.png"],"mutagen_generator_assignment":[0,1],"goal":7,"start":3,"action_noise":0.1,"location_history":"[3,4,7]","action_history":"[1,0]","mutagen_history":"[1,0]","location_rts":"[418,435]","trial_type":"fractal-mutation","trial_index":66,"time_elapsed":1318996,"internal_node_id":"0.0-5.0-12.0"},{"group":"tri cycles (cube, non-group)","fractal_assignment":["../images/ylw_pnk.png","../images/blu_wht.png","../images/ylw_slt.png","../images/org_blu.png","../images/gry_blk.png","../images/grn_red.png","../images/cyn_red.png","../images/pnk_blu.png"],"mutagen_generator_assignment":[0,1],"goal":5,"start":7,"action_noise":0.1,"location_history":"[7,3,7,6,5]","action_history":"[1,0,0,1]","mutagen_history":"[1,0,0,1]","location_rts":"[1211,820,797,900]","trial_type":"fractal-mutation","trial_index":67,"time_elapsed":1330442,"internal_node_id":"0.0-5.0-13.0"},{"group":"tri cycles (cube, non-group)","fractal_assignment":["../images/ylw_pnk.png","../images/blu_wht.png","../images/ylw_slt.png","../images/org_blu.png","../images/gry_blk.png","../images/grn_red.png","../images/cyn_red.png","../images/pnk_blu.png"],"mutagen_generator_assignment":[0,1],"goal":2,"start":5,"action_noise":0.1,"location_history":"[5,1,5,2]","action_history":"[1,1,1]","mutagen_history":"[1,1,1]","location_rts":"[1038,605,693]","trial_type":"fractal-mutation","trial_index":68,"time_elapsed":1339452,"internal_node_id":"0.0-5.0-14.0"},{"group":"tri cycles (cube, non-group)","fractal_assignment":["../images/ylw_pnk.png","../images/blu_wht.png","../images/ylw_slt.png","../images/org_blu.png","../images/gry_blk.png","../images/grn_red.png","../images/cyn_red.png","../images/pnk_blu.png"],"mutagen_generator_assignment":[0,1],"goal":7,"start":2,"action_noise":0.1,"location_history":"[2,6,4,7]","action_history":"[1,0,0]","mutagen_history":"[1,0,0]","location_rts":"[944,357,1056]","trial_type":"fractal-mutation","trial_index":69,"time_elapsed":1348465,"internal_node_id":"0.0-5.0-15.0"},{"group":"tri cycles (cube, non-group)","fractal_assignment":["../images/ylw_pnk.png","../images/blu_wht.png","../images/ylw_slt.png","../images/org_blu.png","../images/gry_blk.png","../images/grn_red.png","../images/cyn_red.png","../images/pnk_blu.png"],"mutagen_generator_assignment":[0,1],"goal":4,"start":7,"action_noise":0.1,"location_history":"[7,6,4]","action_history":"[0,0]","mutagen_history":"[0,0]","location_rts":"[979,1278]","trial_type":"fractal-mutation","trial_index":70,"time_elapsed":1356334,"internal_node_id":"0.0-5.0-16.0"},{"group":"tri cycles (cube, non-group)","fractal_assignment":["../images/ylw_pnk.png","../images/blu_wht.png","../images/ylw_slt.png","../images/org_blu.png","../images/gry_blk.png","../images/grn_red.png","../images/cyn_red.png","../images/pnk_blu.png"],"mutagen_generator_assignment":[0,1],"goal":2,"start":4,"action_noise":0.1,"location_history":"[4,0,2]","action_history":"[1,1]","mutagen_history":"[1,1]","location_rts":"[804,628]","trial_type":"fractal-mutation","trial_index":71,"time_elapsed":1363406,"internal_node_id":"0.0-5.0-17.0"},{"group":"tri cycles (cube, non-group)","fractal_assignment":["../images/ylw_pnk.png","../images/blu_wht.png","../images/ylw_slt.png","../images/org_blu.png","../images/gry_blk.png","../images/grn_red.png","../images/cyn_red.png","../images/pnk_blu.png"],"mutagen_generator_assignment":[0,1],"goal":3,"start":2,"action_noise":0.1,"location_history":"[2,6,4,7,6,4,7,3]","action_history":"[1,0,0,0,0,0,1]","mutagen_history":"[1,0,0,0,0,0,1]","location_rts":"[906,491,537,888,545,526,995]","trial_type":"fractal-mutation","trial_index":72,"time_elapsed":1379134,"internal_node_id":"0.0-5.0-18.0"},{"group":"tri cycles (cube, non-group)","fractal_assignment":["../images/ylw_pnk.png","../images/blu_wht.png","../images/ylw_slt.png","../images/org_blu.png","../images/gry_blk.png","../images/grn_red.png","../images/cyn_red.png","../images/pnk_blu.png"],"mutagen_generator_assignment":[0,1],"goal":6,"start":3,"action_noise":0.1,"location_history":"[3,4,0,2,1,0,2,6]","action_history":"[1,1,0,0,0,0,1]","mutagen_history":"[1,1,0,0,0,0,1]","location_rts":"[755,566,780,502,503,982,927]","trial_type":"fractal-mutation","trial_index":73,"time_elapsed":1394996,"internal_node_id":"0.0-5.0-19.0"},{"group":"tri cycles (cube, non-group)","fractal_assignment":["../images/ylw_pnk.png","../images/blu_wht.png","../images/ylw_slt.png","../images/org_blu.png","../images/gry_blk.png","../images/grn_red.png","../images/cyn_red.png","../images/pnk_blu.png"],"mutagen_generator_assignment":[0,1],"goal":5,"start":6,"action_noise":0.1,"location_history":"[6,5]","action_history":"[1]","mutagen_history":"[1]","location_rts":"[784]","trial_type":"fractal-mutation","trial_index":74,"time_elapsed":1400344,"internal_node_id":"0.0-5.0-20.0"},{"group":"tri cycles (cube, non-group)","fractal_assignment":["../images/ylw_pnk.png","../images/blu_wht.png","../images/ylw_slt.png","../images/org_blu.png","../images/gry_blk.png","../images/grn_red.png","../images/cyn_red.png","../images/pnk_blu.png"],"mutagen_generator_assignment":[0,1],"goal":1,"start":5,"action_noise":0.1,"location_history":"[5,2,1]","action_history":"[1,0]","mutagen_history":"[1,0]","location_rts":"[838,360]","trial_type":"fractal-mutation","trial_index":75,"time_elapsed":1407147,"internal_node_id":"0.0-5.0-21.0"},{"group":"tri cycles (cube, non-group)","fractal_assignment":["../images/ylw_pnk.png","../images/blu_wht.png","../images/ylw_slt.png","../images/org_blu.png","../images/gry_blk.png","../images/grn_red.png","../images/cyn_red.png","../images/pnk_blu.png"],"mutagen_generator_assignment":[0,1],"goal":0,"start":1,"action_noise":0.1,"location_history":"[1,5,2,6,4,7,3,7,6,4,7,3,4,7,6,4,0]","action_history":"[0,1,1,0,0,0,0,0,0,0,1,1,0,0,1,1]","mutagen_history":"[0,1,1,0,0,0,0,0,0,0,1,1,0,0,1,1]","location_rts":"[789,836,503,627,15,436,572,457,586,553,392,568,370,588,544,548]","trial_type":"fractal-mutation","trial_index":76,"time_elapsed":1435813,"internal_node_id":"0.0-5.0-22.0"},{"group":"tri cycles (cube, non-group)","fractal_assignment":["../images/ylw_pnk.png","../images/blu_wht.png","../images/ylw_slt.png","../images/org_blu.png","../images/gry_blk.png","../images/grn_red.png","../images/cyn_red.png","../images/pnk_blu.png"],"mutagen_generator_assignment":[0,1],"goal":2,"start":0,"action_noise":0.1,"location_history":"[0,2]","action_history":"[1]","mutagen_history":"[1]","location_rts":"[723]","trial_type":"fractal-mutation","trial_index":77,"time_elapsed":1441099,"internal_node_id":"0.0-5.0-23.0"},{"group":"tri cycles (cube, non-group)","fractal_assignment":["../images/ylw_pnk.png","../images/blu_wht.png","../images/ylw_slt.png","../images/org_blu.png","../images/gry_blk.png","../images/grn_red.png","../images/cyn_red.png","../images/pnk_blu.png"],"mutagen_generator_assignment":[0,1],"goal":6,"start":2,"action_noise":0.1,"location_history":"[2,1,5,1,0,2,6]","action_history":"[0,1,0,0,0,1]","mutagen_history":"[0,1,0,0,0,1]","location_rts":"[1152,409,1520,544,793,26]","trial_type":"fractal-mutation","trial_index":78,"time_elapsed":1455349,"internal_node_id":"0.0-5.0-24.0"},{"group":"tri cycles (cube, non-group)","fractal_assignment":["../images/ylw_pnk.png","../images/blu_wht.png","../images/ylw_slt.png","../images/org_blu.png","../images/gry_blk.png","../images/grn_red.png","../images/cyn_red.png","../images/pnk_blu.png"],"mutagen_generator_assignment":[0,1],"goal":1,"start":6,"action_noise":0.1,"location_history":"[6,4,0,2,6,4,7,6,4,0,3,7,6,4,7,3,4,0,2,1]","action_history":"[1,0,0,0,0,0,0,0,1,1,1,0,0,0,1,1,1,0,0]","mutagen_history":"[1,0,0,0,0,0,0,0,1,1,1,0,0,0,1,1,1,0,0]","location_rts":"[909,426,393,422,614,474,706,714,458,441,512,1031,745,1107,454,594,1101,560,665]","trial_type":"fractal-mutation","trial_index":79,"time_elapsed":1491058,"internal_node_id":"0.0-5.0-25.0"},{"group":"tri cycles (cube, non-group)","fractal_assignment":["../images/ylw_pnk.png","../images/blu_wht.png","../images/ylw_slt.png","../images/org_blu.png","../images/gry_blk.png","../images/grn_red.png","../images/cyn_red.png","../images/pnk_blu.png"],"mutagen_generator_assignment":[0,1],"goal":3,"start":1,"action_noise":0.1,"location_history":"[1,0,2,1,0,2,6,5,2,6,5,2,1,0,2,1,0,3]","action_history":"[0,0,0,0,0,1,1,1,1,1,1,0,0,0,0,0,1]","mutagen_history":"[0,0,0,0,0,1,1,1,1,1,1,0,0,0,0,0,1]","location_rts":"[727,524,573,527,623,509,445,526,470,823,1256,333,410,549,502,444,1340]","trial_type":"fractal-mutation","trial_index":80,"time_elapsed":1522996,"internal_node_id":"0.0-5.0-26.0"},{"group":"tri cycles (cube, non-group)","fractal_assignment":["../images/ylw_pnk.png","../images/blu_wht.png","../images/ylw_slt.png","../images/org_blu.png","../images/gry_blk.png","../images/grn_red.png","../images/cyn_red.png","../images/pnk_blu.png"],"mutagen_generator_assignment":[0,1],"goal":7,"start":3,"action_noise":0.1,"location_history":"[3,4,7]","action_history":"[1,0]","mutagen_history":"[1,0]","location_rts":"[11155,579]","trial_type":"fractal-mutation","trial_index":81,"time_elapsed":1540378,"internal_node_id":"0.0-5.0-27.0"},{"group":"tri cycles (cube, non-group)","fractal_assignment":["../images/ylw_pnk.png","../images/blu_wht.png","../images/ylw_slt.png","../images/org_blu.png","../images/gry_blk.png","../images/grn_red.png","../images/cyn_red.png","../images/pnk_blu.png"],"mutagen_generator_assignment":[0,1],"goal":4,"start":7,"action_noise":0.1,"location_history":"[7,3,4]","action_history":"[1,1]","mutagen_history":"[1,1]","location_rts":"[468,135]","trial_type":"fractal-mutation","trial_index":82,"time_elapsed":1546646,"internal_node_id":"0.0-5.0-28.0"},{"group":"tri cycles (cube, non-group)","fractal_assignment":["../images/ylw_pnk.png","../images/blu_wht.png","../images/ylw_slt.png","../images/org_blu.png","../images/gry_blk.png","../images/grn_red.png","../images/cyn_red.png","../images/pnk_blu.png"],"mutagen_generator_assignment":[0,1],"goal":0,"start":4,"action_noise":0.1,"location_history":"[4,0]","action_history":"[1]","mutagen_history":"[1]","location_rts":"[436]","trial_type":"fractal-mutation","trial_index":83,"time_elapsed":1551654,"internal_node_id":"0.0-5.0-29.0"},{"group":"tri cycles (cube, non-group)","fractal_assignment":["../images/ylw_pnk.png","../images/blu_wht.png","../images/ylw_slt.png","../images/org_blu.png","../images/gry_blk.png","../images/grn_red.png","../images/cyn_red.png","../images/pnk_blu.png"],"mutagen_generator_assignment":[0,1],"goal":5,"start":0,"action_noise":0.1,"location_history":"[0,3,7,6,4,7,3,7,6,5]","action_history":"[1,0,0,0,0,1,0,0,1]","mutagen_history":"[1,0,0,0,0,1,0,0,1]","location_rts":"[1788,652,1208,547,920,712,689,865,527]","trial_type":"fractal-mutation","trial_index":84,"time_elapsed":1572508,"internal_node_id":"0.0-5.0-30.0"},{"group":"tri cycles (cube, non-group)","fractal_assignment":["../images/ylw_pnk.png","../images/blu_wht.png","../images/ylw_slt.png","../images/org_blu.png","../images/gry_blk.png","../images/grn_red.png","../images/cyn_red.png","../images/pnk_blu.png"],"mutagen_generator_assignment":[0,1],"goal":3,"start":5,"action_noise":0.1,"location_history":"[5,2,1,0,3]","action_history":"[1,0,0,1]","mutagen_history":"[1,0,0,1]","location_rts":"[1684,485,514,1096]","trial_type":"fractal-mutation","trial_index":85,"time_elapsed":1583990,"internal_node_id":"0.0-5.0-31.0"},{"group":"tri cycles (cube, non-group)","fractal_assignment":["../images/ylw_pnk.png","../images/blu_wht.png","../images/ylw_slt.png","../images/org_blu.png","../images/gry_blk.png","../images/grn_red.png","../images/cyn_red.png","../images/pnk_blu.png"],"mutagen_generator_assignment":[0,1],"goal":2,"start":3,"action_noise":0.1,"location_history":"[3,4,7,6,5,1,0,3,7,3,4,7,3,4,0,2]","action_history":"[1,0,0,0,0,0,1,0,1,1,0,1,1,1,1]","mutagen_history":"[1,0,0,0,0,0,1,0,1,1,0,1,1,1,1]","location_rts":"[374,380,504,514,582,903,383,439,658,485,896,532,357,454,417]","trial_type":"fractal-mutation","trial_index":86,"time_elapsed":1611118,"internal_node_id":"0.0-5.0-32.0"},{"group":"tri cycles (cube, non-group)","fractal_assignment":["../images/ylw_pnk.png","../images/blu_wht.png","../images/ylw_slt.png","../images/org_blu.png","../images/gry_blk.png","../images/grn_red.png","../images/cyn_red.png","../images/pnk_blu.png"],"mutagen_generator_assignment":[0,1],"goal":6,"start":2,"action_noise":0.1,"location_history":"[2,6]","action_history":"[1]","mutagen_history":"[1]","location_rts":"[1575]","trial_type":"fractal-mutation","trial_index":87,"time_elapsed":1617262,"internal_node_id":"0.0-5.0-33.0"},{"group":"tri cycles (cube, non-group)","fractal_assignment":["../images/ylw_pnk.png","../images/blu_wht.png","../images/ylw_slt.png","../images/org_blu.png","../images/gry_blk.png","../images/grn_red.png","../images/cyn_red.png","../images/pnk_blu.png"],"mutagen_generator_assignment":[0,1],"goal":1,"start":6,"action_noise":0.1,"location_history":"[6,5,2,1]","action_history":"[1,0,0]","mutagen_history":"[1,0,0]","location_rts":"[531,303,285]","trial_type":"fractal-mutation","trial_index":88,"time_elapsed":1625027,"internal_node_id":"0.0-5.0-34.0"},{"group":"tri cycles (cube, non-group)","fractal_assignment":["../images/ylw_pnk.png","../images/blu_wht.png","../images/ylw_slt.png","../images/org_blu.png","../images/gry_blk.png","../images/grn_red.png","../images/cyn_red.png","../images/pnk_blu.png"],"mutagen_generator_assignment":[0,1],"goal":7,"start":1,"action_noise":0.1,"location_history":"[1,5,1,0,2,1,5,2,6,4,7]","action_history":"[1,0,0,0,0,1,1,1,0,0]","mutagen_history":"[1,0,0,0,0,1,1,1,0,0]","location_rts":"[695,425,657,435,878,439,394,608,1012,621]","trial_type":"fractal-mutation","trial_index":89,"time_elapsed":1645167,"internal_node_id":"0.0-5.0-35.0"},{"group":"tri cycles (cube, non-group)","fractal_assignment":["../images/ylw_pnk.png","../images/blu_wht.png","../images/ylw_slt.png","../images/org_blu.png","../images/gry_blk.png","../images/grn_red.png","../images/cyn_red.png","../images/pnk_blu.png"],"mutagen_generator_assignment":[0,1],"goal":4,"start":7,"action_noise":0.1,"location_history":"[7,3,7,6,4]","action_history":"[1,0,0,0]","mutagen_history":"[1,0,0,0]","location_rts":"[535,462,445,470]","trial_type":"fractal-mutation","trial_index":90,"time_elapsed":1654782,"internal_node_id":"0.0-5.0-36.0"},{"group":"tri cycles (cube, non-group)","fractal_assignment":["../images/ylw_pnk.png","../images/blu_wht.png","../images/ylw_slt.png","../images/org_blu.png","../images/gry_blk.png","../images/grn_red.png","../images/cyn_red.png","../images/pnk_blu.png"],"mutagen_generator_assignment":[0,1],"goal":5,"start":4,"action_noise":0.1,"location_history":"[4,7,3,7,6,5]","action_history":"[0,1,1,0,1]","mutagen_history":"[0,1,1,0,1]","location_rts":"[582,157,590,401,908]","trial_type":"fractal-mutation","trial_index":91,"time_elapsed":1666174,"internal_node_id":"0.0-5.0-37.0"},{"group":"tri cycles (cube, non-group)","fractal_assignment":["../images/ylw_pnk.png","../images/blu_wht.png","../images/ylw_slt.png","../images/org_blu.png","../images/gry_blk.png","../images/grn_red.png","../images/cyn_red.png","../images/pnk_blu.png"],"mutagen_generator_assignment":[0,1],"goal":0,"start":5,"action_noise":0.1,"location_history":"[5,2,1,0]","action_history":"[1,0,0]","mutagen_history":"[1,0,0]","location_rts":"[11083,314,5655]","trial_type":"fractal-mutation","trial_index":92,"time_elapsed":1689864,"internal_node_id":"0.0-5.0-38.0"},{"group":"tri cycles (cube, non-group)","fractal_assignment":["../images/ylw_pnk.png","../images/blu_wht.png","../images/ylw_slt.png","../images/org_blu.png","../images/gry_blk.png","../images/grn_red.png","../images/cyn_red.png","../images/pnk_blu.png"],"mutagen_generator_assignment":[0,1],"goal":4,"start":0,"action_noise":0.1,"location_history":"[0,3,7,6,4]","action_history":"[1,1,0,0]","mutagen_history":"[1,1,0,0]","location_rts":"[363,318,334,410]","trial_type":"fractal-mutation","trial_index":93,"time_elapsed":1698991,"internal_node_id":"0.0-5.0-39.0"},{"group":"tri cycles (cube, non-group)","fractal_assignment":["../images/ylw_pnk.png","../images/blu_wht.png","../images/ylw_slt.png","../images/org_blu.png","../images/gry_blk.png","../images/grn_red.png","../images/cyn_red.png","../images/pnk_blu.png"],"mutagen_generator_assignment":[0,1],"goal":0,"start":4,"action_noise":0.1,"location_history":"[4,7,3,7,3,4,0]","action_history":"[0,1,0,1,1,1]","mutagen_history":"[0,1,0,1,1,1]","location_rts":"[643,552,585,409,343,749]","trial_type":"fractal-mutation","trial_index":94,"time_elapsed":1712111,"internal_node_id":"0.0-5.0-40.0"},{"group":"tri cycles (cube, non-group)","fractal_assignment":["../images/ylw_pnk.png","../images/blu_wht.png","../images/ylw_slt.png","../images/org_blu.png","../images/gry_blk.png","../images/grn_red.png","../images/cyn_red.png","../images/pnk_blu.png"],"mutagen_generator_assignment":[0,1],"goal":2,"start":0,"action_noise":0.1,"location_history":"[0,2]","action_history":"[0]","mutagen_history":"[0]","location_rts":"[2017]","trial_type":"fractal-mutation","trial_index":95,"time_elapsed":1718683,"internal_node_id":"0.0-5.0-41.0"},{"group":"tri cycles (cube, non-group)","fractal_assignment":["../images/ylw_pnk.png","../images/blu_wht.png","../images/ylw_slt.png","../images/org_blu.png","../images/gry_blk.png","../images/grn_red.png","../images/cyn_red.png","../images/pnk_blu.png"],"mutagen_generator_assignment":[0,1],"goal":3,"start":2,"action_noise":0.1,"location_history":"[2,1,5,1,5,2,6,4,0,3]","action_history":"[0,1,0,1,1,1,0,1,1]","mutagen_history":"[0,1,0,1,1,1,0,1,1]","location_rts":"[1473,1349,1574,582,775,587,77,554,563]","trial_type":"fractal-mutation","trial_index":96,"time_elapsed":1739198,"internal_node_id":"0.0-5.0-42.0"},{"group":"tri cycles (cube, non-group)","fractal_assignment":["../images/ylw_pnk.png","../images/blu_wht.png","../images/ylw_slt.png","../images/org_blu.png","../images/gry_blk.png","../images/grn_red.png","../images/cyn_red.png","../images/pnk_blu.png"],"mutagen_generator_assignment":[0,1],"goal":5,"start":3,"action_noise":0.1,"location_history":"[3,4,0,3,7,3,4,0,3,7,6,5]","action_history":"[1,1,1,0,1,1,1,1,0,0,1]","mutagen_history":"[1,1,1,0,1,1,1,1,0,0,1]","location_rts":"[445,370,832,1601,534,564,478,680,546,1054,968]","trial_type":"fractal-mutation","trial_index":97,"time_elapsed":1762394,"internal_node_id":"0.0-5.0-43.0"},{"group":"tri cycles (cube, non-group)","fractal_assignment":["../images/ylw_pnk.png","../images/blu_wht.png","../images/ylw_slt.png","../images/org_blu.png","../images/gry_blk.png","../images/grn_red.png","../images/cyn_red.png","../images/pnk_blu.png"],"mutagen_generator_assignment":[0,1],"goal":1,"start":5,"action_noise":0.1,"location_history":"[5,1]","action_history":"[0]","mutagen_history":"[0]","location_rts":"[750]","trial_type":"fractal-mutation","trial_index":98,"time_elapsed":1767690,"internal_node_id":"0.0-5.0-44.0"},{"group":"tri cycles (cube, non-group)","fractal_assignment":["../images/ylw_pnk.png","../images/blu_wht.png","../images/ylw_slt.png","../images/org_blu.png","../images/gry_blk.png","../images/grn_red.png","../images/cyn_red.png","../images/pnk_blu.png"],"mutagen_generator_assignment":[0,1],"goal":7,"start":1,"action_noise":0.1,"location_history":"[1,0,3,4,0,3,7]","action_history":"[0,1,1,1,1,0]","mutagen_history":"[0,1,1,1,1,0]","location_rts":"[1581,140,464,427,1422,2362]","trial_type":"fractal-mutation","trial_index":99,"time_elapsed":1783913,"internal_node_id":"0.0-5.0-45.0"},{"group":"tri cycles (cube, non-group)","fractal_assignment":["../images/ylw_pnk.png","../images/blu_wht.png","../images/ylw_slt.png","../images/org_blu.png","../images/gry_blk.png","../images/grn_red.png","../images/cyn_red.png","../images/pnk_blu.png"],"mutagen_generator_assignment":[0,1],"goal":6,"start":7,"action_noise":0.1,"location_history":"[7,6]","action_history":"[0]","mutagen_history":"[0]","location_rts":"[407]","trial_type":"fractal-mutation","trial_index":100,"time_elapsed":1788866,"internal_node_id":"0.0-5.0-46.0"},{"group":"tri cycles (cube, non-group)","fractal_assignment":["../images/ylw_pnk.png","../images/blu_wht.png","../images/ylw_slt.png","../images/org_blu.png","../images/gry_blk.png","../images/grn_red.png","../images/cyn_red.png","../images/pnk_blu.png"],"mutagen_generator_assignment":[0,1],"goal":3,"start":6,"action_noise":0.1,"location_history":"[6,5,1,5,1,0,2,6,5,2,1,0,3]","action_history":"[0,0,1,1,0,0,1,1,1,0,0,1]","mutagen_history":"[0,0,1,1,0,0,1,1,1,0,0,1]","location_rts":"[490,1176,488,1066,424,56,1144,1199,883,662,601,1272]","trial_type":"fractal-mutation","trial_index":101,"time_elapsed":1814463,"internal_node_id":"0.0-5.0-47.0"},{"group":"tri cycles (cube, non-group)","fractal_assignment":["../images/ylw_pnk.png","../images/blu_wht.png","../images/ylw_slt.png","../images/org_blu.png","../images/gry_blk.png","../images/grn_red.png","../images/cyn_red.png","../images/pnk_blu.png"],"mutagen_generator_assignment":[0,1],"goal":0,"start":3,"action_noise":0.1,"location_history":"[3,4,7,6,4,0]","action_history":"[1,0,0,0,1]","mutagen_history":"[1,0,0,0,1]","location_rts":"[420,808,589,1487,451]","trial_type":"fractal-mutation","trial_index":102,"time_elapsed":1826968,"internal_node_id":"0.0-5.0-48.0"},{"group":"tri cycles (cube, non-group)","fractal_assignment":["../images/ylw_pnk.png","../images/blu_wht.png","../images/ylw_slt.png","../images/org_blu.png","../images/gry_blk.png","../images/grn_red.png","../images/cyn_red.png","../images/pnk_blu.png"],"mutagen_generator_assignment":[0,1],"goal":2,"start":0,"action_noise":0.1,"location_history":"[0,2]","action_history":"[0]","mutagen_history":"[0]","location_rts":"[378]","trial_type":"fractal-mutation","trial_index":103,"time_elapsed":1831888,"internal_node_id":"0.0-5.0-49.0"},{"view_history":"[{\"page_index\":0,\"viewing_time\":9911}]","rt":9912,"trial_type":"instructions","trial_index":104,"time_elapsed":1842800,"internal_node_id":"0.0-6.0"},{"rt":4790,"responses":"{\"Q0\":\"No.\"}","trial_type":"survey-text","trial_index":105,"time_elapsed":1848600,"internal_node_id":"0.0-7.0"}]