[{"view_history":"[{\"page_index\":0,\"viewing_time\":18033},{\"page_index\":1,\"viewing_time\":12487},{\"page_index\":2,\"viewing_time\":20041},{\"page_index\":3,\"viewing_time\":20284}]","rt":70845,"trial_type":"instructions","trial_index":0,"time_elapsed":70845,"internal_node_id":"0.0-0.0"},{"view_history":"[{\"page_index\":0,\"viewing_time\":6268},{\"page_index\":1,\"viewing_time\":38650}]","rt":44919,"trial_type":"instructions","trial_index":1,"time_elapsed":116767,"internal_node_id":"0.0-1.0"},{"group":"tri cycles (cube, non-group)","room_assignment":["grey","yellow","pink","brown","blue","red","purple","green"],"door_color_assignment":["black","white"],"door_generator_assignment":[1,0],"goal":3,"start":0,"action_noise":0.1,"location_history":"[0,2,1,0,2,6,5,2,6,5,2,6,5,2,1,0,2,1,5,2,1,5,1,5,2,1,5,2,1,0,3]","action_history":"[0,0,0,0,1,1,1,1,1,1,1,0,0,0,0,0,0,1,1,0,1,0,1,1,0,1,0,0,0,1]","door_history":"[1,1,1,1,0,0,0,0,0,0,0,1,1,1,1,1,1,0,0,1,0,1,0,0,1,0,1,1,1,0]","location_rts":"[5949,4736,1138,975,1549,893,999,758,731,743,719,1066,928,748,862,845,583,840,847,1055,854,810,872,1737,950,696,856,778,1264,1247]","trial_type":"two-door-navigation","trial_index":2,"time_elapsed":188067,"internal_node_id":"0.0-2.0-0.0"},{"group":"tri cycles (cube, non-group)","room_assignment":["grey","yellow","pink","brown","blue","red","purple","green"],"door_color_assignment":["black","white"],"door_generator_assignment":[1,0],"goal":1,"start":3,"action_noise":0.1,"location_history":"[3,7,6,5,2,1]","action_history":"[0,0,1,1,0]","door_history":"[1,1,0,0,1]","location_rts":"[4821,999,867,1642,872]","trial_type":"two-door-navigation","trial_index":3,"time_elapsed":205898,"internal_node_id":"0.0-2.0-1.0"},{"group":"tri cycles (cube, non-group)","room_assignment":["grey","yellow","pink","brown","blue","red","purple","green"],"door_color_assignment":["black","white"],"door_generator_assignment":[1,0],"goal":2,"start":1,"action_noise":0.1,"location_history":"[1,0,3,7,3,4,7,3,7,3,4,7,3,4,7,3,7,6,5,1,0,2]","action_history":"[0,1,0,1,1,0,0,0,1,1,0,0,1,0,1,0,1,1,1,0,0]","door_history":"[1,0,1,0,0,1,1,1,0,0,1,1,0,1,0,1,0,0,0,1,1]","location_rts":"[2818,1221,1490,1112,1216,755,758,1609,1028,1005,813,752,878,660,695,752,712,1254,829,832,836]","trial_type":"two-door-navigation","trial_index":4,"time_elapsed":252969,"internal_node_id":"0.0-2.0-2.0"},{"group":"tri cycles (cube, non-group)","room_assignment":["grey","yellow","pink","brown","blue","red","purple","green"],"door_color_assignment":["black","white"],"door_generator_assignment":[1,0],"goal":6,"start":2,"action_noise":0.1,"location_history":"[2,6]","action_history":"[1]","door_history":"[0]","location_rts":"[2297]","trial_type":"two-door-navigation","trial_index":5,"time_elapsed":259795,"internal_node_id":"0.0-2.0-3.0"},{"group":"tri cycles (cube, non-group)","room_assignment":["grey","yellow","pink","brown","blue","red","purple","green"],"door_color_assignment":["black","white"],"door_generator_assignment":[1,0],"goal":5,"start":6,"action_noise":0.1,"location_history":"[6,4,0,3,7,3,4,7,6,5]","action_history":"[0,1,0,0,1,1,0,0,0]","door_history":"[1,0,1,1,0,0,1,1,1]","location_rts":"[2533,1510,955,674,744,735,791,694,884]","trial_type":"two-door-navigation","trial_index":6,"time_elapsed":282047,"internal_node_id":"0.0-2.0-4.0"},{"group":"tri cycles (cube, non-group)","room_assignment":["grey","yellow","pink","brown","blue","red","purple","green"],"door_color_assignment":["black","white"],"door_generator_assignment":[1,0],"goal":4,"start":5,"action_noise":0.1,"location_history":"[5,1,5,2,6,5,1,0,2,6,5,2,6,4]","action_history":"[0,1,1,1,1,0,0,0,1,1,0,1,0]","door_history":"[1,0,0,0,0,1,1,1,0,0,1,0,1]","location_rts":"[2678,1225,1856,587,616,1019,625,676,641,608,470,696,680]","trial_type":"two-door-navigation","trial_index":7,"time_elapsed":311245,"internal_node_id":"0.0-2.0-5.0"},{"group":"tri cycles (cube, non-group)","room_assignment":["grey","yellow","pink","brown","blue","red","purple","green"],"door_color_assignment":["black","white"],"door_generator_assignment":[1,0],"goal":7,"start":4,"action_noise":0.1,"location_history":"[4,7]","action_history":"[0]","door_history":"[1]","location_rts":"[2287]","trial_type":"two-door-navigation","trial_index":8,"time_elapsed":318059,"internal_node_id":"0.0-2.0-6.0"},{"group":"tri cycles (cube, non-group)","room_assignment":["grey","yellow","pink","brown","blue","red","purple","green"],"door_color_assignment":["black","white"],"door_generator_assignment":[1,0],"goal":4,"start":7,"action_noise":0.1,"location_history":"[7,3,7,3,7,6,4]","action_history":"[1,0,1,0,1,0]","door_history":"[0,1,0,1,0,1]","location_rts":"[2032,678,776,679,815,763]","trial_type":"two-door-navigation","trial_index":9,"time_elapsed":333455,"internal_node_id":"0.0-2.0-7.0"},{"group":"tri cycles (cube, non-group)","room_assignment":["grey","yellow","pink","brown","blue","red","purple","green"],"door_color_assignment":["black","white"],"door_generator_assignment":[1,0],"goal":6,"start":4,"action_noise":0.1,"location_history":"[4,0,2,6]","action_history":"[1,0,1]","door_history":"[0,1,0]","location_rts":"[2224,1214,581]","trial_type":"two-door-navigation","trial_index":10,"time_elapsed":344054,"internal_node_id":"0.0-2.0-8.0"},{"group":"tri cycles (cube, non-group)","room_assignment":["grey","yellow","pink","brown","blue","red","purple","green"],"door_color_assignment":["black","white"],"door_generator_assignment":[1,0],"goal":0,"start":6,"action_noise":0.1,"location_history":"[6,5,2,1,5,1,5,2,1,0]","action_history":"[0,1,0,1,0,1,1,0,0]","door_history":"[1,0,1,0,1,0,0,1,1]","location_rts":"[2316,795,1107,631,685,601,480,628,583]","trial_type":"two-door-navigation","trial_index":11,"time_elapsed":364564,"internal_node_id":"0.0-2.0-9.0"},{"group":"tri cycles (cube, non-group)","room_assignment":["grey","yellow","pink","brown","blue","red","purple","green"],"door_color_assignment":["black","white"],"door_generator_assignment":[1,0],"goal":1,"start":0,"action_noise":0.1,"location_history":"[0,2,1]","action_history":"[0,0]","door_history":"[1,1]","location_rts":"[2016,598]","trial_type":"two-door-navigation","trial_index":12,"time_elapsed":372724,"internal_node_id":"0.0-2.0-10.0"},{"group":"tri cycles (cube, non-group)","room_assignment":["grey","yellow","pink","brown","blue","red","purple","green"],"door_color_assignment":["black","white"],"door_generator_assignment":[1,0],"goal":3,"start":1,"action_noise":0.1,"location_history":"[1,5,2,1,5,2,6,5,1,0,2,1,0,3]","action_history":"[1,1,0,0,1,1,1,0,0,0,0,0,1]","door_history":"[0,0,1,1,0,0,0,1,1,1,1,1,0]","location_rts":"[1735,689,719,444,634,418,426,466,398,417,370,307,470]","trial_type":"two-door-navigation","trial_index":13,"time_elapsed":397026,"internal_node_id":"0.0-2.0-11.0"},{"group":"tri cycles (cube, non-group)","room_assignment":["grey","yellow","pink","brown","blue","red","purple","green"],"door_color_assignment":["black","white"],"door_generator_assignment":[1,0],"goal":7,"start":3,"action_noise":0.1,"location_history":"[3,4,0,3,7]","action_history":"[1,0,1,0]","door_history":"[0,1,0,1]","location_rts":"[2220,714,579,658]","trial_type":"two-door-navigation","trial_index":14,"time_elapsed":408786,"internal_node_id":"0.0-2.0-12.0"},{"group":"tri cycles (cube, non-group)","room_assignment":["grey","yellow","pink","brown","blue","red","purple","green"],"door_color_assignment":["black","white"],"door_generator_assignment":[1,0],"goal":5,"start":7,"action_noise":0.1,"location_history":"[7,6,5]","action_history":"[0,1]","door_history":"[1,0]","location_rts":"[1790,729]","trial_type":"two-door-navigation","trial_index":15,"time_elapsed":416856,"internal_node_id":"0.0-2.0-13.0"},{"group":"tri cycles (cube, non-group)","room_assignment":["grey","yellow","pink","brown","blue","red","purple","green"],"door_color_assignment":["black","white"],"door_generator_assignment":[1,0],"goal":2,"start":5,"action_noise":0.1,"location_history":"[5,1,5,1,5,1,5,2]","action_history":"[0,1,0,1,0,1,1]","door_history":"[1,0,1,0,1,0,0]","location_rts":"[1560,786,760,624,688,607,490]","trial_type":"two-door-navigation","trial_index":16,"time_elapsed":433048,"internal_node_id":"0.0-2.0-14.0"},{"group":"tri cycles (cube, non-group)","room_assignment":["grey","yellow","pink","brown","blue","red","purple","green"],"door_color_assignment":["black","white"],"door_generator_assignment":[1,0],"goal":7,"start":2,"action_noise":0.1,"location_history":"[2,1,5,1,5,2,6,5,1,5,2,6,4,7]","action_history":"[0,1,0,1,1,1,0,0,1,1,1,0,0]","door_history":"[1,0,1,0,0,0,1,1,0,0,0,1,1]","location_rts":"[1506,608,718,763,582,955,584,390,715,415,432,449,458]","trial_type":"two-door-navigation","trial_index":17,"time_elapsed":458444,"internal_node_id":"0.0-2.0-15.0"},{"group":"tri cycles (cube, non-group)","room_assignment":["grey","yellow","pink","brown","blue","red","purple","green"],"door_color_assignment":["black","white"],"door_generator_assignment":[1,0],"goal":4,"start":7,"action_noise":0.1,"location_history":"[7,6,4]","action_history":"[0,0]","door_history":"[1,1]","location_rts":"[1723,695]","trial_type":"two-door-navigation","trial_index":18,"time_elapsed":466412,"internal_node_id":"0.0-2.0-16.0"},{"group":"tri cycles (cube, non-group)","room_assignment":["grey","yellow","pink","brown","blue","red","purple","green"],"door_color_assignment":["black","white"],"door_generator_assignment":[1,0],"goal":2,"start":4,"action_noise":0.1,"location_history":"[4,0,3,7,6,5,1,5,2]","action_history":"[1,1,0,0,1,1,1,0]","door_history":"[0,0,1,1,0,0,0,1]","location_rts":"[1850,426,447,371,536,345,369,411]","trial_type":"two-door-navigation","trial_index":19,"time_elapsed":482858,"internal_node_id":"0.0-2.0-17.0"},{"group":"tri cycles (cube, non-group)","room_assignment":["grey","yellow","pink","brown","blue","red","purple","green"],"door_color_assignment":["black","white"],"door_generator_assignment":[1,0],"goal":3,"start":2,"action_noise":0.1,"location_history":"[2,6,4,7,6,4,0,3]","action_history":"[1,1,0,0,1,1,1]","door_history":"[0,0,1,1,0,0,0]","location_rts":"[1806,436,379,375,551,355,485]","trial_type":"two-door-navigation","trial_index":20,"time_elapsed":497917,"internal_node_id":"0.0-2.0-18.0"},{"group":"tri cycles (cube, non-group)","room_assignment":["grey","yellow","pink","brown","blue","red","purple","green"],"door_color_assignment":["black","white"],"door_generator_assignment":[1,0],"goal":6,"start":3,"action_noise":0.1,"location_history":"[3,4,7,6]","action_history":"[1,1,0]","door_history":"[0,0,1]","location_rts":"[2941,407,666]","trial_type":"two-door-navigation","trial_index":21,"time_elapsed":508503,"internal_node_id":"0.0-2.0-19.0"},{"group":"tri cycles (cube, non-group)","room_assignment":["grey","yellow","pink","brown","blue","red","purple","green"],"door_color_assignment":["black","white"],"door_generator_assignment":[1,0],"goal":5,"start":6,"action_noise":0.1,"location_history":"[6,5]","action_history":"[1]","door_history":"[0]","location_rts":"[2076]","trial_type":"two-door-navigation","trial_index":22,"time_elapsed":515110,"internal_node_id":"0.0-2.0-20.0"},{"group":"tri cycles (cube, non-group)","room_assignment":["grey","yellow","pink","brown","blue","red","purple","green"],"door_color_assignment":["black","white"],"door_generator_assignment":[1,0],"goal":1,"start":5,"action_noise":0.1,"location_history":"[5,1]","action_history":"[0]","door_history":"[1]","location_rts":"[2423]","trial_type":"two-door-navigation","trial_index":23,"time_elapsed":522061,"internal_node_id":"0.0-2.0-21.0"},{"group":"tri cycles (cube, non-group)","room_assignment":["grey","yellow","pink","brown","blue","red","purple","green"],"door_color_assignment":["black","white"],"door_generator_assignment":[1,0],"goal":0,"start":1,"action_noise":0.1,"location_history":"[1,5,2,1,0]","action_history":"[1,1,0,0]","door_history":"[0,0,1,1]","location_rts":"[1166,665,952,400]","trial_type":"two-door-navigation","trial_index":24,"time_elapsed":532845,"internal_node_id":"0.0-2.0-22.0"},{"group":"tri cycles (cube, non-group)","room_assignment":["grey","yellow","pink","brown","blue","red","purple","green"],"door_color_assignment":["black","white"],"door_generator_assignment":[1,0],"goal":2,"start":0,"action_noise":0.1,"location_history":"[0,3,4,0,2]","action_history":"[1,1,0,0]","door_history":"[0,0,1,1]","location_rts":"[2497,451,639,417]","trial_type":"two-door-navigation","trial_index":25,"time_elapsed":544457,"internal_node_id":"0.0-2.0-23.0"},{"group":"tri cycles (cube, non-group)","room_assignment":["grey","yellow","pink","brown","blue","red","purple","green"],"door_color_assignment":["black","white"],"door_generator_assignment":[1,0],"goal":6,"start":2,"action_noise":0.1,"location_history":"[2,1,0,3,4,7,6]","action_history":"[0,0,1,1,0,0]","door_history":"[1,1,0,0,1,1]","location_rts":"[2062,434,693,448,738,527]","trial_type":"two-door-navigation","trial_index":26,"time_elapsed":559010,"internal_node_id":"0.0-2.0-24.0"},{"group":"tri cycles (cube, non-group)","room_assignment":["grey","yellow","pink","brown","blue","red","purple","green"],"door_color_assignment":["black","white"],"door_generator_assignment":[1,0],"goal":1,"start":6,"action_noise":0.1,"location_history":"[6,4,7,3,4,7,6,4,0,3,4,7,6,4,7,6,5,2,6,5,1]","action_history":"[0,0,1,1,0,0,0,1,1,1,0,1,0,0,0,1,1,1,1,0]","door_history":"[1,1,0,0,1,1,1,0,0,0,1,0,1,1,1,0,0,0,0,1]","location_rts":"[1104,650,665,459,707,400,385,644,432,416,920,879,856,402,384,525,399,409,416,315]","trial_type":"two-door-navigation","trial_index":27,"time_elapsed":594352,"internal_node_id":"0.0-2.0-25.0"},{"group":"tri cycles (cube, non-group)","room_assignment":["grey","yellow","pink","brown","blue","red","purple","green"],"door_color_assignment":["black","white"],"door_generator_assignment":[1,0],"goal":3,"start":1,"action_noise":0.1,"location_history":"[1,0,2,1,5,2,6,4,0,2,6,5,2,1,5,1,5,1,0,3]","action_history":"[0,0,0,1,1,1,0,0,0,1,1,1,0,1,0,1,0,0,1]","door_history":"[1,1,1,0,0,0,1,1,1,0,0,0,1,0,1,0,1,1,0]","location_rts":"[2271,599,480,721,424,467,672,434,456,703,415,363,666,454,560,432,578,507,589]","trial_type":"two-door-navigation","trial_index":28,"time_elapsed":629104,"internal_node_id":"0.0-2.0-26.0"},{"group":"tri cycles (cube, non-group)","room_assignment":["grey","yellow","pink","brown","blue","red","purple","green"],"door_color_assignment":["black","white"],"door_generator_assignment":[1,0],"goal":7,"start":3,"action_noise":0.1,"location_history":"[3,4,0,3,7]","action_history":"[1,1,0,0]","door_history":"[0,0,1,1]","location_rts":"[2044,969,685,631]","trial_type":"two-door-navigation","trial_index":29,"time_elapsed":641036,"internal_node_id":"0.0-2.0-27.0"},{"group":"tri cycles (cube, non-group)","room_assignment":["grey","yellow","pink","brown","blue","red","purple","green"],"door_color_assignment":["black","white"],"door_generator_assignment":[1,0],"goal":4,"start":7,"action_noise":0.1,"location_history":"[7,3,4]","action_history":"[1,1]","door_history":"[0,0]","location_rts":"[1289,460]","trial_type":"two-door-navigation","trial_index":30,"time_elapsed":648337,"internal_node_id":"0.0-2.0-28.0"},{"group":"tri cycles (cube, non-group)","room_assignment":["grey","yellow","pink","brown","blue","red","purple","green"],"door_color_assignment":["black","white"],"door_generator_assignment":[1,0],"goal":0,"start":4,"action_noise":0.1,"location_history":"[4,0]","action_history":"[1]","door_history":"[0]","location_rts":"[2570]","trial_type":"two-door-navigation","trial_index":31,"time_elapsed":655442,"internal_node_id":"0.0-2.0-29.0"},{"group":"tri cycles (cube, non-group)","room_assignment":["grey","yellow","pink","brown","blue","red","purple","green"],"door_color_assignment":["black","white"],"door_generator_assignment":[1,0],"goal":5,"start":0,"action_noise":0.1,"location_history":"[0,3,4,7,6,4,0,3,7,6,4,0,3,4,7,6,5]","action_history":"[1,1,0,0,0,1,1,0,0,0,1,1,1,0,0,0]","door_history":"[0,0,1,1,1,0,0,1,1,1,0,0,0,1,1,1]","location_rts":"[1446,1009,646,435,575,637,358,688,1392,793,705,356,290,621,449,622]","trial_type":"two-door-navigation","trial_index":32,"time_elapsed":686353,"internal_node_id":"0.0-2.0-30.0"},{"group":"tri cycles (cube, non-group)","room_assignment":["grey","yellow","pink","brown","blue","red","purple","green"],"door_color_assignment":["black","white"],"door_generator_assignment":[1,0],"goal":3,"start":5,"action_noise":0.1,"location_history":"[5,2,6,4,7,6,5,2,6,4,7,6,4,7,3]","action_history":"[1,1,0,0,0,1,1,1,0,0,0,0,0,1]","door_history":"[0,0,1,1,1,0,0,0,1,1,1,1,1,0]","location_rts":"[2946,1282,1178,552,472,508,391,597,1335,381,475,2273,598,588]","trial_type":"two-door-navigation","trial_index":33,"time_elapsed":717770,"internal_node_id":"0.0-2.0-31.0"},{"group":"tri cycles (cube, non-group)","room_assignment":["grey","yellow","pink","brown","blue","red","purple","green"],"door_color_assignment":["black","white"],"door_generator_assignment":[1,0],"goal":2,"start":3,"action_noise":0.1,"location_history":"[3,7,6,4,0,3,4,0,2]","action_history":"[0,0,1,1,1,1,1,0]","door_history":"[1,1,0,0,0,0,0,1]","location_rts":"[2526,712,876,345,286,414,1080,401]","trial_type":"two-door-navigation","trial_index":34,"time_elapsed":736105,"internal_node_id":"0.0-2.0-32.0"},{"group":"tri cycles (cube, non-group)","room_assignment":["grey","yellow","pink","brown","blue","red","purple","green"],"door_color_assignment":["black","white"],"door_generator_assignment":[1,0],"goal":6,"start":2,"action_noise":0.1,"location_history":"[2,6]","action_history":"[1]","door_history":"[0]","location_rts":"[2466]","trial_type":"two-door-navigation","trial_index":35,"time_elapsed":743096,"internal_node_id":"0.0-2.0-33.0"},{"group":"tri cycles (cube, non-group)","room_assignment":["grey","yellow","pink","brown","blue","red","purple","green"],"door_color_assignment":["black","white"],"door_generator_assignment":[1,0],"goal":1,"start":6,"action_noise":0.1,"location_history":"[6,4,7,3,4,7,6,5,2,6,5,1]","action_history":"[0,0,1,1,0,0,0,1,1,1,0]","door_history":"[1,1,0,0,1,1,1,0,0,0,1]","location_rts":"[2214,707,795,760,790,432,410,727,340,397,489]","trial_type":"two-door-navigation","trial_index":36,"time_elapsed":765926,"internal_node_id":"0.0-2.0-34.0"},{"group":"tri cycles (cube, non-group)","room_assignment":["grey","yellow","pink","brown","blue","red","purple","green"],"door_color_assignment":["black","white"],"door_generator_assignment":[1,0],"goal":7,"start":1,"action_noise":0.1,"location_history":"[1,5,2,1,0,2,6,5,1,0,2,1,5,2,6,5,1,0,2,6,5,2,1,0,2,6,5,2,1,0,2,6,5,2,6,5,1,0,2,1,5,2,1,0,3,4,7]","action_history":"[1,1,0,0,0,1,1,1,0,0,0,1,1,1,0,0,0,0,1,1,1,0,0,0,1,1,1,0,0,0,0,1,1,1,1,0,0,0,0,1,1,0,0,1,1,0]","door_history":"[0,0,1,1,1,0,0,0,1,1,1,0,0,0,1,1,1,1,0,0,0,1,1,1,0,0,0,1,1,1,1,0,0,0,0,1,1,1,1,0,0,1,1,0,0,1]","location_rts":"[2935,595,776,1240,499,1020,755,471,633,394,393,671,403,415,687,888,944,562,574,406,296,598,257,216,561,266,306,424,290,263,304,363,291,336,427,982,592,406,390,615,353,368,307,554,284,321]","trial_type":"two-door-navigation","trial_index":37,"time_elapsed":842167,"internal_node_id":"0.0-2.0-35.0"},{"group":"tri cycles (cube, non-group)","room_assignment":["grey","yellow","pink","brown","blue","red","purple","green"],"door_color_assignment":["black","white"],"door_generator_assignment":[1,0],"goal":4,"start":7,"action_noise":0.1,"location_history":"[7,3,4]","action_history":"[0,1]","door_history":"[1,0]","location_rts":"[3296,1032]","trial_type":"two-door-navigation","trial_index":38,"time_elapsed":852047,"internal_node_id":"0.0-2.0-36.0"},{"group":"tri cycles (cube, non-group)","room_assignment":["grey","yellow","pink","brown","blue","red","purple","green"],"door_color_assignment":["black","white"],"door_generator_assignment":[1,0],"goal":5,"start":4,"action_noise":0.1,"location_history":"[4,7,3,4,0,2,6,4,7,6,5]","action_history":"[0,1,0,1,0,1,0,0,0,1]","door_history":"[1,0,1,0,1,0,1,1,1,0]","location_rts":"[2113,1048,880,548,511,385,476,344,1024,529]","trial_type":"two-door-navigation","trial_index":39,"time_elapsed":873644,"internal_node_id":"0.0-2.0-37.0"},{"group":"tri cycles (cube, non-group)","room_assignment":["grey","yellow","pink","brown","blue","red","purple","green"],"door_color_assignment":["black","white"],"door_generator_assignment":[1,0],"goal":0,"start":5,"action_noise":0.1,"location_history":"[5,2,6,4,0]","action_history":"[1,1,0,0]","door_history":"[0,0,1,1]","location_rts":"[3515,965,670,374]","trial_type":"two-door-navigation","trial_index":40,"time_elapsed":886773,"internal_node_id":"0.0-2.0-38.0"},{"group":"tri cycles (cube, non-group)","room_assignment":["grey","yellow","pink","brown","blue","red","purple","green"],"door_color_assignment":["black","white"],"door_generator_assignment":[1,0],"goal":4,"start":0,"action_noise":0.1,"location_history":"[0,2,1,5,2,6,4]","action_history":"[0,0,1,1,0,0]","door_history":"[1,1,0,0,1,1]","location_rts":"[1637,401,577,417,695,474]","trial_type":"two-door-navigation","trial_index":41,"time_elapsed":900624,"internal_node_id":"0.0-2.0-39.0"},{"group":"tri cycles (cube, non-group)","room_assignment":["grey","yellow","pink","brown","blue","red","purple","green"],"door_color_assignment":["black","white"],"door_generator_assignment":[1,0],"goal":0,"start":4,"action_noise":0.1,"location_history":"[4,7,6,5,2,1,0]","action_history":"[0,0,1,1,0,0]","door_history":"[1,1,0,0,1,1]","location_rts":"[1672,439,570,301,443,298]","trial_type":"two-door-navigation","trial_index":42,"time_elapsed":913991,"internal_node_id":"0.0-2.0-40.0"},{"group":"tri cycles (cube, non-group)","room_assignment":["grey","yellow","pink","brown","blue","red","purple","green"],"door_color_assignment":["black","white"],"door_generator_assignment":[1,0],"goal":2,"start":0,"action_noise":0.1,"location_history":"[0,3,4,7,6,5,2]","action_history":"[1,1,0,0,1,1]","door_history":"[0,0,1,1,0,0]","location_rts":"[2355,389,472,314,444,360]","trial_type":"two-door-navigation","trial_index":43,"time_elapsed":927971,"internal_node_id":"0.0-2.0-41.0"},{"group":"tri cycles (cube, non-group)","room_assignment":["grey","yellow","pink","brown","blue","red","purple","green"],"door_color_assignment":["black","white"],"door_generator_assignment":[1,0],"goal":3,"start":2,"action_noise":0.1,"location_history":"[2,6,5,1,0,2,1,0,2,6,4,7,3]","action_history":"[1,1,0,0,1,1,0,0,1,1,0,0]","door_history":"[0,0,1,1,0,0,1,1,0,0,1,1]","location_rts":"[1660,734,714,382,1159,422,845,336,608,448,628,432]","trial_type":"two-door-navigation","trial_index":44,"time_elapsed":952139,"internal_node_id":"0.0-2.0-42.0"},{"group":"tri cycles (cube, non-group)","room_assignment":["grey","yellow","pink","brown","blue","red","purple","green"],"door_color_assignment":["black","white"],"door_generator_assignment":[1,0],"goal":5,"start":3,"action_noise":0.1,"location_history":"[3,7,6,5]","action_history":"[0,0,1]","door_history":"[1,1,0]","location_rts":"[2802,382,632]","trial_type":"two-door-navigation","trial_index":45,"time_elapsed":962531,"internal_node_id":"0.0-2.0-43.0"},{"group":"tri cycles (cube, non-group)","room_assignment":["grey","yellow","pink","brown","blue","red","purple","green"],"door_color_assignment":["black","white"],"door_generator_assignment":[1,0],"goal":1,"start":5,"action_noise":0.1,"location_history":"[5,1]","action_history":"[1]","door_history":"[0]","location_rts":"[1595]","trial_type":"two-door-navigation","trial_index":46,"time_elapsed":968655,"internal_node_id":"0.0-2.0-44.0"},{"group":"tri cycles (cube, non-group)","room_assignment":["grey","yellow","pink","brown","blue","red","purple","green"],"door_color_assignment":["black","white"],"door_generator_assignment":[1,0],"goal":7,"start":1,"action_noise":0.1,"location_history":"[1,0,2,6,5,1,0,3,4,7]","action_history":"[0,0,1,1,0,0,1,1,0]","door_history":"[1,1,0,0,1,1,0,0,1]","location_rts":"[1633,618,830,459,644,440,602,346,363]","trial_type":"two-door-navigation","trial_index":47,"time_elapsed":987316,"internal_node_id":"0.0-2.0-45.0"},{"group":"tri cycles (cube, non-group)","room_assignment":["grey","yellow","pink","brown","blue","red","purple","green"],"door_color_assignment":["black","white"],"door_generator_assignment":[1,0],"goal":6,"start":7,"action_noise":0.1,"location_history":"[7,3,4,7,6]","action_history":"[1,1,0,0]","door_history":"[0,0,1,1]","location_rts":"[2213,481,786,388]","trial_type":"two-door-navigation","trial_index":48,"time_elapsed":998785,"internal_node_id":"0.0-2.0-46.0"},{"group":"tri cycles (cube, non-group)","room_assignment":["grey","yellow","pink","brown","blue","red","purple","green"],"door_color_assignment":["black","white"],"door_generator_assignment":[1,0],"goal":3,"start":6,"action_noise":0.1,"location_history":"[6,5,2,1,0,3]","action_history":"[1,1,0,0,1]","door_history":"[0,0,1,1,0]","location_rts":"[1680,586,654,378,688]","trial_type":"two-door-navigation","trial_index":49,"time_elapsed":1011395,"internal_node_id":"0.0-2.0-47.0"},{"group":"tri cycles (cube, non-group)","room_assignment":["grey","yellow","pink","brown","blue","red","purple","green"],"door_color_assignment":["black","white"],"door_generator_assignment":[1,0],"goal":0,"start":3,"action_noise":0.1,"location_history":"[3,7,6,5,2,1,0]","action_history":"[0,0,1,1,0,0]","door_history":"[1,1,0,0,1,1]","location_rts":"[2791,522,717,312,772,414]","trial_type":"two-door-navigation","trial_index":50,"time_elapsed":1026572,"internal_node_id":"0.0-2.0-48.0"},{"group":"tri cycles (cube, non-group)","room_assignment":["grey","yellow","pink","brown","blue","red","purple","green"],"door_color_assignment":["black","white"],"door_generator_assignment":[1,0],"goal":2,"start":0,"action_noise":0.1,"location_history":"[0,2]","action_history":"[0]","door_history":"[1]","location_rts":"[1786]","trial_type":"two-door-navigation","trial_index":51,"time_elapsed":1032886,"internal_node_id":"0.0-2.0-49.0"},{"view_history":"[{\"page_index\":0,\"viewing_time\":5519}]","rt":5520,"trial_type":"instructions","trial_index":52,"time_elapsed":1039407,"internal_node_id":"0.0-3.0"},{"view_history":"[{\"page_index\":0,\"viewing_time\":4111},{\"page_index\":1,\"viewing_time\":39561}]","rt":43672,"trial_type":"instructions","trial_index":53,"time_elapsed":1084079,"internal_node_id":"0.0-4.0"},{"group":"square cycles (cube, non-group)","fractal_assignment":["../images/grn_red.png","../images/ylw_pnk.png","../images/org_blu.png","../images/ylw_slt.png","../images/gry_blk.png","../images/cyn_red.png","../images/pnk_blu.png","../images/blu_wht.png"],"mutagen_generator_assignment":[1,0],"goal":3,"start":0,"action_noise":0.1,"location_history":"[0,4,5,4,7,3]","action_history":"[1,1,0,0,1]","mutagen_history":"[0,0,1,1,0]","location_rts":"[10571,1581,1270,952,1083]","trial_type":"fractal-mutation","trial_index":54,"time_elapsed":1108317,"internal_node_id":"0.0-5.0-0.0"},{"group":"square cycles (cube, non-group)","fractal_assignment":["../images/grn_red.png","../images/ylw_pnk.png","../images/org_blu.png","../images/ylw_slt.png","../images/gry_blk.png","../images/cyn_red.png","../images/pnk_blu.png","../images/blu_wht.png"],"mutagen_generator_assignment":[1,0],"goal":1,"start":3,"action_noise":0.1,"location_history":"[3,0,1]","action_history":"[0,0]","mutagen_history":"[1,1]","location_rts":"[3640,1128]","trial_type":"fractal-mutation","trial_index":55,"time_elapsed":1118704,"internal_node_id":"0.0-5.0-1.0"},{"group":"square cycles (cube, non-group)","fractal_assignment":["../images/grn_red.png","../images/ylw_pnk.png","../images/org_blu.png","../images/ylw_slt.png","../images/gry_blk.png","../images/cyn_red.png","../images/pnk_blu.png","../images/blu_wht.png"],"mutagen_generator_assignment":[1,0],"goal":2,"start":1,"action_noise":0.1,"location_history":"[1,0,4,7,6,7,3,0,1,0,4,7,6,5,4,5,1,0,4,7,6,5,4,5,1,2]","action_history":"[1,1,0,0,1,1,0,0,1,1,0,0,0,0,1,1,1,1,0,0,0,0,1,1,0]","mutagen_history":"[0,0,1,1,0,0,1,1,0,0,1,1,1,1,0,0,0,0,1,1,1,1,0,0,1]","location_rts":"[1853,1238,935,763,798,681,886,702,1247,1293,746,645,655,721,569,819,791,545,545,501,550,757,509,564,1237]","trial_type":"fractal-mutation","trial_index":56,"time_elapsed":1168730,"internal_node_id":"0.0-5.0-2.0"},{"group":"square cycles (cube, non-group)","fractal_assignment":["../images/grn_red.png","../images/ylw_pnk.png","../images/org_blu.png","../images/ylw_slt.png","../images/gry_blk.png","../images/cyn_red.png","../images/pnk_blu.png","../images/blu_wht.png"],"mutagen_generator_assignment":[1,0],"goal":6,"start":2,"action_noise":0.1,"location_history":"[2,6]","action_history":"[1]","mutagen_history":"[0]","location_rts":"[1433]","trial_type":"fractal-mutation","trial_index":57,"time_elapsed":1174701,"internal_node_id":"0.0-5.0-3.0"},{"group":"square cycles (cube, non-group)","fractal_assignment":["../images/grn_red.png","../images/ylw_pnk.png","../images/org_blu.png","../images/ylw_slt.png","../images/gry_blk.png","../images/cyn_red.png","../images/pnk_blu.png","../images/blu_wht.png"],"mutagen_generator_assignment":[1,0],"goal":5,"start":6,"action_noise":0.1,"location_history":"[6,5]","action_history":"[0]","mutagen_history":"[1]","location_rts":"[1430]","trial_type":"fractal-mutation","trial_index":58,"time_elapsed":1180685,"internal_node_id":"0.0-5.0-4.0"},{"group":"square cycles (cube, non-group)","fractal_assignment":["../images/grn_red.png","../images/ylw_pnk.png","../images/org_blu.png","../images/ylw_slt.png","../images/gry_blk.png","../images/cyn_red.png","../images/pnk_blu.png","../images/blu_wht.png"],"mutagen_generator_assignment":[1,0],"goal":4,"start":5,"action_noise":0.1,"location_history":"[5,1,2,6,7,6,5,1,0,1,2,3,2,6,7,6,5,1,2,3,0,4]","action_history":"[1,0,1,1,0,0,1,1,0,0,0,1,1,1,0,0,1,1,0,0,1]","mutagen_history":"[0,1,0,0,1,1,0,0,1,1,1,0,0,0,1,1,0,0,1,1,0]","location_rts":"[1039,1542,1099,671,539,708,674,463,451,418,413,490,463,455,435,495,363,434,467,460,435]","trial_type":"fractal-mutation","trial_index":59,"time_elapsed":1218503,"internal_node_id":"0.0-5.0-5.0"},{"group":"square cycles (cube, non-group)","fractal_assignment":["../images/grn_red.png","../images/ylw_pnk.png","../images/org_blu.png","../images/ylw_slt.png","../images/gry_blk.png","../images/cyn_red.png","../images/pnk_blu.png","../images/blu_wht.png"],"mutagen_generator_assignment":[1,0],"goal":7,"start":4,"action_noise":0.1,"location_history":"[4,7]","action_history":"[0]","mutagen_history":"[1]","location_rts":"[2573]","trial_type":"fractal-mutation","trial_index":60,"time_elapsed":1225622,"internal_node_id":"0.0-5.0-6.0"},{"group":"square cycles (cube, non-group)","fractal_assignment":["../images/grn_red.png","../images/ylw_pnk.png","../images/org_blu.png","../images/ylw_slt.png","../images/gry_blk.png","../images/cyn_red.png","../images/pnk_blu.png","../images/blu_wht.png"],"mutagen_generator_assignment":[1,0],"goal":4,"start":7,"action_noise":0.1,"location_history":"[7,3,0,1,0,4]","action_history":"[1,0,1,0,1]","mutagen_history":"[0,1,0,1,0]","location_rts":"[1496,1032,635,497,441]","trial_type":"fractal-mutation","trial_index":61,"time_elapsed":1238416,"internal_node_id":"0.0-5.0-7.0"},{"group":"square cycles (cube, non-group)","fractal_assignment":["../images/grn_red.png","../images/ylw_pnk.png","../images/org_blu.png","../images/ylw_slt.png","../images/gry_blk.png","../images/cyn_red.png","../images/pnk_blu.png","../images/blu_wht.png"],"mutagen_generator_assignment":[1,0],"goal":6,"start":4,"action_noise":0.1,"location_history":"[4,5,4,5,4,7,6]","action_history":"[1,0,1,1,0,0]","mutagen_history":"[0,1,0,0,1,1]","location_rts":"[1578,760,572,573,566,957]","trial_type":"fractal-mutation","trial_index":62,"time_elapsed":1253217,"internal_node_id":"0.0-5.0-8.0"},{"group":"square cycles (cube, non-group)","fractal_assignment":["../images/grn_red.png","../images/ylw_pnk.png","../images/org_blu.png","../images/ylw_slt.png","../images/gry_blk.png","../images/cyn_red.png","../images/pnk_blu.png","../images/blu_wht.png"],"mutagen_generator_assignment":[1,0],"goal":0,"start":6,"action_noise":0.1,"location_history":"[6,5,1,2,6,7,6,7,6,7,3,0]","action_history":"[1,1,0,0,1,0,1,0,1,1,0]","mutagen_history":"[0,0,1,1,0,1,0,1,0,0,1]","location_rts":"[1199,926,724,437,549,442,678,502,484,400,547]","trial_type":"fractal-mutation","trial_index":63,"time_elapsed":1275067,"internal_node_id":"0.0-5.0-9.0"},{"group":"square cycles (cube, non-group)","fractal_assignment":["../images/grn_red.png","../images/ylw_pnk.png","../images/org_blu.png","../images/ylw_slt.png","../images/gry_blk.png","../images/cyn_red.png","../images/pnk_blu.png","../images/blu_wht.png"],"mutagen_generator_assignment":[1,0],"goal":1,"start":0,"action_noise":0.1,"location_history":"[0,1]","action_history":"[1]","mutagen_history":"[0]","location_rts":"[1245]","trial_type":"fractal-mutation","trial_index":64,"time_elapsed":1280851,"internal_node_id":"0.0-5.0-10.0"},{"group":"square cycles (cube, non-group)","fractal_assignment":["../images/grn_red.png","../images/ylw_pnk.png","../images/org_blu.png","../images/ylw_slt.png","../images/gry_blk.png","../images/cyn_red.png","../images/pnk_blu.png","../images/blu_wht.png"],"mutagen_generator_assignment":[1,0],"goal":3,"start":1,"action_noise":0.1,"location_history":"[1,2,3]","action_history":"[0,0]","mutagen_history":"[1,1]","location_rts":"[892,1275]","trial_type":"fractal-mutation","trial_index":65,"time_elapsed":1288616,"internal_node_id":"0.0-5.0-11.0"},{"group":"square cycles (cube, non-group)","fractal_assignment":["../images/grn_red.png","../images/ylw_pnk.png","../images/org_blu.png","../images/ylw_slt.png","../images/gry_blk.png","../images/cyn_red.png","../images/pnk_blu.png","../images/blu_wht.png"],"mutagen_generator_assignment":[1,0],"goal":7,"start":3,"action_noise":0.1,"location_history":"[3,2,6,5,4,5,1,2,3,2,6,7]","action_history":"[1,1,0,0,1,1,0,0,0,1,1]","mutagen_history":"[0,0,1,1,0,0,1,1,1,0,0]","location_rts":"[983,685,1117,495,742,578,498,454,497,452,972]","trial_type":"fractal-mutation","trial_index":66,"time_elapsed":1311053,"internal_node_id":"0.0-5.0-12.0"},{"group":"square cycles (cube, non-group)","fractal_assignment":["../images/grn_red.png","../images/ylw_pnk.png","../images/org_blu.png","../images/ylw_slt.png","../images/gry_blk.png","../images/cyn_red.png","../images/pnk_blu.png","../images/blu_wht.png"],"mutagen_generator_assignment":[1,0],"goal":5,"start":7,"action_noise":0.1,"location_history":"[7,6,7,6,5]","action_history":"[0,1,0,0]","mutagen_history":"[1,0,1,1]","location_rts":"[1268,1118,805,459]","trial_type":"fractal-mutation","trial_index":67,"time_elapsed":1322381,"internal_node_id":"0.0-5.0-13.0"},{"group":"square cycles (cube, non-group)","fractal_assignment":["../images/grn_red.png","../images/ylw_pnk.png","../images/org_blu.png","../images/ylw_slt.png","../images/gry_blk.png","../images/cyn_red.png","../images/pnk_blu.png","../images/blu_wht.png"],"mutagen_generator_assignment":[1,0],"goal":2,"start":5,"action_noise":0.1,"location_history":"[5,1,0,1,2]","action_history":"[1,1,0,0]","mutagen_history":"[0,0,1,1]","location_rts":"[1328,820,568,643]","trial_type":"fractal-mutation","trial_index":68,"time_elapsed":1333424,"internal_node_id":"0.0-5.0-14.0"},{"group":"square cycles (cube, non-group)","fractal_assignment":["../images/grn_red.png","../images/ylw_pnk.png","../images/org_blu.png","../images/ylw_slt.png","../images/gry_blk.png","../images/cyn_red.png","../images/pnk_blu.png","../images/blu_wht.png"],"mutagen_generator_assignment":[1,0],"goal":7,"start":2,"action_noise":0.1,"location_history":"[2,3,0,4,5,4,5,1,2,6,5,1,2,6,5,1,2,3,0,4,5,1,2,6,7]","action_history":"[0,0,1,1,0,0,1,1,1,0,1,0,1,0,1,0,0,0,1,1,1,0,0,1]","mutagen_history":"[1,1,0,0,1,1,0,0,0,1,0,1,0,1,0,1,1,1,0,0,0,1,1,0]","location_rts":"[1196,844,426,314,530,418,374,351,387,413,368,452,403,450,544,518,417,517,419,383,435,467,380,303]","trial_type":"fractal-mutation","trial_index":69,"time_elapsed":1373138,"internal_node_id":"0.0-5.0-15.0"},{"group":"square cycles (cube, non-group)","fractal_assignment":["../images/grn_red.png","../images/ylw_pnk.png","../images/org_blu.png","../images/ylw_slt.png","../images/gry_blk.png","../images/cyn_red.png","../images/pnk_blu.png","../images/blu_wht.png"],"mutagen_generator_assignment":[1,0],"goal":4,"start":7,"action_noise":0.1,"location_history":"[7,3,2,3,0,4]","action_history":"[1,1,0,0,1]","mutagen_history":"[0,0,1,1,0]","location_rts":"[1741,759,607,404,727]","trial_type":"fractal-mutation","trial_index":70,"time_elapsed":1386086,"internal_node_id":"0.0-5.0-16.0"},{"group":"square cycles (cube, non-group)","fractal_assignment":["../images/grn_red.png","../images/ylw_pnk.png","../images/org_blu.png","../images/ylw_slt.png","../images/gry_blk.png","../images/cyn_red.png","../images/pnk_blu.png","../images/blu_wht.png"],"mutagen_generator_assignment":[1,0],"goal":2,"start":4,"action_noise":0.1,"location_history":"[4,7,6,7,3,0,1,0,4,7,6,5,1,0,1,0,1,2]","action_history":"[0,0,1,1,0,0,1,1,0,0,0,1,1,1,0,0,0]","mutagen_history":"[1,1,0,0,1,1,0,0,1,1,1,0,0,0,1,1,1]","location_rts":"[1322,461,484,375,405,365,339,326,404,275,284,310,451,257,291,285,248]","trial_type":"fractal-mutation","trial_index":71,"time_elapsed":1414142,"internal_node_id":"0.0-5.0-17.0"},{"group":"square cycles (cube, non-group)","fractal_assignment":["../images/grn_red.png","../images/ylw_pnk.png","../images/org_blu.png","../images/ylw_slt.png","../images/gry_blk.png","../images/cyn_red.png","../images/pnk_blu.png","../images/blu_wht.png"],"mutagen_generator_assignment":[1,0],"goal":3,"start":2,"action_noise":0.1,"location_history":"[2,6,7,6,5,4,5,4,7,6,5,1,2,3]","action_history":"[1,1,0,0,1,1,0,0,0,1,1,0,0]","mutagen_history":"[0,0,1,1,0,0,1,1,1,0,0,1,1]","location_rts":"[1151,1014,438,434,361,468,314,347,309,401,352,436,258]","trial_type":"fractal-mutation","trial_index":72,"time_elapsed":1437462,"internal_node_id":"0.0-5.0-18.0"},{"group":"square cycles (cube, non-group)","fractal_assignment":["../images/grn_red.png","../images/ylw_pnk.png","../images/org_blu.png","../images/ylw_slt.png","../images/gry_blk.png","../images/cyn_red.png","../images/pnk_blu.png","../images/blu_wht.png"],"mutagen_generator_assignment":[1,0],"goal":6,"start":3,"action_noise":0.1,"location_history":"[3,0,1,2,6]","action_history":"[0,1,0,1]","mutagen_history":"[1,0,1,0]","location_rts":"[1114,1448,671,459]","trial_type":"fractal-mutation","trial_index":73,"time_elapsed":1448816,"internal_node_id":"0.0-5.0-19.0"},{"group":"square cycles (cube, non-group)","fractal_assignment":["../images/grn_red.png","../images/ylw_pnk.png","../images/org_blu.png","../images/ylw_slt.png","../images/gry_blk.png","../images/cyn_red.png","../images/pnk_blu.png","../images/blu_wht.png"],"mutagen_generator_assignment":[1,0],"goal":5,"start":6,"action_noise":0.1,"location_history":"[6,7,6,7,6,7,3,0,1,2,6,5]","action_history":"[1,0,1,0,1,1,0,0,1,1,0]","mutagen_history":"[0,1,0,1,0,0,1,1,0,0,1]","location_rts":"[1625,799,474,430,453,297,391,322,361,324,450]","trial_type":"fractal-mutation","trial_index":74,"time_elapsed":1469664,"internal_node_id":"0.0-5.0-20.0"},{"group":"square cycles (cube, non-group)","fractal_assignment":["../images/grn_red.png","../images/ylw_pnk.png","../images/org_blu.png","../images/ylw_slt.png","../images/gry_blk.png","../images/cyn_red.png","../images/pnk_blu.png","../images/blu_wht.png"],"mutagen_generator_assignment":[1,0],"goal":1,"start":5,"action_noise":0.1,"location_history":"[5,1]","action_history":"[1]","mutagen_history":"[0]","location_rts":"[1125]","trial_type":"fractal-mutation","trial_index":75,"time_elapsed":1475330,"internal_node_id":"0.0-5.0-21.0"},{"group":"square cycles (cube, non-group)","fractal_assignment":["../images/grn_red.png","../images/ylw_pnk.png","../images/org_blu.png","../images/ylw_slt.png","../images/gry_blk.png","../images/cyn_red.png","../images/pnk_blu.png","../images/blu_wht.png"],"mutagen_generator_assignment":[1,0],"goal":0,"start":1,"action_noise":0.1,"location_history":"[1,2,6,5,1,2,6,5,4,5,1,0]","action_history":"[0,1,0,1,1,1,0,0,0,1,1]","mutagen_history":"[1,0,1,0,0,0,1,1,1,0,0]","location_rts":"[775,460,442,463,345,436,324,297,308,410,300]","trial_type":"fractal-mutation","trial_index":76,"time_elapsed":1494788,"internal_node_id":"0.0-5.0-22.0"},{"group":"square cycles (cube, non-group)","fractal_assignment":["../images/grn_red.png","../images/ylw_pnk.png","../images/org_blu.png","../images/ylw_slt.png","../images/gry_blk.png","../images/cyn_red.png","../images/pnk_blu.png","../images/blu_wht.png"],"mutagen_generator_assignment":[1,0],"goal":2,"start":0,"action_noise":0.1,"location_history":"[0,1,2]","action_history":"[0,0]","mutagen_history":"[1,1]","location_rts":"[1121,310]","trial_type":"fractal-mutation","trial_index":77,"time_elapsed":1501812,"internal_node_id":"0.0-5.0-23.0"},{"group":"square cycles (cube, non-group)","fractal_assignment":["../images/grn_red.png","../images/ylw_pnk.png","../images/org_blu.png","../images/ylw_slt.png","../images/gry_blk.png","../images/cyn_red.png","../images/pnk_blu.png","../images/blu_wht.png"],"mutagen_generator_assignment":[1,0],"goal":6,"start":2,"action_noise":0.1,"location_history":"[2,3,2,3,2,3,0,1,0,4,7,3,2,3,0,1,0,1,2,3,0,4,5,4,5,1,0,4,5,4,5,1,0,1,0,4,7,6]","action_history":"[0,1,0,1,0,0,1,1,0,0,1,1,0,0,0,1,1,0,0,0,0,0,0,1,1,1,1,0,0,1,1,0,0,1,1,0,0]","mutagen_history":"[1,0,1,0,1,1,0,0,1,1,0,0,1,1,1,0,0,1,1,1,1,1,1,0,0,0,0,1,1,0,0,1,1,0,0,1,1]","location_rts":"[1103,1284,788,733,769,515,1279,831,957,746,1031,573,449,469,525,501,438,507,365,782,421,295,141,362,281,428,376,322,302,360,346,425,331,298,337,334,305]","trial_type":"fractal-mutation","trial_index":78,"time_elapsed":1564062,"internal_node_id":"0.0-5.0-24.0"},{"group":"square cycles (cube, non-group)","fractal_assignment":["../images/grn_red.png","../images/ylw_pnk.png","../images/org_blu.png","../images/ylw_slt.png","../images/gry_blk.png","../images/cyn_red.png","../images/pnk_blu.png","../images/blu_wht.png"],"mutagen_generator_assignment":[1,0],"goal":1,"start":6,"action_noise":0.1,"location_history":"[6,7,3,0,1]","action_history":"[1,1,0,0]","mutagen_history":"[0,0,1,1]","location_rts":"[2884,875,910,737]","trial_type":"fractal-mutation","trial_index":79,"time_elapsed":1577120,"internal_node_id":"0.0-5.0-25.0"},{"group":"square cycles (cube, non-group)","fractal_assignment":["../images/grn_red.png","../images/ylw_pnk.png","../images/org_blu.png","../images/ylw_slt.png","../images/gry_blk.png","../images/cyn_red.png","../images/pnk_blu.png","../images/blu_wht.png"],"mutagen_generator_assignment":[1,0],"goal":3,"start":1,"action_noise":0.1,"location_history":"[1,0,1,2,6,7,3]","action_history":"[1,0,0,1,1,1]","mutagen_history":"[0,1,1,0,0,0]","location_rts":"[1622,1290,1246,1167,1120,1322]","trial_type":"fractal-mutation","trial_index":80,"time_elapsed":1594618,"internal_node_id":"0.0-5.0-26.0"},{"group":"square cycles (cube, non-group)","fractal_assignment":["../images/grn_red.png","../images/ylw_pnk.png","../images/org_blu.png","../images/ylw_slt.png","../images/gry_blk.png","../images/cyn_red.png","../images/pnk_blu.png","../images/blu_wht.png"],"mutagen_generator_assignment":[1,0],"goal":7,"start":3,"action_noise":0.1,"location_history":"[3,0,1,0,4,7]","action_history":"[0,0,1,1,0]","mutagen_history":"[1,1,0,0,1]","location_rts":"[2193,956,725,546,646]","trial_type":"fractal-mutation","trial_index":81,"time_elapsed":1608394,"internal_node_id":"0.0-5.0-27.0"},{"group":"square cycles (cube, non-group)","fractal_assignment":["../images/grn_red.png","../images/ylw_pnk.png","../images/org_blu.png","../images/ylw_slt.png","../images/gry_blk.png","../images/cyn_red.png","../images/pnk_blu.png","../images/blu_wht.png"],"mutagen_generator_assignment":[1,0],"goal":4,"start":7,"action_noise":0.1,"location_history":"[7,3,2,6,7,3,2,3,0,4]","action_history":"[1,1,1,1,1,1,0,0,0]","mutagen_history":"[0,0,0,0,0,0,1,1,1]","location_rts":"[1787,632,475,762,752,791,642,949,698]","trial_type":"fractal-mutation","trial_index":82,"time_elapsed":1628662,"internal_node_id":"0.0-5.0-28.0"},{"group":"square cycles (cube, non-group)","fractal_assignment":["../images/grn_red.png","../images/ylw_pnk.png","../images/org_blu.png","../images/ylw_slt.png","../images/gry_blk.png","../images/cyn_red.png","../images/pnk_blu.png","../images/blu_wht.png"],"mutagen_generator_assignment":[1,0],"goal":0,"start":4,"action_noise":0.1,"location_history":"[4,5,1,0]","action_history":"[1,1,1]","mutagen_history":"[0,0,0]","location_rts":"[1669,921,956]","trial_type":"fractal-mutation","trial_index":83,"time_elapsed":1638804,"internal_node_id":"0.0-5.0-29.0"},{"group":"square cycles (cube, non-group)","fractal_assignment":["../images/grn_red.png","../images/ylw_pnk.png","../images/org_blu.png","../images/ylw_slt.png","../images/gry_blk.png","../images/cyn_red.png","../images/pnk_blu.png","../images/blu_wht.png"],"mutagen_generator_assignment":[1,0],"goal":5,"start":0,"action_noise":0.1,"location_history":"[0,1,2,3,2,6,5]","action_history":"[0,0,0,1,1,1]","mutagen_history":"[1,1,1,0,0,0]","location_rts":"[1539,850,458,553,429,369]","trial_type":"fractal-mutation","trial_index":84,"time_elapsed":1652721,"internal_node_id":"0.0-5.0-30.0"},{"group":"square cycles (cube, non-group)","fractal_assignment":["../images/grn_red.png","../images/ylw_pnk.png","../images/org_blu.png","../images/ylw_slt.png","../images/gry_blk.png","../images/cyn_red.png","../images/pnk_blu.png","../images/blu_wht.png"],"mutagen_generator_assignment":[1,0],"goal":3,"start":5,"action_noise":0.1,"location_history":"[5,1,0,4,7,6,5,1,0,4,5,1,0,1,2,3]","action_history":"[1,1,1,0,0,0,1,1,1,1,1,1,0,0,0]","mutagen_history":"[0,0,0,1,1,1,0,0,0,0,0,0,1,1,1]","location_rts":"[1565,545,498,1216,769,607,523,555,530,702,795,908,834,676,681]","trial_type":"fractal-mutation","trial_index":85,"time_elapsed":1683195,"internal_node_id":"0.0-5.0-31.0"},{"group":"square cycles (cube, non-group)","fractal_assignment":["../images/grn_red.png","../images/ylw_pnk.png","../images/org_blu.png","../images/ylw_slt.png","../images/gry_blk.png","../images/cyn_red.png","../images/pnk_blu.png","../images/blu_wht.png"],"mutagen_generator_assignment":[1,0],"goal":2,"start":3,"action_noise":0.1,"location_history":"[3,0,1,2]","action_history":"[0,0,0]","mutagen_history":"[1,1,1]","location_rts":"[1151,740,426]","trial_type":"fractal-mutation","trial_index":86,"time_elapsed":1692117,"internal_node_id":"0.0-5.0-32.0"},{"group":"square cycles (cube, non-group)","fractal_assignment":["../images/grn_red.png","../images/ylw_pnk.png","../images/org_blu.png","../images/ylw_slt.png","../images/gry_blk.png","../images/cyn_red.png","../images/pnk_blu.png","../images/blu_wht.png"],"mutagen_generator_assignment":[1,0],"goal":6,"start":2,"action_noise":0.1,"location_history":"[2,6]","action_history":"[1]","mutagen_history":"[0]","location_rts":"[1880]","trial_type":"fractal-mutation","trial_index":87,"time_elapsed":1698532,"internal_node_id":"0.0-5.0-33.0"},{"group":"square cycles (cube, non-group)","fractal_assignment":["../images/grn_red.png","../images/ylw_pnk.png","../images/org_blu.png","../images/ylw_slt.png","../images/gry_blk.png","../images/cyn_red.png","../images/pnk_blu.png","../images/blu_wht.png"],"mutagen_generator_assignment":[1,0],"goal":1,"start":6,"action_noise":0.1,"location_history":"[6,5,1]","action_history":"[0,0]","mutagen_history":"[1,1]","location_rts":"[1373,554]","trial_type":"fractal-mutation","trial_index":88,"time_elapsed":1706062,"internal_node_id":"0.0-5.0-34.0"},{"group":"square cycles (cube, non-group)","fractal_assignment":["../images/grn_red.png","../images/ylw_pnk.png","../images/org_blu.png","../images/ylw_slt.png","../images/gry_blk.png","../images/cyn_red.png","../images/pnk_blu.png","../images/blu_wht.png"],"mutagen_generator_assignment":[1,0],"goal":7,"start":1,"action_noise":0.1,"location_history":"[1,0,4,5,1,2,3,0,4,5,1,0,4,7]","action_history":"[1,1,1,0,0,0,0,1,1,1,1,1,0]","mutagen_history":"[0,0,0,1,1,1,1,0,0,0,0,0,1]","location_rts":"[1425,748,538,592,388,400,1023,594,420,456,425,461,350]","trial_type":"fractal-mutation","trial_index":89,"time_elapsed":1730779,"internal_node_id":"0.0-5.0-35.0"},{"group":"square cycles (cube, non-group)","fractal_assignment":["../images/grn_red.png","../images/ylw_pnk.png","../images/org_blu.png","../images/ylw_slt.png","../images/gry_blk.png","../images/cyn_red.png","../images/pnk_blu.png","../images/blu_wht.png"],"mutagen_generator_assignment":[1,0],"goal":4,"start":7,"action_noise":0.1,"location_history":"[7,6,7,3,2,3,2,6,7,6,5,4]","action_history":"[0,1,0,0,0,1,1,1,0,0,0]","mutagen_history":"[1,0,1,1,1,0,0,0,1,1,1]","location_rts":"[1587,1172,1126,892,787,672,455,508,608,422,419]","trial_type":"fractal-mutation","trial_index":90,"time_elapsed":1754374,"internal_node_id":"0.0-5.0-36.0"},{"group":"square cycles (cube, non-group)","fractal_assignment":["../images/grn_red.png","../images/ylw_pnk.png","../images/org_blu.png","../images/ylw_slt.png","../images/gry_blk.png","../images/cyn_red.png","../images/pnk_blu.png","../images/blu_wht.png"],"mutagen_generator_assignment":[1,0],"goal":5,"start":4,"action_noise":0.1,"location_history":"[4,5]","action_history":"[1]","mutagen_history":"[0]","location_rts":"[1679]","trial_type":"fractal-mutation","trial_index":91,"time_elapsed":1760591,"internal_node_id":"0.0-5.0-37.0"},{"group":"square cycles (cube, non-group)","fractal_assignment":["../images/grn_red.png","../images/ylw_pnk.png","../images/org_blu.png","../images/ylw_slt.png","../images/gry_blk.png","../images/cyn_red.png","../images/pnk_blu.png","../images/blu_wht.png"],"mutagen_generator_assignment":[1,0],"goal":0,"start":5,"action_noise":0.1,"location_history":"[5,1,2,3,0]","action_history":"[0,0,0,0]","mutagen_history":"[1,1,1,1]","location_rts":"[917,1391,995,976]","trial_type":"fractal-mutation","trial_index":92,"time_elapsed":1772523,"internal_node_id":"0.0-5.0-38.0"},{"group":"square cycles (cube, non-group)","fractal_assignment":["../images/grn_red.png","../images/ylw_pnk.png","../images/org_blu.png","../images/ylw_slt.png","../images/gry_blk.png","../images/cyn_red.png","../images/pnk_blu.png","../images/blu_wht.png"],"mutagen_generator_assignment":[1,0],"goal":4,"start":0,"action_noise":0.1,"location_history":"[0,1,2,3,0,4]","action_history":"[0,0,0,0,1]","mutagen_history":"[1,1,1,1,0]","location_rts":"[1616,512,406,692,581]","trial_type":"fractal-mutation","trial_index":93,"time_elapsed":1785042,"internal_node_id":"0.0-5.0-39.0"},{"group":"square cycles (cube, non-group)","fractal_assignment":["../images/grn_red.png","../images/ylw_pnk.png","../images/org_blu.png","../images/ylw_slt.png","../images/gry_blk.png","../images/cyn_red.png","../images/pnk_blu.png","../images/blu_wht.png"],"mutagen_generator_assignment":[1,0],"goal":0,"start":4,"action_noise":0.1,"location_history":"[4,7,6,5,4,5,1,0]","action_history":"[0,0,0,0,1,1,1]","mutagen_history":"[1,1,1,1,0,0,0]","location_rts":"[1280,714,613,573,521,585,725]","trial_type":"fractal-mutation","trial_index":94,"time_elapsed":1800844,"internal_node_id":"0.0-5.0-40.0"},{"group":"square cycles (cube, non-group)","fractal_assignment":["../images/grn_red.png","../images/ylw_pnk.png","../images/org_blu.png","../images/ylw_slt.png","../images/gry_blk.png","../images/cyn_red.png","../images/pnk_blu.png","../images/blu_wht.png"],"mutagen_generator_assignment":[1,0],"goal":2,"start":0,"action_noise":0.1,"location_history":"[0,1,2]","action_history":"[0,0]","mutagen_history":"[1,1]","location_rts":"[1456,860]","trial_type":"fractal-mutation","trial_index":95,"time_elapsed":1808754,"internal_node_id":"0.0-5.0-41.0"},{"group":"square cycles (cube, non-group)","fractal_assignment":["../images/grn_red.png","../images/ylw_pnk.png","../images/org_blu.png","../images/ylw_slt.png","../images/gry_blk.png","../images/cyn_red.png","../images/pnk_blu.png","../images/blu_wht.png"],"mutagen_generator_assignment":[1,0],"goal":3,"start":2,"action_noise":0.1,"location_history":"[2,6,7,3]","action_history":"[1,1,1]","mutagen_history":"[0,0,0]","location_rts":"[935,823,767]","trial_type":"fractal-mutation","trial_index":96,"time_elapsed":1817892,"internal_node_id":"0.0-5.0-42.0"},{"group":"square cycles (cube, non-group)","fractal_assignment":["../images/grn_red.png","../images/ylw_pnk.png","../images/org_blu.png","../images/ylw_slt.png","../images/gry_blk.png","../images/cyn_red.png","../images/pnk_blu.png","../images/blu_wht.png"],"mutagen_generator_assignment":[1,0],"goal":5,"start":3,"action_noise":0.1,"location_history":"[3,0,1,2,3,2,6,7,3,0,1,2,6,7,3,2,3,0,1,2,6,5]","action_history":"[0,0,0,0,1,1,1,1,0,0,0,1,1,1,1,1,0,0,0,0,0]","mutagen_history":"[1,1,1,1,0,0,0,0,1,1,1,0,0,0,0,0,1,1,1,1,1]","location_rts":"[1061,659,475,917,641,556,539,617,530,353,471,585,615,692,662,684,439,378,356,589,503]","trial_type":"fractal-mutation","trial_index":97,"time_elapsed":1855548,"internal_node_id":"0.0-5.0-43.0"},{"group":"square cycles (cube, non-group)","fractal_assignment":["../images/grn_red.png","../images/ylw_pnk.png","../images/org_blu.png","../images/ylw_slt.png","../images/gry_blk.png","../images/cyn_red.png","../images/pnk_blu.png","../images/blu_wht.png"],"mutagen_generator_assignment":[1,0],"goal":1,"start":5,"action_noise":0.1,"location_history":"[5,4,7,6,7,3,2,3,0,1]","action_history":"[0,0,0,1,1,1,0,0,0]","mutagen_history":"[1,1,1,0,0,0,1,1,1]","location_rts":"[1769,504,424,544,556,425,1254,454,432]","trial_type":"fractal-mutation","trial_index":98,"time_elapsed":1874779,"internal_node_id":"0.0-5.0-44.0"},{"group":"square cycles (cube, non-group)","fractal_assignment":["../images/grn_red.png","../images/ylw_pnk.png","../images/org_blu.png","../images/ylw_slt.png","../images/gry_blk.png","../images/cyn_red.png","../images/pnk_blu.png","../images/blu_wht.png"],"mutagen_generator_assignment":[1,0],"goal":7,"start":1,"action_noise":0.1,"location_history":"[1,0,4,5,4,7]","action_history":"[1,1,1,0,0]","mutagen_history":"[0,0,0,1,1]","location_rts":"[1671,588,574,658,657]","trial_type":"fractal-mutation","trial_index":99,"time_elapsed":1887630,"internal_node_id":"0.0-5.0-45.0"},{"group":"square cycles (cube, non-group)","fractal_assignment":["../images/grn_red.png","../images/ylw_pnk.png","../images/org_blu.png","../images/ylw_slt.png","../images/gry_blk.png","../images/cyn_red.png","../images/pnk_blu.png","../images/blu_wht.png"],"mutagen_generator_assignment":[1,0],"goal":6,"start":7,"action_noise":0.1,"location_history":"[7,3,2,6]","action_history":"[1,1,1]","mutagen_history":"[0,0,0]","location_rts":"[1939,704,471]","trial_type":"fractal-mutation","trial_index":100,"time_elapsed":1897350,"internal_node_id":"0.0-5.0-46.0"},{"group":"square cycles (cube, non-group)","fractal_assignment":["../images/grn_red.png","../images/ylw_pnk.png","../images/org_blu.png","../images/ylw_slt.png","../images/gry_blk.png","../images/cyn_red.png","../images/pnk_blu.png","../images/blu_wht.png"],"mutagen_generator_assignment":[1,0],"goal":3,"start":6,"action_noise":0.1,"location_history":"[6,5,4,7,3]","action_history":"[0,0,0,1]","mutagen_history":"[1,1,1,0]","location_rts":"[1263,490,395,883]","trial_type":"fractal-mutation","trial_index":101,"time_elapsed":1908061,"internal_node_id":"0.0-5.0-47.0"},{"group":"square cycles (cube, non-group)","fractal_assignment":["../images/grn_red.png","../images/ylw_pnk.png","../images/org_blu.png","../images/ylw_slt.png","../images/gry_blk.png","../images/cyn_red.png","../images/pnk_blu.png","../images/blu_wht.png"],"mutagen_generator_assignment":[1,0],"goal":0,"start":3,"action_noise":0.1,"location_history":"[3,2,6,7,3,0]","action_history":"[0,1,1,1,0]","mutagen_history":"[1,0,0,0,1]","location_rts":"[1614,2342,961,807,495]","trial_type":"fractal-mutation","trial_index":102,"time_elapsed":1922965,"internal_node_id":"0.0-5.0-48.0"},{"group":"square cycles (cube, non-group)","fractal_assignment":["../images/grn_red.png","../images/ylw_pnk.png","../images/org_blu.png","../images/ylw_slt.png","../images/gry_blk.png","../images/cyn_red.png","../images/pnk_blu.png","../images/blu_wht.png"],"mutagen_generator_assignment":[1,0],"goal":2,"start":0,"action_noise":0.1,"location_history":"[0,1,2]","action_history":"[0,0]","mutagen_history":"[1,1]","location_rts":"[1140,954]","trial_type":"fractal-mutation","trial_index":103,"time_elapsed":1930661,"internal_node_id":"0.0-5.0-49.0"},{"view_history":"[{\"page_index\":0,\"viewing_time\":27864}]","rt":27864,"trial_type":"instructions","trial_index":104,"time_elapsed":1959527,"internal_node_id":"0.0-6.0"},{"rt":5069,"responses":"{\"Q0\":\"no\"}","trial_type":"survey-text","trial_index":105,"time_elapsed":1965604,"internal_node_id":"0.0-7.0"}]