[{"view_history":"[{\"page_index\":0,\"viewing_time\":5224},{\"page_index\":1,\"viewing_time\":12002},{\"page_index\":2,\"viewing_time\":23379},{\"page_index\":3,\"viewing_time\":6626}]","rt":47234,"trial_type":"instructions","trial_index":0,"time_elapsed":47238,"internal_node_id":"0.0-0.0"},{"view_history":"[{\"page_index\":0,\"viewing_time\":66930},{\"page_index\":1,\"viewing_time\":1248790}]","rt":1315724,"trial_type":"instructions","trial_index":1,"time_elapsed":1363968,"internal_node_id":"0.0-1.0"},{"group":"square cycles (cube, non-group)","room_assignment":["brown","grey","red","purple","pink","yellow","green","blue"],"door_color_assignment":["black","white"],"door_generator_assignment":[0,1],"goal":3,"start":0,"action_noise":0.1,"location_history":"[0,4,5,4,5,4,7,6,5,4,5,1,0,4,5,1,0,4,5,1,2,3]","action_history":"[1,1,0,0,0,0,0,0,0,1,1,1,1,1,1,1,1,1,1,0,0]","door_history":"[1,1,0,0,0,0,0,0,0,1,1,1,1,1,1,1,1,1,1,0,0]","location_rts":"[936,2795,960,2461,906,995,680,489,565,1015,457,696,625,783,1929,551,959,419,506,1744,424]","trial_type":"two-door-navigation","trial_index":2,"time_elapsed":1409892,"internal_node_id":"0.0-2.0-0.0"},{"group":"square cycles (cube, non-group)","room_assignment":["brown","grey","red","purple","pink","yellow","green","blue"],"door_color_assignment":["black","white"],"door_generator_assignment":[0,1],"goal":1,"start":3,"action_noise":0.1,"location_history":"[3,2,6,5,4,7,6,5,1]","action_history":"[1,1,0,0,0,0,0,0]","door_history":"[1,1,0,0,0,0,0,0]","location_rts":"[1331,537,1156,390,495,440,404,457]","trial_type":"two-door-navigation","trial_index":3,"time_elapsed":1426781,"internal_node_id":"0.0-2.0-1.0"},{"group":"square cycles (cube, non-group)","room_assignment":["brown","grey","red","purple","pink","yellow","green","blue"],"door_color_assignment":["black","white"],"door_generator_assignment":[0,1],"goal":2,"start":1,"action_noise":0.1,"location_history":"[1,0,4,5,1,0,4,7,6,5,4,7,6,5,4,5,1,0,1,0,1,0,1,2]","action_history":"[1,1,1,1,1,1,0,0,0,0,0,0,0,0,1,1,1,1,1,1,1,0,0]","door_history":"[1,1,1,1,1,1,0,0,0,0,0,0,0,0,1,1,1,1,1,1,1,0,0]","location_rts":"[2046,408,593,1516,510,2363,858,401,390,376,385,449,392,625,647,350,341,356,353,482,587,860,358]","trial_type":"two-door-navigation","trial_index":4,"time_elapsed":1469489,"internal_node_id":"0.0-2.0-2.0"},{"group":"square cycles (cube, non-group)","room_assignment":["brown","grey","red","purple","pink","yellow","green","blue"],"door_color_assignment":["black","white"],"door_generator_assignment":[0,1],"goal":6,"start":2,"action_noise":0.1,"location_history":"[2,6]","action_history":"[0]","door_history":"[0]","location_rts":"[1548]","trial_type":"two-door-navigation","trial_index":5,"time_elapsed":1475575,"internal_node_id":"0.0-2.0-3.0"},{"group":"square cycles (cube, non-group)","room_assignment":["brown","grey","red","purple","pink","yellow","green","blue"],"door_color_assignment":["black","white"],"door_generator_assignment":[0,1],"goal":5,"start":6,"action_noise":0.1,"location_history":"[6,7,3,0,4,5]","action_history":"[1,1,1,1,1]","door_history":"[1,1,1,1,1]","location_rts":"[1795,351,355,367,345]","trial_type":"two-door-navigation","trial_index":6,"time_elapsed":1487414,"internal_node_id":"0.0-2.0-4.0"},{"group":"square cycles (cube, non-group)","room_assignment":["brown","grey","red","purple","pink","yellow","green","blue"],"door_color_assignment":["black","white"],"door_generator_assignment":[0,1],"goal":4,"start":5,"action_noise":0.1,"location_history":"[5,1,0,4]","action_history":"[1,1,1]","door_history":"[1,1,1]","location_rts":"[1308,354,324]","trial_type":"two-door-navigation","trial_index":7,"time_elapsed":1495992,"internal_node_id":"0.0-2.0-5.0"},{"group":"square cycles (cube, non-group)","room_assignment":["brown","grey","red","purple","pink","yellow","green","blue"],"door_color_assignment":["black","white"],"door_generator_assignment":[0,1],"goal":7,"start":4,"action_noise":0.1,"location_history":"[4,7]","action_history":"[0]","door_history":"[0]","location_rts":"[1260]","trial_type":"two-door-navigation","trial_index":8,"time_elapsed":1501777,"internal_node_id":"0.0-2.0-6.0"},{"group":"square cycles (cube, non-group)","room_assignment":["brown","grey","red","purple","pink","yellow","green","blue"],"door_color_assignment":["black","white"],"door_generator_assignment":[0,1],"goal":4,"start":7,"action_noise":0.1,"location_history":"[7,3,2,6,7,6,5,4]","action_history":"[1,1,1,1,0,0,0]","door_history":"[1,1,1,1,0,0,0]","location_rts":"[1715,527,318,371,546,1818,445]","trial_type":"two-door-navigation","trial_index":9,"time_elapsed":1518177,"internal_node_id":"0.0-2.0-7.0"},{"group":"square cycles (cube, non-group)","room_assignment":["brown","grey","red","purple","pink","yellow","green","blue"],"door_color_assignment":["black","white"],"door_generator_assignment":[0,1],"goal":6,"start":4,"action_noise":0.1,"location_history":"[4,7,3,0,1,2,6]","action_history":"[0,0,0,0,0,1]","door_history":"[0,0,0,0,0,1]","location_rts":"[1369,440,569,19317,347,1034]","trial_type":"two-door-navigation","trial_index":10,"time_elapsed":1550906,"internal_node_id":"0.0-2.0-8.0"},{"group":"square cycles (cube, non-group)","room_assignment":["brown","grey","red","purple","pink","yellow","green","blue"],"door_color_assignment":["black","white"],"door_generator_assignment":[0,1],"goal":0,"start":6,"action_noise":0.1,"location_history":"[6,5,4,5,1,0]","action_history":"[0,0,1,1,1]","door_history":"[0,0,1,1,1]","location_rts":"[1328,414,627,393,474]","trial_type":"two-door-navigation","trial_index":11,"time_elapsed":1562765,"internal_node_id":"0.0-2.0-9.0"},{"group":"square cycles (cube, non-group)","room_assignment":["brown","grey","red","purple","pink","yellow","green","blue"],"door_color_assignment":["black","white"],"door_generator_assignment":[0,1],"goal":1,"start":0,"action_noise":0.1,"location_history":"[0,1]","action_history":"[0]","door_history":"[0]","location_rts":"[1214]","trial_type":"two-door-navigation","trial_index":12,"time_elapsed":1568518,"internal_node_id":"0.0-2.0-10.0"},{"group":"square cycles (cube, non-group)","room_assignment":["brown","grey","red","purple","pink","yellow","green","blue"],"door_color_assignment":["black","white"],"door_generator_assignment":[0,1],"goal":3,"start":1,"action_noise":0.1,"location_history":"[1,2,3]","action_history":"[0,0]","door_history":"[0,0]","location_rts":"[2175,355]","trial_type":"two-door-navigation","trial_index":13,"time_elapsed":1576596,"internal_node_id":"0.0-2.0-11.0"},{"group":"square cycles (cube, non-group)","room_assignment":["brown","grey","red","purple","pink","yellow","green","blue"],"door_color_assignment":["black","white"],"door_generator_assignment":[0,1],"goal":7,"start":3,"action_noise":0.1,"location_history":"[3,2,3,2,6,7]","action_history":"[1,0,1,1,1]","door_history":"[1,0,1,1,1]","location_rts":"[1889,350,599,355,1296]","trial_type":"two-door-navigation","trial_index":14,"time_elapsed":1589728,"internal_node_id":"0.0-2.0-12.0"},{"group":"square cycles (cube, non-group)","room_assignment":["brown","grey","red","purple","pink","yellow","green","blue"],"door_color_assignment":["black","white"],"door_generator_assignment":[0,1],"goal":5,"start":7,"action_noise":0.1,"location_history":"[7,6,5]","action_history":"[0,0]","door_history":"[0,0]","location_rts":"[2229,1126]","trial_type":"two-door-navigation","trial_index":15,"time_elapsed":1598631,"internal_node_id":"0.0-2.0-13.0"},{"group":"square cycles (cube, non-group)","room_assignment":["brown","grey","red","purple","pink","yellow","green","blue"],"door_color_assignment":["black","white"],"door_generator_assignment":[0,1],"goal":2,"start":5,"action_noise":0.1,"location_history":"[5,1,0,1,0,4,5,1,2]","action_history":"[1,1,1,1,1,1,0,0]","door_history":"[1,1,1,1,1,1,0,0]","location_rts":"[1216,474,409,449,426,448,758,355]","trial_type":"two-door-navigation","trial_index":16,"time_elapsed":1614846,"internal_node_id":"0.0-2.0-14.0"},{"group":"square cycles (cube, non-group)","room_assignment":["brown","grey","red","purple","pink","yellow","green","blue"],"door_color_assignment":["black","white"],"door_generator_assignment":[0,1],"goal":7,"start":2,"action_noise":0.1,"location_history":"[2,3,0,4,7]","action_history":"[0,0,0,0]","door_history":"[0,0,0,0]","location_rts":"[1453,494,388,376]","trial_type":"two-door-navigation","trial_index":17,"time_elapsed":1625158,"internal_node_id":"0.0-2.0-15.0"},{"group":"square cycles (cube, non-group)","room_assignment":["brown","grey","red","purple","pink","yellow","green","blue"],"door_color_assignment":["black","white"],"door_generator_assignment":[0,1],"goal":4,"start":7,"action_noise":0.1,"location_history":"[7,3,2,6,5,4]","action_history":"[1,1,1,1,1]","door_history":"[1,1,1,1,1]","location_rts":"[1540,432,1829,363,2150]","trial_type":"two-door-navigation","trial_index":18,"time_elapsed":1640111,"internal_node_id":"0.0-2.0-16.0"},{"group":"square cycles (cube, non-group)","room_assignment":["brown","grey","red","purple","pink","yellow","green","blue"],"door_color_assignment":["black","white"],"door_generator_assignment":[0,1],"goal":2,"start":4,"action_noise":0.1,"location_history":"[4,5,4,7,6,5,4,5,1,0,1,2]","action_history":"[0,0,0,0,0,0,1,1,1,1,1]","door_history":"[0,0,0,0,0,0,1,1,1,1,1]","location_rts":"[1484,365,428,478,503,507,1152,375,463,445,461]","trial_type":"two-door-navigation","trial_index":19,"time_elapsed":1661508,"internal_node_id":"0.0-2.0-17.0"},{"group":"square cycles (cube, non-group)","room_assignment":["brown","grey","red","purple","pink","yellow","green","blue"],"door_color_assignment":["black","white"],"door_generator_assignment":[0,1],"goal":3,"start":2,"action_noise":0.1,"location_history":"[2,3]","action_history":"[0]","door_history":"[0]","location_rts":"[1467]","trial_type":"two-door-navigation","trial_index":20,"time_elapsed":1667499,"internal_node_id":"0.0-2.0-18.0"},{"group":"square cycles (cube, non-group)","room_assignment":["brown","grey","red","purple","pink","yellow","green","blue"],"door_color_assignment":["black","white"],"door_generator_assignment":[0,1],"goal":6,"start":3,"action_noise":0.1,"location_history":"[3,0,1,2,3,0,1,0,4,5,1,0,1,0,4,5,1,0,4,7,6]","action_history":"[0,0,0,0,0,0,1,1,1,1,1,1,1,1,1,1,1,1,0,0]","door_history":"[0,0,0,0,0,0,1,1,1,1,1,1,1,1,1,1,1,1,0,0]","location_rts":"[1231,405,405,451,503,552,761,364,1542,395,357,369,394,366,498,321,383,390,565,311]","trial_type":"two-door-navigation","trial_index":21,"time_elapsed":1702014,"internal_node_id":"0.0-2.0-19.0"},{"group":"square cycles (cube, non-group)","room_assignment":["brown","grey","red","purple","pink","yellow","green","blue"],"door_color_assignment":["black","white"],"door_generator_assignment":[0,1],"goal":5,"start":6,"action_noise":0.1,"location_history":"[6,5]","action_history":"[0]","door_history":"[0]","location_rts":"[1126]","trial_type":"two-door-navigation","trial_index":22,"time_elapsed":1707667,"internal_node_id":"0.0-2.0-20.0"},{"group":"square cycles (cube, non-group)","room_assignment":["brown","grey","red","purple","pink","yellow","green","blue"],"door_color_assignment":["black","white"],"door_generator_assignment":[0,1],"goal":1,"start":5,"action_noise":0.1,"location_history":"[5,4,7,6,7,3,2,6,7,3,0,1]","action_history":"[0,0,0,1,1,1,1,1,0,0,0]","door_history":"[0,0,0,1,1,1,1,1,0,0,0]","location_rts":"[1732,443,460,987,707,471,464,411,726,306,1646]","trial_type":"two-door-navigation","trial_index":23,"time_elapsed":1730808,"internal_node_id":"0.0-2.0-21.0"},{"group":"square cycles (cube, non-group)","room_assignment":["brown","grey","red","purple","pink","yellow","green","blue"],"door_color_assignment":["black","white"],"door_generator_assignment":[0,1],"goal":0,"start":1,"action_noise":0.1,"location_history":"[1,2,3,2,6,7,3,2,6,7,3,2,3,0]","action_history":"[0,0,0,0,1,1,1,1,1,1,1,1,0]","door_history":"[0,0,0,0,1,1,1,1,1,1,1,1,0]","location_rts":"[3863,455,363,1217,768,340,443,394,392,1137,346,401,1081]","trial_type":"two-door-navigation","trial_index":24,"time_elapsed":1758837,"internal_node_id":"0.0-2.0-22.0"},{"group":"square cycles (cube, non-group)","room_assignment":["brown","grey","red","purple","pink","yellow","green","blue"],"door_color_assignment":["black","white"],"door_generator_assignment":[0,1],"goal":2,"start":0,"action_noise":0.1,"location_history":"[0,1,0,1,2]","action_history":"[0,0,0,0]","door_history":"[0,0,0,0]","location_rts":"[966,310,429,1478]","trial_type":"two-door-navigation","trial_index":25,"time_elapsed":1769619,"internal_node_id":"0.0-2.0-23.0"},{"group":"square cycles (cube, non-group)","room_assignment":["brown","grey","red","purple","pink","yellow","green","blue"],"door_color_assignment":["black","white"],"door_generator_assignment":[0,1],"goal":6,"start":2,"action_noise":0.1,"location_history":"[2,3,0,1,2,6]","action_history":"[0,0,0,0,0]","door_history":"[0,0,0,0,0]","location_rts":"[1161,423,762,4741,472]","trial_type":"two-door-navigation","trial_index":26,"time_elapsed":1785807,"internal_node_id":"0.0-2.0-24.0"},{"group":"square cycles (cube, non-group)","room_assignment":["brown","grey","red","purple","pink","yellow","green","blue"],"door_color_assignment":["black","white"],"door_generator_assignment":[0,1],"goal":1,"start":6,"action_noise":0.1,"location_history":"[6,5,1]","action_history":"[0,1]","door_history":"[0,1]","location_rts":"[3162,878]","trial_type":"two-door-navigation","trial_index":27,"time_elapsed":1795397,"internal_node_id":"0.0-2.0-25.0"},{"group":"square cycles (cube, non-group)","room_assignment":["brown","grey","red","purple","pink","yellow","green","blue"],"door_color_assignment":["black","white"],"door_generator_assignment":[0,1],"goal":3,"start":1,"action_noise":0.1,"location_history":"[1,2,3]","action_history":"[0,0]","door_history":"[0,0]","location_rts":"[1489,434]","trial_type":"two-door-navigation","trial_index":28,"time_elapsed":1802888,"internal_node_id":"0.0-2.0-26.0"},{"group":"square cycles (cube, non-group)","room_assignment":["brown","grey","red","purple","pink","yellow","green","blue"],"door_color_assignment":["black","white"],"door_generator_assignment":[0,1],"goal":7,"start":3,"action_noise":0.1,"location_history":"[3,0,1,2,3,2,3,0,1,2,3,2,6,7]","action_history":"[0,0,0,0,0,0,0,0,0,0,1,1,1]","door_history":"[0,0,0,0,0,0,0,0,0,0,1,1,1]","location_rts":"[1860,379,376,379,1170,492,890,866,695,599,556,352,1390]","trial_type":"two-door-navigation","trial_index":29,"time_elapsed":1829730,"internal_node_id":"0.0-2.0-27.0"},{"group":"square cycles (cube, non-group)","room_assignment":["brown","grey","red","purple","pink","yellow","green","blue"],"door_color_assignment":["black","white"],"door_generator_assignment":[0,1],"goal":4,"start":7,"action_noise":0.1,"location_history":"[7,3,2,3,2,6,5,4]","action_history":"[1,1,1,1,1,0,0]","door_history":"[1,1,1,1,1,0,0]","location_rts":"[1874,443,492,1489,411,553,308]","trial_type":"two-door-navigation","trial_index":30,"time_elapsed":1845960,"internal_node_id":"0.0-2.0-28.0"},{"group":"square cycles (cube, non-group)","room_assignment":["brown","grey","red","purple","pink","yellow","green","blue"],"door_color_assignment":["black","white"],"door_generator_assignment":[0,1],"goal":0,"start":4,"action_noise":0.1,"location_history":"[4,7,3,2,6,7,3,2,6,7,6,7,6,5,1,0]","action_history":"[0,1,1,1,1,1,1,1,0,0,0,0,0,1,1]","door_history":"[0,1,1,1,1,1,1,1,0,0,0,0,0,1,1]","location_rts":"[1333,587,387,401,428,430,498,456,721,500,426,391,439,1803,717]","trial_type":"two-door-navigation","trial_index":31,"time_elapsed":1874305,"internal_node_id":"0.0-2.0-29.0"},{"group":"square cycles (cube, non-group)","room_assignment":["brown","grey","red","purple","pink","yellow","green","blue"],"door_color_assignment":["black","white"],"door_generator_assignment":[0,1],"goal":5,"start":0,"action_noise":0.1,"location_history":"[0,1,2,3,0,1,2,3,2,6,7,3,2,6,5]","action_history":"[0,0,0,0,0,0,0,1,1,1,1,1,1,0]","door_history":"[0,0,0,0,0,0,0,1,1,1,1,1,1,0]","location_rts":"[1189,1166,367,449,341,426,340,521,1228,362,358,447,351,371]","trial_type":"two-door-navigation","trial_index":32,"time_elapsed":1900008,"internal_node_id":"0.0-2.0-30.0"},{"group":"square cycles (cube, non-group)","room_assignment":["brown","grey","red","purple","pink","yellow","green","blue"],"door_color_assignment":["black","white"],"door_generator_assignment":[0,1],"goal":3,"start":5,"action_noise":0.1,"location_history":"[5,1,2,3]","action_history":"[0,0,0]","door_history":"[0,0,0]","location_rts":"[1208,473,342]","trial_type":"two-door-navigation","trial_index":33,"time_elapsed":1908594,"internal_node_id":"0.0-2.0-31.0"},{"group":"square cycles (cube, non-group)","room_assignment":["brown","grey","red","purple","pink","yellow","green","blue"],"door_color_assignment":["black","white"],"door_generator_assignment":[0,1],"goal":2,"start":3,"action_noise":0.1,"location_history":"[3,0,4,7,6,5,4,5,1,0,4,7,6,5,4,7,3,2]","action_history":"[0,0,0,0,0,0,1,1,1,1,1,0,0,0,0,1,1]","door_history":"[0,0,0,0,0,0,1,1,1,1,1,0,0,0,0,1,1]","location_rts":"[28682,377,361,283,321,342,728,1585,344,1659,383,569,300,1213,356,440,349]","trial_type":"two-door-navigation","trial_index":34,"time_elapsed":1967854,"internal_node_id":"0.0-2.0-32.0"},{"group":"square cycles (cube, non-group)","room_assignment":["brown","grey","red","purple","pink","yellow","green","blue"],"door_color_assignment":["black","white"],"door_generator_assignment":[0,1],"goal":6,"start":2,"action_noise":0.1,"location_history":"[2,3,0,1,2,6]","action_history":"[0,0,0,0,1]","door_history":"[0,0,0,0,1]","location_rts":"[59819,364,443,361,678]","trial_type":"two-door-navigation","trial_index":35,"time_elapsed":2038181,"internal_node_id":"0.0-2.0-33.0"},{"group":"square cycles (cube, non-group)","room_assignment":["brown","grey","red","purple","pink","yellow","green","blue"],"door_color_assignment":["black","white"],"door_generator_assignment":[0,1],"goal":1,"start":6,"action_noise":0.1,"location_history":"[6,7,6,5,1]","action_history":"[1,1,0,0]","door_history":"[1,1,0,0]","location_rts":"[730,984,506,332]","trial_type":"two-door-navigation","trial_index":36,"time_elapsed":2048328,"internal_node_id":"0.0-2.0-34.0"},{"group":"square cycles (cube, non-group)","room_assignment":["brown","grey","red","purple","pink","yellow","green","blue"],"door_color_assignment":["black","white"],"door_generator_assignment":[0,1],"goal":7,"start":1,"action_noise":0.1,"location_history":"[1,0,4,5,4,5,4,7]","action_history":"[1,1,1,1,1,0,0]","door_history":"[1,1,1,1,1,0,0]","location_rts":"[1392,319,411,327,573,350,301]","trial_type":"two-door-navigation","trial_index":37,"time_elapsed":2062656,"internal_node_id":"0.0-2.0-35.0"},{"group":"square cycles (cube, non-group)","room_assignment":["brown","grey","red","purple","pink","yellow","green","blue"],"door_color_assignment":["black","white"],"door_generator_assignment":[0,1],"goal":4,"start":7,"action_noise":0.1,"location_history":"[7,3,2,6,7,3,0,1,2,3,0,1,2,3,2,6,7,3,0,1,2,6,5,4]","action_history":"[1,1,1,1,1,0,0,0,0,0,0,0,0,1,1,1,1,0,0,1,1,0,0]","door_history":"[1,1,1,1,1,0,0,0,0,0,0,0,0,1,1,1,1,0,0,1,1,0,0]","location_rts":"[1344,381,294,400,1609,546,307,1083,357,430,414,298,363,273,328,310,350,294,294,950,421,305,299]","trial_type":"two-door-navigation","trial_index":38,"time_elapsed":2101390,"internal_node_id":"0.0-2.0-36.0"},{"group":"square cycles (cube, non-group)","room_assignment":["brown","grey","red","purple","pink","yellow","green","blue"],"door_color_assignment":["black","white"],"door_generator_assignment":[0,1],"goal":5,"start":4,"action_noise":0.1,"location_history":"[4,7,6,5]","action_history":"[0,0,0]","door_history":"[0,0,0]","location_rts":"[1752,302,319]","trial_type":"two-door-navigation","trial_index":39,"time_elapsed":2110331,"internal_node_id":"0.0-2.0-37.0"},{"group":"square cycles (cube, non-group)","room_assignment":["brown","grey","red","purple","pink","yellow","green","blue"],"door_color_assignment":["black","white"],"door_generator_assignment":[0,1],"goal":0,"start":5,"action_noise":0.1,"location_history":"[5,1,2,6,7,3,2,3,0]","action_history":"[1,1,1,1,1,1,0,0]","door_history":"[1,1,1,1,1,1,0,0]","location_rts":"[2872,414,317,595,1167,356,483,789]","trial_type":"two-door-navigation","trial_index":40,"time_elapsed":2129018,"internal_node_id":"0.0-2.0-38.0"},{"group":"square cycles (cube, non-group)","room_assignment":["brown","grey","red","purple","pink","yellow","green","blue"],"door_color_assignment":["black","white"],"door_generator_assignment":[0,1],"goal":4,"start":0,"action_noise":0.1,"location_history":"[0,1,0,4]","action_history":"[1,1,1]","door_history":"[1,1,1]","location_rts":"[1322,442,338]","trial_type":"two-door-navigation","trial_index":41,"time_elapsed":2137681,"internal_node_id":"0.0-2.0-39.0"},{"group":"square cycles (cube, non-group)","room_assignment":["brown","grey","red","purple","pink","yellow","green","blue"],"door_color_assignment":["black","white"],"door_generator_assignment":[0,1],"goal":0,"start":4,"action_noise":0.1,"location_history":"[4,5,1,0]","action_history":"[1,1,1]","door_history":"[1,1,1]","location_rts":"[1536,358,343]","trial_type":"two-door-navigation","trial_index":42,"time_elapsed":2146483,"internal_node_id":"0.0-2.0-40.0"},{"group":"square cycles (cube, non-group)","room_assignment":["brown","grey","red","purple","pink","yellow","green","blue"],"door_color_assignment":["black","white"],"door_generator_assignment":[0,1],"goal":2,"start":0,"action_noise":0.1,"location_history":"[0,1,2]","action_history":"[0,0]","door_history":"[0,0]","location_rts":"[1200,339]","trial_type":"two-door-navigation","trial_index":43,"time_elapsed":2153567,"internal_node_id":"0.0-2.0-41.0"},{"group":"square cycles (cube, non-group)","room_assignment":["brown","grey","red","purple","pink","yellow","green","blue"],"door_color_assignment":["black","white"],"door_generator_assignment":[0,1],"goal":3,"start":2,"action_noise":0.1,"location_history":"[2,3]","action_history":"[0]","door_history":"[0]","location_rts":"[1781]","trial_type":"two-door-navigation","trial_index":44,"time_elapsed":2159873,"internal_node_id":"0.0-2.0-42.0"},{"group":"square cycles (cube, non-group)","room_assignment":["brown","grey","red","purple","pink","yellow","green","blue"],"door_color_assignment":["black","white"],"door_generator_assignment":[0,1],"goal":5,"start":3,"action_noise":0.1,"location_history":"[3,2,6,7,3,2,6,7,6,7,6,5]","action_history":"[1,1,1,1,1,1,1,0,0,0,0]","door_history":"[1,1,1,1,1,1,1,0,0,0,0]","location_rts":"[1352,591,355,396,432,601,425,338,423,396,358]","trial_type":"two-door-navigation","trial_index":45,"time_elapsed":2180309,"internal_node_id":"0.0-2.0-43.0"},{"group":"square cycles (cube, non-group)","room_assignment":["brown","grey","red","purple","pink","yellow","green","blue"],"door_color_assignment":["black","white"],"door_generator_assignment":[0,1],"goal":1,"start":5,"action_noise":0.1,"location_history":"[5,4,5,1]","action_history":"[1,1,1]","door_history":"[1,1,1]","location_rts":"[1237,579,522]","trial_type":"two-door-navigation","trial_index":46,"time_elapsed":2189226,"internal_node_id":"0.0-2.0-44.0"},{"group":"square cycles (cube, non-group)","room_assignment":["brown","grey","red","purple","pink","yellow","green","blue"],"door_color_assignment":["black","white"],"door_generator_assignment":[0,1],"goal":7,"start":1,"action_noise":0.1,"location_history":"[1,2,3,0,1,2,3,0,4,5,1,0,4,5,4,7]","action_history":"[0,0,0,0,0,0,1,1,1,1,1,1,1,0,0]","door_history":"[0,0,0,0,0,0,1,1,1,1,1,1,1,0,0]","location_rts":"[9551,2023,513,399,670,561,1613,1011,2110,486,452,410,380,293,285]","trial_type":"two-door-navigation","trial_index":47,"time_elapsed":2228810,"internal_node_id":"0.0-2.0-45.0"},{"group":"square cycles (cube, non-group)","room_assignment":["brown","grey","red","purple","pink","yellow","green","blue"],"door_color_assignment":["black","white"],"door_generator_assignment":[0,1],"goal":6,"start":7,"action_noise":0.1,"location_history":"[7,6]","action_history":"[0]","door_history":"[0]","location_rts":"[356559]","trial_type":"two-door-navigation","trial_index":48,"time_elapsed":2589903,"internal_node_id":"0.0-2.0-46.0"},{"group":"square cycles (cube, non-group)","room_assignment":["brown","grey","red","purple","pink","yellow","green","blue"],"door_color_assignment":["black","white"],"door_generator_assignment":[0,1],"goal":3,"start":6,"action_noise":0.1,"location_history":"[6,7,3]","action_history":"[1,1]","door_history":"[1,1]","location_rts":"[1054,315]","trial_type":"two-door-navigation","trial_index":49,"time_elapsed":2596840,"internal_node_id":"0.0-2.0-47.0"},{"group":"square cycles (cube, non-group)","room_assignment":["brown","grey","red","purple","pink","yellow","green","blue"],"door_color_assignment":["black","white"],"door_generator_assignment":[0,1],"goal":0,"start":3,"action_noise":0.1,"location_history":"[3,0]","action_history":"[0]","door_history":"[0]","location_rts":"[1103]","trial_type":"two-door-navigation","trial_index":50,"time_elapsed":2602475,"internal_node_id":"0.0-2.0-48.0"},{"group":"square cycles (cube, non-group)","room_assignment":["brown","grey","red","purple","pink","yellow","green","blue"],"door_color_assignment":["black","white"],"door_generator_assignment":[0,1],"goal":2,"start":0,"action_noise":0.1,"location_history":"[0,4,5,4,7,6,5,4,5,4,5,1,0,4,5,1,2]","action_history":"[1,1,0,0,0,0,0,0,1,1,1,1,1,1,1,0]","door_history":"[1,1,0,0,0,0,0,0,1,1,1,1,1,1,1,0]","location_rts":"[888,476,1923,356,384,368,422,390,525,328,321,486,358,891,339,459]","trial_type":"two-door-navigation","trial_index":51,"time_elapsed":2631321,"internal_node_id":"0.0-2.0-49.0"},{"view_history":"[{\"page_index\":0,\"viewing_time\":2345}]","rt":2348,"trial_type":"instructions","trial_index":52,"time_elapsed":2634670,"internal_node_id":"0.0-3.0"},{"view_history":"[{\"page_index\":0,\"viewing_time\":122083},{\"page_index\":1,\"viewing_time\":30515}]","rt":152600,"trial_type":"instructions","trial_index":53,"time_elapsed":2788270,"internal_node_id":"0.0-4.0"},{"group":"tri cycles (cube, non-group)","fractal_assignment":["../images/pnk_blu.png","../images/blu_wht.png","../images/gry_blk.png","../images/org_blu.png","../images/grn_red.png","../images/ylw_slt.png","../images/cyn_red.png","../images/ylw_pnk.png"],"mutagen_generator_assignment":[0,1],"goal":3,"start":0,"action_noise":0.1,"location_history":"[0,2,6,5,2,6,4,7,6,5,2,1,5,2,1,0,2,6,5,1,0,2,1,5,1,5,1,5,2,1,5,2,6,4,7,6,5,1,0,2,1,0,2,1,0,3]","action_history":"[0,1,1,1,1,0,0,0,0,1,0,1,1,0,0,0,1,1,1,0,0,0,1,0,1,0,1,1,0,1,1,1,1,0,1,0,0,0,0,0,0,0,0,0,1]","mutagen_history":"[0,1,1,1,1,0,0,0,0,1,0,1,1,0,0,0,1,1,1,0,0,0,1,0,1,0,1,1,0,1,1,1,1,0,1,0,0,0,0,0,0,0,0,0,1]","location_rts":"[5036,1559,1215,463,522,1101,483,1198,605,1532,577,645,434,325,261,596,415,499,534,413,427,549,363,275,383,306,363,270,322,280,277,300,360,242,836,574,205,456,420,311,327,233,112,746,289]","trial_type":"fractal-mutation","trial_index":54,"time_elapsed":2867974,"internal_node_id":"0.0-5.0-0.0"},{"group":"tri cycles (cube, non-group)","fractal_assignment":["../images/pnk_blu.png","../images/blu_wht.png","../images/gry_blk.png","../images/org_blu.png","../images/grn_red.png","../images/ylw_slt.png","../images/cyn_red.png","../images/ylw_pnk.png"],"mutagen_generator_assignment":[0,1],"goal":1,"start":3,"action_noise":0.1,"location_history":"[3,7,6,4,7,3,7,6,5,2,1]","action_history":"[0,0,0,0,0,0,0,1,1,0]","mutagen_history":"[0,0,0,0,0,0,0,1,1,0]","location_rts":"[2208,1604,421,819,269,274,676,315,431,831]","trial_type":"fractal-mutation","trial_index":55,"time_elapsed":2889950,"internal_node_id":"0.0-5.0-1.0"},{"group":"tri cycles (cube, non-group)","fractal_assignment":["../images/pnk_blu.png","../images/blu_wht.png","../images/gry_blk.png","../images/org_blu.png","../images/grn_red.png","../images/ylw_slt.png","../images/cyn_red.png","../images/ylw_pnk.png"],"mutagen_generator_assignment":[0,1],"goal":2,"start":1,"action_noise":0.1,"location_history":"[1,5,2]","action_history":"[1,1]","mutagen_history":"[1,1]","location_rts":"[1539,525]","trial_type":"fractal-mutation","trial_index":56,"time_elapsed":2897699,"internal_node_id":"0.0-5.0-2.0"},{"group":"tri cycles (cube, non-group)","fractal_assignment":["../images/pnk_blu.png","../images/blu_wht.png","../images/gry_blk.png","../images/org_blu.png","../images/grn_red.png","../images/ylw_slt.png","../images/cyn_red.png","../images/ylw_pnk.png"],"mutagen_generator_assignment":[0,1],"goal":6,"start":2,"action_noise":0.1,"location_history":"[2,6]","action_history":"[1]","mutagen_history":"[1]","location_rts":"[1296]","trial_type":"fractal-mutation","trial_index":57,"time_elapsed":2903618,"internal_node_id":"0.0-5.0-3.0"},{"group":"tri cycles (cube, non-group)","fractal_assignment":["../images/pnk_blu.png","../images/blu_wht.png","../images/gry_blk.png","../images/org_blu.png","../images/grn_red.png","../images/ylw_slt.png","../images/cyn_red.png","../images/ylw_pnk.png"],"mutagen_generator_assignment":[0,1],"goal":5,"start":6,"action_noise":0.1,"location_history":"[6,4,0,3,4,0,2,6,4,0,2,1,5]","action_history":"[0,1,1,1,1,1,1,0,0,0,0,1]","mutagen_history":"[0,1,1,1,1,1,1,0,0,0,0,1]","location_rts":"[2625,914,557,369,493,919,544,1699,665,338,808,534]","trial_type":"fractal-mutation","trial_index":58,"time_elapsed":2930483,"internal_node_id":"0.0-5.0-4.0"},{"group":"tri cycles (cube, non-group)","fractal_assignment":["../images/pnk_blu.png","../images/blu_wht.png","../images/gry_blk.png","../images/org_blu.png","../images/grn_red.png","../images/ylw_slt.png","../images/cyn_red.png","../images/ylw_pnk.png"],"mutagen_generator_assignment":[0,1],"goal":4,"start":5,"action_noise":0.1,"location_history":"[5,2,6,5,2,6,5,2,6,5,1,0,2,6,4]","action_history":"[1,0,0,0,1,1,1,1,1,0,0,0,1,0]","mutagen_history":"[1,0,0,0,1,1,1,1,1,0,0,0,1,0]","location_rts":"[1245,474,258,399,467,475,422,415,639,493,364,562,345,510]","trial_type":"fractal-mutation","trial_index":59,"time_elapsed":2956033,"internal_node_id":"0.0-5.0-5.0"},{"group":"tri cycles (cube, non-group)","fractal_assignment":["../images/pnk_blu.png","../images/blu_wht.png","../images/gry_blk.png","../images/org_blu.png","../images/grn_red.png","../images/ylw_slt.png","../images/cyn_red.png","../images/ylw_pnk.png"],"mutagen_generator_assignment":[0,1],"goal":7,"start":4,"action_noise":0.1,"location_history":"[4,0,2,1,0,3,4,7]","action_history":"[1,0,0,0,1,1,0]","mutagen_history":"[1,0,0,0,1,1,0]","location_rts":"[1310,515,360,471,450,380,530]","trial_type":"fractal-mutation","trial_index":60,"time_elapsed":2971056,"internal_node_id":"0.0-5.0-6.0"},{"group":"tri cycles (cube, non-group)","fractal_assignment":["../images/pnk_blu.png","../images/blu_wht.png","../images/gry_blk.png","../images/org_blu.png","../images/grn_red.png","../images/ylw_slt.png","../images/cyn_red.png","../images/ylw_pnk.png"],"mutagen_generator_assignment":[0,1],"goal":4,"start":7,"action_noise":0.1,"location_history":"[7,3,7,3,7,6,5,2,6,4]","action_history":"[1,0,1,0,0,1,1,0,0]","mutagen_history":"[1,0,1,0,0,1,1,0,0]","location_rts":"[1352,596,1003,715,269,633,471,360,435]","trial_type":"fractal-mutation","trial_index":61,"time_elapsed":2990045,"internal_node_id":"0.0-5.0-7.0"},{"group":"tri cycles (cube, non-group)","fractal_assignment":["../images/pnk_blu.png","../images/blu_wht.png","../images/gry_blk.png","../images/org_blu.png","../images/grn_red.png","../images/ylw_slt.png","../images/cyn_red.png","../images/ylw_pnk.png"],"mutagen_generator_assignment":[0,1],"goal":6,"start":4,"action_noise":0.1,"location_history":"[4,0,2,6]","action_history":"[1,0,1]","mutagen_history":"[1,0,1]","location_rts":"[1328,756,391]","trial_type":"fractal-mutation","trial_index":62,"time_elapsed":2999242,"internal_node_id":"0.0-5.0-8.0"},{"group":"tri cycles (cube, non-group)","fractal_assignment":["../images/pnk_blu.png","../images/blu_wht.png","../images/gry_blk.png","../images/org_blu.png","../images/grn_red.png","../images/ylw_slt.png","../images/cyn_red.png","../images/ylw_pnk.png"],"mutagen_generator_assignment":[0,1],"goal":0,"start":6,"action_noise":0.1,"location_history":"[6,5,2,1,0]","action_history":"[1,1,0,0]","mutagen_history":"[1,1,0,0]","location_rts":"[1118,448,487,568]","trial_type":"fractal-mutation","trial_index":63,"time_elapsed":3009653,"internal_node_id":"0.0-5.0-9.0"},{"group":"tri cycles (cube, non-group)","fractal_assignment":["../images/pnk_blu.png","../images/blu_wht.png","../images/gry_blk.png","../images/org_blu.png","../images/grn_red.png","../images/ylw_slt.png","../images/cyn_red.png","../images/ylw_pnk.png"],"mutagen_generator_assignment":[0,1],"goal":1,"start":0,"action_noise":0.1,"location_history":"[0,2,6,4,7,6,4,0,3,7,3,4,0,2,1]","action_history":"[0,1,0,0,0,0,0,1,1,1,1,1,0,0]","mutagen_history":"[0,1,0,0,0,0,0,1,1,1,1,1,0,0]","location_rts":"[1384,448,357,230,45,500,611,244,418,371,369,449,471,128]","trial_type":"fractal-mutation","trial_index":64,"time_elapsed":3034156,"internal_node_id":"0.0-5.0-10.0"},{"group":"tri cycles (cube, non-group)","fractal_assignment":["../images/pnk_blu.png","../images/blu_wht.png","../images/gry_blk.png","../images/org_blu.png","../images/grn_red.png","../images/ylw_slt.png","../images/cyn_red.png","../images/ylw_pnk.png"],"mutagen_generator_assignment":[0,1],"goal":3,"start":1,"action_noise":0.1,"location_history":"[1,0,3]","action_history":"[1,1]","mutagen_history":"[1,1]","location_rts":"[1000,463]","trial_type":"fractal-mutation","trial_index":65,"time_elapsed":3041294,"internal_node_id":"0.0-5.0-11.0"},{"group":"tri cycles (cube, non-group)","fractal_assignment":["../images/pnk_blu.png","../images/blu_wht.png","../images/gry_blk.png","../images/org_blu.png","../images/grn_red.png","../images/ylw_slt.png","../images/cyn_red.png","../images/ylw_pnk.png"],"mutagen_generator_assignment":[0,1],"goal":7,"start":3,"action_noise":0.1,"location_history":"[3,7]","action_history":"[0]","mutagen_history":"[0]","location_rts":"[1319]","trial_type":"fractal-mutation","trial_index":66,"time_elapsed":3047174,"internal_node_id":"0.0-5.0-12.0"},{"group":"tri cycles (cube, non-group)","fractal_assignment":["../images/pnk_blu.png","../images/blu_wht.png","../images/gry_blk.png","../images/org_blu.png","../images/grn_red.png","../images/ylw_slt.png","../images/cyn_red.png","../images/ylw_pnk.png"],"mutagen_generator_assignment":[0,1],"goal":5,"start":7,"action_noise":0.1,"location_history":"[7,3,4,0,2,1,5]","action_history":"[1,1,1,1,0,1]","mutagen_history":"[1,1,1,1,0,1]","location_rts":"[1009,338,344,773,703,484]","trial_type":"fractal-mutation","trial_index":67,"time_elapsed":3060810,"internal_node_id":"0.0-5.0-13.0"},{"group":"tri cycles (cube, non-group)","fractal_assignment":["../images/pnk_blu.png","../images/blu_wht.png","../images/gry_blk.png","../images/org_blu.png","../images/grn_red.png","../images/ylw_slt.png","../images/cyn_red.png","../images/ylw_pnk.png"],"mutagen_generator_assignment":[0,1],"goal":2,"start":5,"action_noise":0.1,"location_history":"[5,2]","action_history":"[1]","mutagen_history":"[1]","location_rts":"[1362]","trial_type":"fractal-mutation","trial_index":68,"time_elapsed":3066766,"internal_node_id":"0.0-5.0-14.0"},{"group":"tri cycles (cube, non-group)","fractal_assignment":["../images/pnk_blu.png","../images/blu_wht.png","../images/gry_blk.png","../images/org_blu.png","../images/grn_red.png","../images/ylw_slt.png","../images/cyn_red.png","../images/ylw_pnk.png"],"mutagen_generator_assignment":[0,1],"goal":7,"start":2,"action_noise":0.1,"location_history":"[2,1,5,2,6,4,7]","action_history":"[0,1,1,1,0,0]","mutagen_history":"[0,1,1,1,0,0]","location_rts":"[6805,535,361,423,440,576]","trial_type":"fractal-mutation","trial_index":69,"time_elapsed":3085830,"internal_node_id":"0.0-5.0-15.0"},{"group":"tri cycles (cube, non-group)","fractal_assignment":["../images/pnk_blu.png","../images/blu_wht.png","../images/gry_blk.png","../images/org_blu.png","../images/grn_red.png","../images/ylw_slt.png","../images/cyn_red.png","../images/ylw_pnk.png"],"mutagen_generator_assignment":[0,1],"goal":4,"start":7,"action_noise":0.1,"location_history":"[7,3,7,6,5,1,0,2,1,5,2,6,4]","action_history":"[1,0,0,1,0,0,0,0,1,1,1,0]","mutagen_history":"[1,0,0,1,0,0,0,0,1,1,1,0]","location_rts":"[1521,562,737,849,684,416,408,443,441,263,453,642]","trial_type":"fractal-mutation","trial_index":70,"time_elapsed":3109568,"internal_node_id":"0.0-5.0-16.0"},{"group":"tri cycles (cube, non-group)","fractal_assignment":["../images/pnk_blu.png","../images/blu_wht.png","../images/gry_blk.png","../images/org_blu.png","../images/grn_red.png","../images/ylw_slt.png","../images/cyn_red.png","../images/ylw_pnk.png"],"mutagen_generator_assignment":[0,1],"goal":2,"start":4,"action_noise":0.1,"location_history":"[4,0,3,4,0,2]","action_history":"[1,1,1,1,0]","mutagen_history":"[1,1,1,1,0]","location_rts":"[1049,597,412,660,930]","trial_type":"fractal-mutation","trial_index":71,"time_elapsed":3122134,"internal_node_id":"0.0-5.0-17.0"},{"group":"tri cycles (cube, non-group)","fractal_assignment":["../images/pnk_blu.png","../images/blu_wht.png","../images/gry_blk.png","../images/org_blu.png","../images/grn_red.png","../images/ylw_slt.png","../images/cyn_red.png","../images/ylw_pnk.png"],"mutagen_generator_assignment":[0,1],"goal":3,"start":2,"action_noise":0.1,"location_history":"[2,6,4,0,3]","action_history":"[1,0,1,1]","mutagen_history":"[1,0,1,1]","location_rts":"[1721,811,400,405]","trial_type":"fractal-mutation","trial_index":72,"time_elapsed":3133275,"internal_node_id":"0.0-5.0-18.0"},{"group":"tri cycles (cube, non-group)","fractal_assignment":["../images/pnk_blu.png","../images/blu_wht.png","../images/gry_blk.png","../images/org_blu.png","../images/grn_red.png","../images/ylw_slt.png","../images/cyn_red.png","../images/ylw_pnk.png"],"mutagen_generator_assignment":[0,1],"goal":6,"start":3,"action_noise":0.1,"location_history":"[3,4,7,3,4,0,2,6]","action_history":"[1,0,1,1,0,0,1]","mutagen_history":"[1,0,1,1,0,0,1]","location_rts":"[1086,553,568,161,847,1934,1299]","trial_type":"fractal-mutation","trial_index":73,"time_elapsed":3150781,"internal_node_id":"0.0-5.0-19.0"},{"group":"tri cycles (cube, non-group)","fractal_assignment":["../images/pnk_blu.png","../images/blu_wht.png","../images/gry_blk.png","../images/org_blu.png","../images/grn_red.png","../images/ylw_slt.png","../images/cyn_red.png","../images/ylw_pnk.png"],"mutagen_generator_assignment":[0,1],"goal":5,"start":6,"action_noise":0.1,"location_history":"[6,5]","action_history":"[1]","mutagen_history":"[1]","location_rts":"[1173]","trial_type":"fractal-mutation","trial_index":74,"time_elapsed":3156536,"internal_node_id":"0.0-5.0-20.0"},{"group":"tri cycles (cube, non-group)","fractal_assignment":["../images/pnk_blu.png","../images/blu_wht.png","../images/gry_blk.png","../images/org_blu.png","../images/grn_red.png","../images/ylw_slt.png","../images/cyn_red.png","../images/ylw_pnk.png"],"mutagen_generator_assignment":[0,1],"goal":1,"start":5,"action_noise":0.1,"location_history":"[5,1]","action_history":"[0]","mutagen_history":"[0]","location_rts":"[1136]","trial_type":"fractal-mutation","trial_index":75,"time_elapsed":3162246,"internal_node_id":"0.0-5.0-21.0"},{"group":"tri cycles (cube, non-group)","fractal_assignment":["../images/pnk_blu.png","../images/blu_wht.png","../images/gry_blk.png","../images/org_blu.png","../images/grn_red.png","../images/ylw_slt.png","../images/cyn_red.png","../images/ylw_pnk.png"],"mutagen_generator_assignment":[0,1],"goal":0,"start":1,"action_noise":0.1,"location_history":"[1,5,1,0]","action_history":"[1,0,0]","mutagen_history":"[1,0,0]","location_rts":"[1082,584,292]","trial_type":"fractal-mutation","trial_index":76,"time_elapsed":3170910,"internal_node_id":"0.0-5.0-22.0"},{"group":"tri cycles (cube, non-group)","fractal_assignment":["../images/pnk_blu.png","../images/blu_wht.png","../images/gry_blk.png","../images/org_blu.png","../images/grn_red.png","../images/ylw_slt.png","../images/cyn_red.png","../images/ylw_pnk.png"],"mutagen_generator_assignment":[0,1],"goal":2,"start":0,"action_noise":0.1,"location_history":"[0,3,4,0,3,4,0,2]","action_history":"[1,1,1,1,1,1,0]","mutagen_history":"[1,1,1,1,1,1,0]","location_rts":"[1167,564,532,501,420,409,266]","trial_type":"fractal-mutation","trial_index":77,"time_elapsed":3185856,"internal_node_id":"0.0-5.0-23.0"},{"group":"tri cycles (cube, non-group)","fractal_assignment":["../images/pnk_blu.png","../images/blu_wht.png","../images/gry_blk.png","../images/org_blu.png","../images/grn_red.png","../images/ylw_slt.png","../images/cyn_red.png","../images/ylw_pnk.png"],"mutagen_generator_assignment":[0,1],"goal":6,"start":2,"action_noise":0.1,"location_history":"[2,6]","action_history":"[0]","mutagen_history":"[0]","location_rts":"[1375]","trial_type":"fractal-mutation","trial_index":78,"time_elapsed":3191792,"internal_node_id":"0.0-5.0-24.0"},{"group":"tri cycles (cube, non-group)","fractal_assignment":["../images/pnk_blu.png","../images/blu_wht.png","../images/gry_blk.png","../images/org_blu.png","../images/grn_red.png","../images/ylw_slt.png","../images/cyn_red.png","../images/ylw_pnk.png"],"mutagen_generator_assignment":[0,1],"goal":1,"start":6,"action_noise":0.1,"location_history":"[6,4,7,6,4,0,3,4,0,2,1]","action_history":"[0,0,0,0,1,1,1,1,0,0]","mutagen_history":"[0,0,0,0,1,1,1,1,0,0]","location_rts":"[1175,922,501,628,301,644,923,502,544,515]","trial_type":"fractal-mutation","trial_index":79,"time_elapsed":3212638,"internal_node_id":"0.0-5.0-25.0"},{"group":"tri cycles (cube, non-group)","fractal_assignment":["../images/pnk_blu.png","../images/blu_wht.png","../images/gry_blk.png","../images/org_blu.png","../images/grn_red.png","../images/ylw_slt.png","../images/cyn_red.png","../images/ylw_pnk.png"],"mutagen_generator_assignment":[0,1],"goal":3,"start":1,"action_noise":0.1,"location_history":"[1,0,2,6,5,1,5,2,1,5,1,5,1,5,1,0,3]","action_history":"[0,0,1,1,0,1,1,0,0,0,1,1,1,1,0,1]","mutagen_history":"[0,0,1,1,0,1,1,0,0,0,1,1,1,1,0,1]","location_rts":"[1303,590,370,571,575,417,159,646,437,629,409,404,531,557,371,442]","trial_type":"fractal-mutation","trial_index":80,"time_elapsed":3241676,"internal_node_id":"0.0-5.0-26.0"},{"group":"tri cycles (cube, non-group)","fractal_assignment":["../images/pnk_blu.png","../images/blu_wht.png","../images/gry_blk.png","../images/org_blu.png","../images/grn_red.png","../images/ylw_slt.png","../images/cyn_red.png","../images/ylw_pnk.png"],"mutagen_generator_assignment":[0,1],"goal":7,"start":3,"action_noise":0.1,"location_history":"[3,7]","action_history":"[0]","mutagen_history":"[0]","location_rts":"[1005]","trial_type":"fractal-mutation","trial_index":81,"time_elapsed":3247237,"internal_node_id":"0.0-5.0-27.0"},{"group":"tri cycles (cube, non-group)","fractal_assignment":["../images/pnk_blu.png","../images/blu_wht.png","../images/gry_blk.png","../images/org_blu.png","../images/grn_red.png","../images/ylw_slt.png","../images/cyn_red.png","../images/ylw_pnk.png"],"mutagen_generator_assignment":[0,1],"goal":4,"start":7,"action_noise":0.1,"location_history":"[7,3,7,6,5,2,6,4]","action_history":"[1,0,0,1,1,1,0]","mutagen_history":"[1,0,0,1,1,1,0]","location_rts":"[1045,726,266,702,502,520,405]","trial_type":"fractal-mutation","trial_index":82,"time_elapsed":3262394,"internal_node_id":"0.0-5.0-28.0"},{"group":"tri cycles (cube, non-group)","fractal_assignment":["../images/pnk_blu.png","../images/blu_wht.png","../images/gry_blk.png","../images/org_blu.png","../images/grn_red.png","../images/ylw_slt.png","../images/cyn_red.png","../images/ylw_pnk.png"],"mutagen_generator_assignment":[0,1],"goal":0,"start":4,"action_noise":0.1,"location_history":"[4,7,6,5,2,6,5,2,1,0]","action_history":"[0,0,1,1,1,1,1,0,0]","mutagen_history":"[0,0,1,1,1,1,1,0,0]","location_rts":"[1343,671,838,568,638,315,538,305,1157]","trial_type":"fractal-mutation","trial_index":83,"time_elapsed":3281948,"internal_node_id":"0.0-5.0-29.0"},{"group":"tri cycles (cube, non-group)","fractal_assignment":["../images/pnk_blu.png","../images/blu_wht.png","../images/gry_blk.png","../images/org_blu.png","../images/grn_red.png","../images/ylw_slt.png","../images/cyn_red.png","../images/ylw_pnk.png"],"mutagen_generator_assignment":[0,1],"goal":5,"start":0,"action_noise":0.1,"location_history":"[0,3,7,3,4,0,2,1,5]","action_history":"[1,1,1,1,1,0,0,1]","mutagen_history":"[1,1,1,1,1,0,0,1]","location_rts":"[1055,524,464,437,184,463,485,500]","trial_type":"fractal-mutation","trial_index":84,"time_elapsed":3298228,"internal_node_id":"0.0-5.0-30.0"},{"group":"tri cycles (cube, non-group)","fractal_assignment":["../images/pnk_blu.png","../images/blu_wht.png","../images/gry_blk.png","../images/org_blu.png","../images/grn_red.png","../images/ylw_slt.png","../images/cyn_red.png","../images/ylw_pnk.png"],"mutagen_generator_assignment":[0,1],"goal":3,"start":5,"action_noise":0.1,"location_history":"[5,2,6,4,0,3]","action_history":"[1,1,1,1,1]","mutagen_history":"[1,1,1,1,1]","location_rts":"[1091,419,470,517,690]","trial_type":"fractal-mutation","trial_index":85,"time_elapsed":3310378,"internal_node_id":"0.0-5.0-31.0"},{"group":"tri cycles (cube, non-group)","fractal_assignment":["../images/pnk_blu.png","../images/blu_wht.png","../images/gry_blk.png","../images/org_blu.png","../images/grn_red.png","../images/ylw_slt.png","../images/cyn_red.png","../images/ylw_pnk.png"],"mutagen_generator_assignment":[0,1],"goal":2,"start":3,"action_noise":0.1,"location_history":"[3,7,3,4,7,3,7,6,4,0,3,7,6,4,7,3,4,0,2]","action_history":"[0,1,1,0,1,1,0,0,1,1,0,0,0,0,1,1,1,0]","mutagen_history":"[0,1,1,0,1,1,0,0,1,1,0,0,0,0,1,1,1,0]","location_rts":"[1198,513,713,425,409,337,455,584,444,1128,552,470,687,764,361,79,406,569]","trial_type":"fractal-mutation","trial_index":86,"time_elapsed":3343282,"internal_node_id":"0.0-5.0-32.0"},{"group":"tri cycles (cube, non-group)","fractal_assignment":["../images/pnk_blu.png","../images/blu_wht.png","../images/gry_blk.png","../images/org_blu.png","../images/grn_red.png","../images/ylw_slt.png","../images/cyn_red.png","../images/ylw_pnk.png"],"mutagen_generator_assignment":[0,1],"goal":6,"start":2,"action_noise":0.1,"location_history":"[2,6]","action_history":"[1]","mutagen_history":"[1]","location_rts":"[1312]","trial_type":"fractal-mutation","trial_index":87,"time_elapsed":3349190,"internal_node_id":"0.0-5.0-33.0"},{"group":"tri cycles (cube, non-group)","fractal_assignment":["../images/pnk_blu.png","../images/blu_wht.png","../images/gry_blk.png","../images/org_blu.png","../images/grn_red.png","../images/ylw_slt.png","../images/cyn_red.png","../images/ylw_pnk.png"],"mutagen_generator_assignment":[0,1],"goal":1,"start":6,"action_noise":0.1,"location_history":"[6,4,0,2,6,5,1]","action_history":"[0,1,0,1,1,0]","mutagen_history":"[0,1,0,1,1,0]","location_rts":"[854,484,1151,702,712,991]","trial_type":"fractal-mutation","trial_index":88,"time_elapsed":3364006,"internal_node_id":"0.0-5.0-34.0"},{"group":"tri cycles (cube, non-group)","fractal_assignment":["../images/pnk_blu.png","../images/blu_wht.png","../images/gry_blk.png","../images/org_blu.png","../images/grn_red.png","../images/ylw_slt.png","../images/cyn_red.png","../images/ylw_pnk.png"],"mutagen_generator_assignment":[0,1],"goal":7,"start":1,"action_noise":0.1,"location_history":"[1,0,2,6,5,1,0,3,4,7]","action_history":"[0,0,1,1,0,0,0,1,0]","mutagen_history":"[0,0,1,1,0,0,0,1,0]","location_rts":"[1779,20863,885,331,397,346,363,806,504]","trial_type":"fractal-mutation","trial_index":89,"time_elapsed":3403401,"internal_node_id":"0.0-5.0-35.0"},{"group":"tri cycles (cube, non-group)","fractal_assignment":["../images/pnk_blu.png","../images/blu_wht.png","../images/gry_blk.png","../images/org_blu.png","../images/grn_red.png","../images/ylw_slt.png","../images/cyn_red.png","../images/ylw_pnk.png"],"mutagen_generator_assignment":[0,1],"goal":4,"start":7,"action_noise":0.1,"location_history":"[7,3,7,6,4]","action_history":"[1,0,0,0]","mutagen_history":"[1,0,0,0]","location_rts":"[1049,453,680,464]","trial_type":"fractal-mutation","trial_index":90,"time_elapsed":3413777,"internal_node_id":"0.0-5.0-36.0"},{"group":"tri cycles (cube, non-group)","fractal_assignment":["../images/pnk_blu.png","../images/blu_wht.png","../images/gry_blk.png","../images/org_blu.png","../images/grn_red.png","../images/ylw_slt.png","../images/cyn_red.png","../images/ylw_pnk.png"],"mutagen_generator_assignment":[0,1],"goal":5,"start":4,"action_noise":0.1,"location_history":"[4,0,3,7,3,7,6,4,7,3,7,6,4,0,2,6,5]","action_history":"[1,1,0,1,1,0,0,1,1,0,0,0,1,0,1,1]","mutagen_history":"[1,1,0,1,1,0,0,1,1,0,0,0,1,0,1,1]","location_rts":"[1052,454,417,414,237,494,504,415,418,692,375,504,510,914,620,500]","trial_type":"fractal-mutation","trial_index":91,"time_elapsed":3442993,"internal_node_id":"0.0-5.0-37.0"},{"group":"tri cycles (cube, non-group)","fractal_assignment":["../images/pnk_blu.png","../images/blu_wht.png","../images/gry_blk.png","../images/org_blu.png","../images/grn_red.png","../images/ylw_slt.png","../images/cyn_red.png","../images/ylw_pnk.png"],"mutagen_generator_assignment":[0,1],"goal":0,"start":5,"action_noise":0.1,"location_history":"[5,1,5,2,1,5,2,1,0]","action_history":"[0,1,1,0,0,1,0,0]","mutagen_history":"[0,1,1,0,0,1,0,0]","location_rts":"[2314,866,958,488,572,986,701,491]","trial_type":"fractal-mutation","trial_index":92,"time_elapsed":3462390,"internal_node_id":"0.0-5.0-38.0"},{"group":"tri cycles (cube, non-group)","fractal_assignment":["../images/pnk_blu.png","../images/blu_wht.png","../images/gry_blk.png","../images/org_blu.png","../images/grn_red.png","../images/ylw_slt.png","../images/cyn_red.png","../images/ylw_pnk.png"],"mutagen_generator_assignment":[0,1],"goal":4,"start":0,"action_noise":0.1,"location_history":"[0,3,4]","action_history":"[1,1]","mutagen_history":"[1,1]","location_rts":"[867,536]","trial_type":"fractal-mutation","trial_index":93,"time_elapsed":3469471,"internal_node_id":"0.0-5.0-39.0"},{"group":"tri cycles (cube, non-group)","fractal_assignment":["../images/pnk_blu.png","../images/blu_wht.png","../images/gry_blk.png","../images/org_blu.png","../images/grn_red.png","../images/ylw_slt.png","../images/cyn_red.png","../images/ylw_pnk.png"],"mutagen_generator_assignment":[0,1],"goal":0,"start":4,"action_noise":0.1,"location_history":"[4,7,3,7,6,5,1,0]","action_history":"[0,1,0,1,1,0,0]","mutagen_history":"[0,1,0,1,1,0,0]","location_rts":"[1022,723,800,395,354,781,610]","trial_type":"fractal-mutation","trial_index":94,"time_elapsed":3485132,"internal_node_id":"0.0-5.0-40.0"},{"group":"tri cycles (cube, non-group)","fractal_assignment":["../images/pnk_blu.png","../images/blu_wht.png","../images/gry_blk.png","../images/org_blu.png","../images/grn_red.png","../images/ylw_slt.png","../images/cyn_red.png","../images/ylw_pnk.png"],"mutagen_generator_assignment":[0,1],"goal":2,"start":0,"action_noise":0.1,"location_history":"[0,3,7,3,7,6,5,2]","action_history":"[1,0,0,0,0,1,1]","mutagen_history":"[1,0,0,0,0,1,1]","location_rts":"[1141,468,396,388,307,263,499]","trial_type":"fractal-mutation","trial_index":95,"time_elapsed":3499652,"internal_node_id":"0.0-5.0-41.0"},{"group":"tri cycles (cube, non-group)","fractal_assignment":["../images/pnk_blu.png","../images/blu_wht.png","../images/gry_blk.png","../images/org_blu.png","../images/grn_red.png","../images/ylw_slt.png","../images/cyn_red.png","../images/ylw_pnk.png"],"mutagen_generator_assignment":[0,1],"goal":3,"start":2,"action_noise":0.1,"location_history":"[2,1,0,3]","action_history":"[0,1,1]","mutagen_history":"[0,1,1]","location_rts":"[1599,581,278]","trial_type":"fractal-mutation","trial_index":96,"time_elapsed":3508845,"internal_node_id":"0.0-5.0-42.0"},{"group":"tri cycles (cube, non-group)","fractal_assignment":["../images/pnk_blu.png","../images/blu_wht.png","../images/gry_blk.png","../images/org_blu.png","../images/grn_red.png","../images/ylw_slt.png","../images/cyn_red.png","../images/ylw_pnk.png"],"mutagen_generator_assignment":[0,1],"goal":5,"start":3,"action_noise":0.1,"location_history":"[3,4,0,2,6,5]","action_history":"[1,1,0,1,1]","mutagen_history":"[1,1,0,1,1]","location_rts":"[1234,514,694,375,244]","trial_type":"fractal-mutation","trial_index":97,"time_elapsed":3520792,"internal_node_id":"0.0-5.0-43.0"},{"group":"tri cycles (cube, non-group)","fractal_assignment":["../images/pnk_blu.png","../images/blu_wht.png","../images/gry_blk.png","../images/org_blu.png","../images/grn_red.png","../images/ylw_slt.png","../images/cyn_red.png","../images/ylw_pnk.png"],"mutagen_generator_assignment":[0,1],"goal":1,"start":5,"action_noise":0.1,"location_history":"[5,2,1]","action_history":"[0,0]","mutagen_history":"[0,0]","location_rts":"[1410,466]","trial_type":"fractal-mutation","trial_index":98,"time_elapsed":3528293,"internal_node_id":"0.0-5.0-44.0"},{"group":"tri cycles (cube, non-group)","fractal_assignment":["../images/pnk_blu.png","../images/blu_wht.png","../images/gry_blk.png","../images/org_blu.png","../images/grn_red.png","../images/ylw_slt.png","../images/cyn_red.png","../images/ylw_pnk.png"],"mutagen_generator_assignment":[0,1],"goal":7,"start":1,"action_noise":0.1,"location_history":"[1,5,2,1,0,3,7]","action_history":"[1,1,0,0,1,0]","mutagen_history":"[1,1,0,0,1,0]","location_rts":"[773,442,359,412,537,665]","trial_type":"fractal-mutation","trial_index":99,"time_elapsed":3541429,"internal_node_id":"0.0-5.0-45.0"},{"group":"tri cycles (cube, non-group)","fractal_assignment":["../images/pnk_blu.png","../images/blu_wht.png","../images/gry_blk.png","../images/org_blu.png","../images/grn_red.png","../images/ylw_slt.png","../images/cyn_red.png","../images/ylw_pnk.png"],"mutagen_generator_assignment":[0,1],"goal":6,"start":7,"action_noise":0.1,"location_history":"[7,3,7,3,4,7,6]","action_history":"[1,0,1,1,0,0]","mutagen_history":"[1,0,1,1,0,0]","location_rts":"[882,503,554,625,410,385]","trial_type":"fractal-mutation","trial_index":100,"time_elapsed":3554786,"internal_node_id":"0.0-5.0-46.0"},{"group":"tri cycles (cube, non-group)","fractal_assignment":["../images/pnk_blu.png","../images/blu_wht.png","../images/gry_blk.png","../images/org_blu.png","../images/grn_red.png","../images/ylw_slt.png","../images/cyn_red.png","../images/ylw_pnk.png"],"mutagen_generator_assignment":[0,1],"goal":3,"start":6,"action_noise":0.1,"location_history":"[6,5,1,5,2,1,5,2,6,4,7,3]","action_history":"[1,0,0,1,0,0,1,1,0,0,0]","mutagen_history":"[1,0,0,1,0,0,1,1,0,0,0]","location_rts":"[1140,425,409,555,412,452,805,498,583,361,537]","trial_type":"fractal-mutation","trial_index":101,"time_elapsed":3576207,"internal_node_id":"0.0-5.0-47.0"},{"group":"tri cycles (cube, non-group)","fractal_assignment":["../images/pnk_blu.png","../images/blu_wht.png","../images/gry_blk.png","../images/org_blu.png","../images/grn_red.png","../images/ylw_slt.png","../images/cyn_red.png","../images/ylw_pnk.png"],"mutagen_generator_assignment":[0,1],"goal":0,"start":3,"action_noise":0.1,"location_history":"[3,4,0]","action_history":"[1,1]","mutagen_history":"[1,1]","location_rts":"[1095,395]","trial_type":"fractal-mutation","trial_index":102,"time_elapsed":3583366,"internal_node_id":"0.0-5.0-48.0"},{"group":"tri cycles (cube, non-group)","fractal_assignment":["../images/pnk_blu.png","../images/blu_wht.png","../images/gry_blk.png","../images/org_blu.png","../images/grn_red.png","../images/ylw_slt.png","../images/cyn_red.png","../images/ylw_pnk.png"],"mutagen_generator_assignment":[0,1],"goal":2,"start":0,"action_noise":0.1,"location_history":"[0,2]","action_history":"[0]","mutagen_history":"[0]","location_rts":"[1077]","trial_type":"fractal-mutation","trial_index":103,"time_elapsed":3589003,"internal_node_id":"0.0-5.0-49.0"},{"view_history":"[{\"page_index\":0,\"viewing_time\":12417}]","rt":12418,"trial_type":"instructions","trial_index":104,"time_elapsed":3602427,"internal_node_id":"0.0-6.0"},{"rt":1534,"responses":"{\"Q0\":\"\"}","trial_type":"survey-text","trial_index":105,"time_elapsed":3604976,"internal_node_id":"0.0-7.0"}]