[{"view_history":"[{\"page_index\":0,\"viewing_time\":7367},{\"page_index\":1,\"viewing_time\":390369},{\"page_index\":2,\"viewing_time\":19020},{\"page_index\":3,\"viewing_time\":4581}]","rt":421338,"trial_type":"instructions","trial_index":0,"time_elapsed":421339,"internal_node_id":"0.0-0.0"},{"view_history":"[{\"page_index\":0,\"viewing_time\":2646},{\"page_index\":1,\"viewing_time\":16800}]","rt":19446,"trial_type":"instructions","trial_index":1,"time_elapsed":441800,"internal_node_id":"0.0-1.0"},{"group":"square cycles (cube, non-group)","room_assignment":["blue","pink","green","red","grey","yellow","brown","purple"],"door_color_assignment":["black","white"],"door_generator_assignment":[0,1],"goal":3,"start":0,"action_noise":0.1,"location_history":"[0,1,2,3]","action_history":"[0,0,0]","door_history":"[0,0,0]","location_rts":"[2794,2267,3186]","trial_type":"two-door-navigation","trial_index":2,"time_elapsed":456781,"internal_node_id":"0.0-2.0-0.0"},{"group":"square cycles (cube, non-group)","room_assignment":["blue","pink","green","red","grey","yellow","brown","purple"],"door_color_assignment":["black","white"],"door_generator_assignment":[0,1],"goal":1,"start":3,"action_noise":0.1,"location_history":"[3,2,3,0,1]","action_history":"[1,0,0,0]","door_history":"[1,0,0,0]","location_rts":"[1781,1075,1115,802]","trial_type":"two-door-navigation","trial_index":3,"time_elapsed":469281,"internal_node_id":"0.0-2.0-1.0"},{"group":"square cycles (cube, non-group)","room_assignment":["blue","pink","green","red","grey","yellow","brown","purple"],"door_color_assignment":["black","white"],"door_generator_assignment":[0,1],"goal":2,"start":1,"action_noise":0.1,"location_history":"[1,2]","action_history":"[0]","door_history":"[0]","location_rts":"[1530]","trial_type":"two-door-navigation","trial_index":4,"time_elapsed":475364,"internal_node_id":"0.0-2.0-2.0"},{"group":"square cycles (cube, non-group)","room_assignment":["blue","pink","green","red","grey","yellow","brown","purple"],"door_color_assignment":["black","white"],"door_generator_assignment":[0,1],"goal":6,"start":2,"action_noise":0.1,"location_history":"[2,6]","action_history":"[1]","door_history":"[1]","location_rts":"[1414]","trial_type":"two-door-navigation","trial_index":5,"time_elapsed":481319,"internal_node_id":"0.0-2.0-3.0"},{"group":"square cycles (cube, non-group)","room_assignment":["blue","pink","green","red","grey","yellow","brown","purple"],"door_color_assignment":["black","white"],"door_generator_assignment":[0,1],"goal":5,"start":6,"action_noise":0.1,"location_history":"[6,7,6,5]","action_history":"[1,0,0]","door_history":"[1,0,0]","location_rts":"[1119,1569,705]","trial_type":"two-door-navigation","trial_index":6,"time_elapsed":491340,"internal_node_id":"0.0-2.0-4.0"},{"group":"square cycles (cube, non-group)","room_assignment":["blue","pink","green","red","grey","yellow","brown","purple"],"door_color_assignment":["black","white"],"door_generator_assignment":[0,1],"goal":4,"start":5,"action_noise":0.1,"location_history":"[5,1,0,4]","action_history":"[0,1,1]","door_history":"[0,1,1]","location_rts":"[1214,1399,804]","trial_type":"two-door-navigation","trial_index":7,"time_elapsed":501415,"internal_node_id":"0.0-2.0-5.0"},{"group":"square cycles (cube, non-group)","room_assignment":["blue","pink","green","red","grey","yellow","brown","purple"],"door_color_assignment":["black","white"],"door_generator_assignment":[0,1],"goal":7,"start":4,"action_noise":0.1,"location_history":"[4,5,1,2,3,2,6,7]","action_history":"[1,0,0,0,1,1,1]","door_history":"[1,0,0,0,1,1,1]","location_rts":"[1091,984,933,590,1613,768,865]","trial_type":"two-door-navigation","trial_index":8,"time_elapsed":519151,"internal_node_id":"0.0-2.0-6.0"},{"group":"square cycles (cube, non-group)","room_assignment":["blue","pink","green","red","grey","yellow","brown","purple"],"door_color_assignment":["black","white"],"door_generator_assignment":[0,1],"goal":4,"start":7,"action_noise":0.1,"location_history":"[7,3,0,1,2,6,7,6,7,3,0,4]","action_history":"[0,0,0,0,1,0,0,1,1,1,1]","door_history":"[0,0,0,0,1,0,0,1,1,1,1]","location_rts":"[1520,489,667,620,764,803,454,741,454,448,431]","trial_type":"two-door-navigation","trial_index":9,"time_elapsed":541563,"internal_node_id":"0.0-2.0-7.0"},{"group":"square cycles (cube, non-group)","room_assignment":["blue","pink","green","red","grey","yellow","brown","purple"],"door_color_assignment":["black","white"],"door_generator_assignment":[0,1],"goal":6,"start":4,"action_noise":0.1,"location_history":"[4,7,6]","action_history":"[0,0]","door_history":"[0,0]","location_rts":"[1482,426]","trial_type":"two-door-navigation","trial_index":10,"time_elapsed":549070,"internal_node_id":"0.0-2.0-8.0"},{"group":"square cycles (cube, non-group)","room_assignment":["blue","pink","green","red","grey","yellow","brown","purple"],"door_color_assignment":["black","white"],"door_generator_assignment":[0,1],"goal":0,"start":6,"action_noise":0.1,"location_history":"[6,5,1,2,3,0]","action_history":"[0,0,0,0,0]","door_history":"[0,0,0,0,0]","location_rts":"[857,405,439,413,414]","trial_type":"two-door-navigation","trial_index":11,"time_elapsed":560292,"internal_node_id":"0.0-2.0-9.0"},{"group":"square cycles (cube, non-group)","room_assignment":["blue","pink","green","red","grey","yellow","brown","purple"],"door_color_assignment":["black","white"],"door_generator_assignment":[0,1],"goal":1,"start":0,"action_noise":0.1,"location_history":"[0,1]","action_history":"[0]","door_history":"[0]","location_rts":"[1714]","trial_type":"two-door-navigation","trial_index":12,"time_elapsed":566554,"internal_node_id":"0.0-2.0-10.0"},{"group":"square cycles (cube, non-group)","room_assignment":["blue","pink","green","red","grey","yellow","brown","purple"],"door_color_assignment":["black","white"],"door_generator_assignment":[0,1],"goal":3,"start":1,"action_noise":0.1,"location_history":"[1,2,6,5,4,7,6,7,3]","action_history":"[0,1,0,0,0,0,1,1]","door_history":"[0,1,0,0,0,0,1,1]","location_rts":"[968,545,664,425,400,382,462,412]","trial_type":"two-door-navigation","trial_index":13,"time_elapsed":582769,"internal_node_id":"0.0-2.0-11.0"},{"group":"square cycles (cube, non-group)","room_assignment":["blue","pink","green","red","grey","yellow","brown","purple"],"door_color_assignment":["black","white"],"door_generator_assignment":[0,1],"goal":7,"start":3,"action_noise":0.1,"location_history":"[3,0,1,2,3,2,3,0,4,5,1,0,1,2,3,0,1,2,6,7]","action_history":"[1,1,0,0,0,0,0,1,1,1,1,0,0,0,0,0,0,1,1]","door_history":"[1,1,0,0,0,0,0,1,1,1,1,0,0,0,0,0,0,1,1]","location_rts":"[1081,335,1238,436,582,444,446,1949,723,455,720,1219,640,672,423,430,392,357,355]","trial_type":"two-door-navigation","trial_index":14,"time_elapsed":618984,"internal_node_id":"0.0-2.0-12.0"},{"group":"square cycles (cube, non-group)","room_assignment":["blue","pink","green","red","grey","yellow","brown","purple"],"door_color_assignment":["black","white"],"door_generator_assignment":[0,1],"goal":5,"start":7,"action_noise":0.1,"location_history":"[7,3,0,1,2,6,5]","action_history":"[1,0,0,0,1,0]","door_history":"[1,0,0,0,1,0]","location_rts":"[1123,877,426,733,796,386]","trial_type":"two-door-navigation","trial_index":15,"time_elapsed":633083,"internal_node_id":"0.0-2.0-13.0"},{"group":"square cycles (cube, non-group)","room_assignment":["blue","pink","green","red","grey","yellow","brown","purple"],"door_color_assignment":["black","white"],"door_generator_assignment":[0,1],"goal":2,"start":5,"action_noise":0.1,"location_history":"[5,4,7,6,5,1,0,1,0,4,5,4,7,6,5,4,7,6,7,6,7,3,2]","action_history":"[0,0,0,0,1,1,0,0,1,1,0,0,0,0,0,0,0,1,1,1,1,1]","door_history":"[0,0,0,0,1,1,0,0,1,1,0,0,0,0,0,0,0,1,1,1,1,1]","location_rts":"[845,932,435,461,1088,734,399,475,1344,425,400,661,409,480,455,502,545,633,833,1740,517,661]","trial_type":"two-door-navigation","trial_index":16,"time_elapsed":674673,"internal_node_id":"0.0-2.0-14.0"},{"group":"square cycles (cube, non-group)","room_assignment":["blue","pink","green","red","grey","yellow","brown","purple"],"door_color_assignment":["black","white"],"door_generator_assignment":[0,1],"goal":7,"start":2,"action_noise":0.1,"location_history":"[2,3,0,4,7]","action_history":"[0,0,0,0]","door_history":"[0,0,0,0]","location_rts":"[1625,408,850,562]","trial_type":"two-door-navigation","trial_index":17,"time_elapsed":685795,"internal_node_id":"0.0-2.0-15.0"},{"group":"square cycles (cube, non-group)","room_assignment":["blue","pink","green","red","grey","yellow","brown","purple"],"door_color_assignment":["black","white"],"door_generator_assignment":[0,1],"goal":4,"start":7,"action_noise":0.1,"location_history":"[7,6,7,6,5,4]","action_history":"[0,1,0,0,0]","door_history":"[0,1,0,0,0]","location_rts":"[1164,569,405,417,388]","trial_type":"two-door-navigation","trial_index":18,"time_elapsed":697437,"internal_node_id":"0.0-2.0-16.0"},{"group":"square cycles (cube, non-group)","room_assignment":["blue","pink","green","red","grey","yellow","brown","purple"],"door_color_assignment":["black","white"],"door_generator_assignment":[0,1],"goal":2,"start":4,"action_noise":0.1,"location_history":"[4,7,6,7,6,7,3,0,1,0,4,5,1,2]","action_history":"[0,0,0,0,1,1,0,0,1,1,1,1,1]","door_history":"[0,0,0,0,1,1,0,0,1,1,1,1,1]","location_rts":"[972,421,445,531,664,443,352,426,854,459,416,423,1326]","trial_type":"two-door-navigation","trial_index":19,"time_elapsed":722323,"internal_node_id":"0.0-2.0-17.0"},{"group":"square cycles (cube, non-group)","room_assignment":["blue","pink","green","red","grey","yellow","brown","purple"],"door_color_assignment":["black","white"],"door_generator_assignment":[0,1],"goal":3,"start":2,"action_noise":0.1,"location_history":"[2,3]","action_history":"[0]","door_history":"[0]","location_rts":"[2191]","trial_type":"two-door-navigation","trial_index":20,"time_elapsed":729055,"internal_node_id":"0.0-2.0-18.0"},{"group":"square cycles (cube, non-group)","room_assignment":["blue","pink","green","red","grey","yellow","brown","purple"],"door_color_assignment":["black","white"],"door_generator_assignment":[0,1],"goal":6,"start":3,"action_noise":0.1,"location_history":"[3,0,1,2,3,0,1,0,4,7,6]","action_history":"[0,0,0,0,0,0,1,1,0,0]","door_history":"[0,0,0,0,0,0,1,1,0,0]","location_rts":"[1077,747,708,500,607,489,394,542,716,708]","trial_type":"two-door-navigation","trial_index":21,"time_elapsed":749530,"internal_node_id":"0.0-2.0-19.0"},{"group":"square cycles (cube, non-group)","room_assignment":["blue","pink","green","red","grey","yellow","brown","purple"],"door_color_assignment":["black","white"],"door_generator_assignment":[0,1],"goal":5,"start":6,"action_noise":0.1,"location_history":"[6,5]","action_history":"[0]","door_history":"[0]","location_rts":"[1263]","trial_type":"two-door-navigation","trial_index":22,"time_elapsed":755329,"internal_node_id":"0.0-2.0-20.0"},{"group":"square cycles (cube, non-group)","room_assignment":["blue","pink","green","red","grey","yellow","brown","purple"],"door_color_assignment":["black","white"],"door_generator_assignment":[0,1],"goal":1,"start":5,"action_noise":0.1,"location_history":"[5,4,7,6,5,4,7,6,7,3,2,6,7,3,0,1]","action_history":"[0,1,0,0,0,0,0,1,1,1,1,1,0,0,0]","door_history":"[0,1,0,0,0,0,0,1,1,1,1,1,0,0,0]","location_rts":"[1953,616,459,1127,678,651,429,218,416,441,586,575,437,429,407]","trial_type":"two-door-navigation","trial_index":23,"time_elapsed":783979,"internal_node_id":"0.0-2.0-21.0"},{"group":"square cycles (cube, non-group)","room_assignment":["blue","pink","green","red","grey","yellow","brown","purple"],"door_color_assignment":["black","white"],"door_generator_assignment":[0,1],"goal":0,"start":1,"action_noise":0.1,"location_history":"[1,2,3,0]","action_history":"[0,0,0]","door_history":"[0,0,0]","location_rts":"[767,424,614]","trial_type":"two-door-navigation","trial_index":24,"time_elapsed":792414,"internal_node_id":"0.0-2.0-22.0"},{"group":"square cycles (cube, non-group)","room_assignment":["blue","pink","green","red","grey","yellow","brown","purple"],"door_color_assignment":["black","white"],"door_generator_assignment":[0,1],"goal":2,"start":0,"action_noise":0.1,"location_history":"[0,1,2]","action_history":"[0,0]","door_history":"[0,0]","location_rts":"[640,544]","trial_type":"two-door-navigation","trial_index":25,"time_elapsed":799213,"internal_node_id":"0.0-2.0-23.0"},{"group":"square cycles (cube, non-group)","room_assignment":["blue","pink","green","red","grey","yellow","brown","purple"],"door_color_assignment":["black","white"],"door_generator_assignment":[0,1],"goal":6,"start":2,"action_noise":0.1,"location_history":"[2,3,0,4,7,6]","action_history":"[0,0,0,1,0]","door_history":"[0,0,0,1,0]","location_rts":"[487,2675,604,859,418]","trial_type":"two-door-navigation","trial_index":26,"time_elapsed":812971,"internal_node_id":"0.0-2.0-24.0"},{"group":"square cycles (cube, non-group)","room_assignment":["blue","pink","green","red","grey","yellow","brown","purple"],"door_color_assignment":["black","white"],"door_generator_assignment":[0,1],"goal":1,"start":6,"action_noise":0.1,"location_history":"[6,5,4,7,6,5,4,7,3,2,6,7,3,2,6,5,4,7,6,5,1]","action_history":"[0,0,0,1,0,0,0,1,1,1,1,1,1,1,0,0,0,0,0,1]","door_history":"[0,0,0,1,0,0,0,1,1,1,1,1,1,1,0,0,0,0,0,1]","location_rts":"[971,709,563,572,333,407,422,283,315,409,747,467,501,564,468,471,559,509,420,667]","trial_type":"two-door-navigation","trial_index":27,"time_elapsed":847652,"internal_node_id":"0.0-2.0-25.0"},{"group":"square cycles (cube, non-group)","room_assignment":["blue","pink","green","red","grey","yellow","brown","purple"],"door_color_assignment":["black","white"],"door_generator_assignment":[0,1],"goal":3,"start":1,"action_noise":0.1,"location_history":"[1,2,6,5,4,7,3]","action_history":"[0,0,0,0,0,0]","door_history":"[0,0,0,0,0,0]","location_rts":"[1677,709,569,402,465,453]","trial_type":"two-door-navigation","trial_index":28,"time_elapsed":861668,"internal_node_id":"0.0-2.0-26.0"},{"group":"square cycles (cube, non-group)","room_assignment":["blue","pink","green","red","grey","yellow","brown","purple"],"door_color_assignment":["black","white"],"door_generator_assignment":[0,1],"goal":7,"start":3,"action_noise":0.1,"location_history":"[3,0,1,2,3,0,4,7]","action_history":"[0,0,0,0,0,1,0]","door_history":"[0,0,0,0,0,1,0]","location_rts":"[2277,473,911,458,443,1235,1521]","trial_type":"two-door-navigation","trial_index":29,"time_elapsed":879813,"internal_node_id":"0.0-2.0-27.0"},{"group":"square cycles (cube, non-group)","room_assignment":["blue","pink","green","red","grey","yellow","brown","purple"],"door_color_assignment":["black","white"],"door_generator_assignment":[0,1],"goal":4,"start":7,"action_noise":0.1,"location_history":"[7,3,0,1,2,3,0,1,0,1,2,6,7,3,2,6,5,4]","action_history":"[1,0,0,0,0,0,0,1,0,0,1,1,1,1,1,0,0]","door_history":"[1,0,0,0,0,0,0,1,0,0,1,1,1,1,1,0,0]","location_rts":"[2985,970,468,493,465,426,1626,886,375,560,185,362,597,408,423,963,438]","trial_type":"two-door-navigation","trial_index":30,"time_elapsed":913690,"internal_node_id":"0.0-2.0-28.0"},{"group":"square cycles (cube, non-group)","room_assignment":["blue","pink","green","red","grey","yellow","brown","purple"],"door_color_assignment":["black","white"],"door_generator_assignment":[0,1],"goal":0,"start":4,"action_noise":0.1,"location_history":"[4,7,6,5,4,5,1,2,6,5,4,5,1,2,3,0]","action_history":"[0,0,0,0,1,1,0,0,0,1,1,1,0,0,0]","door_history":"[0,0,0,0,1,1,0,0,0,1,1,1,0,0,0]","location_rts":"[1068,591,608,421,333,508,380,437,388,633,471,525,1157,472,630]","trial_type":"two-door-navigation","trial_index":31,"time_elapsed":941379,"internal_node_id":"0.0-2.0-29.0"},{"group":"square cycles (cube, non-group)","room_assignment":["blue","pink","green","red","grey","yellow","brown","purple"],"door_color_assignment":["black","white"],"door_generator_assignment":[0,1],"goal":5,"start":0,"action_noise":0.1,"location_history":"[0,1,2,3,0,1,0,1,0,1,2,3,2,6,7,3,0,1,2,6,7,3,2,3,0,1,2,3,0,1,0,4,5]","action_history":"[0,0,0,0,0,1,1,1,0,0,0,1,1,1,1,0,0,0,1,1,1,1,0,0,0,0,0,0,0,1,1,1]","door_history":"[0,0,0,0,0,1,1,1,0,0,0,1,1,1,1,0,0,0,1,1,1,1,0,0,0,0,0,0,0,1,1,1]","location_rts":"[843,887,493,478,431,918,282,500,1053,673,519,164,432,423,454,953,410,537,540,410,469,656,948,473,430,373,376,385,492,507,456,371]","trial_type":"two-door-navigation","trial_index":32,"time_elapsed":995576,"internal_node_id":"0.0-2.0-30.0"},{"group":"square cycles (cube, non-group)","room_assignment":["blue","pink","green","red","grey","yellow","brown","purple"],"door_color_assignment":["black","white"],"door_generator_assignment":[0,1],"goal":3,"start":5,"action_noise":0.1,"location_history":"[5,4,7,3]","action_history":"[1,0,0]","door_history":"[1,0,0]","location_rts":"[2008,473,516]","trial_type":"two-door-navigation","trial_index":33,"time_elapsed":1005188,"internal_node_id":"0.0-2.0-31.0"},{"group":"square cycles (cube, non-group)","room_assignment":["blue","pink","green","red","grey","yellow","brown","purple"],"door_color_assignment":["black","white"],"door_generator_assignment":[0,1],"goal":2,"start":3,"action_noise":0.1,"location_history":"[3,0,1,0,4,7,6,5,4,7,3,0,1,2]","action_history":"[0,0,1,1,0,0,0,0,0,0,0,0,0]","door_history":"[0,0,1,1,0,0,0,0,0,0,0,0,0]","location_rts":"[984,706,553,709,997,445,480,727,554,730,888,854,766]","trial_type":"two-door-navigation","trial_index":34,"time_elapsed":1031657,"internal_node_id":"0.0-2.0-32.0"},{"group":"square cycles (cube, non-group)","room_assignment":["blue","pink","green","red","grey","yellow","brown","purple"],"door_color_assignment":["black","white"],"door_generator_assignment":[0,1],"goal":6,"start":2,"action_noise":0.1,"location_history":"[2,3,2,6]","action_history":"[0,1,1]","door_history":"[0,1,1]","location_rts":"[657,1210,431]","trial_type":"two-door-navigation","trial_index":35,"time_elapsed":1040614,"internal_node_id":"0.0-2.0-33.0"},{"group":"square cycles (cube, non-group)","room_assignment":["blue","pink","green","red","grey","yellow","brown","purple"],"door_color_assignment":["black","white"],"door_generator_assignment":[0,1],"goal":1,"start":6,"action_noise":0.1,"location_history":"[6,7,6,5,4,7,3,0,1]","action_history":"[1,0,0,0,0,1,0,0]","door_history":"[1,0,0,0,0,1,0,0]","location_rts":"[847,758,498,603,453,1119,756,419]","trial_type":"two-door-navigation","trial_index":36,"time_elapsed":1057876,"internal_node_id":"0.0-2.0-34.0"},{"group":"square cycles (cube, non-group)","room_assignment":["blue","pink","green","red","grey","yellow","brown","purple"],"door_color_assignment":["black","white"],"door_generator_assignment":[0,1],"goal":7,"start":1,"action_noise":0.1,"location_history":"[1,2,3,0,1,0,1,0,4,7]","action_history":"[0,0,0,0,0,0,1,0,0]","door_history":"[0,0,0,0,0,0,1,0,0]","location_rts":"[1449,661,456,631,628,494,238,338,577]","trial_type":"two-door-navigation","trial_index":37,"time_elapsed":1076230,"internal_node_id":"0.0-2.0-35.0"},{"group":"square cycles (cube, non-group)","room_assignment":["blue","pink","green","red","grey","yellow","brown","purple"],"door_color_assignment":["black","white"],"door_generator_assignment":[0,1],"goal":4,"start":7,"action_noise":0.1,"location_history":"[7,6,5,4]","action_history":"[0,0,1]","door_history":"[0,0,1]","location_rts":"[464,476,149]","trial_type":"two-door-navigation","trial_index":38,"time_elapsed":1084005,"internal_node_id":"0.0-2.0-36.0"},{"group":"square cycles (cube, non-group)","room_assignment":["blue","pink","green","red","grey","yellow","brown","purple"],"door_color_assignment":["black","white"],"door_generator_assignment":[0,1],"goal":5,"start":4,"action_noise":0.1,"location_history":"[4,7,3,0,4,5]","action_history":"[0,0,0,1,0]","door_history":"[0,0,0,1,0]","location_rts":"[825,575,495,261,358]","trial_type":"two-door-navigation","trial_index":39,"time_elapsed":1095228,"internal_node_id":"0.0-2.0-37.0"},{"group":"square cycles (cube, non-group)","room_assignment":["blue","pink","green","red","grey","yellow","brown","purple"],"door_color_assignment":["black","white"],"door_generator_assignment":[0,1],"goal":0,"start":5,"action_noise":0.1,"location_history":"[5,4,7,6,5,1,2,3,0]","action_history":"[0,0,0,0,1,0,0,0]","door_history":"[0,0,0,0,1,0,0,0]","location_rts":"[893,426,616,384,924,433,543,426]","trial_type":"two-door-navigation","trial_index":40,"time_elapsed":1111690,"internal_node_id":"0.0-2.0-38.0"},{"group":"square cycles (cube, non-group)","room_assignment":["blue","pink","green","red","grey","yellow","brown","purple"],"door_color_assignment":["black","white"],"door_generator_assignment":[0,1],"goal":4,"start":0,"action_noise":0.1,"location_history":"[0,1,0,1,0,1,2,3,2,3,2,6,7,3,2,3,2,3,2,6,5,4]","action_history":"[0,1,0,1,0,0,0,0,0,0,1,1,1,0,0,0,1,1,1,0,0]","door_history":"[0,1,0,1,0,0,0,0,0,0,1,1,1,0,0,0,1,1,1,0,0]","location_rts":"[651,876,418,700,419,428,446,416,424,373,266,506,462,470,409,474,559,274,421,576,414]","trial_type":"two-door-navigation","trial_index":41,"time_elapsed":1147009,"internal_node_id":"0.0-2.0-39.0"},{"group":"square cycles (cube, non-group)","room_assignment":["blue","pink","green","red","grey","yellow","brown","purple"],"door_color_assignment":["black","white"],"door_generator_assignment":[0,1],"goal":0,"start":4,"action_noise":0.1,"location_history":"[4,7,3,0]","action_history":"[0,1,0]","door_history":"[0,1,0]","location_rts":"[804,1079,392]","trial_type":"two-door-navigation","trial_index":42,"time_elapsed":1156020,"internal_node_id":"0.0-2.0-40.0"},{"group":"square cycles (cube, non-group)","room_assignment":["blue","pink","green","red","grey","yellow","brown","purple"],"door_color_assignment":["black","white"],"door_generator_assignment":[0,1],"goal":2,"start":0,"action_noise":0.1,"location_history":"[0,4,5,4,7,3,2]","action_history":"[0,1,0,0,1,0]","door_history":"[0,1,0,0,1,0]","location_rts":"[1119,721,345,385,619,410]","trial_type":"two-door-navigation","trial_index":43,"time_elapsed":1169321,"internal_node_id":"0.0-2.0-41.0"},{"group":"square cycles (cube, non-group)","room_assignment":["blue","pink","green","red","grey","yellow","brown","purple"],"door_color_assignment":["black","white"],"door_generator_assignment":[0,1],"goal":3,"start":2,"action_noise":0.1,"location_history":"[2,3]","action_history":"[1]","door_history":"[1]","location_rts":"[932]","trial_type":"two-door-navigation","trial_index":44,"time_elapsed":1174801,"internal_node_id":"0.0-2.0-42.0"},{"group":"square cycles (cube, non-group)","room_assignment":["blue","pink","green","red","grey","yellow","brown","purple"],"door_color_assignment":["black","white"],"door_generator_assignment":[0,1],"goal":5,"start":3,"action_noise":0.1,"location_history":"[3,0,1,0,1,0,4,5]","action_history":"[0,0,1,0,1,1,1]","door_history":"[0,0,1,0,1,1,1]","location_rts":"[930,637,820,405,533,230,523]","trial_type":"two-door-navigation","trial_index":45,"time_elapsed":1189679,"internal_node_id":"0.0-2.0-43.0"},{"group":"square cycles (cube, non-group)","room_assignment":["blue","pink","green","red","grey","yellow","brown","purple"],"door_color_assignment":["black","white"],"door_generator_assignment":[0,1],"goal":1,"start":5,"action_noise":0.1,"location_history":"[5,1]","action_history":"[1]","door_history":"[1]","location_rts":"[1326]","trial_type":"two-door-navigation","trial_index":46,"time_elapsed":1195579,"internal_node_id":"0.0-2.0-44.0"},{"group":"square cycles (cube, non-group)","room_assignment":["blue","pink","green","red","grey","yellow","brown","purple"],"door_color_assignment":["black","white"],"door_generator_assignment":[0,1],"goal":7,"start":1,"action_noise":0.1,"location_history":"[1,2,3,0,1,0,1,2,3,0,1,0,4,5,1,0,1,2,3,0,1,2,3,0,1,2,6,5,1,0,4,5,1,0,1,2,3,0,1,2,3,0,1,2,3,2,3,2,3,0,4,5,1,0,4,5,1,2,3,0,1,0,1,2,3,2,6,5,4,7]","action_history":"[0,0,0,0,0,1,0,0,0,0,1,0,1,1,1,0,0,0,0,0,0,0,0,0,0,0,0,1,1,1,1,1,1,0,0,0,0,0,0,0,0,0,0,0,1,0,1,0,0,1,1,1,1,1,1,1,0,0,0,0,0,0,0,0,1,1,0,0,0]","door_history":"[0,0,0,0,0,1,0,0,0,0,1,0,1,1,1,0,0,0,0,0,0,0,0,0,0,0,0,1,1,1,1,1,1,0,0,0,0,0,0,0,0,0,0,0,1,0,1,0,0,1,1,1,1,1,1,1,0,0,0,0,0,0,0,0,1,1,0,0,0]","location_rts":"[1448,568,552,587,604,1366,1722,950,505,658,481,27,402,723,921,684,453,502,2050,1098,605,548,481,662,510,448,2068,705,831,1121,593,520,789,970,487,515,510,530,502,468,469,441,453,631,195,913,388,840,370,317,391,585,704,642,521,412,550,417,447,422,472,444,418,465,299,397,449,393,476]","trial_type":"two-door-navigation","trial_index":47,"time_elapsed":1314949,"internal_node_id":"0.0-2.0-45.0"},{"group":"square cycles (cube, non-group)","room_assignment":["blue","pink","green","red","grey","yellow","brown","purple"],"door_color_assignment":["black","white"],"door_generator_assignment":[0,1],"goal":6,"start":7,"action_noise":0.1,"location_history":"[7,6]","action_history":"[0]","door_history":"[0]","location_rts":"[867]","trial_type":"two-door-navigation","trial_index":48,"time_elapsed":1320358,"internal_node_id":"0.0-2.0-46.0"},{"group":"square cycles (cube, non-group)","room_assignment":["blue","pink","green","red","grey","yellow","brown","purple"],"door_color_assignment":["black","white"],"door_generator_assignment":[0,1],"goal":3,"start":6,"action_noise":0.1,"location_history":"[6,7,6,5,4,7,6,7,3]","action_history":"[1,0,0,0,0,0,1,1]","door_history":"[1,0,0,0,0,0,1,1]","location_rts":"[1629,727,568,554,408,423,145,839]","trial_type":"two-door-navigation","trial_index":49,"time_elapsed":1337501,"internal_node_id":"0.0-2.0-47.0"},{"group":"square cycles (cube, non-group)","room_assignment":["blue","pink","green","red","grey","yellow","brown","purple"],"door_color_assignment":["black","white"],"door_generator_assignment":[0,1],"goal":0,"start":3,"action_noise":0.1,"location_history":"[3,0]","action_history":"[0]","door_history":"[0]","location_rts":"[365]","trial_type":"two-door-navigation","trial_index":50,"time_elapsed":1342432,"internal_node_id":"0.0-2.0-48.0"},{"group":"square cycles (cube, non-group)","room_assignment":["blue","pink","green","red","grey","yellow","brown","purple"],"door_color_assignment":["black","white"],"door_generator_assignment":[0,1],"goal":2,"start":0,"action_noise":0.1,"location_history":"[0,1,0,4,5,4,7,6,7,6,7,6,7,3,2]","action_history":"[0,1,1,1,0,0,0,1,1,1,0,0,1,1]","door_history":"[0,1,1,1,0,0,0,1,1,1,0,0,1,1]","location_rts":"[974,305,449,454,286,406,822,674,751,745,527,554,797,1650]","trial_type":"two-door-navigation","trial_index":51,"time_elapsed":1369921,"internal_node_id":"0.0-2.0-49.0"},{"view_history":"[{\"page_index\":0,\"viewing_time\":2239}]","rt":2240,"trial_type":"instructions","trial_index":52,"time_elapsed":1373162,"internal_node_id":"0.0-3.0"},{"view_history":"[{\"page_index\":0,\"viewing_time\":1968},{\"page_index\":1,\"viewing_time\":25184}]","rt":27152,"trial_type":"instructions","trial_index":53,"time_elapsed":1401315,"internal_node_id":"0.0-4.0"},{"group":"tri cycles (cube, non-group)","fractal_assignment":["../images/blu_wht.png","../images/gry_blk.png","../images/org_blu.png","../images/pnk_blu.png","../images/grn_red.png","../images/ylw_pnk.png","../images/ylw_slt.png","../images/cyn_red.png"],"mutagen_generator_assignment":[1,0],"goal":3,"start":0,"action_noise":0.1,"location_history":"[0,2,6,5,2,1,0,3]","action_history":"[0,1,1,1,0,0,1]","mutagen_history":"[1,0,0,0,1,1,0]","location_rts":"[4296,2576,1032,538,754,765,1553]","trial_type":"fractal-mutation","trial_index":54,"time_elapsed":1423810,"internal_node_id":"0.0-5.0-0.0"},{"group":"tri cycles (cube, non-group)","fractal_assignment":["../images/blu_wht.png","../images/gry_blk.png","../images/org_blu.png","../images/pnk_blu.png","../images/grn_red.png","../images/ylw_pnk.png","../images/ylw_slt.png","../images/cyn_red.png"],"mutagen_generator_assignment":[1,0],"goal":1,"start":3,"action_noise":0.1,"location_history":"[3,7,6,4,0,3,7,3,4,7,3,4,0,3,4,7,6,5,1]","action_history":"[0,0,1,1,1,0,1,1,0,1,1,1,1,0,0,0,1,0]","mutagen_history":"[1,1,0,0,0,1,0,0,1,0,0,0,0,1,1,1,0,1]","location_rts":"[1712,896,449,509,776,858,341,1159,821,808,510,472,533,1376,724,779,1025,880]","trial_type":"fractal-mutation","trial_index":55,"time_elapsed":1461061,"internal_node_id":"0.0-5.0-1.0"},{"group":"tri cycles (cube, non-group)","fractal_assignment":["../images/blu_wht.png","../images/gry_blk.png","../images/org_blu.png","../images/pnk_blu.png","../images/grn_red.png","../images/ylw_pnk.png","../images/ylw_slt.png","../images/cyn_red.png"],"mutagen_generator_assignment":[1,0],"goal":2,"start":1,"action_noise":0.1,"location_history":"[1,5,1,0,2]","action_history":"[1,0,0,0]","mutagen_history":"[0,1,1,1]","location_rts":"[1613,576,809,557]","trial_type":"fractal-mutation","trial_index":56,"time_elapsed":1472414,"internal_node_id":"0.0-5.0-2.0"},{"group":"tri cycles (cube, non-group)","fractal_assignment":["../images/blu_wht.png","../images/gry_blk.png","../images/org_blu.png","../images/pnk_blu.png","../images/grn_red.png","../images/ylw_pnk.png","../images/ylw_slt.png","../images/cyn_red.png"],"mutagen_generator_assignment":[1,0],"goal":6,"start":2,"action_noise":0.1,"location_history":"[2,6]","action_history":"[1]","mutagen_history":"[0]","location_rts":"[1104]","trial_type":"fractal-mutation","trial_index":57,"time_elapsed":1478090,"internal_node_id":"0.0-5.0-3.0"},{"group":"tri cycles (cube, non-group)","fractal_assignment":["../images/blu_wht.png","../images/gry_blk.png","../images/org_blu.png","../images/pnk_blu.png","../images/grn_red.png","../images/ylw_pnk.png","../images/ylw_slt.png","../images/cyn_red.png"],"mutagen_generator_assignment":[1,0],"goal":5,"start":6,"action_noise":0.1,"location_history":"[6,5]","action_history":"[1]","mutagen_history":"[0]","location_rts":"[1321]","trial_type":"fractal-mutation","trial_index":58,"time_elapsed":1483968,"internal_node_id":"0.0-5.0-4.0"},{"group":"tri cycles (cube, non-group)","fractal_assignment":["../images/blu_wht.png","../images/gry_blk.png","../images/org_blu.png","../images/pnk_blu.png","../images/grn_red.png","../images/ylw_pnk.png","../images/ylw_slt.png","../images/cyn_red.png"],"mutagen_generator_assignment":[1,0],"goal":4,"start":5,"action_noise":0.1,"location_history":"[5,1,5,1,0,3,4]","action_history":"[0,1,0,0,1,1]","mutagen_history":"[1,0,1,1,0,0]","location_rts":"[1994,784,697,383,497,536]","trial_type":"fractal-mutation","trial_index":59,"time_elapsed":1498682,"internal_node_id":"0.0-5.0-5.0"},{"group":"tri cycles (cube, non-group)","fractal_assignment":["../images/blu_wht.png","../images/gry_blk.png","../images/org_blu.png","../images/pnk_blu.png","../images/grn_red.png","../images/ylw_pnk.png","../images/ylw_slt.png","../images/cyn_red.png"],"mutagen_generator_assignment":[1,0],"goal":7,"start":4,"action_noise":0.1,"location_history":"[4,7]","action_history":"[0]","mutagen_history":"[1]","location_rts":"[1312]","trial_type":"fractal-mutation","trial_index":60,"time_elapsed":1504567,"internal_node_id":"0.0-5.0-6.0"},{"group":"tri cycles (cube, non-group)","fractal_assignment":["../images/blu_wht.png","../images/gry_blk.png","../images/org_blu.png","../images/pnk_blu.png","../images/grn_red.png","../images/ylw_pnk.png","../images/ylw_slt.png","../images/cyn_red.png"],"mutagen_generator_assignment":[1,0],"goal":4,"start":7,"action_noise":0.1,"location_history":"[7,3,4]","action_history":"[1,1]","mutagen_history":"[0,0]","location_rts":"[1466,725]","trial_type":"fractal-mutation","trial_index":61,"time_elapsed":1512384,"internal_node_id":"0.0-5.0-7.0"},{"group":"tri cycles (cube, non-group)","fractal_assignment":["../images/blu_wht.png","../images/gry_blk.png","../images/org_blu.png","../images/pnk_blu.png","../images/grn_red.png","../images/ylw_pnk.png","../images/ylw_slt.png","../images/cyn_red.png"],"mutagen_generator_assignment":[1,0],"goal":6,"start":4,"action_noise":0.1,"location_history":"[4,7,3,4,0,3,7,3,7,6]","action_history":"[0,1,1,1,1,0,1,0,0]","mutagen_history":"[1,0,0,0,0,1,0,1,1]","location_rts":"[962,713,433,425,496,689,327,223,214]","trial_type":"fractal-mutation","trial_index":62,"time_elapsed":1529904,"internal_node_id":"0.0-5.0-8.0"},{"group":"tri cycles (cube, non-group)","fractal_assignment":["../images/blu_wht.png","../images/gry_blk.png","../images/org_blu.png","../images/pnk_blu.png","../images/grn_red.png","../images/ylw_pnk.png","../images/ylw_slt.png","../images/cyn_red.png"],"mutagen_generator_assignment":[1,0],"goal":0,"start":6,"action_noise":0.1,"location_history":"[6,4,0]","action_history":"[0,1]","mutagen_history":"[1,0]","location_rts":"[1299,505]","trial_type":"fractal-mutation","trial_index":63,"time_elapsed":1537349,"internal_node_id":"0.0-5.0-9.0"},{"group":"tri cycles (cube, non-group)","fractal_assignment":["../images/blu_wht.png","../images/gry_blk.png","../images/org_blu.png","../images/pnk_blu.png","../images/grn_red.png","../images/ylw_pnk.png","../images/ylw_slt.png","../images/cyn_red.png"],"mutagen_generator_assignment":[1,0],"goal":1,"start":0,"action_noise":0.1,"location_history":"[0,2,1]","action_history":"[0,0]","mutagen_history":"[1,1]","location_rts":"[1252,616]","trial_type":"fractal-mutation","trial_index":64,"time_elapsed":1544840,"internal_node_id":"0.0-5.0-10.0"},{"group":"tri cycles (cube, non-group)","fractal_assignment":["../images/blu_wht.png","../images/gry_blk.png","../images/org_blu.png","../images/pnk_blu.png","../images/grn_red.png","../images/ylw_pnk.png","../images/ylw_slt.png","../images/cyn_red.png"],"mutagen_generator_assignment":[1,0],"goal":3,"start":1,"action_noise":0.1,"location_history":"[1,5,2,1,5,2,6,4,7,6,5,2,6,4,7,6,4,0,3]","action_history":"[1,1,0,1,1,1,1,0,0,1,1,1,0,0,1,0,1,1]","mutagen_history":"[0,0,1,0,0,0,0,1,1,0,0,0,1,1,0,1,0,0]","location_rts":"[796,513,398,539,458,419,599,394,546,701,229,859,486,405,539,604,477,639]","trial_type":"fractal-mutation","trial_index":65,"time_elapsed":1576932,"internal_node_id":"0.0-5.0-11.0"},{"group":"tri cycles (cube, non-group)","fractal_assignment":["../images/blu_wht.png","../images/gry_blk.png","../images/org_blu.png","../images/pnk_blu.png","../images/grn_red.png","../images/ylw_pnk.png","../images/ylw_slt.png","../images/cyn_red.png"],"mutagen_generator_assignment":[1,0],"goal":7,"start":3,"action_noise":0.1,"location_history":"[3,7]","action_history":"[0]","mutagen_history":"[1]","location_rts":"[974]","trial_type":"fractal-mutation","trial_index":66,"time_elapsed":1582455,"internal_node_id":"0.0-5.0-12.0"},{"group":"tri cycles (cube, non-group)","fractal_assignment":["../images/blu_wht.png","../images/gry_blk.png","../images/org_blu.png","../images/pnk_blu.png","../images/grn_red.png","../images/ylw_pnk.png","../images/ylw_slt.png","../images/cyn_red.png"],"mutagen_generator_assignment":[1,0],"goal":5,"start":7,"action_noise":0.1,"location_history":"[7,3,7,6,5]","action_history":"[1,0,0,1]","mutagen_history":"[0,1,1,0]","location_rts":"[827,472,379,457]","trial_type":"fractal-mutation","trial_index":67,"time_elapsed":1592364,"internal_node_id":"0.0-5.0-13.0"},{"group":"tri cycles (cube, non-group)","fractal_assignment":["../images/blu_wht.png","../images/gry_blk.png","../images/org_blu.png","../images/pnk_blu.png","../images/grn_red.png","../images/ylw_pnk.png","../images/ylw_slt.png","../images/cyn_red.png"],"mutagen_generator_assignment":[1,0],"goal":2,"start":5,"action_noise":0.1,"location_history":"[5,1,5,2]","action_history":"[0,1,1]","mutagen_history":"[1,0,0]","location_rts":"[1157,486,563]","trial_type":"fractal-mutation","trial_index":68,"time_elapsed":1601231,"internal_node_id":"0.0-5.0-14.0"},{"group":"tri cycles (cube, non-group)","fractal_assignment":["../images/blu_wht.png","../images/gry_blk.png","../images/org_blu.png","../images/pnk_blu.png","../images/grn_red.png","../images/ylw_pnk.png","../images/ylw_slt.png","../images/cyn_red.png"],"mutagen_generator_assignment":[1,0],"goal":7,"start":2,"action_noise":0.1,"location_history":"[2,1,0,3,7]","action_history":"[0,0,1,0]","mutagen_history":"[1,1,0,1]","location_rts":"[946,508,384,852]","trial_type":"fractal-mutation","trial_index":69,"time_elapsed":1611708,"internal_node_id":"0.0-5.0-15.0"},{"group":"tri cycles (cube, non-group)","fractal_assignment":["../images/blu_wht.png","../images/gry_blk.png","../images/org_blu.png","../images/pnk_blu.png","../images/grn_red.png","../images/ylw_pnk.png","../images/ylw_slt.png","../images/cyn_red.png"],"mutagen_generator_assignment":[1,0],"goal":4,"start":7,"action_noise":0.1,"location_history":"[7,3,4]","action_history":"[1,1]","mutagen_history":"[0,0]","location_rts":"[1037,505]","trial_type":"fractal-mutation","trial_index":70,"time_elapsed":1618831,"internal_node_id":"0.0-5.0-16.0"},{"group":"tri cycles (cube, non-group)","fractal_assignment":["../images/blu_wht.png","../images/gry_blk.png","../images/org_blu.png","../images/pnk_blu.png","../images/grn_red.png","../images/ylw_pnk.png","../images/ylw_slt.png","../images/cyn_red.png"],"mutagen_generator_assignment":[1,0],"goal":2,"start":4,"action_noise":0.1,"location_history":"[4,7,6,4,0,3,7,3,7,3,4,0,3,4,0,2]","action_history":"[1,0,0,1,1,1,1,0,1,1,1,1,1,0,0]","mutagen_history":"[0,1,1,0,0,0,0,1,0,0,0,0,0,1,1]","location_rts":"[1323,759,495,376,527,1471,783,941,585,553,497,427,467,609,496]","trial_type":"fractal-mutation","trial_index":71,"time_elapsed":1648590,"internal_node_id":"0.0-5.0-17.0"},{"group":"tri cycles (cube, non-group)","fractal_assignment":["../images/blu_wht.png","../images/gry_blk.png","../images/org_blu.png","../images/pnk_blu.png","../images/grn_red.png","../images/ylw_pnk.png","../images/ylw_slt.png","../images/cyn_red.png"],"mutagen_generator_assignment":[1,0],"goal":3,"start":2,"action_noise":0.1,"location_history":"[2,1,0,2,6,5,1,5,1,0,3]","action_history":"[0,0,0,1,1,0,1,0,0,1]","mutagen_history":"[1,1,1,0,0,1,0,1,1,0]","location_rts":"[1316,543,542,599,518,712,719,608,466,872]","trial_type":"fractal-mutation","trial_index":72,"time_elapsed":1669641,"internal_node_id":"0.0-5.0-18.0"},{"group":"tri cycles (cube, non-group)","fractal_assignment":["../images/blu_wht.png","../images/gry_blk.png","../images/org_blu.png","../images/pnk_blu.png","../images/grn_red.png","../images/ylw_pnk.png","../images/ylw_slt.png","../images/cyn_red.png"],"mutagen_generator_assignment":[1,0],"goal":6,"start":3,"action_noise":0.1,"location_history":"[3,4,0,3,7,3,7,6]","action_history":"[1,1,1,0,1,0,0]","mutagen_history":"[0,0,0,1,0,1,1]","location_rts":"[1442,745,469,685,855,670,290]","trial_type":"fractal-mutation","trial_index":73,"time_elapsed":1685683,"internal_node_id":"0.0-5.0-19.0"},{"group":"tri cycles (cube, non-group)","fractal_assignment":["../images/blu_wht.png","../images/gry_blk.png","../images/org_blu.png","../images/pnk_blu.png","../images/grn_red.png","../images/ylw_pnk.png","../images/ylw_slt.png","../images/cyn_red.png"],"mutagen_generator_assignment":[1,0],"goal":5,"start":6,"action_noise":0.1,"location_history":"[6,4,7,3,4,0,3,7,6,5]","action_history":"[1,0,1,1,1,1,0,0,1]","mutagen_history":"[0,1,0,0,0,0,1,1,0]","location_rts":"[933,1184,494,496,843,485,950,334,1007]","trial_type":"fractal-mutation","trial_index":74,"time_elapsed":1705376,"internal_node_id":"0.0-5.0-20.0"},{"group":"tri cycles (cube, non-group)","fractal_assignment":["../images/blu_wht.png","../images/gry_blk.png","../images/org_blu.png","../images/pnk_blu.png","../images/grn_red.png","../images/ylw_pnk.png","../images/ylw_slt.png","../images/cyn_red.png"],"mutagen_generator_assignment":[1,0],"goal":1,"start":5,"action_noise":0.1,"location_history":"[5,1]","action_history":"[0]","mutagen_history":"[1]","location_rts":"[905]","trial_type":"fractal-mutation","trial_index":75,"time_elapsed":1710872,"internal_node_id":"0.0-5.0-21.0"},{"group":"tri cycles (cube, non-group)","fractal_assignment":["../images/blu_wht.png","../images/gry_blk.png","../images/org_blu.png","../images/pnk_blu.png","../images/grn_red.png","../images/ylw_pnk.png","../images/ylw_slt.png","../images/cyn_red.png"],"mutagen_generator_assignment":[1,0],"goal":0,"start":1,"action_noise":0.1,"location_history":"[1,5,1,0]","action_history":"[1,0,1]","mutagen_history":"[0,1,0]","location_rts":"[969,763,477]","trial_type":"fractal-mutation","trial_index":76,"time_elapsed":1719744,"internal_node_id":"0.0-5.0-22.0"},{"group":"tri cycles (cube, non-group)","fractal_assignment":["../images/blu_wht.png","../images/gry_blk.png","../images/org_blu.png","../images/pnk_blu.png","../images/grn_red.png","../images/ylw_pnk.png","../images/ylw_slt.png","../images/cyn_red.png"],"mutagen_generator_assignment":[1,0],"goal":2,"start":0,"action_noise":0.1,"location_history":"[0,3,7,3,7,3,4,7,3,4,0,3,4,0,3,4,0,2]","action_history":"[1,0,0,0,1,1,0,1,1,1,1,1,1,1,1,0,0]","mutagen_history":"[0,1,1,1,0,0,1,0,0,0,0,0,0,0,0,1,1]","location_rts":"[1705,668,571,1220,472,912,1140,493,370,428,439,495,425,473,419,401,429]","trial_type":"fractal-mutation","trial_index":77,"time_elapsed":1752245,"internal_node_id":"0.0-5.0-23.0"},{"group":"tri cycles (cube, non-group)","fractal_assignment":["../images/blu_wht.png","../images/gry_blk.png","../images/org_blu.png","../images/pnk_blu.png","../images/grn_red.png","../images/ylw_pnk.png","../images/ylw_slt.png","../images/cyn_red.png"],"mutagen_generator_assignment":[1,0],"goal":6,"start":2,"action_noise":0.1,"location_history":"[2,1,0,3,7,6]","action_history":"[0,1,1,0,0]","mutagen_history":"[1,0,0,1,1]","location_rts":"[1083,466,457,399,119]","trial_type":"fractal-mutation","trial_index":78,"time_elapsed":1763615,"internal_node_id":"0.0-5.0-24.0"},{"group":"tri cycles (cube, non-group)","fractal_assignment":["../images/blu_wht.png","../images/gry_blk.png","../images/org_blu.png","../images/pnk_blu.png","../images/grn_red.png","../images/ylw_pnk.png","../images/ylw_slt.png","../images/cyn_red.png"],"mutagen_generator_assignment":[1,0],"goal":1,"start":6,"action_noise":0.1,"location_history":"[6,4,7,6,4,7,3,7,3,4,0,2,1]","action_history":"[0,0,0,0,0,1,0,1,1,1,0,0]","mutagen_history":"[1,1,1,1,1,0,1,0,0,0,1,1]","location_rts":"[841,480,521,454,459,453,300,473,153,708,433,309]","trial_type":"fractal-mutation","trial_index":79,"time_elapsed":1785439,"internal_node_id":"0.0-5.0-25.0"},{"group":"tri cycles (cube, non-group)","fractal_assignment":["../images/blu_wht.png","../images/gry_blk.png","../images/org_blu.png","../images/pnk_blu.png","../images/grn_red.png","../images/ylw_pnk.png","../images/ylw_slt.png","../images/cyn_red.png"],"mutagen_generator_assignment":[1,0],"goal":3,"start":1,"action_noise":0.1,"location_history":"[1,0,2,6,5,2,6,5,1,0,3]","action_history":"[0,0,1,1,1,0,1,0,0,1]","mutagen_history":"[1,1,0,0,0,1,0,1,1,0]","location_rts":"[725,677,263,467,721,381,464,538,494,594]","trial_type":"fractal-mutation","trial_index":80,"time_elapsed":1804818,"internal_node_id":"0.0-5.0-26.0"},{"group":"tri cycles (cube, non-group)","fractal_assignment":["../images/blu_wht.png","../images/gry_blk.png","../images/org_blu.png","../images/pnk_blu.png","../images/grn_red.png","../images/ylw_pnk.png","../images/ylw_slt.png","../images/cyn_red.png"],"mutagen_generator_assignment":[1,0],"goal":7,"start":3,"action_noise":0.1,"location_history":"[3,7]","action_history":"[0]","mutagen_history":"[1]","location_rts":"[959]","trial_type":"fractal-mutation","trial_index":81,"time_elapsed":1810364,"internal_node_id":"0.0-5.0-27.0"},{"group":"tri cycles (cube, non-group)","fractal_assignment":["../images/blu_wht.png","../images/gry_blk.png","../images/org_blu.png","../images/pnk_blu.png","../images/grn_red.png","../images/ylw_pnk.png","../images/ylw_slt.png","../images/cyn_red.png"],"mutagen_generator_assignment":[1,0],"goal":4,"start":7,"action_noise":0.1,"location_history":"[7,3,4]","action_history":"[1,1]","mutagen_history":"[0,0]","location_rts":"[1701,465]","trial_type":"fractal-mutation","trial_index":82,"time_elapsed":1818131,"internal_node_id":"0.0-5.0-28.0"},{"group":"tri cycles (cube, non-group)","fractal_assignment":["../images/blu_wht.png","../images/gry_blk.png","../images/org_blu.png","../images/pnk_blu.png","../images/grn_red.png","../images/ylw_pnk.png","../images/ylw_slt.png","../images/cyn_red.png"],"mutagen_generator_assignment":[1,0],"goal":0,"start":4,"action_noise":0.1,"location_history":"[4,7,6,4,0]","action_history":"[0,0,0,1]","mutagen_history":"[1,1,1,0]","location_rts":"[1062,613,577,445]","trial_type":"fractal-mutation","trial_index":83,"time_elapsed":1828595,"internal_node_id":"0.0-5.0-29.0"},{"group":"tri cycles (cube, non-group)","fractal_assignment":["../images/blu_wht.png","../images/gry_blk.png","../images/org_blu.png","../images/pnk_blu.png","../images/grn_red.png","../images/ylw_pnk.png","../images/ylw_slt.png","../images/cyn_red.png"],"mutagen_generator_assignment":[1,0],"goal":5,"start":0,"action_noise":0.1,"location_history":"[0,3,4,0,3,4,0,2,6,5]","action_history":"[1,1,1,1,1,1,0,1,1]","mutagen_history":"[0,0,0,0,0,0,1,0,0]","location_rts":"[1045,1142,482,480,430,491,457,1035,461]","trial_type":"fractal-mutation","trial_index":84,"time_elapsed":1847664,"internal_node_id":"0.0-5.0-30.0"},{"group":"tri cycles (cube, non-group)","fractal_assignment":["../images/blu_wht.png","../images/gry_blk.png","../images/org_blu.png","../images/pnk_blu.png","../images/grn_red.png","../images/ylw_pnk.png","../images/ylw_slt.png","../images/cyn_red.png"],"mutagen_generator_assignment":[1,0],"goal":3,"start":5,"action_noise":0.1,"location_history":"[5,1,5,2,1,5,2,1,0,2,1,5,1,5,2,6,4,0,2,1,0,2,1,0,3]","action_history":"[0,1,1,1,1,1,0,0,0,0,1,0,0,1,1,1,0,1,1,0,0,0,0,1]","mutagen_history":"[1,0,0,0,0,0,1,1,1,1,0,1,1,0,0,0,1,0,0,1,1,1,1,0]","location_rts":"[1535,814,493,367,1267,514,478,737,669,948,894,198,764,676,652,854,843,725,499,611,504,438,1185,689]","trial_type":"fractal-mutation","trial_index":85,"time_elapsed":1893999,"internal_node_id":"0.0-5.0-31.0"},{"group":"tri cycles (cube, non-group)","fractal_assignment":["../images/blu_wht.png","../images/gry_blk.png","../images/org_blu.png","../images/pnk_blu.png","../images/grn_red.png","../images/ylw_pnk.png","../images/ylw_slt.png","../images/cyn_red.png"],"mutagen_generator_assignment":[1,0],"goal":2,"start":3,"action_noise":0.1,"location_history":"[3,4,7,6,5,2]","action_history":"[1,0,0,1,1]","mutagen_history":"[0,1,1,0,0]","location_rts":"[1219,782,546,328,655]","trial_type":"fractal-mutation","trial_index":86,"time_elapsed":1906360,"internal_node_id":"0.0-5.0-32.0"},{"group":"tri cycles (cube, non-group)","fractal_assignment":["../images/blu_wht.png","../images/gry_blk.png","../images/org_blu.png","../images/pnk_blu.png","../images/grn_red.png","../images/ylw_pnk.png","../images/ylw_slt.png","../images/cyn_red.png"],"mutagen_generator_assignment":[1,0],"goal":6,"start":2,"action_noise":0.1,"location_history":"[2,1,5,2,6]","action_history":"[0,1,1,1]","mutagen_history":"[1,0,0,0]","location_rts":"[766,412,462,565]","trial_type":"fractal-mutation","trial_index":87,"time_elapsed":1916341,"internal_node_id":"0.0-5.0-33.0"},{"group":"tri cycles (cube, non-group)","fractal_assignment":["../images/blu_wht.png","../images/gry_blk.png","../images/org_blu.png","../images/pnk_blu.png","../images/grn_red.png","../images/ylw_pnk.png","../images/ylw_slt.png","../images/cyn_red.png"],"mutagen_generator_assignment":[1,0],"goal":1,"start":6,"action_noise":0.1,"location_history":"[6,4,0,2,1]","action_history":"[0,1,0,0]","mutagen_history":"[1,0,1,1]","location_rts":"[930,523,504,450]","trial_type":"fractal-mutation","trial_index":88,"time_elapsed":1926505,"internal_node_id":"0.0-5.0-34.0"},{"group":"tri cycles (cube, non-group)","fractal_assignment":["../images/blu_wht.png","../images/gry_blk.png","../images/org_blu.png","../images/pnk_blu.png","../images/grn_red.png","../images/ylw_pnk.png","../images/ylw_slt.png","../images/cyn_red.png"],"mutagen_generator_assignment":[1,0],"goal":7,"start":1,"action_noise":0.1,"location_history":"[1,0,2,6,4,0,3,7]","action_history":"[0,0,1,0,1,1,0]","mutagen_history":"[1,1,0,1,0,0,1]","location_rts":"[923,498,449,686,695,751,665]","trial_type":"fractal-mutation","trial_index":89,"time_elapsed":1942137,"internal_node_id":"0.0-5.0-35.0"},{"group":"tri cycles (cube, non-group)","fractal_assignment":["../images/blu_wht.png","../images/gry_blk.png","../images/org_blu.png","../images/pnk_blu.png","../images/grn_red.png","../images/ylw_pnk.png","../images/ylw_slt.png","../images/cyn_red.png"],"mutagen_generator_assignment":[1,0],"goal":4,"start":7,"action_noise":0.1,"location_history":"[7,6,5,2,1,0,3,7,6,4]","action_history":"[0,1,0,1,1,1,0,0,0]","mutagen_history":"[1,0,1,0,0,0,1,1,1]","location_rts":"[867,754,700,712,604,473,613,676,440]","trial_type":"fractal-mutation","trial_index":90,"time_elapsed":1961014,"internal_node_id":"0.0-5.0-36.0"},{"group":"tri cycles (cube, non-group)","fractal_assignment":["../images/blu_wht.png","../images/gry_blk.png","../images/org_blu.png","../images/pnk_blu.png","../images/grn_red.png","../images/ylw_pnk.png","../images/ylw_slt.png","../images/cyn_red.png"],"mutagen_generator_assignment":[1,0],"goal":5,"start":4,"action_noise":0.1,"location_history":"[4,0,3,4,7,3,7,3,7,6,5]","action_history":"[1,1,1,0,0,0,1,0,0,1]","mutagen_history":"[0,0,0,1,1,1,0,1,1,0]","location_rts":"[1047,448,466,519,745,466,438,144,116,162]","trial_type":"fractal-mutation","trial_index":91,"time_elapsed":1979563,"internal_node_id":"0.0-5.0-37.0"},{"group":"tri cycles (cube, non-group)","fractal_assignment":["../images/blu_wht.png","../images/gry_blk.png","../images/org_blu.png","../images/pnk_blu.png","../images/grn_red.png","../images/ylw_pnk.png","../images/ylw_slt.png","../images/cyn_red.png"],"mutagen_generator_assignment":[1,0],"goal":0,"start":5,"action_noise":0.1,"location_history":"[5,1,0]","action_history":"[0,0]","mutagen_history":"[1,1]","location_rts":"[1139,427]","trial_type":"fractal-mutation","trial_index":92,"time_elapsed":1986755,"internal_node_id":"0.0-5.0-38.0"},{"group":"tri cycles (cube, non-group)","fractal_assignment":["../images/blu_wht.png","../images/gry_blk.png","../images/org_blu.png","../images/pnk_blu.png","../images/grn_red.png","../images/ylw_pnk.png","../images/ylw_slt.png","../images/cyn_red.png"],"mutagen_generator_assignment":[1,0],"goal":4,"start":0,"action_noise":0.1,"location_history":"[0,3,7,6,4]","action_history":"[1,0,0,0]","mutagen_history":"[0,1,1,1]","location_rts":"[1596,563,195,391]","trial_type":"fractal-mutation","trial_index":93,"time_elapsed":1997306,"internal_node_id":"0.0-5.0-39.0"},{"group":"tri cycles (cube, non-group)","fractal_assignment":["../images/blu_wht.png","../images/gry_blk.png","../images/org_blu.png","../images/pnk_blu.png","../images/grn_red.png","../images/ylw_pnk.png","../images/ylw_slt.png","../images/cyn_red.png"],"mutagen_generator_assignment":[1,0],"goal":0,"start":4,"action_noise":0.1,"location_history":"[4,7,3,7,6,4,0]","action_history":"[0,1,0,0,0,1]","mutagen_history":"[1,0,1,1,1,0]","location_rts":"[933,201,107,167,117,156]","trial_type":"fractal-mutation","trial_index":94,"time_elapsed":2008889,"internal_node_id":"0.0-5.0-40.0"},{"group":"tri cycles (cube, non-group)","fractal_assignment":["../images/blu_wht.png","../images/gry_blk.png","../images/org_blu.png","../images/pnk_blu.png","../images/grn_red.png","../images/ylw_pnk.png","../images/ylw_slt.png","../images/cyn_red.png"],"mutagen_generator_assignment":[1,0],"goal":2,"start":0,"action_noise":0.1,"location_history":"[0,3,4,0,2]","action_history":"[1,1,1,0]","mutagen_history":"[0,0,0,1]","location_rts":"[949,400,405,474]","trial_type":"fractal-mutation","trial_index":95,"time_elapsed":2018875,"internal_node_id":"0.0-5.0-41.0"},{"group":"tri cycles (cube, non-group)","fractal_assignment":["../images/blu_wht.png","../images/gry_blk.png","../images/org_blu.png","../images/pnk_blu.png","../images/grn_red.png","../images/ylw_pnk.png","../images/ylw_slt.png","../images/cyn_red.png"],"mutagen_generator_assignment":[1,0],"goal":3,"start":2,"action_noise":0.1,"location_history":"[2,6,4,0,3]","action_history":"[1,0,1,1]","mutagen_history":"[0,1,0,0]","location_rts":"[1038,467,561,227]","trial_type":"fractal-mutation","trial_index":96,"time_elapsed":2028958,"internal_node_id":"0.0-5.0-42.0"},{"group":"tri cycles (cube, non-group)","fractal_assignment":["../images/blu_wht.png","../images/gry_blk.png","../images/org_blu.png","../images/pnk_blu.png","../images/grn_red.png","../images/ylw_pnk.png","../images/ylw_slt.png","../images/cyn_red.png"],"mutagen_generator_assignment":[1,0],"goal":5,"start":3,"action_noise":0.1,"location_history":"[3,7,6,5]","action_history":"[0,0,1]","mutagen_history":"[1,1,0]","location_rts":"[768,446,223]","trial_type":"fractal-mutation","trial_index":97,"time_elapsed":2037121,"internal_node_id":"0.0-5.0-43.0"},{"group":"tri cycles (cube, non-group)","fractal_assignment":["../images/blu_wht.png","../images/gry_blk.png","../images/org_blu.png","../images/pnk_blu.png","../images/grn_red.png","../images/ylw_pnk.png","../images/ylw_slt.png","../images/cyn_red.png"],"mutagen_generator_assignment":[1,0],"goal":1,"start":5,"action_noise":0.1,"location_history":"[5,1]","action_history":"[0]","mutagen_history":"[1]","location_rts":"[884]","trial_type":"fractal-mutation","trial_index":98,"time_elapsed":2042560,"internal_node_id":"0.0-5.0-44.0"},{"group":"tri cycles (cube, non-group)","fractal_assignment":["../images/blu_wht.png","../images/gry_blk.png","../images/org_blu.png","../images/pnk_blu.png","../images/grn_red.png","../images/ylw_pnk.png","../images/ylw_slt.png","../images/cyn_red.png"],"mutagen_generator_assignment":[1,0],"goal":7,"start":1,"action_noise":0.1,"location_history":"[1,0,2,6,5,2,1,5,2,6,4,0,2,1,5,1,0,2,1,0,2,6,5,1,5,2,6,5,2,6,5,1,5,2,6,5,1,0,3,7]","action_history":"[0,0,1,1,1,0,1,1,1,0,1,0,0,1,0,0,0,0,0,0,1,1,0,1,1,1,1,1,1,1,0,1,0,0,1,0,0,1,0]","mutagen_history":"[1,1,0,0,0,1,0,0,0,1,0,1,1,0,1,1,1,1,1,1,0,0,1,0,0,0,0,0,0,0,1,0,1,1,0,1,1,0,1]","location_rts":"[832,496,453,605,629,939,366,593,861,818,834,631,418,665,491,634,541,452,500,475,561,401,681,412,579,580,597,590,450,465,157,857,478,407,599,467,583,848,841]","trial_type":"fractal-mutation","trial_index":99,"time_elapsed":2110180,"internal_node_id":"0.0-5.0-45.0"},{"group":"tri cycles (cube, non-group)","fractal_assignment":["../images/blu_wht.png","../images/gry_blk.png","../images/org_blu.png","../images/pnk_blu.png","../images/grn_red.png","../images/ylw_pnk.png","../images/ylw_slt.png","../images/cyn_red.png"],"mutagen_generator_assignment":[1,0],"goal":6,"start":7,"action_noise":0.1,"location_history":"[7,3,7,6]","action_history":"[1,0,0]","mutagen_history":"[0,1,1]","location_rts":"[1160,309,109]","trial_type":"fractal-mutation","trial_index":100,"time_elapsed":2118466,"internal_node_id":"0.0-5.0-46.0"},{"group":"tri cycles (cube, non-group)","fractal_assignment":["../images/blu_wht.png","../images/gry_blk.png","../images/org_blu.png","../images/pnk_blu.png","../images/grn_red.png","../images/ylw_pnk.png","../images/ylw_slt.png","../images/cyn_red.png"],"mutagen_generator_assignment":[1,0],"goal":3,"start":6,"action_noise":0.1,"location_history":"[6,5,1,5,2,6,4,0,3]","action_history":"[1,0,1,1,1,1,0,1]","mutagen_history":"[0,1,0,0,0,0,1,0]","location_rts":"[1090,501,435,336,393,596,481,444]","trial_type":"fractal-mutation","trial_index":101,"time_elapsed":2134667,"internal_node_id":"0.0-5.0-47.0"},{"group":"tri cycles (cube, non-group)","fractal_assignment":["../images/blu_wht.png","../images/gry_blk.png","../images/org_blu.png","../images/pnk_blu.png","../images/grn_red.png","../images/ylw_pnk.png","../images/ylw_slt.png","../images/cyn_red.png"],"mutagen_generator_assignment":[1,0],"goal":0,"start":3,"action_noise":0.1,"location_history":"[3,7,6,4,7,3,7,6,4,7,6,4,7,6,4,0]","action_history":"[0,0,1,0,0,0,0,0,0,0,0,0,0,0,0]","mutagen_history":"[1,1,0,1,1,1,1,1,1,1,1,1,1,1,1]","location_rts":"[1395,619,490,425,517,689,174,174,544,458,388,443,633,543,393]","trial_type":"fractal-mutation","trial_index":102,"time_elapsed":2162029,"internal_node_id":"0.0-5.0-48.0"},{"group":"tri cycles (cube, non-group)","fractal_assignment":["../images/blu_wht.png","../images/gry_blk.png","../images/org_blu.png","../images/pnk_blu.png","../images/grn_red.png","../images/ylw_pnk.png","../images/ylw_slt.png","../images/cyn_red.png"],"mutagen_generator_assignment":[1,0],"goal":2,"start":0,"action_noise":0.1,"location_history":"[0,2]","action_history":"[0]","mutagen_history":"[1]","location_rts":"[2697]","trial_type":"fractal-mutation","trial_index":103,"time_elapsed":2169303,"internal_node_id":"0.0-5.0-49.0"},{"view_history":"[{\"page_index\":0,\"viewing_time\":3967}]","rt":3968,"trial_type":"instructions","trial_index":104,"time_elapsed":2174271,"internal_node_id":"0.0-6.0"},{"rt":3134,"responses":"{\"Q0\":\"\"}","trial_type":"survey-text","trial_index":105,"time_elapsed":2178412,"internal_node_id":"0.0-7.0"}]