[{"view_history":"[{\"page_index\":0,\"viewing_time\":41964},{\"page_index\":1,\"viewing_time\":4230},{\"page_index\":2,\"viewing_time\":40380},{\"page_index\":3,\"viewing_time\":2280}]","rt":88856,"trial_type":"instructions","trial_index":0,"time_elapsed":88859,"internal_node_id":"0.0-0.0"},{"view_history":"[{\"page_index\":0,\"viewing_time\":1385},{\"page_index\":1,\"viewing_time\":4792}]","rt":6178,"trial_type":"instructions","trial_index":1,"time_elapsed":96040,"internal_node_id":"0.0-1.0"},{"group":"tri cycles (cube, non-group)","room_assignment":["red","blue","brown","pink","yellow","green","grey","purple"],"door_color_assignment":["black","white"],"door_generator_assignment":[1,0],"goal":3,"start":0,"action_noise":0.1,"location_history":"[0,2,6,5,1,0,3]","action_history":"[0,0,1,0,1,1]","door_history":"[1,1,0,1,0,0]","location_rts":"[3271,3333,1974,2026,823,2088]","trial_type":"two-door-navigation","trial_index":2,"time_elapsed":119101,"internal_node_id":"0.0-2.0-0.0"},{"group":"tri cycles (cube, non-group)","room_assignment":["red","blue","brown","pink","yellow","green","grey","purple"],"door_color_assignment":["black","white"],"door_generator_assignment":[1,0],"goal":1,"start":3,"action_noise":0.1,"location_history":"[3,7,3,7,6,4,0,2,1]","action_history":"[0,1,0,0,0,1,0,1]","door_history":"[1,0,1,1,1,0,1,0]","location_rts":"[3369,957,896,1067,1589,855,981,712]","trial_type":"two-door-navigation","trial_index":3,"time_elapsed":141071,"internal_node_id":"0.0-2.0-1.0"},{"group":"tri cycles (cube, non-group)","room_assignment":["red","blue","brown","pink","yellow","green","grey","purple"],"door_color_assignment":["black","white"],"door_generator_assignment":[1,0],"goal":2,"start":1,"action_noise":0.1,"location_history":"[1,5,2]","action_history":"[1,1]","door_history":"[0,0]","location_rts":"[3105,405]","trial_type":"two-door-navigation","trial_index":4,"time_elapsed":150107,"internal_node_id":"0.0-2.0-2.0"},{"group":"tri cycles (cube, non-group)","room_assignment":["red","blue","brown","pink","yellow","green","grey","purple"],"door_color_assignment":["black","white"],"door_generator_assignment":[1,0],"goal":6,"start":2,"action_noise":0.1,"location_history":"[2,6]","action_history":"[1]","door_history":"[0]","location_rts":"[413]","trial_type":"two-door-navigation","trial_index":5,"time_elapsed":155028,"internal_node_id":"0.0-2.0-3.0"},{"group":"tri cycles (cube, non-group)","room_assignment":["red","blue","brown","pink","yellow","green","grey","purple"],"door_color_assignment":["black","white"],"door_generator_assignment":[1,0],"goal":5,"start":6,"action_noise":0.1,"location_history":"[6,4,0,3,4,0,3,4,0,3,4,0,3,4,0,3,4,0,3,4,7,6,4,7,6,4,0,2,1,0,3,4,0,3,7,3,7,3,4,0,3,7,3,4,0,2,6,5]","action_history":"[1,1,1,1,1,1,1,1,1,1,1,1,1,1,1,1,1,1,1,0,0,0,0,0,0,1,0,1,0,1,1,1,1,0,1,0,1,1,1,1,1,1,1,1,0,1,1]","door_history":"[0,0,0,0,0,0,0,0,0,0,0,0,0,0,0,0,0,0,0,1,1,1,1,1,1,0,1,0,1,0,0,0,0,1,0,1,0,0,0,0,0,0,0,0,1,0,0]","location_rts":"[610,444,412,398,415,459,358,433,437,595,479,4763,600,458,439,462,419,564,770,578,1165,558,471,495,431,648,416,334,1492,390,354,397,404,584,421,605,405,286,310,339,295,352,347,319,751,448,297]","trial_type":"two-door-navigation","trial_index":6,"time_elapsed":233051,"internal_node_id":"0.0-2.0-4.0"},{"group":"tri cycles (cube, non-group)","room_assignment":["red","blue","brown","pink","yellow","green","grey","purple"],"door_color_assignment":["black","white"],"door_generator_assignment":[1,0],"goal":4,"start":5,"action_noise":0.1,"location_history":"[5,2,6,5,1,0,3,4]","action_history":"[1,1,1,1,1,0,1]","door_history":"[0,0,0,0,0,1,0]","location_rts":"[1693,454,1176,350,357,442,294]","trial_type":"two-door-navigation","trial_index":7,"time_elapsed":248349,"internal_node_id":"0.0-2.0-5.0"},{"group":"tri cycles (cube, non-group)","room_assignment":["red","blue","brown","pink","yellow","green","grey","purple"],"door_color_assignment":["black","white"],"door_generator_assignment":[1,0],"goal":7,"start":4,"action_noise":0.1,"location_history":"[4,0,3,4,0,3,7]","action_history":"[1,1,1,1,1,0]","door_history":"[0,0,0,0,0,1]","location_rts":"[3695,292,70,357,174,328]","trial_type":"two-door-navigation","trial_index":8,"time_elapsed":262811,"internal_node_id":"0.0-2.0-6.0"},{"group":"tri cycles (cube, non-group)","room_assignment":["red","blue","brown","pink","yellow","green","grey","purple"],"door_color_assignment":["black","white"],"door_generator_assignment":[1,0],"goal":4,"start":7,"action_noise":0.1,"location_history":"[7,3,4]","action_history":"[1,1]","door_history":"[0,0]","location_rts":"[693,271]","trial_type":"two-door-navigation","trial_index":9,"time_elapsed":269287,"internal_node_id":"0.0-2.0-7.0"},{"group":"tri cycles (cube, non-group)","room_assignment":["red","blue","brown","pink","yellow","green","grey","purple"],"door_color_assignment":["black","white"],"door_generator_assignment":[1,0],"goal":6,"start":4,"action_noise":0.1,"location_history":"[4,0,3,4,0,3,4,0,2,6]","action_history":"[1,1,1,1,1,1,1,0,1]","door_history":"[0,0,0,0,0,0,0,1,0]","location_rts":"[535,264,466,410,380,310,423,638,933]","trial_type":"two-door-navigation","trial_index":10,"time_elapsed":286169,"internal_node_id":"0.0-2.0-8.0"},{"group":"tri cycles (cube, non-group)","room_assignment":["red","blue","brown","pink","yellow","green","grey","purple"],"door_color_assignment":["black","white"],"door_generator_assignment":[1,0],"goal":0,"start":6,"action_noise":0.1,"location_history":"[6,5,2,6,4,7,3,7,3,4,0]","action_history":"[1,1,1,1,1,1,0,1,1,1]","door_history":"[0,0,0,0,0,0,1,0,0,0]","location_rts":"[1311,428,116,243,116,272,400,89,155,390]","trial_type":"two-door-navigation","trial_index":11,"time_elapsed":303225,"internal_node_id":"0.0-2.0-9.0"},{"group":"tri cycles (cube, non-group)","room_assignment":["red","blue","brown","pink","yellow","green","grey","purple"],"door_color_assignment":["black","white"],"door_generator_assignment":[1,0],"goal":1,"start":0,"action_noise":0.1,"location_history":"[0,3,4,0,3,4,0,3,7,3,4,7,3,7,3,7,3,4,0,3,4,0,3,7,3,4,0,3,4,7,3,4,0,3,4,7,3,4,0,3,4,0,3,7,3,7,3,4,0,3,4,0,2,6,5,2,1]","action_history":"[1,1,1,1,1,1,1,1,1,1,0,1,1,1,0,1,1,1,1,1,1,1,1,1,1,1,1,1,1,1,1,1,1,1,1,1,1,1,1,1,1,1,1,1,0,1,1,1,1,1,1,0,1,1,1,1]","door_history":"[0,0,0,0,0,0,0,0,0,0,1,0,0,0,1,0,0,0,0,0,0,0,0,0,0,0,0,0,0,0,0,0,0,0,0,0,0,0,0,0,0,0,0,0,1,0,0,0,0,0,0,1,0,0,0,0]","location_rts":"[8122,557,293,279,255,415,469,271,433,438,298,303,331,534,427,416,386,372,428,333,566,558,367,408,493,389,414,265,275,348,365,528,215,535,387,245,427,356,407,542,410,493,584,588,631,719,314,278,341,172,523,437,1038,576,347,246]","trial_type":"two-door-navigation","trial_index":12,"time_elapsed":394048,"internal_node_id":"0.0-2.0-10.0"},{"group":"tri cycles (cube, non-group)","room_assignment":["red","blue","brown","pink","yellow","green","grey","purple"],"door_color_assignment":["black","white"],"door_generator_assignment":[1,0],"goal":3,"start":1,"action_noise":0.1,"location_history":"[1,5,2,6,5,2,6,5,2,6,5,2,6,5,2,6,5,2,6,5,1,5,2,1,5,2,6,5,2,6,5,2,6,4,0,3]","action_history":"[1,1,1,1,1,1,1,1,1,1,1,1,1,1,1,1,1,1,1,1,1,1,1,1,1,1,1,1,1,1,1,1,0,1,1]","door_history":"[0,0,0,0,0,0,0,0,0,0,0,0,0,0,0,0,0,0,0,0,0,0,0,0,0,0,0,0,0,0,0,0,1,0,0]","location_rts":"[887,369,268,445,555,4567,649,501,542,340,132,413,215,407,413,149,486,239,191,207,126,89,110,162,133,102,168,126,55,246,327,350,1453,1037,389]","trial_type":"two-door-navigation","trial_index":13,"time_elapsed":449511,"internal_node_id":"0.0-2.0-11.0"},{"group":"tri cycles (cube, non-group)","room_assignment":["red","blue","brown","pink","yellow","green","grey","purple"],"door_color_assignment":["black","white"],"door_generator_assignment":[1,0],"goal":7,"start":3,"action_noise":0.1,"location_history":"[3,4,7]","action_history":"[1,0]","door_history":"[0,1]","location_rts":"[1508,614]","trial_type":"two-door-navigation","trial_index":14,"time_elapsed":457147,"internal_node_id":"0.0-2.0-12.0"},{"group":"tri cycles (cube, non-group)","room_assignment":["red","blue","brown","pink","yellow","green","grey","purple"],"door_color_assignment":["black","white"],"door_generator_assignment":[1,0],"goal":5,"start":7,"action_noise":0.1,"location_history":"[7,3,4,7,3,7,3,7,3,4,0,3,4,0,2,6,5]","action_history":"[1,1,0,1,0,1,0,1,0,1,1,1,1,0,1,1]","door_history":"[0,0,1,0,1,0,1,0,1,0,0,0,0,1,0,0]","location_rts":"[1038,316,269,345,224,41,67,463,423,148,262,68,249,1172,302,108]","trial_type":"two-door-navigation","trial_index":15,"time_elapsed":482220,"internal_node_id":"0.0-2.0-13.0"},{"group":"tri cycles (cube, non-group)","room_assignment":["red","blue","brown","pink","yellow","green","grey","purple"],"door_color_assignment":["black","white"],"door_generator_assignment":[1,0],"goal":2,"start":5,"action_noise":0.1,"location_history":"[5,2]","action_history":"[1]","door_history":"[0]","location_rts":"[7762]","trial_type":"two-door-navigation","trial_index":16,"time_elapsed":494518,"internal_node_id":"0.0-2.0-14.0"},{"group":"tri cycles (cube, non-group)","room_assignment":["red","blue","brown","pink","yellow","green","grey","purple"],"door_color_assignment":["black","white"],"door_generator_assignment":[1,0],"goal":7,"start":2,"action_noise":0.1,"location_history":"[2,6,5,1,5,2,1,0,3,7]","action_history":"[1,1,0,1,1,0,1,1,0]","door_history":"[0,0,1,0,0,1,0,0,1]","location_rts":"[701,315,411,279,322,576,395,314,352]","trial_type":"two-door-navigation","trial_index":17,"time_elapsed":510743,"internal_node_id":"0.0-2.0-15.0"},{"group":"tri cycles (cube, non-group)","room_assignment":["red","blue","brown","pink","yellow","green","grey","purple"],"door_color_assignment":["black","white"],"door_generator_assignment":[1,0],"goal":4,"start":7,"action_noise":0.1,"location_history":"[7,3,4]","action_history":"[1,1]","door_history":"[0,0]","location_rts":"[8006,323]","trial_type":"two-door-navigation","trial_index":18,"time_elapsed":524582,"internal_node_id":"0.0-2.0-16.0"},{"group":"tri cycles (cube, non-group)","room_assignment":["red","blue","brown","pink","yellow","green","grey","purple"],"door_color_assignment":["black","white"],"door_generator_assignment":[1,0],"goal":2,"start":4,"action_noise":0.1,"location_history":"[4,0,3,7,3,4,0,3,4,0,3,7,3,4,0,2]","action_history":"[1,1,1,1,1,1,1,1,1,1,1,1,1,1,1]","door_history":"[0,0,0,0,0,0,0,0,0,0,0,0,0,0,0]","location_rts":"[824,132,584,375,270,46,207,62,148,172,102,191,205,207,61]","trial_type":"two-door-navigation","trial_index":19,"time_elapsed":546727,"internal_node_id":"0.0-2.0-17.0"},{"group":"tri cycles (cube, non-group)","room_assignment":["red","blue","brown","pink","yellow","green","grey","purple"],"door_color_assignment":["black","white"],"door_generator_assignment":[1,0],"goal":3,"start":2,"action_noise":0.1,"location_history":"[2,1,5,2,6,5,2,6,5,2,6,5,2,6,5,2,6,5,2,6,5,2,6,5,2,6,4,0,3]","action_history":"[1,1,1,1,1,1,1,1,1,1,1,1,1,1,1,1,1,1,1,1,1,1,1,1,1,1,1,1]","door_history":"[0,0,0,0,0,0,0,0,0,0,0,0,0,0,0,0,0,0,0,0,0,0,0,0,0,0,0,0]","location_rts":"[357,205,103,87,47,152,107,103,215,252,25,173,71,18516,10593,509,581,340,1966,102,411,221,180,165,167,198,104,118]","trial_type":"two-door-navigation","trial_index":20,"time_elapsed":614448,"internal_node_id":"0.0-2.0-18.0"},{"group":"tri cycles (cube, non-group)","room_assignment":["red","blue","brown","pink","yellow","green","grey","purple"],"door_color_assignment":["black","white"],"door_generator_assignment":[1,0],"goal":6,"start":3,"action_noise":0.1,"location_history":"[3,4,0,3,7,3,4,0,3,4,0,3,4,0,3,4,0,3,4,0,3,7,6]","action_history":"[1,1,1,1,1,1,1,1,1,1,1,1,1,1,1,1,1,1,1,1,0,0]","door_history":"[0,0,0,0,0,0,0,0,0,0,0,0,0,0,0,0,0,0,0,0,1,1]","location_rts":"[492,135,22,207,165,54,89,181,3167,149,312,128,45,19,130,9,146,121,109,85,675,40]","trial_type":"two-door-navigation","trial_index":21,"time_elapsed":646497,"internal_node_id":"0.0-2.0-19.0"},{"group":"tri cycles (cube, non-group)","room_assignment":["red","blue","brown","pink","yellow","green","grey","purple"],"door_color_assignment":["black","white"],"door_generator_assignment":[1,0],"goal":5,"start":6,"action_noise":0.1,"location_history":"[6,5]","action_history":"[1]","door_history":"[0]","location_rts":"[556]","trial_type":"two-door-navigation","trial_index":22,"time_elapsed":651563,"internal_node_id":"0.0-2.0-20.0"},{"group":"tri cycles (cube, non-group)","room_assignment":["red","blue","brown","pink","yellow","green","grey","purple"],"door_color_assignment":["black","white"],"door_generator_assignment":[1,0],"goal":1,"start":5,"action_noise":0.1,"location_history":"[5,2,1]","action_history":"[1,0]","door_history":"[0,1]","location_rts":"[872,324]","trial_type":"two-door-navigation","trial_index":23,"time_elapsed":658269,"internal_node_id":"0.0-2.0-21.0"},{"group":"tri cycles (cube, non-group)","room_assignment":["red","blue","brown","pink","yellow","green","grey","purple"],"door_color_assignment":["black","white"],"door_generator_assignment":[1,0],"goal":0,"start":1,"action_noise":0.1,"location_history":"[1,5,1,5,2,6,5,1,5,2,6,5,2,6,5,2,6,5,1,5,2,1,5,2,6,5,2,6,5,2,1,5,1,5,2,6,5,1,5,2,6,5,2,1,5,2,6,5,1,5,2,6,4,0]","action_history":"[1,0,1,1,1,1,0,1,1,1,1,0,1,1,1,1,1,0,1,1,0,1,1,1,1,1,1,1,1,1,1,1,1,1,1,1,0,1,1,1,1,1,0,1,1,1,1,1,1,1,1,1,1]","door_history":"[0,1,0,0,0,0,1,0,0,0,0,1,0,0,0,0,0,1,0,0,1,0,0,0,0,0,0,0,0,0,0,0,0,0,0,0,1,0,0,0,0,0,1,0,0,0,0,0,0,0,0,0,0]","location_rts":"[835,304,151,29,500,265,293,142,297,158,311,168,309,329,5072,154,125,432,16,259,344,558,438,445,431,375,743,605,360,308,176,215,478,448,61,254,678,175,37,150,163,263,179,81,252,276,334,679,271,349,328,337,594]","trial_type":"two-door-navigation","trial_index":24,"time_elapsed":736436,"internal_node_id":"0.0-2.0-22.0"},{"group":"tri cycles (cube, non-group)","room_assignment":["red","blue","brown","pink","yellow","green","grey","purple"],"door_color_assignment":["black","white"],"door_generator_assignment":[1,0],"goal":2,"start":0,"action_noise":0.1,"location_history":"[0,3,4,0,3,4,0,3,4,0,3,4,7,3,4,0,2]","action_history":"[1,1,1,1,1,1,1,1,1,1,1,1,1,1,1,1]","door_history":"[0,0,0,0,0,0,0,0,0,0,0,0,0,0,0,0]","location_rts":"[1695,516,383,416,258,391,339,397,374,190,469,261,393,453,712,222]","trial_type":"two-door-navigation","trial_index":25,"time_elapsed":763469,"internal_node_id":"0.0-2.0-23.0"},{"group":"tri cycles (cube, non-group)","room_assignment":["red","blue","brown","pink","yellow","green","grey","purple"],"door_color_assignment":["black","white"],"door_generator_assignment":[1,0],"goal":6,"start":2,"action_noise":0.1,"location_history":"[2,6]","action_history":"[1]","door_history":"[0]","location_rts":"[1439]","trial_type":"two-door-navigation","trial_index":26,"time_elapsed":769417,"internal_node_id":"0.0-2.0-24.0"},{"group":"tri cycles (cube, non-group)","room_assignment":["red","blue","brown","pink","yellow","green","grey","purple"],"door_color_assignment":["black","white"],"door_generator_assignment":[1,0],"goal":1,"start":6,"action_noise":0.1,"location_history":"[6,5,2,1]","action_history":"[1,1,1]","door_history":"[0,0,0]","location_rts":"[641,93,2]","trial_type":"two-door-navigation","trial_index":27,"time_elapsed":776670,"internal_node_id":"0.0-2.0-25.0"},{"group":"tri cycles (cube, non-group)","room_assignment":["red","blue","brown","pink","yellow","green","grey","purple"],"door_color_assignment":["black","white"],"door_generator_assignment":[1,0],"goal":3,"start":1,"action_noise":0.1,"location_history":"[1,5,2,6,5,1,5,2,6,5,2,6,5,2,6,5,1,0,3]","action_history":"[1,1,1,1,1,1,1,1,1,1,1,1,1,1,1,1,1,1]","door_history":"[0,0,0,0,0,0,0,0,0,0,0,0,0,0,0,0,0,0]","location_rts":"[680,301,299,331,111,409,468,381,543,4,226,75,3124,155,292,260,128,178]","trial_type":"two-door-navigation","trial_index":28,"time_elapsed":806361,"internal_node_id":"0.0-2.0-26.0"},{"group":"tri cycles (cube, non-group)","room_assignment":["red","blue","brown","pink","yellow","green","grey","purple"],"door_color_assignment":["black","white"],"door_generator_assignment":[1,0],"goal":7,"start":3,"action_noise":0.1,"location_history":"[3,4,0,3,7]","action_history":"[1,1,1,1]","door_history":"[0,0,0,0]","location_rts":"[68736,375,111,101]","trial_type":"two-door-navigation","trial_index":29,"time_elapsed":883213,"internal_node_id":"0.0-2.0-27.0"},{"group":"tri cycles (cube, non-group)","room_assignment":["red","blue","brown","pink","yellow","green","grey","purple"],"door_color_assignment":["black","white"],"door_generator_assignment":[1,0],"goal":4,"start":7,"action_noise":0.1,"location_history":"[7,3,4]","action_history":"[1,1]","door_history":"[0,0]","location_rts":"[277,147]","trial_type":"two-door-navigation","trial_index":30,"time_elapsed":889164,"internal_node_id":"0.0-2.0-28.0"},{"group":"tri cycles (cube, non-group)","room_assignment":["red","blue","brown","pink","yellow","green","grey","purple"],"door_color_assignment":["black","white"],"door_generator_assignment":[1,0],"goal":0,"start":4,"action_noise":0.1,"location_history":"[4,0]","action_history":"[1]","door_history":"[0]","location_rts":"[1914]","trial_type":"two-door-navigation","trial_index":31,"time_elapsed":895594,"internal_node_id":"0.0-2.0-29.0"},{"group":"tri cycles (cube, non-group)","room_assignment":["red","blue","brown","pink","yellow","green","grey","purple"],"door_color_assignment":["black","white"],"door_generator_assignment":[1,0],"goal":5,"start":0,"action_noise":0.1,"location_history":"[0,3,7,3,4,0,3,7,3,4,7,3,4,0,2,1,5]","action_history":"[1,1,1,1,1,1,1,1,1,1,1,1,1,1,1,1]","door_history":"[0,0,0,0,0,0,0,0,0,0,0,0,0,0,0,0]","location_rts":"[39,37,48,22,8,53,28,222,69,170,17100,19,212,55,80,102]","trial_type":"two-door-navigation","trial_index":32,"time_elapsed":933418,"internal_node_id":"0.0-2.0-30.0"},{"group":"tri cycles (cube, non-group)","room_assignment":["red","blue","brown","pink","yellow","green","grey","purple"],"door_color_assignment":["black","white"],"door_generator_assignment":[1,0],"goal":3,"start":5,"action_noise":0.1,"location_history":"[5,2,6,4,0,3]","action_history":"[1,1,1,1,1]","door_history":"[0,0,0,0,0]","location_rts":"[405,237,262,230,5008]","trial_type":"two-door-navigation","trial_index":33,"time_elapsed":948086,"internal_node_id":"0.0-2.0-31.0"},{"group":"tri cycles (cube, non-group)","room_assignment":["red","blue","brown","pink","yellow","green","grey","purple"],"door_color_assignment":["black","white"],"door_generator_assignment":[1,0],"goal":2,"start":3,"action_noise":0.1,"location_history":"[3,4,0,3,4,0,3,4,0,3,4,0,3,4,0,3,4,0,3,4,0,3,4,0,3,4,0,3,7,6,5,2]","action_history":"[1,1,1,1,1,1,1,1,1,1,1,1,1,1,1,1,1,1,1,1,1,1,1,1,1,1,1,1,1,1,1]","door_history":"[0,0,0,0,0,0,0,0,0,0,0,0,0,0,0,0,0,0,0,0,0,0,0,0,0,0,0,0,0,0,0]","location_rts":"[492,82,183,37,61,79,55,44,195,220,61,181,246,54,102,31,49,13,194,329,275,328,140,279,117,78,109,69,84,70,53]","trial_type":"two-door-navigation","trial_index":34,"time_elapsed":987001,"internal_node_id":"0.0-2.0-32.0"},{"group":"tri cycles (cube, non-group)","room_assignment":["red","blue","brown","pink","yellow","green","grey","purple"],"door_color_assignment":["black","white"],"door_generator_assignment":[1,0],"goal":6,"start":2,"action_noise":0.1,"location_history":"[2,6]","action_history":"[1]","door_history":"[0]","location_rts":"[353]","trial_type":"two-door-navigation","trial_index":35,"time_elapsed":991861,"internal_node_id":"0.0-2.0-33.0"},{"group":"tri cycles (cube, non-group)","room_assignment":["red","blue","brown","pink","yellow","green","grey","purple"],"door_color_assignment":["black","white"],"door_generator_assignment":[1,0],"goal":1,"start":6,"action_noise":0.1,"location_history":"[6,5,1]","action_history":"[1,1]","door_history":"[0,0]","location_rts":"[91,337]","trial_type":"two-door-navigation","trial_index":36,"time_elapsed":997797,"internal_node_id":"0.0-2.0-34.0"},{"group":"tri cycles (cube, non-group)","room_assignment":["red","blue","brown","pink","yellow","green","grey","purple"],"door_color_assignment":["black","white"],"door_generator_assignment":[1,0],"goal":7,"start":1,"action_noise":0.1,"location_history":"[1,0,3,4,0,3,4,0,3,4,7]","action_history":"[1,1,1,1,1,1,1,1,1,1]","door_history":"[0,0,0,0,0,0,0,0,0,0]","location_rts":"[398,47,158,157,124,275,193,108,55,184]","trial_type":"two-door-navigation","trial_index":37,"time_elapsed":1013047,"internal_node_id":"0.0-2.0-35.0"},{"group":"tri cycles (cube, non-group)","room_assignment":["red","blue","brown","pink","yellow","green","grey","purple"],"door_color_assignment":["black","white"],"door_generator_assignment":[1,0],"goal":4,"start":7,"action_noise":0.1,"location_history":"[7,3,4]","action_history":"[1,1]","door_history":"[0,0]","location_rts":"[402,100]","trial_type":"two-door-navigation","trial_index":38,"time_elapsed":1019063,"internal_node_id":"0.0-2.0-36.0"},{"group":"tri cycles (cube, non-group)","room_assignment":["red","blue","brown","pink","yellow","green","grey","purple"],"door_color_assignment":["black","white"],"door_generator_assignment":[1,0],"goal":5,"start":4,"action_noise":0.1,"location_history":"[4,0,3,4,0,3,4,0,3,7,3,4,0,2,6,5]","action_history":"[1,1,1,1,1,1,1,1,1,1,1,1,1,1,1]","door_history":"[0,0,0,0,0,0,0,0,0,0,0,0,0,0,0]","location_rts":"[275,93,29,256,104,52,77,29,54,26,18,62,49,47,99]","trial_type":"two-door-navigation","trial_index":39,"time_elapsed":1038875,"internal_node_id":"0.0-2.0-37.0"},{"group":"tri cycles (cube, non-group)","room_assignment":["red","blue","brown","pink","yellow","green","grey","purple"],"door_color_assignment":["black","white"],"door_generator_assignment":[1,0],"goal":0,"start":5,"action_noise":0.1,"location_history":"[5,2,6,5,2,6,5,2,6,5,2,6,4,0]","action_history":"[1,1,1,1,1,1,1,1,1,1,1,1,1]","door_history":"[0,0,0,0,0,0,0,0,0,0,0,0,0]","location_rts":"[374,3661,25,111,124,166,321,214,154,209,105,119,180]","trial_type":"two-door-navigation","trial_index":40,"time_elapsed":1061180,"internal_node_id":"0.0-2.0-38.0"},{"group":"tri cycles (cube, non-group)","room_assignment":["red","blue","brown","pink","yellow","green","grey","purple"],"door_color_assignment":["black","white"],"door_generator_assignment":[1,0],"goal":4,"start":0,"action_noise":0.1,"location_history":"[0,3,4]","action_history":"[1,1]","door_history":"[0,0]","location_rts":"[553,318]","trial_type":"two-door-navigation","trial_index":41,"time_elapsed":1067567,"internal_node_id":"0.0-2.0-39.0"},{"group":"tri cycles (cube, non-group)","room_assignment":["red","blue","brown","pink","yellow","green","grey","purple"],"door_color_assignment":["black","white"],"door_generator_assignment":[1,0],"goal":0,"start":4,"action_noise":0.1,"location_history":"[4,0]","action_history":"[1]","door_history":"[0]","location_rts":"[496]","trial_type":"two-door-navigation","trial_index":42,"time_elapsed":1072575,"internal_node_id":"0.0-2.0-40.0"},{"group":"tri cycles (cube, non-group)","room_assignment":["red","blue","brown","pink","yellow","green","grey","purple"],"door_color_assignment":["black","white"],"door_generator_assignment":[1,0],"goal":2,"start":0,"action_noise":0.1,"location_history":"[0,3,4,0,2]","action_history":"[1,1,1,1]","door_history":"[0,0,0,0]","location_rts":"[415,190,120,48]","trial_type":"two-door-navigation","trial_index":43,"time_elapsed":1080878,"internal_node_id":"0.0-2.0-41.0"},{"group":"tri cycles (cube, non-group)","room_assignment":["red","blue","brown","pink","yellow","green","grey","purple"],"door_color_assignment":["black","white"],"door_generator_assignment":[1,0],"goal":3,"start":2,"action_noise":0.1,"location_history":"[2,6,5,2,6,5,2,6,5,2,6,5,2,6,5,2,6,5,2,1,5,2,6,5,2,6,4,0,3]","action_history":"[1,1,1,1,1,1,1,1,1,1,1,1,1,1,1,1,1,1,1,1,1,1,1,1,1,1,1,1]","door_history":"[0,0,0,0,0,0,0,0,0,0,0,0,0,0,0,0,0,0,0,0,0,0,0,0,0,0,0,0]","location_rts":"[1075,21,145,200,61,17,59,66,104,378,110,167,118,166,77,88,62,198,164,107,163,23,143,54,32426,397,468,182]","trial_type":"two-door-navigation","trial_index":44,"time_elapsed":1149699,"internal_node_id":"0.0-2.0-42.0"},{"group":"tri cycles (cube, non-group)","room_assignment":["red","blue","brown","pink","yellow","green","grey","purple"],"door_color_assignment":["black","white"],"door_generator_assignment":[1,0],"goal":5,"start":3,"action_noise":0.1,"location_history":"[3,4,0,3,4,0,3,4,0,3,4,0,3,4,0,3,4,0,3,4,0,3,4,7,3,4,0,2,6,5]","action_history":"[1,1,1,1,1,1,1,1,1,1,1,1,1,1,1,1,1,1,1,1,1,1,1,1,1,1,1,1,1]","door_history":"[0,0,0,0,0,0,0,0,0,0,0,0,0,0,0,0,0,0,0,0,0,0,0,0,0,0,0,0,0]","location_rts":"[349,153,234,261,162,36,482,244,148,180,313,337,286,270,456,34,121,14,99,184,3,13,133,136,49,230,23,60,32]","trial_type":"two-door-navigation","trial_index":45,"time_elapsed":1187333,"internal_node_id":"0.0-2.0-43.0"},{"group":"tri cycles (cube, non-group)","room_assignment":["red","blue","brown","pink","yellow","green","grey","purple"],"door_color_assignment":["black","white"],"door_generator_assignment":[1,0],"goal":1,"start":5,"action_noise":0.1,"location_history":"[5,2,6,5,2,6,5,1]","action_history":"[1,1,1,1,1,1,1]","door_history":"[0,0,0,0,0,0,0]","location_rts":"[5457,261,93,503,148,144,341]","trial_type":"two-door-navigation","trial_index":46,"time_elapsed":1205644,"internal_node_id":"0.0-2.0-44.0"},{"group":"tri cycles (cube, non-group)","room_assignment":["red","blue","brown","pink","yellow","green","grey","purple"],"door_color_assignment":["black","white"],"door_generator_assignment":[1,0],"goal":7,"start":1,"action_noise":0.1,"location_history":"[1,5,2,6,5,2,6,5,2,6,5,2,6,5,2,6,5,1,5,1,5,1,5,2,6,5,2,6,5,2,6,5,2,6,5,2,6,4,0,2,1,0,2,6,5,2,6,5,1,5,2,6,4,0,3,4,0,3,7]","action_history":"[1,1,1,1,1,1,1,1,1,1,1,1,1,1,1,1,1,1,1,1,1,1,1,1,1,1,1,1,1,1,1,1,1,1,1,1,1,1,0,0,0,0,1,1,1,1,1,1,1,1,1,1,1,1,1,1,1,1]","door_history":"[0,0,0,0,0,0,0,0,0,0,0,0,0,0,0,0,0,0,0,0,0,0,0,0,0,0,0,0,0,0,0,0,0,0,0,0,0,0,1,1,1,1,0,0,0,0,0,0,0,0,0,0,0,0,0,0,0,0]","location_rts":"[401,479,7935,79,308,37,3,280,148,137,217,251,614,693,383,327,291,65,392,259,158,309,528,230,286,167,110,261,206,17687,14,236,171,300,23,150,87,572,95,175,230,266,349,31,149,302,244,258,248,144,160,230,269,77,58,390,159,271]","trial_type":"two-door-navigation","trial_index":47,"time_elapsed":1306303,"internal_node_id":"0.0-2.0-45.0"},{"group":"tri cycles (cube, non-group)","room_assignment":["red","blue","brown","pink","yellow","green","grey","purple"],"door_color_assignment":["black","white"],"door_generator_assignment":[1,0],"goal":6,"start":7,"action_noise":0.1,"location_history":"[7,3,4,7,6]","action_history":"[1,1,1,1]","door_history":"[0,0,0,0]","location_rts":"[743,2347,220,15]","trial_type":"two-door-navigation","trial_index":48,"time_elapsed":1317146,"internal_node_id":"0.0-2.0-46.0"},{"group":"tri cycles (cube, non-group)","room_assignment":["red","blue","brown","pink","yellow","green","grey","purple"],"door_color_assignment":["black","white"],"door_generator_assignment":[1,0],"goal":3,"start":6,"action_noise":0.1,"location_history":"[6,5,1,5,2,6,5,2,6,5,2,6,4,0,3]","action_history":"[1,1,1,1,1,1,1,1,1,1,1,1,1,1]","door_history":"[0,0,0,0,0,0,0,0,0,0,0,0,0,0]","location_rts":"[522,155,332,419,447,405,578,590,512,445,631,614,39,376]","trial_type":"two-door-navigation","trial_index":49,"time_elapsed":1340740,"internal_node_id":"0.0-2.0-47.0"},{"group":"tri cycles (cube, non-group)","room_assignment":["red","blue","brown","pink","yellow","green","grey","purple"],"door_color_assignment":["black","white"],"door_generator_assignment":[1,0],"goal":0,"start":3,"action_noise":0.1,"location_history":"[3,4,0]","action_history":"[1,1]","door_history":"[0,0]","location_rts":"[466,380]","trial_type":"two-door-navigation","trial_index":50,"time_elapsed":1347099,"internal_node_id":"0.0-2.0-48.0"},{"group":"tri cycles (cube, non-group)","room_assignment":["red","blue","brown","pink","yellow","green","grey","purple"],"door_color_assignment":["black","white"],"door_generator_assignment":[1,0],"goal":2,"start":0,"action_noise":0.1,"location_history":"[0,3,4,0,3,4,0,3,4,0,3,4,0,3,4,0,3,4,0,2]","action_history":"[1,1,1,1,1,1,1,1,1,1,1,1,1,1,1,1,1,1,1]","door_history":"[0,0,0,0,0,0,0,0,0,0,0,0,0,0,0,0,0,0,0]","location_rts":"[468,151,389,291,317,156,253,277,212,223,376,305,258,285,136,272,36,182,319]","trial_type":"two-door-navigation","trial_index":51,"time_elapsed":1374592,"internal_node_id":"0.0-2.0-49.0"},{"view_history":"[{\"page_index\":0,\"viewing_time\":40746}]","rt":40748,"trial_type":"instructions","trial_index":52,"time_elapsed":1416339,"internal_node_id":"0.0-3.0"},{"view_history":"[{\"page_index\":0,\"viewing_time\":1869},{\"page_index\":1,\"viewing_time\":1800}]","rt":3670,"trial_type":"instructions","trial_index":53,"time_elapsed":1421009,"internal_node_id":"0.0-4.0"},{"group":"square cycles (cube, non-group)","fractal_assignment":["../images/ylw_pnk.png","../images/ylw_slt.png","../images/gry_blk.png","../images/cyn_red.png","../images/pnk_blu.png","../images/org_blu.png","../images/blu_wht.png","../images/grn_red.png"],"mutagen_generator_assignment":[0,1],"goal":3,"start":0,"action_noise":0.1,"location_history":"[0,4,5,1,2,6,7,3]","action_history":"[1,1,1,1,1,1,1]","mutagen_history":"[1,1,1,1,1,1,1]","location_rts":"[6548,279,156,177,318,324,316]","trial_type":"fractal-mutation","trial_index":54,"time_elapsed":1442099,"internal_node_id":"0.0-5.0-0.0"},{"group":"square cycles (cube, non-group)","fractal_assignment":["../images/ylw_pnk.png","../images/ylw_slt.png","../images/gry_blk.png","../images/cyn_red.png","../images/pnk_blu.png","../images/org_blu.png","../images/blu_wht.png","../images/grn_red.png"],"mutagen_generator_assignment":[0,1],"goal":1,"start":3,"action_noise":0.1,"location_history":"[3,2,6,7,3,2,3,0,4,7,3,2,6,7,3,2,6,7,3,2,6,7,3,2,6,5,1]","action_history":"[1,1,1,1,1,1,1,1,1,1,1,1,1,1,1,1,1,1,1,1,1,1,1,1,1,1]","mutagen_history":"[1,1,1,1,1,1,1,1,1,1,1,1,1,1,1,1,1,1,1,1,1,1,1,1,1,1]","location_rts":"[502,166,37,3,315,75,233,702,281,125,158,137,963,836,270,23,477,581,461,74,77,17,713,666,162,176]","trial_type":"fractal-mutation","trial_index":55,"time_elapsed":1487731,"internal_node_id":"0.0-5.0-1.0"},{"group":"square cycles (cube, non-group)","fractal_assignment":["../images/ylw_pnk.png","../images/ylw_slt.png","../images/gry_blk.png","../images/cyn_red.png","../images/pnk_blu.png","../images/org_blu.png","../images/blu_wht.png","../images/grn_red.png"],"mutagen_generator_assignment":[0,1],"goal":2,"start":1,"action_noise":0.1,"location_history":"[1,0,4,5,1,2]","action_history":"[1,1,1,1,1]","mutagen_history":"[1,1,1,1,1]","location_rts":"[525,240,274,191,46]","trial_type":"fractal-mutation","trial_index":56,"time_elapsed":1499007,"internal_node_id":"0.0-5.0-2.0"},{"group":"square cycles (cube, non-group)","fractal_assignment":["../images/ylw_pnk.png","../images/ylw_slt.png","../images/gry_blk.png","../images/cyn_red.png","../images/pnk_blu.png","../images/org_blu.png","../images/blu_wht.png","../images/grn_red.png"],"mutagen_generator_assignment":[0,1],"goal":6,"start":2,"action_noise":0.1,"location_history":"[2,6]","action_history":"[1]","mutagen_history":"[1]","location_rts":"[303]","trial_type":"fractal-mutation","trial_index":57,"time_elapsed":1504110,"internal_node_id":"0.0-5.0-3.0"},{"group":"square cycles (cube, non-group)","fractal_assignment":["../images/ylw_pnk.png","../images/ylw_slt.png","../images/gry_blk.png","../images/cyn_red.png","../images/pnk_blu.png","../images/org_blu.png","../images/blu_wht.png","../images/grn_red.png"],"mutagen_generator_assignment":[0,1],"goal":5,"start":6,"action_noise":0.1,"location_history":"[6,7,3,2,6,7,3,2,6,7,3,0,4,5]","action_history":"[1,1,1,1,1,1,1,1,1,1,1,1,1]","mutagen_history":"[1,1,1,1,1,1,1,1,1,1,1,1,1]","location_rts":"[480,137,155,348,53,125,79,20,426,17,94,23,102]","trial_type":"fractal-mutation","trial_index":58,"time_elapsed":1526454,"internal_node_id":"0.0-5.0-4.0"},{"group":"square cycles (cube, non-group)","fractal_assignment":["../images/ylw_pnk.png","../images/ylw_slt.png","../images/gry_blk.png","../images/cyn_red.png","../images/pnk_blu.png","../images/org_blu.png","../images/blu_wht.png","../images/grn_red.png"],"mutagen_generator_assignment":[0,1],"goal":4,"start":5,"action_noise":0.1,"location_history":"[5,1,0,4]","action_history":"[1,1,1]","mutagen_history":"[1,1,1]","location_rts":"[370,151,96]","trial_type":"fractal-mutation","trial_index":59,"time_elapsed":1534407,"internal_node_id":"0.0-5.0-5.0"},{"group":"square cycles (cube, non-group)","fractal_assignment":["../images/ylw_pnk.png","../images/ylw_slt.png","../images/gry_blk.png","../images/cyn_red.png","../images/pnk_blu.png","../images/org_blu.png","../images/blu_wht.png","../images/grn_red.png"],"mutagen_generator_assignment":[0,1],"goal":7,"start":4,"action_noise":0.1,"location_history":"[4,5,1,0,4,5,1,0,4,7]","action_history":"[1,1,1,1,1,1,1,1,1]","mutagen_history":"[1,1,1,1,1,1,1,1,1]","location_rts":"[488,389,115,132,98,75,69,171,93]","trial_type":"fractal-mutation","trial_index":60,"time_elapsed":1551124,"internal_node_id":"0.0-5.0-6.0"},{"group":"square cycles (cube, non-group)","fractal_assignment":["../images/ylw_pnk.png","../images/ylw_slt.png","../images/gry_blk.png","../images/cyn_red.png","../images/pnk_blu.png","../images/org_blu.png","../images/blu_wht.png","../images/grn_red.png"],"mutagen_generator_assignment":[0,1],"goal":4,"start":7,"action_noise":0.1,"location_history":"[7,3,2,6,7,3,0,4]","action_history":"[1,1,1,1,1,1,1]","mutagen_history":"[1,1,1,1,1,1,1]","location_rts":"[56,161,345,388,329,299,319]","trial_type":"fractal-mutation","trial_index":61,"time_elapsed":1565439,"internal_node_id":"0.0-5.0-7.0"},{"group":"square cycles (cube, non-group)","fractal_assignment":["../images/ylw_pnk.png","../images/ylw_slt.png","../images/gry_blk.png","../images/cyn_red.png","../images/pnk_blu.png","../images/org_blu.png","../images/blu_wht.png","../images/grn_red.png"],"mutagen_generator_assignment":[0,1],"goal":6,"start":4,"action_noise":0.1,"location_history":"[4,5,1,0,4,5,1,0,4,5,1,2,6]","action_history":"[1,1,1,1,1,1,1,1,1,1,1,1]","mutagen_history":"[1,1,1,1,1,1,1,1,1,1,1,1]","location_rts":"[71,140,173,255,399,214,167,54,48,357,7,125]","trial_type":"fractal-mutation","trial_index":62,"time_elapsed":1586352,"internal_node_id":"0.0-5.0-8.0"},{"group":"square cycles (cube, non-group)","fractal_assignment":["../images/ylw_pnk.png","../images/ylw_slt.png","../images/gry_blk.png","../images/cyn_red.png","../images/pnk_blu.png","../images/org_blu.png","../images/blu_wht.png","../images/grn_red.png"],"mutagen_generator_assignment":[0,1],"goal":0,"start":6,"action_noise":0.1,"location_history":"[6,7,3,2,6,7,3,2,6,7,3,2,6,5,4,5,1,2,6,7,3,2,3,2,6,7,3,2,6,7,3,2,6,7,3,2,6,5,1,0]","action_history":"[1,1,1,1,1,1,1,1,1,1,1,1,1,1,1,1,1,1,1,1,1,1,1,1,1,1,1,1,1,1,1,1,1,1,1,1,1,1,1]","mutagen_history":"[1,1,1,1,1,1,1,1,1,1,1,1,1,1,1,1,1,1,1,1,1,1,1,1,1,1,1,1,1,1,1,1,1,1,1,1,1,1,1]","location_rts":"[36,87,403,37,15,17,127,67,70,21,176,46,382,22,127,25,3,120,85,171,143,252,61,349,385,420,358,1,376,47,369,14,395,5,44,64,128,452,35]","trial_type":"fractal-mutation","trial_index":63,"time_elapsed":1645769,"internal_node_id":"0.0-5.0-9.0"},{"group":"square cycles (cube, non-group)","fractal_assignment":["../images/ylw_pnk.png","../images/ylw_slt.png","../images/gry_blk.png","../images/cyn_red.png","../images/pnk_blu.png","../images/org_blu.png","../images/blu_wht.png","../images/grn_red.png"],"mutagen_generator_assignment":[0,1],"goal":1,"start":0,"action_noise":0.1,"location_history":"[0,4,5,4,5,4,5,1]","action_history":"[1,1,1,1,1,1,1]","mutagen_history":"[1,1,1,1,1,1,1]","location_rts":"[196,288,308,305,16,79,54]","trial_type":"fractal-mutation","trial_index":64,"time_elapsed":1659470,"internal_node_id":"0.0-5.0-10.0"},{"group":"square cycles (cube, non-group)","fractal_assignment":["../images/ylw_pnk.png","../images/ylw_slt.png","../images/gry_blk.png","../images/cyn_red.png","../images/pnk_blu.png","../images/org_blu.png","../images/blu_wht.png","../images/grn_red.png"],"mutagen_generator_assignment":[0,1],"goal":3,"start":1,"action_noise":0.1,"location_history":"[1,2,6,7,6,5,4,7,6,5,4,5,1,0,1,2,3]","action_history":"[0,1,0,0,0,0,0,0,0,0,1,1,1,0,0,0]","mutagen_history":"[0,1,0,0,0,0,0,0,0,0,1,1,1,0,0,0]","location_rts":"[3402,229,120,57,108,18,170,74,129,204,3,93,43,194,80,120]","trial_type":"fractal-mutation","trial_index":65,"time_elapsed":1687020,"internal_node_id":"0.0-5.0-11.0"},{"group":"square cycles (cube, non-group)","fractal_assignment":["../images/ylw_pnk.png","../images/ylw_slt.png","../images/gry_blk.png","../images/cyn_red.png","../images/pnk_blu.png","../images/org_blu.png","../images/blu_wht.png","../images/grn_red.png"],"mutagen_generator_assignment":[0,1],"goal":7,"start":3,"action_noise":0.1,"location_history":"[3,0,1,2,3,2,6,7]","action_history":"[0,0,0,0,1,1,1]","mutagen_history":"[0,0,0,0,1,1,1]","location_rts":"[15,156,38,219,159,235,69]","trial_type":"fractal-mutation","trial_index":66,"time_elapsed":1699886,"internal_node_id":"0.0-5.0-12.0"},{"group":"square cycles (cube, non-group)","fractal_assignment":["../images/ylw_pnk.png","../images/ylw_slt.png","../images/gry_blk.png","../images/cyn_red.png","../images/pnk_blu.png","../images/org_blu.png","../images/blu_wht.png","../images/grn_red.png"],"mutagen_generator_assignment":[0,1],"goal":5,"start":7,"action_noise":0.1,"location_history":"[7,6,5]","action_history":"[0,0]","mutagen_history":"[0,0]","location_rts":"[251,155]","trial_type":"fractal-mutation","trial_index":67,"time_elapsed":1706128,"internal_node_id":"0.0-5.0-13.0"},{"group":"square cycles (cube, non-group)","fractal_assignment":["../images/ylw_pnk.png","../images/ylw_slt.png","../images/gry_blk.png","../images/cyn_red.png","../images/pnk_blu.png","../images/org_blu.png","../images/blu_wht.png","../images/grn_red.png"],"mutagen_generator_assignment":[0,1],"goal":2,"start":5,"action_noise":0.1,"location_history":"[5,4,5,4,5,4,5,4,7,3,2]","action_history":"[0,1,0,1,0,1,0,0,1,1]","mutagen_history":"[0,1,0,1,0,1,0,0,1,1]","location_rts":"[285,204,61,123,81,118,35,220,32,146]","trial_type":"fractal-mutation","trial_index":68,"time_elapsed":1723092,"internal_node_id":"0.0-5.0-14.0"},{"group":"square cycles (cube, non-group)","fractal_assignment":["../images/ylw_pnk.png","../images/ylw_slt.png","../images/gry_blk.png","../images/cyn_red.png","../images/pnk_blu.png","../images/org_blu.png","../images/blu_wht.png","../images/grn_red.png"],"mutagen_generator_assignment":[0,1],"goal":7,"start":2,"action_noise":0.1,"location_history":"[2,3,0,4,5,1,0,4,5,1,0,4,7]","action_history":"[0,0,1,1,1,1,1,1,1,1,1,1]","mutagen_history":"[0,0,1,1,1,1,1,1,1,1,1,1]","location_rts":"[56,174,1,166,56,46,70,39,157,83,19,102]","trial_type":"fractal-mutation","trial_index":69,"time_elapsed":1742964,"internal_node_id":"0.0-5.0-15.0"},{"group":"square cycles (cube, non-group)","fractal_assignment":["../images/ylw_pnk.png","../images/ylw_slt.png","../images/gry_blk.png","../images/cyn_red.png","../images/pnk_blu.png","../images/org_blu.png","../images/blu_wht.png","../images/grn_red.png"],"mutagen_generator_assignment":[0,1],"goal":4,"start":7,"action_noise":0.1,"location_history":"[7,3,0,4]","action_history":"[1,0,0]","mutagen_history":"[1,0,0]","location_rts":"[187,69,16]","trial_type":"fractal-mutation","trial_index":70,"time_elapsed":1750352,"internal_node_id":"0.0-5.0-16.0"},{"group":"square cycles (cube, non-group)","fractal_assignment":["../images/ylw_pnk.png","../images/ylw_slt.png","../images/gry_blk.png","../images/cyn_red.png","../images/pnk_blu.png","../images/org_blu.png","../images/blu_wht.png","../images/grn_red.png"],"mutagen_generator_assignment":[0,1],"goal":2,"start":4,"action_noise":0.1,"location_history":"[4,5,4,5,4,7,6,7,6,5,1,2]","action_history":"[1,0,0,0,0,0,1,0,0,0,0]","mutagen_history":"[1,0,0,0,0,0,1,0,0,0,0]","location_rts":"[43,131,83,45,69,184,48,202,5,87,121]","trial_type":"fractal-mutation","trial_index":71,"time_elapsed":1767884,"internal_node_id":"0.0-5.0-17.0"},{"group":"square cycles (cube, non-group)","fractal_assignment":["../images/ylw_pnk.png","../images/ylw_slt.png","../images/gry_blk.png","../images/cyn_red.png","../images/pnk_blu.png","../images/org_blu.png","../images/blu_wht.png","../images/grn_red.png"],"mutagen_generator_assignment":[0,1],"goal":3,"start":2,"action_noise":0.1,"location_history":"[2,6,5,4,7,6,7,3]","action_history":"[1,0,0,0,0,1,1]","mutagen_history":"[1,0,0,0,0,1,1]","location_rts":"[234,267,370,33,6767,190,47]","trial_type":"fractal-mutation","trial_index":72,"time_elapsed":1787840,"internal_node_id":"0.0-5.0-18.0"},{"group":"square cycles (cube, non-group)","fractal_assignment":["../images/ylw_pnk.png","../images/ylw_slt.png","../images/gry_blk.png","../images/cyn_red.png","../images/pnk_blu.png","../images/org_blu.png","../images/blu_wht.png","../images/grn_red.png"],"mutagen_generator_assignment":[0,1],"goal":6,"start":3,"action_noise":0.1,"location_history":"[3,0,1,2,3,0,1,2,6]","action_history":"[0,0,0,0,0,0,0,1]","mutagen_history":"[0,0,0,0,0,0,0,1]","location_rts":"[69,148,155,172,125,207,193,28]","trial_type":"fractal-mutation","trial_index":73,"time_elapsed":1801931,"internal_node_id":"0.0-5.0-19.0"},{"group":"square cycles (cube, non-group)","fractal_assignment":["../images/ylw_pnk.png","../images/ylw_slt.png","../images/gry_blk.png","../images/cyn_red.png","../images/pnk_blu.png","../images/org_blu.png","../images/blu_wht.png","../images/grn_red.png"],"mutagen_generator_assignment":[0,1],"goal":5,"start":6,"action_noise":0.1,"location_history":"[6,5]","action_history":"[0]","mutagen_history":"[0]","location_rts":"[56]","trial_type":"fractal-mutation","trial_index":74,"time_elapsed":1806644,"internal_node_id":"0.0-5.0-20.0"},{"group":"square cycles (cube, non-group)","fractal_assignment":["../images/ylw_pnk.png","../images/ylw_slt.png","../images/gry_blk.png","../images/cyn_red.png","../images/pnk_blu.png","../images/org_blu.png","../images/blu_wht.png","../images/grn_red.png"],"mutagen_generator_assignment":[0,1],"goal":1,"start":5,"action_noise":0.1,"location_history":"[5,4,5,4,7,3,0,1]","action_history":"[0,1,0,0,0,0,0]","mutagen_history":"[0,1,0,0,0,0,0]","location_rts":"[176,334,261,24,172,218,220]","trial_type":"fractal-mutation","trial_index":75,"time_elapsed":1819862,"internal_node_id":"0.0-5.0-21.0"},{"group":"square cycles (cube, non-group)","fractal_assignment":["../images/ylw_pnk.png","../images/ylw_slt.png","../images/gry_blk.png","../images/cyn_red.png","../images/pnk_blu.png","../images/org_blu.png","../images/blu_wht.png","../images/grn_red.png"],"mutagen_generator_assignment":[0,1],"goal":0,"start":1,"action_noise":0.1,"location_history":"[1,2,6,5,1,2,6,5,1,0]","action_history":"[0,1,0,1,0,1,0,1,1]","mutagen_history":"[0,1,0,1,0,1,0,1,1]","location_rts":"[53,87,118,70,219,219,36,91,384]","trial_type":"fractal-mutation","trial_index":76,"time_elapsed":1835712,"internal_node_id":"0.0-5.0-22.0"},{"group":"square cycles (cube, non-group)","fractal_assignment":["../images/ylw_pnk.png","../images/ylw_slt.png","../images/gry_blk.png","../images/cyn_red.png","../images/pnk_blu.png","../images/org_blu.png","../images/blu_wht.png","../images/grn_red.png"],"mutagen_generator_assignment":[0,1],"goal":2,"start":0,"action_noise":0.1,"location_history":"[0,4,5,1,2]","action_history":"[1,1,1,0]","mutagen_history":"[1,1,1,0]","location_rts":"[149,251,217,447]","trial_type":"fractal-mutation","trial_index":77,"time_elapsed":1845279,"internal_node_id":"0.0-5.0-23.0"},{"group":"square cycles (cube, non-group)","fractal_assignment":["../images/ylw_pnk.png","../images/ylw_slt.png","../images/gry_blk.png","../images/cyn_red.png","../images/pnk_blu.png","../images/org_blu.png","../images/blu_wht.png","../images/grn_red.png"],"mutagen_generator_assignment":[0,1],"goal":6,"start":2,"action_noise":0.1,"location_history":"[2,3,0,1,2,3,0,1,2,3,2,3,0,4,7,6]","action_history":"[0,0,0,0,0,0,0,0,0,1,0,0,1,0,0]","mutagen_history":"[0,0,0,0,0,0,0,0,0,1,0,0,1,0,0]","location_rts":"[33,16,47,135,131,124,45,58,1,240,295,1,249,224,119]","trial_type":"fractal-mutation","trial_index":78,"time_elapsed":1868126,"internal_node_id":"0.0-5.0-24.0"},{"group":"square cycles (cube, non-group)","fractal_assignment":["../images/ylw_pnk.png","../images/ylw_slt.png","../images/gry_blk.png","../images/cyn_red.png","../images/pnk_blu.png","../images/org_blu.png","../images/blu_wht.png","../images/grn_red.png"],"mutagen_generator_assignment":[0,1],"goal":1,"start":6,"action_noise":0.1,"location_history":"[6,5,4,7,3,0,1]","action_history":"[0,0,0,0,0,0]","mutagen_history":"[0,0,0,0,0,0]","location_rts":"[54,142,256,287,171,138]","trial_type":"fractal-mutation","trial_index":79,"time_elapsed":1879623,"internal_node_id":"0.0-5.0-25.0"},{"group":"square cycles (cube, non-group)","fractal_assignment":["../images/ylw_pnk.png","../images/ylw_slt.png","../images/gry_blk.png","../images/cyn_red.png","../images/pnk_blu.png","../images/org_blu.png","../images/blu_wht.png","../images/grn_red.png"],"mutagen_generator_assignment":[0,1],"goal":3,"start":1,"action_noise":0.1,"location_history":"[1,0,4,5,4,7,6,5,1,0,4,5,1,0,1,2,6,5,1,2,3]","action_history":"[1,0,1,0,0,0,0,1,0,1,1,1,1,0,1,1,0,1,0,0]","mutagen_history":"[1,0,1,0,0,0,0,1,0,1,1,1,1,0,1,1,0,1,0,0]","location_rts":"[190,123,131,44,13,641,86,95,155,215,247,72,20,2,131,252,377,263,77,77]","trial_type":"fractal-mutation","trial_index":80,"time_elapsed":1910605,"internal_node_id":"0.0-5.0-26.0"},{"group":"square cycles (cube, non-group)","fractal_assignment":["../images/ylw_pnk.png","../images/ylw_slt.png","../images/gry_blk.png","../images/cyn_red.png","../images/pnk_blu.png","../images/org_blu.png","../images/blu_wht.png","../images/grn_red.png"],"mutagen_generator_assignment":[0,1],"goal":7,"start":3,"action_noise":0.1,"location_history":"[3,0,1,2,3,0,4,5,1,2,3,2,6,5,4,7]","action_history":"[0,0,0,0,0,1,1,1,0,0,1,1,1,1,0]","mutagen_history":"[0,0,0,0,0,1,1,1,0,0,1,1,1,1,0]","location_rts":"[121,119,89,86,70,344,143,74,143,140,66,169,186,20,91]","trial_type":"fractal-mutation","trial_index":81,"time_elapsed":1934149,"internal_node_id":"0.0-5.0-27.0"},{"group":"square cycles (cube, non-group)","fractal_assignment":["../images/ylw_pnk.png","../images/ylw_slt.png","../images/gry_blk.png","../images/cyn_red.png","../images/pnk_blu.png","../images/org_blu.png","../images/blu_wht.png","../images/grn_red.png"],"mutagen_generator_assignment":[0,1],"goal":4,"start":7,"action_noise":0.1,"location_history":"[7,6,7,3,0,1,2,6,7,3,2,3,2,3,0,1,0,4]","action_history":"[1,1,1,0,0,0,1,1,1,1,0,1,0,0,0,0,1]","mutagen_history":"[1,1,1,0,0,0,1,1,1,1,0,1,0,0,0,0,1]","location_rts":"[424,169,245,73,36,326,269,47,147,3,5,150,51,80,131,77,58]","trial_type":"fractal-mutation","trial_index":82,"time_elapsed":1960765,"internal_node_id":"0.0-5.0-28.0"},{"group":"square cycles (cube, non-group)","fractal_assignment":["../images/ylw_pnk.png","../images/ylw_slt.png","../images/gry_blk.png","../images/cyn_red.png","../images/pnk_blu.png","../images/org_blu.png","../images/blu_wht.png","../images/grn_red.png"],"mutagen_generator_assignment":[0,1],"goal":0,"start":4,"action_noise":0.1,"location_history":"[4,7,3,2,6,7,3,2,3,0]","action_history":"[0,0,1,1,1,1,1,0,0]","mutagen_history":"[0,0,1,1,1,1,1,0,0]","location_rts":"[143,138,51,48,100,142,119,170,79]","trial_type":"fractal-mutation","trial_index":83,"time_elapsed":1976289,"internal_node_id":"0.0-5.0-29.0"},{"group":"square cycles (cube, non-group)","fractal_assignment":["../images/ylw_pnk.png","../images/ylw_slt.png","../images/gry_blk.png","../images/cyn_red.png","../images/pnk_blu.png","../images/org_blu.png","../images/blu_wht.png","../images/grn_red.png"],"mutagen_generator_assignment":[0,1],"goal":5,"start":0,"action_noise":0.1,"location_history":"[0,4,5]","action_history":"[1,1]","mutagen_history":"[1,1]","location_rts":"[21,68]","trial_type":"fractal-mutation","trial_index":84,"time_elapsed":1982424,"internal_node_id":"0.0-5.0-30.0"},{"group":"square cycles (cube, non-group)","fractal_assignment":["../images/ylw_pnk.png","../images/ylw_slt.png","../images/gry_blk.png","../images/cyn_red.png","../images/pnk_blu.png","../images/org_blu.png","../images/blu_wht.png","../images/grn_red.png"],"mutagen_generator_assignment":[0,1],"goal":3,"start":5,"action_noise":0.1,"location_history":"[5,4,5,1,0,4,5,1,2,3]","action_history":"[0,1,1,1,1,1,1,0,0]","mutagen_history":"[0,1,1,1,1,1,1,0,0]","location_rts":"[500,10,19,185,251,200,66,6625,120]","trial_type":"fractal-mutation","trial_index":85,"time_elapsed":2005075,"internal_node_id":"0.0-5.0-31.0"},{"group":"square cycles (cube, non-group)","fractal_assignment":["../images/ylw_pnk.png","../images/ylw_slt.png","../images/gry_blk.png","../images/cyn_red.png","../images/pnk_blu.png","../images/org_blu.png","../images/blu_wht.png","../images/grn_red.png"],"mutagen_generator_assignment":[0,1],"goal":2,"start":3,"action_noise":0.1,"location_history":"[3,2]","action_history":"[1]","mutagen_history":"[1]","location_rts":"[201]","trial_type":"fractal-mutation","trial_index":86,"time_elapsed":2010068,"internal_node_id":"0.0-5.0-32.0"},{"group":"square cycles (cube, non-group)","fractal_assignment":["../images/ylw_pnk.png","../images/ylw_slt.png","../images/gry_blk.png","../images/cyn_red.png","../images/pnk_blu.png","../images/org_blu.png","../images/blu_wht.png","../images/grn_red.png"],"mutagen_generator_assignment":[0,1],"goal":6,"start":2,"action_noise":0.1,"location_history":"[2,3,0,1,2,3,0,1,2,6]","action_history":"[0,0,0,0,0,0,0,0,1]","mutagen_history":"[0,0,0,0,0,0,0,0,1]","location_rts":"[137,52,55,135,130,81,102,12,216]","trial_type":"fractal-mutation","trial_index":87,"time_elapsed":2025266,"internal_node_id":"0.0-5.0-33.0"},{"group":"square cycles (cube, non-group)","fractal_assignment":["../images/ylw_pnk.png","../images/ylw_slt.png","../images/gry_blk.png","../images/cyn_red.png","../images/pnk_blu.png","../images/org_blu.png","../images/blu_wht.png","../images/grn_red.png"],"mutagen_generator_assignment":[0,1],"goal":1,"start":6,"action_noise":0.1,"location_history":"[6,7,3,2,6,7,6,7,6,7,3,2,3,2,6,7,3,0,4,7,3,2,6,5,1]","action_history":"[1,1,1,1,1,0,1,0,1,1,1,0,1,1,1,1,0,0,0,1,1,1,0,1]","mutagen_history":"[1,1,1,1,1,0,1,0,1,1,1,0,1,1,1,1,0,0,0,1,1,1,0,1]","location_rts":"[58,281,38,423,145,132,43,27,145,193,314,9,44,134,42,0,101,136,136,313,59,36,58,5]","trial_type":"fractal-mutation","trial_index":88,"time_elapsed":2061558,"internal_node_id":"0.0-5.0-34.0"},{"group":"square cycles (cube, non-group)","fractal_assignment":["../images/ylw_pnk.png","../images/ylw_slt.png","../images/gry_blk.png","../images/cyn_red.png","../images/pnk_blu.png","../images/org_blu.png","../images/blu_wht.png","../images/grn_red.png"],"mutagen_generator_assignment":[0,1],"goal":7,"start":1,"action_noise":0.1,"location_history":"[1,2,3,2,3,0,4,5,4,7]","action_history":"[0,0,1,1,1,1,1,0,0]","mutagen_history":"[0,0,1,1,1,1,1,0,0]","location_rts":"[298,71,31,65,75,99,117,16,124]","trial_type":"fractal-mutation","trial_index":89,"time_elapsed":2077047,"internal_node_id":"0.0-5.0-35.0"},{"group":"square cycles (cube, non-group)","fractal_assignment":["../images/ylw_pnk.png","../images/ylw_slt.png","../images/gry_blk.png","../images/cyn_red.png","../images/pnk_blu.png","../images/org_blu.png","../images/blu_wht.png","../images/grn_red.png"],"mutagen_generator_assignment":[0,1],"goal":4,"start":7,"action_noise":0.1,"location_history":"[7,6,7,3,2,6,7,3,2,6,7,6,7,3,2,3,2,6,5,1,0,4]","action_history":"[0,1,1,1,1,1,1,1,1,1,1,1,1,1,0,1,1,1,1,1,1]","mutagen_history":"[0,1,1,1,1,1,1,1,1,1,1,1,1,1,0,1,1,1,1,1,1]","location_rts":"[95,60,22,207,156,80,23,83,48,151,57,135,60,128,96,135,36,128,160,223,160]","trial_type":"fractal-mutation","trial_index":90,"time_elapsed":2109415,"internal_node_id":"0.0-5.0-36.0"},{"group":"square cycles (cube, non-group)","fractal_assignment":["../images/ylw_pnk.png","../images/ylw_slt.png","../images/gry_blk.png","../images/cyn_red.png","../images/pnk_blu.png","../images/org_blu.png","../images/blu_wht.png","../images/grn_red.png"],"mutagen_generator_assignment":[0,1],"goal":5,"start":4,"action_noise":0.1,"location_history":"[4,5]","action_history":"[1]","mutagen_history":"[1]","location_rts":"[382]","trial_type":"fractal-mutation","trial_index":91,"time_elapsed":2114578,"internal_node_id":"0.0-5.0-37.0"},{"group":"square cycles (cube, non-group)","fractal_assignment":["../images/ylw_pnk.png","../images/ylw_slt.png","../images/gry_blk.png","../images/cyn_red.png","../images/pnk_blu.png","../images/org_blu.png","../images/blu_wht.png","../images/grn_red.png"],"mutagen_generator_assignment":[0,1],"goal":0,"start":5,"action_noise":0.1,"location_history":"[5,4,7,3,0]","action_history":"[1,0,1,0]","mutagen_history":"[1,0,1,0]","location_rts":"[411,105,198,52]","trial_type":"fractal-mutation","trial_index":92,"time_elapsed":2123759,"internal_node_id":"0.0-5.0-38.0"},{"group":"square cycles (cube, non-group)","fractal_assignment":["../images/ylw_pnk.png","../images/ylw_slt.png","../images/gry_blk.png","../images/cyn_red.png","../images/pnk_blu.png","../images/org_blu.png","../images/blu_wht.png","../images/grn_red.png"],"mutagen_generator_assignment":[0,1],"goal":4,"start":0,"action_noise":0.1,"location_history":"[0,4]","action_history":"[1]","mutagen_history":"[1]","location_rts":"[414]","trial_type":"fractal-mutation","trial_index":93,"time_elapsed":2128959,"internal_node_id":"0.0-5.0-39.0"},{"group":"square cycles (cube, non-group)","fractal_assignment":["../images/ylw_pnk.png","../images/ylw_slt.png","../images/gry_blk.png","../images/cyn_red.png","../images/pnk_blu.png","../images/org_blu.png","../images/blu_wht.png","../images/grn_red.png"],"mutagen_generator_assignment":[0,1],"goal":0,"start":4,"action_noise":0.1,"location_history":"[4,7,6,7,3,0]","action_history":"[0,0,0,1,0]","mutagen_history":"[0,0,0,1,0]","location_rts":"[89,102,75,229,40]","trial_type":"fractal-mutation","trial_index":94,"time_elapsed":2138957,"internal_node_id":"0.0-5.0-40.0"},{"group":"square cycles (cube, non-group)","fractal_assignment":["../images/ylw_pnk.png","../images/ylw_slt.png","../images/gry_blk.png","../images/cyn_red.png","../images/pnk_blu.png","../images/org_blu.png","../images/blu_wht.png","../images/grn_red.png"],"mutagen_generator_assignment":[0,1],"goal":2,"start":0,"action_noise":0.1,"location_history":"[0,4,5,4,5,4,7,6,5,1,0,4,5,4,5,1,2]","action_history":"[1,1,0,1,0,0,0,0,1,1,1,1,0,1,1,0]","mutagen_history":"[1,1,0,1,0,0,0,0,1,1,1,1,0,1,1,0]","location_rts":"[312,195,5,186,105,1,2,1,162,197,150,163,31,128,57,26]","trial_type":"fractal-mutation","trial_index":95,"time_elapsed":2163863,"internal_node_id":"0.0-5.0-41.0"},{"group":"square cycles (cube, non-group)","fractal_assignment":["../images/ylw_pnk.png","../images/ylw_slt.png","../images/gry_blk.png","../images/cyn_red.png","../images/pnk_blu.png","../images/org_blu.png","../images/blu_wht.png","../images/grn_red.png"],"mutagen_generator_assignment":[0,1],"goal":3,"start":2,"action_noise":0.1,"location_history":"[2,3]","action_history":"[0]","mutagen_history":"[0]","location_rts":"[486]","trial_type":"fractal-mutation","trial_index":96,"time_elapsed":2169120,"internal_node_id":"0.0-5.0-42.0"},{"group":"square cycles (cube, non-group)","fractal_assignment":["../images/ylw_pnk.png","../images/ylw_slt.png","../images/gry_blk.png","../images/cyn_red.png","../images/pnk_blu.png","../images/org_blu.png","../images/blu_wht.png","../images/grn_red.png"],"mutagen_generator_assignment":[0,1],"goal":5,"start":3,"action_noise":0.1,"location_history":"[3,0,1,2,3,0,4,5]","action_history":"[1,0,0,0,0,0,1]","mutagen_history":"[1,0,0,0,0,0,1]","location_rts":"[179,1,17,5,15,85,179]","trial_type":"fractal-mutation","trial_index":97,"time_elapsed":2181411,"internal_node_id":"0.0-5.0-43.0"},{"group":"square cycles (cube, non-group)","fractal_assignment":["../images/ylw_pnk.png","../images/ylw_slt.png","../images/gry_blk.png","../images/cyn_red.png","../images/pnk_blu.png","../images/org_blu.png","../images/blu_wht.png","../images/grn_red.png"],"mutagen_generator_assignment":[0,1],"goal":1,"start":5,"action_noise":0.1,"location_history":"[5,4,5,4,7,6,7,6,5,4,7,6,5,1]","action_history":"[0,1,1,0,0,1,0,0,0,0,0,0,1]","mutagen_history":"[0,1,1,0,0,1,0,0,0,0,0,0,1]","location_rts":"[115,200,222,3,7,222,104,116,76,60,96,3,202]","trial_type":"fractal-mutation","trial_index":98,"time_elapsed":2202007,"internal_node_id":"0.0-5.0-44.0"},{"group":"square cycles (cube, non-group)","fractal_assignment":["../images/ylw_pnk.png","../images/ylw_slt.png","../images/gry_blk.png","../images/cyn_red.png","../images/pnk_blu.png","../images/org_blu.png","../images/blu_wht.png","../images/grn_red.png"],"mutagen_generator_assignment":[0,1],"goal":7,"start":1,"action_noise":0.1,"location_history":"[1,2,3,2,6,7]","action_history":"[0,0,1,0,0]","mutagen_history":"[0,0,1,0,0]","location_rts":"[15706,89,129,60697,129]","trial_type":"fractal-mutation","trial_index":99,"time_elapsed":2288184,"internal_node_id":"0.0-5.0-45.0"},{"group":"square cycles (cube, non-group)","fractal_assignment":["../images/ylw_pnk.png","../images/ylw_slt.png","../images/gry_blk.png","../images/cyn_red.png","../images/pnk_blu.png","../images/org_blu.png","../images/blu_wht.png","../images/grn_red.png"],"mutagen_generator_assignment":[0,1],"goal":6,"start":7,"action_noise":0.1,"location_history":"[7,3,2,6]","action_history":"[1,1,1]","mutagen_history":"[1,1,1]","location_rts":"[101,117,175]","trial_type":"fractal-mutation","trial_index":100,"time_elapsed":2295940,"internal_node_id":"0.0-5.0-46.0"},{"group":"square cycles (cube, non-group)","fractal_assignment":["../images/ylw_pnk.png","../images/ylw_slt.png","../images/gry_blk.png","../images/cyn_red.png","../images/pnk_blu.png","../images/org_blu.png","../images/blu_wht.png","../images/grn_red.png"],"mutagen_generator_assignment":[0,1],"goal":3,"start":6,"action_noise":0.1,"location_history":"[6,5,1,2,3]","action_history":"[0,1,0,1]","mutagen_history":"[0,1,0,1]","location_rts":"[24,78,36,103]","trial_type":"fractal-mutation","trial_index":101,"time_elapsed":2304549,"internal_node_id":"0.0-5.0-47.0"},{"group":"square cycles (cube, non-group)","fractal_assignment":["../images/ylw_pnk.png","../images/ylw_slt.png","../images/gry_blk.png","../images/cyn_red.png","../images/pnk_blu.png","../images/org_blu.png","../images/blu_wht.png","../images/grn_red.png"],"mutagen_generator_assignment":[0,1],"goal":0,"start":3,"action_noise":0.1,"location_history":"[3,2,3,2,6,7,6,7,3,2,6,5,1,2,6,5,1,2,3,2,6,7,6,5,1,2,6,7,3,2,6,7,3,2,6,5,1,2,6,5,1,0]","action_history":"[1,0,1,1,1,0,1,1,0,1,0,1,0,1,0,1,0,0,1,1,1,0,0,1,0,1,1,1,1,1,1,1,1,1,0,1,0,1,0,1,1]","mutagen_history":"[1,0,1,1,1,0,1,1,0,1,0,1,0,1,0,1,0,0,1,1,1,0,0,1,0,1,1,1,1,1,1,1,1,1,0,1,0,1,0,1,1]","location_rts":"[71,75,179,95,152,17,45,158,201,77,109,21,1,82,91,77,18,0,10,161,73,17,53,105,25,55,41,143,31,137,159,108,100,95,28,77,64,56,0,1,146]","trial_type":"fractal-mutation","trial_index":102,"time_elapsed":2362100,"internal_node_id":"0.0-5.0-48.0"},{"group":"square cycles (cube, non-group)","fractal_assignment":["../images/ylw_pnk.png","../images/ylw_slt.png","../images/gry_blk.png","../images/cyn_red.png","../images/pnk_blu.png","../images/org_blu.png","../images/blu_wht.png","../images/grn_red.png"],"mutagen_generator_assignment":[0,1],"goal":2,"start":0,"action_noise":0.1,"location_history":"[0,4,7,6,5,1,2]","action_history":"[1,0,1,0,1,0]","mutagen_history":"[1,0,1,0,1,0]","location_rts":"[64,175,144,17,60,36]","trial_type":"fractal-mutation","trial_index":103,"time_elapsed":2373429,"internal_node_id":"0.0-5.0-49.0"},{"view_history":"[{\"page_index\":0,\"viewing_time\":13435}]","rt":13437,"trial_type":"instructions","trial_index":104,"time_elapsed":2387868,"internal_node_id":"0.0-6.0"},{"rt":10832,"responses":"{\"Q0\":\"taking too long time\"}","trial_type":"survey-text","trial_index":105,"time_elapsed":2399713,"internal_node_id":"0.0-7.0"}]