[{"view_history":"[{\"page_index\":0,\"viewing_time\":140332},{\"page_index\":1,\"viewing_time\":17893},{\"page_index\":2,\"viewing_time\":27155},{\"page_index\":3,\"viewing_time\":6138}]","rt":191521,"trial_type":"instructions","trial_index":0,"time_elapsed":191524,"internal_node_id":"0.0-0.0"},{"view_history":"[{\"page_index\":0,\"viewing_time\":1809},{\"page_index\":1,\"viewing_time\":30611}]","rt":32421,"trial_type":"instructions","trial_index":1,"time_elapsed":224947,"internal_node_id":"0.0-1.0"},{"group":"square cycles (cube, non-group)","room_assignment":["pink","brown","yellow","grey","purple","red","green","blue"],"door_color_assignment":["black","white"],"door_generator_assignment":[0,1],"goal":3,"start":0,"action_noise":0.1,"location_history":"[0,1,2,3]","action_history":"[0,0,0]","door_history":"[0,0,0]","location_rts":"[3803,2820,2576]","trial_type":"two-door-navigation","trial_index":2,"time_elapsed":240706,"internal_node_id":"0.0-2.0-0.0"},{"group":"square cycles (cube, non-group)","room_assignment":["pink","brown","yellow","grey","purple","red","green","blue"],"door_color_assignment":["black","white"],"door_generator_assignment":[0,1],"goal":1,"start":3,"action_noise":0.1,"location_history":"[3,0,4,7,6,5,4,5,4,7,3,2,6,7,6,7,6,5,1]","action_history":"[0,0,0,0,0,0,0,0,0,0,1,1,1,1,1,1,1,1]","door_history":"[0,0,0,0,0,0,0,0,0,0,1,1,1,1,1,1,1,1]","location_rts":"[2704,1227,1367,1920,854,1092,878,740,862,3017,7648,787,911,680,671,987,1116,676]","trial_type":"two-door-navigation","trial_index":3,"time_elapsed":290600,"internal_node_id":"0.0-2.0-1.0"},{"group":"square cycles (cube, non-group)","room_assignment":["pink","brown","yellow","grey","purple","red","green","blue"],"door_color_assignment":["black","white"],"door_generator_assignment":[0,1],"goal":2,"start":1,"action_noise":0.1,"location_history":"[1,0,4,5,1,0,1,2]","action_history":"[1,1,1,1,1,0,0]","door_history":"[1,1,1,1,1,0,0]","location_rts":"[3315,3089,2796,878,3523,3698,1251]","trial_type":"two-door-navigation","trial_index":4,"time_elapsed":319739,"internal_node_id":"0.0-2.0-2.0"},{"group":"square cycles (cube, non-group)","room_assignment":["pink","brown","yellow","grey","purple","red","green","blue"],"door_color_assignment":["black","white"],"door_generator_assignment":[0,1],"goal":6,"start":2,"action_noise":0.1,"location_history":"[2,3,0,1,2,6]","action_history":"[0,0,0,0,1]","door_history":"[0,0,0,0,1]","location_rts":"[3982,1039,945,1126,2680]","trial_type":"two-door-navigation","trial_index":5,"time_elapsed":338079,"internal_node_id":"0.0-2.0-3.0"},{"group":"square cycles (cube, non-group)","room_assignment":["pink","brown","yellow","grey","purple","red","green","blue"],"door_color_assignment":["black","white"],"door_generator_assignment":[0,1],"goal":5,"start":6,"action_noise":0.1,"location_history":"[6,7,3,2,6,5]","action_history":"[1,1,1,1,0]","door_history":"[1,1,1,1,0]","location_rts":"[4250,2271,1038,822,2205]","trial_type":"two-door-navigation","trial_index":6,"time_elapsed":357223,"internal_node_id":"0.0-2.0-4.0"},{"group":"square cycles (cube, non-group)","room_assignment":["pink","brown","yellow","grey","purple","red","green","blue"],"door_color_assignment":["black","white"],"door_generator_assignment":[0,1],"goal":4,"start":5,"action_noise":0.1,"location_history":"[5,4]","action_history":"[0]","door_history":"[0]","location_rts":"[2116]","trial_type":"two-door-navigation","trial_index":7,"time_elapsed":363852,"internal_node_id":"0.0-2.0-5.0"},{"group":"square cycles (cube, non-group)","room_assignment":["pink","brown","yellow","grey","purple","red","green","blue"],"door_color_assignment":["black","white"],"door_generator_assignment":[0,1],"goal":7,"start":4,"action_noise":0.1,"location_history":"[4,7]","action_history":"[0]","door_history":"[0]","location_rts":"[1890]","trial_type":"two-door-navigation","trial_index":8,"time_elapsed":370263,"internal_node_id":"0.0-2.0-6.0"},{"group":"square cycles (cube, non-group)","room_assignment":["pink","brown","yellow","grey","purple","red","green","blue"],"door_color_assignment":["black","white"],"door_generator_assignment":[0,1],"goal":4,"start":7,"action_noise":0.1,"location_history":"[7,6,7,6,5,1,2,6,7,3,0,1,2,3,2,6,7,6,7,3,2,6,7,6,5,4]","action_history":"[0,0,0,0,1,1,1,1,1,0,0,0,0,1,1,1,1,1,1,1,1,1,0,0,0]","door_history":"[0,0,0,0,1,1,1,1,1,0,0,0,0,1,1,1,1,1,1,1,1,1,0,0,0]","location_rts":"[1357,1609,940,3106,1202,757,593,560,673,1699,877,628,571,2627,604,710,743,773,643,572,755,602,1454,701,1361]","trial_type":"two-door-navigation","trial_index":9,"time_elapsed":425188,"internal_node_id":"0.0-2.0-7.0"},{"group":"square cycles (cube, non-group)","room_assignment":["pink","brown","yellow","grey","purple","red","green","blue"],"door_color_assignment":["black","white"],"door_generator_assignment":[0,1],"goal":6,"start":4,"action_noise":0.1,"location_history":"[4,7,6]","action_history":"[0,0]","door_history":"[0,0]","location_rts":"[3249,718]","trial_type":"two-door-navigation","trial_index":10,"time_elapsed":434683,"internal_node_id":"0.0-2.0-8.0"},{"group":"square cycles (cube, non-group)","room_assignment":["pink","brown","yellow","grey","purple","red","green","blue"],"door_color_assignment":["black","white"],"door_generator_assignment":[0,1],"goal":0,"start":6,"action_noise":0.1,"location_history":"[6,7,3,2,3,0]","action_history":"[1,1,1,1,1]","door_history":"[1,1,1,1,1]","location_rts":"[8605,790,624,945,603]","trial_type":"two-door-navigation","trial_index":11,"time_elapsed":454825,"internal_node_id":"0.0-2.0-9.0"},{"group":"square cycles (cube, non-group)","room_assignment":["pink","brown","yellow","grey","purple","red","green","blue"],"door_color_assignment":["black","white"],"door_generator_assignment":[0,1],"goal":1,"start":0,"action_noise":0.1,"location_history":"[0,4,5,1]","action_history":"[1,1,1]","door_history":"[1,1,1]","location_rts":"[6102,497,725]","trial_type":"two-door-navigation","trial_index":12,"time_elapsed":468686,"internal_node_id":"0.0-2.0-10.0"},{"group":"square cycles (cube, non-group)","room_assignment":["pink","brown","yellow","grey","purple","red","green","blue"],"door_color_assignment":["black","white"],"door_generator_assignment":[0,1],"goal":3,"start":1,"action_noise":0.1,"location_history":"[1,2,3]","action_history":"[0,0]","door_history":"[0,0]","location_rts":"[132932,816]","trial_type":"two-door-navigation","trial_index":13,"time_elapsed":607962,"internal_node_id":"0.0-2.0-11.0"},{"group":"square cycles (cube, non-group)","room_assignment":["pink","brown","yellow","grey","purple","red","green","blue"],"door_color_assignment":["black","white"],"door_generator_assignment":[0,1],"goal":7,"start":3,"action_noise":0.1,"location_history":"[3,0,1,2,3,0,1,0,4,7]","action_history":"[0,0,0,0,1,1,1,1,0]","door_history":"[0,0,0,0,1,1,1,1,0]","location_rts":"[4798,739,732,686,2073,631,762,914,2329]","trial_type":"two-door-navigation","trial_index":14,"time_elapsed":634235,"internal_node_id":"0.0-2.0-12.0"},{"group":"square cycles (cube, non-group)","room_assignment":["pink","brown","yellow","grey","purple","red","green","blue"],"door_color_assignment":["black","white"],"door_generator_assignment":[0,1],"goal":5,"start":7,"action_noise":0.1,"location_history":"[7,3,2,6,7,3,2,6,7,3,0,4,7,6,7,6,7,3,0,1,0,4,5]","action_history":"[1,1,1,1,1,1,1,1,1,0,1,1,1,1,0,1,1,0,0,1,1,1]","door_history":"[1,1,1,1,1,1,1,1,1,0,1,1,1,1,0,1,1,0,0,1,1,1]","location_rts":"[3042,523,547,571,743,1501,594,1309,558,1280,1783,482,528,529,1402,3972,863,1211,875,2044,579,549]","trial_type":"two-door-navigation","trial_index":15,"time_elapsed":685501,"internal_node_id":"0.0-2.0-13.0"},{"group":"square cycles (cube, non-group)","room_assignment":["pink","brown","yellow","grey","purple","red","green","blue"],"door_color_assignment":["black","white"],"door_generator_assignment":[0,1],"goal":2,"start":5,"action_noise":0.1,"location_history":"[5,1,0,4,7,3,0,1,2]","action_history":"[1,1,1,1,1,0,0,0]","door_history":"[1,1,1,1,1,0,0,0]","location_rts":"[3158,1043,906,860,1074,2025,590,573]","trial_type":"two-door-navigation","trial_index":16,"time_elapsed":707321,"internal_node_id":"0.0-2.0-14.0"},{"group":"square cycles (cube, non-group)","room_assignment":["pink","brown","yellow","grey","purple","red","green","blue"],"door_color_assignment":["black","white"],"door_generator_assignment":[0,1],"goal":7,"start":2,"action_noise":0.1,"location_history":"[2,3,2,6,7]","action_history":"[0,1,1,1]","door_history":"[0,1,1,1]","location_rts":"[5434,1384,554,555]","trial_type":"two-door-navigation","trial_index":17,"time_elapsed":722797,"internal_node_id":"0.0-2.0-15.0"},{"group":"square cycles (cube, non-group)","room_assignment":["pink","brown","yellow","grey","purple","red","green","blue"],"door_color_assignment":["black","white"],"door_generator_assignment":[0,1],"goal":4,"start":7,"action_noise":0.1,"location_history":"[7,6,7,3,2,6,7,3,0,1,2,3,0,4]","action_history":"[0,1,1,1,1,1,1,0,0,0,0,0,1]","door_history":"[0,1,1,1,1,1,1,0,0,0,0,0,1]","location_rts":"[8150,1608,505,978,751,685,859,1963,558,585,1185,1374,3096]","trial_type":"two-door-navigation","trial_index":18,"time_elapsed":761769,"internal_node_id":"0.0-2.0-16.0"},{"group":"square cycles (cube, non-group)","room_assignment":["pink","brown","yellow","grey","purple","red","green","blue"],"door_color_assignment":["black","white"],"door_generator_assignment":[0,1],"goal":2,"start":4,"action_noise":0.1,"location_history":"[4,7,6,7,6,5,4,5,4,7,6,7,3,2]","action_history":"[0,0,0,0,0,0,0,0,0,0,1,1,1]","door_history":"[0,0,0,0,0,0,0,0,0,0,1,1,1]","location_rts":"[3738,662,808,705,800,805,551,695,665,652,1944,478,569]","trial_type":"two-door-navigation","trial_index":19,"time_elapsed":791495,"internal_node_id":"0.0-2.0-17.0"},{"group":"square cycles (cube, non-group)","room_assignment":["pink","brown","yellow","grey","purple","red","green","blue"],"door_color_assignment":["black","white"],"door_generator_assignment":[0,1],"goal":3,"start":2,"action_noise":0.1,"location_history":"[2,6,7,3]","action_history":"[1,1,1]","door_history":"[1,1,1]","location_rts":"[3683,902,683]","trial_type":"two-door-navigation","trial_index":20,"time_elapsed":803299,"internal_node_id":"0.0-2.0-18.0"},{"group":"square cycles (cube, non-group)","room_assignment":["pink","brown","yellow","grey","purple","red","green","blue"],"door_color_assignment":["black","white"],"door_generator_assignment":[0,1],"goal":6,"start":3,"action_noise":0.1,"location_history":"[3,2,6]","action_history":"[1,1]","door_history":"[1,1]","location_rts":"[2037,1360]","trial_type":"two-door-navigation","trial_index":21,"time_elapsed":812221,"internal_node_id":"0.0-2.0-19.0"},{"group":"square cycles (cube, non-group)","room_assignment":["pink","brown","yellow","grey","purple","red","green","blue"],"door_color_assignment":["black","white"],"door_generator_assignment":[0,1],"goal":5,"start":6,"action_noise":0.1,"location_history":"[6,7,6,5]","action_history":"[1,0,0]","door_history":"[1,0,0]","location_rts":"[2075,1658,594]","trial_type":"two-door-navigation","trial_index":22,"time_elapsed":823085,"internal_node_id":"0.0-2.0-20.0"},{"group":"square cycles (cube, non-group)","room_assignment":["pink","brown","yellow","grey","purple","red","green","blue"],"door_color_assignment":["black","white"],"door_generator_assignment":[0,1],"goal":1,"start":5,"action_noise":0.1,"location_history":"[5,4,7,3,2,3,0,1]","action_history":"[0,1,1,1,1,0,0]","door_history":"[0,1,1,1,1,0,0]","location_rts":"[2418,2516,702,825,1097,1576,549]","trial_type":"two-door-navigation","trial_index":23,"time_elapsed":843349,"internal_node_id":"0.0-2.0-21.0"},{"group":"square cycles (cube, non-group)","room_assignment":["pink","brown","yellow","grey","purple","red","green","blue"],"door_color_assignment":["black","white"],"door_generator_assignment":[0,1],"goal":0,"start":1,"action_noise":0.1,"location_history":"[1,2,3,2,6,7,3,0]","action_history":"[0,0,1,1,1,1,0]","door_history":"[0,0,1,1,1,1,0]","location_rts":"[2288,2652,1685,630,740,692,1258]","trial_type":"two-door-navigation","trial_index":24,"time_elapsed":863880,"internal_node_id":"0.0-2.0-22.0"},{"group":"square cycles (cube, non-group)","room_assignment":["pink","brown","yellow","grey","purple","red","green","blue"],"door_color_assignment":["black","white"],"door_generator_assignment":[0,1],"goal":2,"start":0,"action_noise":0.1,"location_history":"[0,1,2]","action_history":"[0,0]","door_history":"[0,0]","location_rts":"[4439,672]","trial_type":"two-door-navigation","trial_index":25,"time_elapsed":874524,"internal_node_id":"0.0-2.0-23.0"},{"group":"square cycles (cube, non-group)","room_assignment":["pink","brown","yellow","grey","purple","red","green","blue"],"door_color_assignment":["black","white"],"door_generator_assignment":[0,1],"goal":6,"start":2,"action_noise":0.1,"location_history":"[2,3,0,1,2,3,2,6]","action_history":"[0,0,0,0,1,1,1]","door_history":"[0,0,0,0,1,1,1]","location_rts":"[3367,1136,595,641,1863,684,1973]","trial_type":"two-door-navigation","trial_index":26,"time_elapsed":895368,"internal_node_id":"0.0-2.0-24.0"},{"group":"square cycles (cube, non-group)","room_assignment":["pink","brown","yellow","grey","purple","red","green","blue"],"door_color_assignment":["black","white"],"door_generator_assignment":[0,1],"goal":1,"start":6,"action_noise":0.1,"location_history":"[6,7,3,0,1]","action_history":"[1,1,0,0]","door_history":"[1,1,0,0]","location_rts":"[1950,608,1656,518]","trial_type":"two-door-navigation","trial_index":27,"time_elapsed":907652,"internal_node_id":"0.0-2.0-25.0"},{"group":"square cycles (cube, non-group)","room_assignment":["pink","brown","yellow","grey","purple","red","green","blue"],"door_color_assignment":["black","white"],"door_generator_assignment":[0,1],"goal":3,"start":1,"action_noise":0.1,"location_history":"[1,0,1,2,6,7,3]","action_history":"[0,0,1,1,1,1]","door_history":"[0,0,1,1,1,1]","location_rts":"[3852,815,1481,426,715,579]","trial_type":"two-door-navigation","trial_index":28,"time_elapsed":925092,"internal_node_id":"0.0-2.0-26.0"},{"group":"square cycles (cube, non-group)","room_assignment":["pink","brown","yellow","grey","purple","red","green","blue"],"door_color_assignment":["black","white"],"door_generator_assignment":[0,1],"goal":7,"start":3,"action_noise":0.1,"location_history":"[3,0,4,7]","action_history":"[0,0,0]","door_history":"[0,0,0]","location_rts":"[2515,538,799]","trial_type":"two-door-navigation","trial_index":29,"time_elapsed":935481,"internal_node_id":"0.0-2.0-27.0"},{"group":"square cycles (cube, non-group)","room_assignment":["pink","brown","yellow","grey","purple","red","green","blue"],"door_color_assignment":["black","white"],"door_generator_assignment":[0,1],"goal":4,"start":7,"action_noise":0.1,"location_history":"[7,6,7,3,2,6,5,4]","action_history":"[0,1,1,1,1,0,0]","door_history":"[0,1,1,1,1,0,0]","location_rts":"[2489,1418,530,507,1250,1676,489]","trial_type":"two-door-navigation","trial_index":30,"time_elapsed":954424,"internal_node_id":"0.0-2.0-28.0"},{"group":"square cycles (cube, non-group)","room_assignment":["pink","brown","yellow","grey","purple","red","green","blue"],"door_color_assignment":["black","white"],"door_generator_assignment":[0,1],"goal":0,"start":4,"action_noise":0.1,"location_history":"[4,7,6,7,3,2,6,5,4,7,6,5,4,5,1,2,6,7,3,2,3,2,6,7,3,2,6,7,6,7,6,7,6,5,4,7,6,5,4,7,3,0]","action_history":"[0,0,1,1,1,1,0,0,0,0,0,0,0,1,1,1,1,1,1,1,1,1,1,1,1,1,1,1,1,0,0,0,0,0,0,0,0,0,0,1,0]","door_history":"[0,0,1,1,1,1,0,0,0,0,0,0,0,1,1,1,1,1,1,1,1,1,1,1,1,1,1,1,1,0,0,0,0,0,0,0,0,0,0,1,0]","location_rts":"[1926,809,1299,584,787,1383,784,661,973,584,561,670,850,1346,589,634,657,554,627,674,529,470,570,549,1073,722,576,925,750,1992,579,484,510,789,598,635,588,807,545,1942,2233]","trial_type":"two-door-navigation","trial_index":31,"time_elapsed":1034236,"internal_node_id":"0.0-2.0-29.0"},{"group":"square cycles (cube, non-group)","room_assignment":["pink","brown","yellow","grey","purple","red","green","blue"],"door_color_assignment":["black","white"],"door_generator_assignment":[0,1],"goal":5,"start":0,"action_noise":0.1,"location_history":"[0,1,2,3,2,3,2,3,2,6,7,3,2,3,2,6,7,3,2,6,5]","action_history":"[0,0,0,0,0,0,0,1,1,1,1,1,0,1,1,1,1,1,1,0]","door_history":"[0,0,0,0,0,0,0,1,1,1,1,1,0,1,1,1,1,1,1,0]","location_rts":"[2026,858,741,623,661,596,1290,1829,603,525,553,1743,2885,1690,548,584,602,1345,1409,1111]","trial_type":"two-door-navigation","trial_index":32,"time_elapsed":1080208,"internal_node_id":"0.0-2.0-30.0"},{"group":"square cycles (cube, non-group)","room_assignment":["pink","brown","yellow","grey","purple","red","green","blue"],"door_color_assignment":["black","white"],"door_generator_assignment":[0,1],"goal":3,"start":5,"action_noise":0.1,"location_history":"[5,1,2,6,7,3]","action_history":"[0,0,1,1,1]","door_history":"[0,0,1,1,1]","location_rts":"[2819,962,1032,561,615]","trial_type":"two-door-navigation","trial_index":33,"time_elapsed":1094753,"internal_node_id":"0.0-2.0-31.0"},{"group":"square cycles (cube, non-group)","room_assignment":["pink","brown","yellow","grey","purple","red","green","blue"],"door_color_assignment":["black","white"],"door_generator_assignment":[0,1],"goal":2,"start":3,"action_noise":0.1,"location_history":"[3,2]","action_history":"[1]","door_history":"[1]","location_rts":"[2570]","trial_type":"two-door-navigation","trial_index":34,"time_elapsed":1101840,"internal_node_id":"0.0-2.0-32.0"},{"group":"square cycles (cube, non-group)","room_assignment":["pink","brown","yellow","grey","purple","red","green","blue"],"door_color_assignment":["black","white"],"door_generator_assignment":[0,1],"goal":6,"start":2,"action_noise":0.1,"location_history":"[2,3,2,6]","action_history":"[1,1,1]","door_history":"[1,1,1]","location_rts":"[1780,1052,731]","trial_type":"two-door-navigation","trial_index":35,"time_elapsed":1111945,"internal_node_id":"0.0-2.0-33.0"},{"group":"square cycles (cube, non-group)","room_assignment":["pink","brown","yellow","grey","purple","red","green","blue"],"door_color_assignment":["black","white"],"door_generator_assignment":[0,1],"goal":1,"start":6,"action_noise":0.1,"location_history":"[6,5,4,7,6,5,4,5,1]","action_history":"[0,0,0,0,0,1,1,1]","door_history":"[0,0,0,0,0,1,1,1]","location_rts":"[2644,575,826,551,865,1901,682,1728]","trial_type":"two-door-navigation","trial_index":36,"time_elapsed":1133307,"internal_node_id":"0.0-2.0-34.0"},{"group":"square cycles (cube, non-group)","room_assignment":["pink","brown","yellow","grey","purple","red","green","blue"],"door_color_assignment":["black","white"],"door_generator_assignment":[0,1],"goal":7,"start":1,"action_noise":0.1,"location_history":"[1,0,1,0,1,2,6,5,1,0,1,2,3,2,6,7]","action_history":"[1,1,1,0,0,1,1,1,1,0,0,0,1,1,1]","door_history":"[1,1,1,0,0,1,1,1,1,0,0,0,1,1,1]","location_rts":"[3262,994,969,1509,959,1994,782,705,792,1936,737,1189,1640,640,1455]","trial_type":"two-door-navigation","trial_index":37,"time_elapsed":1171560,"internal_node_id":"0.0-2.0-35.0"},{"group":"square cycles (cube, non-group)","room_assignment":["pink","brown","yellow","grey","purple","red","green","blue"],"door_color_assignment":["black","white"],"door_generator_assignment":[0,1],"goal":4,"start":7,"action_noise":0.1,"location_history":"[7,3,2,6,7,3,2,3,0,1,0,4]","action_history":"[1,1,1,1,1,1,0,0,1,1,1]","door_history":"[1,1,1,1,1,1,0,0,1,1,1]","location_rts":"[2213,786,1018,1185,1270,635,1169,770,2471,1418,802]","trial_type":"two-door-navigation","trial_index":38,"time_elapsed":1199931,"internal_node_id":"0.0-2.0-36.0"},{"group":"square cycles (cube, non-group)","room_assignment":["pink","brown","yellow","grey","purple","red","green","blue"],"door_color_assignment":["black","white"],"door_generator_assignment":[0,1],"goal":5,"start":4,"action_noise":0.1,"location_history":"[4,5]","action_history":"[1]","door_history":"[1]","location_rts":"[3227]","trial_type":"two-door-navigation","trial_index":39,"time_elapsed":1207675,"internal_node_id":"0.0-2.0-37.0"},{"group":"square cycles (cube, non-group)","room_assignment":["pink","brown","yellow","grey","purple","red","green","blue"],"door_color_assignment":["black","white"],"door_generator_assignment":[0,1],"goal":0,"start":5,"action_noise":0.1,"location_history":"[5,1,0]","action_history":"[1,1]","door_history":"[1,1]","location_rts":"[1528,846]","trial_type":"two-door-navigation","trial_index":40,"time_elapsed":1215581,"internal_node_id":"0.0-2.0-38.0"},{"group":"square cycles (cube, non-group)","room_assignment":["pink","brown","yellow","grey","purple","red","green","blue"],"door_color_assignment":["black","white"],"door_generator_assignment":[0,1],"goal":4,"start":0,"action_noise":0.1,"location_history":"[0,4]","action_history":"[1]","door_history":"[1]","location_rts":"[1372]","trial_type":"two-door-navigation","trial_index":41,"time_elapsed":1221464,"internal_node_id":"0.0-2.0-39.0"},{"group":"square cycles (cube, non-group)","room_assignment":["pink","brown","yellow","grey","purple","red","green","blue"],"door_color_assignment":["black","white"],"door_generator_assignment":[0,1],"goal":0,"start":4,"action_noise":0.1,"location_history":"[4,5,1,0]","action_history":"[1,1,1]","door_history":"[1,1,1]","location_rts":"[2362,585,531]","trial_type":"two-door-navigation","trial_index":42,"time_elapsed":1231486,"internal_node_id":"0.0-2.0-40.0"},{"group":"square cycles (cube, non-group)","room_assignment":["pink","brown","yellow","grey","purple","red","green","blue"],"door_color_assignment":["black","white"],"door_generator_assignment":[0,1],"goal":2,"start":0,"action_noise":0.1,"location_history":"[0,4,5,1,0,4,5,4,7,6,5,4,7,3,0,4,7,6,5,1,0,4,5,1,2]","action_history":"[1,1,1,1,1,1,0,0,0,0,0,0,1,0,0,0,0,0,1,1,1,1,1,1]","door_history":"[1,1,1,1,1,1,0,0,0,0,0,0,1,0,0,0,0,0,1,1,1,1,1,1]","location_rts":"[2767,508,434,1322,723,1834,2138,546,499,638,1001,1833,1604,1593,469,663,2840,796,984,598,484,581,588,1021]","trial_type":"two-door-navigation","trial_index":43,"time_elapsed":1285865,"internal_node_id":"0.0-2.0-41.0"},{"group":"square cycles (cube, non-group)","room_assignment":["pink","brown","yellow","grey","purple","red","green","blue"],"door_color_assignment":["black","white"],"door_generator_assignment":[0,1],"goal":3,"start":2,"action_noise":0.1,"location_history":"[2,6,7,3]","action_history":"[1,1,1]","door_history":"[1,1,1]","location_rts":"[1959,1589,795]","trial_type":"two-door-navigation","trial_index":44,"time_elapsed":1296750,"internal_node_id":"0.0-2.0-42.0"},{"group":"square cycles (cube, non-group)","room_assignment":["pink","brown","yellow","grey","purple","red","green","blue"],"door_color_assignment":["black","white"],"door_generator_assignment":[0,1],"goal":5,"start":3,"action_noise":0.1,"location_history":"[3,2,6,7,3,2,3,0,1,2,3,0,1,0,1,0,4,7,3,2,6,7,3,2,6,5]","action_history":"[1,1,1,1,0,0,0,0,0,0,0,0,0,0,1,1,1,1,1,1,1,1,1,1,0]","door_history":"[1,1,1,1,0,0,0,0,0,0,0,0,0,0,1,1,1,1,1,1,1,1,1,1,0]","location_rts":"[2972,525,454,1261,1483,463,582,864,802,649,521,500,756,522,1504,460,462,544,557,547,712,570,654,528,1470]","trial_type":"two-door-navigation","trial_index":45,"time_elapsed":1345974,"internal_node_id":"0.0-2.0-43.0"},{"group":"square cycles (cube, non-group)","room_assignment":["pink","brown","yellow","grey","purple","red","green","blue"],"door_color_assignment":["black","white"],"door_generator_assignment":[0,1],"goal":1,"start":5,"action_noise":0.1,"location_history":"[5,1]","action_history":"[1]","door_history":"[1]","location_rts":"[4429]","trial_type":"two-door-navigation","trial_index":46,"time_elapsed":1354918,"internal_node_id":"0.0-2.0-44.0"},{"group":"square cycles (cube, non-group)","room_assignment":["pink","brown","yellow","grey","purple","red","green","blue"],"door_color_assignment":["black","white"],"door_generator_assignment":[0,1],"goal":7,"start":1,"action_noise":0.1,"location_history":"[1,2,3,0,1,2,6,5,1,0,1,2,6,7]","action_history":"[0,0,0,0,0,1,1,1,1,0,0,1,1]","door_history":"[0,0,0,0,0,1,1,1,1,0,0,1,1]","location_rts":"[4798,1530,2120,919,1351,917,596,625,552,612,1112,1742,248]","trial_type":"two-door-navigation","trial_index":47,"time_elapsed":1388697,"internal_node_id":"0.0-2.0-45.0"},{"group":"square cycles (cube, non-group)","room_assignment":["pink","brown","yellow","grey","purple","red","green","blue"],"door_color_assignment":["black","white"],"door_generator_assignment":[0,1],"goal":6,"start":7,"action_noise":0.1,"location_history":"[7,3,0,1,2,6]","action_history":"[0,0,0,0,1]","door_history":"[0,0,0,0,1]","location_rts":"[2859,557,521,535,937]","trial_type":"two-door-navigation","trial_index":48,"time_elapsed":1402664,"internal_node_id":"0.0-2.0-46.0"},{"group":"square cycles (cube, non-group)","room_assignment":["pink","brown","yellow","grey","purple","red","green","blue"],"door_color_assignment":["black","white"],"door_generator_assignment":[0,1],"goal":3,"start":6,"action_noise":0.1,"location_history":"[6,7,3]","action_history":"[1,1]","door_history":"[1,1]","location_rts":"[5328,923]","trial_type":"two-door-navigation","trial_index":49,"time_elapsed":1414443,"internal_node_id":"0.0-2.0-47.0"},{"group":"square cycles (cube, non-group)","room_assignment":["pink","brown","yellow","grey","purple","red","green","blue"],"door_color_assignment":["black","white"],"door_generator_assignment":[0,1],"goal":0,"start":3,"action_noise":0.1,"location_history":"[3,2,6,7,6,7,6,5,4,7,6,5,4,5,1,0]","action_history":"[1,1,1,1,1,0,0,0,0,0,0,0,1,1,1]","door_history":"[1,1,1,1,1,0,0,0,0,0,0,0,1,1,1]","location_rts":"[2365,552,665,557,609,1237,528,562,463,477,876,782,2200,524,651]","trial_type":"two-door-navigation","trial_index":50,"time_elapsed":1446179,"internal_node_id":"0.0-2.0-48.0"},{"group":"square cycles (cube, non-group)","room_assignment":["pink","brown","yellow","grey","purple","red","green","blue"],"door_color_assignment":["black","white"],"door_generator_assignment":[0,1],"goal":2,"start":0,"action_noise":0.1,"location_history":"[0,4,5,1,0,1,2]","action_history":"[1,1,1,1,1,0]","door_history":"[1,1,1,1,1,0]","location_rts":"[3098,524,346,601,751,1366]","trial_type":"two-door-navigation","trial_index":51,"time_elapsed":1462445,"internal_node_id":"0.0-2.0-49.0"},{"view_history":"[{\"page_index\":0,\"viewing_time\":3400}]","rt":3400,"trial_type":"instructions","trial_index":52,"time_elapsed":1466846,"internal_node_id":"0.0-3.0"},{"view_history":"[{\"page_index\":0,\"viewing_time\":3828},{\"page_index\":1,\"viewing_time\":21732}]","rt":25564,"trial_type":"instructions","trial_index":53,"time_elapsed":1493411,"internal_node_id":"0.0-4.0"},{"group":"square cycles (cube, non-group)","fractal_assignment":["../images/cyn_red.png","../images/grn_red.png","../images/blu_wht.png","../images/ylw_pnk.png","../images/gry_blk.png","../images/org_blu.png","../images/ylw_slt.png","../images/pnk_blu.png"],"mutagen_generator_assignment":[1,0],"goal":3,"start":0,"action_noise":0.1,"location_history":"[0,4,5,1,0,4,5,1,0,1,2,3]","action_history":"[1,1,1,1,1,1,1,1,0,0,1]","mutagen_history":"[0,0,0,0,0,0,0,0,1,1,0]","location_rts":"[3751,3975,737,916,864,2056,360,691,644,2434,2876]","trial_type":"fractal-mutation","trial_index":54,"time_elapsed":1527705,"internal_node_id":"0.0-5.0-0.0"},{"group":"square cycles (cube, non-group)","fractal_assignment":["../images/cyn_red.png","../images/grn_red.png","../images/blu_wht.png","../images/ylw_pnk.png","../images/gry_blk.png","../images/org_blu.png","../images/ylw_slt.png","../images/pnk_blu.png"],"mutagen_generator_assignment":[1,0],"goal":1,"start":3,"action_noise":0.1,"location_history":"[3,2,6,7,3,0,4,5,1]","action_history":"[1,1,1,1,0,1,1,1]","mutagen_history":"[0,0,0,0,1,0,0,0]","location_rts":"[4424,699,676,517,837,1188,456,325]","trial_type":"fractal-mutation","trial_index":55,"time_elapsed":1548671,"internal_node_id":"0.0-5.0-1.0"},{"group":"square cycles (cube, non-group)","fractal_assignment":["../images/cyn_red.png","../images/grn_red.png","../images/blu_wht.png","../images/ylw_pnk.png","../images/gry_blk.png","../images/org_blu.png","../images/ylw_slt.png","../images/pnk_blu.png"],"mutagen_generator_assignment":[1,0],"goal":2,"start":1,"action_noise":0.1,"location_history":"[1,2]","action_history":"[0]","mutagen_history":"[1]","location_rts":"[5887]","trial_type":"fractal-mutation","trial_index":56,"time_elapsed":1559132,"internal_node_id":"0.0-5.0-2.0"},{"group":"square cycles (cube, non-group)","fractal_assignment":["../images/cyn_red.png","../images/grn_red.png","../images/blu_wht.png","../images/ylw_pnk.png","../images/gry_blk.png","../images/org_blu.png","../images/ylw_slt.png","../images/pnk_blu.png"],"mutagen_generator_assignment":[1,0],"goal":6,"start":2,"action_noise":0.1,"location_history":"[2,3,0,4,7,6]","action_history":"[0,0,0,0,0]","mutagen_history":"[1,1,1,1,1]","location_rts":"[2009,484,657,670,868]","trial_type":"fractal-mutation","trial_index":57,"time_elapsed":1572588,"internal_node_id":"0.0-5.0-3.0"},{"group":"square cycles (cube, non-group)","fractal_assignment":["../images/cyn_red.png","../images/grn_red.png","../images/blu_wht.png","../images/ylw_pnk.png","../images/gry_blk.png","../images/org_blu.png","../images/ylw_slt.png","../images/pnk_blu.png"],"mutagen_generator_assignment":[1,0],"goal":5,"start":6,"action_noise":0.1,"location_history":"[6,7,3,0,4,5]","action_history":"[1,1,0,1,1]","mutagen_history":"[0,0,1,0,0]","location_rts":"[1456,671,1133,548,474]","trial_type":"fractal-mutation","trial_index":58,"time_elapsed":1585560,"internal_node_id":"0.0-5.0-4.0"},{"group":"square cycles (cube, non-group)","fractal_assignment":["../images/cyn_red.png","../images/grn_red.png","../images/blu_wht.png","../images/ylw_pnk.png","../images/gry_blk.png","../images/org_blu.png","../images/ylw_slt.png","../images/pnk_blu.png"],"mutagen_generator_assignment":[1,0],"goal":4,"start":5,"action_noise":0.1,"location_history":"[5,1,0,4]","action_history":"[1,1,1]","mutagen_history":"[0,0,0]","location_rts":"[2330,1009,595]","trial_type":"fractal-mutation","trial_index":59,"time_elapsed":1596094,"internal_node_id":"0.0-5.0-5.0"},{"group":"square cycles (cube, non-group)","fractal_assignment":["../images/cyn_red.png","../images/grn_red.png","../images/blu_wht.png","../images/ylw_pnk.png","../images/gry_blk.png","../images/org_blu.png","../images/ylw_slt.png","../images/pnk_blu.png"],"mutagen_generator_assignment":[1,0],"goal":7,"start":4,"action_noise":0.1,"location_history":"[4,7]","action_history":"[0]","mutagen_history":"[1]","location_rts":"[2161]","trial_type":"fractal-mutation","trial_index":60,"time_elapsed":1602803,"internal_node_id":"0.0-5.0-6.0"},{"group":"square cycles (cube, non-group)","fractal_assignment":["../images/cyn_red.png","../images/grn_red.png","../images/blu_wht.png","../images/ylw_pnk.png","../images/gry_blk.png","../images/org_blu.png","../images/ylw_slt.png","../images/pnk_blu.png"],"mutagen_generator_assignment":[1,0],"goal":4,"start":7,"action_noise":0.1,"location_history":"[7,3,0,4]","action_history":"[1,0,1]","mutagen_history":"[0,1,0]","location_rts":"[1790,1902,586]","trial_type":"fractal-mutation","trial_index":61,"time_elapsed":1613697,"internal_node_id":"0.0-5.0-7.0"},{"group":"square cycles (cube, non-group)","fractal_assignment":["../images/cyn_red.png","../images/grn_red.png","../images/blu_wht.png","../images/ylw_pnk.png","../images/gry_blk.png","../images/org_blu.png","../images/ylw_slt.png","../images/pnk_blu.png"],"mutagen_generator_assignment":[1,0],"goal":6,"start":4,"action_noise":0.1,"location_history":"[4,7,6]","action_history":"[0,1]","mutagen_history":"[1,0]","location_rts":"[1948,663]","trial_type":"fractal-mutation","trial_index":62,"time_elapsed":1621910,"internal_node_id":"0.0-5.0-8.0"},{"group":"square cycles (cube, non-group)","fractal_assignment":["../images/cyn_red.png","../images/grn_red.png","../images/blu_wht.png","../images/ylw_pnk.png","../images/gry_blk.png","../images/org_blu.png","../images/ylw_slt.png","../images/pnk_blu.png"],"mutagen_generator_assignment":[1,0],"goal":0,"start":6,"action_noise":0.1,"location_history":"[6,7,6,7,6,5,1,2,6,7,6,7,3,0]","action_history":"[1,0,1,0,0,1,1,1,1,0,1,1,0]","mutagen_history":"[0,1,0,1,1,0,0,0,0,1,0,0,1]","location_rts":"[2250,1100,544,555,623,955,635,583,596,606,525,1214,1388]","trial_type":"fractal-mutation","trial_index":63,"time_elapsed":1650479,"internal_node_id":"0.0-5.0-9.0"},{"group":"square cycles (cube, non-group)","fractal_assignment":["../images/cyn_red.png","../images/grn_red.png","../images/blu_wht.png","../images/ylw_pnk.png","../images/gry_blk.png","../images/org_blu.png","../images/ylw_slt.png","../images/pnk_blu.png"],"mutagen_generator_assignment":[1,0],"goal":1,"start":0,"action_noise":0.1,"location_history":"[0,4,5,1]","action_history":"[1,1,1]","mutagen_history":"[0,0,0]","location_rts":"[2140,505,402]","trial_type":"fractal-mutation","trial_index":64,"time_elapsed":1660130,"internal_node_id":"0.0-5.0-10.0"},{"group":"square cycles (cube, non-group)","fractal_assignment":["../images/cyn_red.png","../images/grn_red.png","../images/blu_wht.png","../images/ylw_pnk.png","../images/gry_blk.png","../images/org_blu.png","../images/ylw_slt.png","../images/pnk_blu.png"],"mutagen_generator_assignment":[1,0],"goal":3,"start":1,"action_noise":0.1,"location_history":"[1,2,3]","action_history":"[0,1]","mutagen_history":"[1,0]","location_rts":"[5636,1030]","trial_type":"fractal-mutation","trial_index":65,"time_elapsed":1672376,"internal_node_id":"0.0-5.0-11.0"},{"group":"square cycles (cube, non-group)","fractal_assignment":["../images/cyn_red.png","../images/grn_red.png","../images/blu_wht.png","../images/ylw_pnk.png","../images/gry_blk.png","../images/org_blu.png","../images/ylw_slt.png","../images/pnk_blu.png"],"mutagen_generator_assignment":[1,0],"goal":7,"start":3,"action_noise":0.1,"location_history":"[3,2,6,7]","action_history":"[1,1,1]","mutagen_history":"[0,0,0]","location_rts":"[2276,547,654]","trial_type":"fractal-mutation","trial_index":66,"time_elapsed":1682447,"internal_node_id":"0.0-5.0-12.0"},{"group":"square cycles (cube, non-group)","fractal_assignment":["../images/cyn_red.png","../images/grn_red.png","../images/blu_wht.png","../images/ylw_pnk.png","../images/gry_blk.png","../images/org_blu.png","../images/ylw_slt.png","../images/pnk_blu.png"],"mutagen_generator_assignment":[1,0],"goal":5,"start":7,"action_noise":0.1,"location_history":"[7,6,5]","action_history":"[0,0]","mutagen_history":"[1,1]","location_rts":"[1906,701]","trial_type":"fractal-mutation","trial_index":67,"time_elapsed":1690652,"internal_node_id":"0.0-5.0-13.0"},{"group":"square cycles (cube, non-group)","fractal_assignment":["../images/cyn_red.png","../images/grn_red.png","../images/blu_wht.png","../images/ylw_pnk.png","../images/gry_blk.png","../images/org_blu.png","../images/ylw_slt.png","../images/pnk_blu.png"],"mutagen_generator_assignment":[1,0],"goal":2,"start":5,"action_noise":0.1,"location_history":"[5,1,2]","action_history":"[1,0]","mutagen_history":"[0,1]","location_rts":"[1912,1659]","trial_type":"fractal-mutation","trial_index":68,"time_elapsed":1699806,"internal_node_id":"0.0-5.0-14.0"},{"group":"square cycles (cube, non-group)","fractal_assignment":["../images/cyn_red.png","../images/grn_red.png","../images/blu_wht.png","../images/ylw_pnk.png","../images/gry_blk.png","../images/org_blu.png","../images/ylw_slt.png","../images/pnk_blu.png"],"mutagen_generator_assignment":[1,0],"goal":7,"start":2,"action_noise":0.1,"location_history":"[2,6,7]","action_history":"[1,1]","mutagen_history":"[0,0]","location_rts":"[1801,519]","trial_type":"fractal-mutation","trial_index":69,"time_elapsed":1707691,"internal_node_id":"0.0-5.0-15.0"},{"group":"square cycles (cube, non-group)","fractal_assignment":["../images/cyn_red.png","../images/grn_red.png","../images/blu_wht.png","../images/ylw_pnk.png","../images/gry_blk.png","../images/org_blu.png","../images/ylw_slt.png","../images/pnk_blu.png"],"mutagen_generator_assignment":[1,0],"goal":4,"start":7,"action_noise":0.1,"location_history":"[7,3,2,6,5,1,0,4]","action_history":"[1,0,1,0,1,1,1]","mutagen_history":"[0,1,0,1,0,0,0]","location_rts":"[1345,516,545,777,1081,577,440]","trial_type":"fractal-mutation","trial_index":70,"time_elapsed":1723738,"internal_node_id":"0.0-5.0-16.0"},{"group":"square cycles (cube, non-group)","fractal_assignment":["../images/cyn_red.png","../images/grn_red.png","../images/blu_wht.png","../images/ylw_pnk.png","../images/gry_blk.png","../images/org_blu.png","../images/ylw_slt.png","../images/pnk_blu.png"],"mutagen_generator_assignment":[1,0],"goal":2,"start":4,"action_noise":0.1,"location_history":"[4,7,3,2]","action_history":"[0,1,1]","mutagen_history":"[1,0,0]","location_rts":"[2188,1018,737]","trial_type":"fractal-mutation","trial_index":71,"time_elapsed":1734296,"internal_node_id":"0.0-5.0-17.0"},{"group":"square cycles (cube, non-group)","fractal_assignment":["../images/cyn_red.png","../images/grn_red.png","../images/blu_wht.png","../images/ylw_pnk.png","../images/gry_blk.png","../images/org_blu.png","../images/ylw_slt.png","../images/pnk_blu.png"],"mutagen_generator_assignment":[1,0],"goal":3,"start":2,"action_noise":0.1,"location_history":"[2,6,7,3]","action_history":"[1,1,1]","mutagen_history":"[0,0,0]","location_rts":"[2794,468,1685]","trial_type":"fractal-mutation","trial_index":72,"time_elapsed":1745848,"internal_node_id":"0.0-5.0-18.0"},{"group":"square cycles (cube, non-group)","fractal_assignment":["../images/cyn_red.png","../images/grn_red.png","../images/blu_wht.png","../images/ylw_pnk.png","../images/gry_blk.png","../images/org_blu.png","../images/ylw_slt.png","../images/pnk_blu.png"],"mutagen_generator_assignment":[1,0],"goal":6,"start":3,"action_noise":0.1,"location_history":"[3,0,4,5,4,7,6]","action_history":"[1,1,1,0,0,1]","mutagen_history":"[0,0,0,1,1,0]","location_rts":"[1449,408,1124,917,921,749]","trial_type":"fractal-mutation","trial_index":73,"time_elapsed":1761154,"internal_node_id":"0.0-5.0-19.0"},{"group":"square cycles (cube, non-group)","fractal_assignment":["../images/cyn_red.png","../images/grn_red.png","../images/blu_wht.png","../images/ylw_pnk.png","../images/gry_blk.png","../images/org_blu.png","../images/ylw_slt.png","../images/pnk_blu.png"],"mutagen_generator_assignment":[1,0],"goal":5,"start":6,"action_noise":0.1,"location_history":"[6,5]","action_history":"[0]","mutagen_history":"[1]","location_rts":"[4647]","trial_type":"fractal-mutation","trial_index":74,"time_elapsed":1770353,"internal_node_id":"0.0-5.0-20.0"},{"group":"square cycles (cube, non-group)","fractal_assignment":["../images/cyn_red.png","../images/grn_red.png","../images/blu_wht.png","../images/ylw_pnk.png","../images/gry_blk.png","../images/org_blu.png","../images/ylw_slt.png","../images/pnk_blu.png"],"mutagen_generator_assignment":[1,0],"goal":1,"start":5,"action_noise":0.1,"location_history":"[5,1]","action_history":"[1]","mutagen_history":"[0]","location_rts":"[4801]","trial_type":"fractal-mutation","trial_index":75,"time_elapsed":1779693,"internal_node_id":"0.0-5.0-21.0"},{"group":"square cycles (cube, non-group)","fractal_assignment":["../images/cyn_red.png","../images/grn_red.png","../images/blu_wht.png","../images/ylw_pnk.png","../images/gry_blk.png","../images/org_blu.png","../images/ylw_slt.png","../images/pnk_blu.png"],"mutagen_generator_assignment":[1,0],"goal":0,"start":1,"action_noise":0.1,"location_history":"[1,0]","action_history":"[1]","mutagen_history":"[0]","location_rts":"[1123]","trial_type":"fractal-mutation","trial_index":76,"time_elapsed":1785356,"internal_node_id":"0.0-5.0-22.0"},{"group":"square cycles (cube, non-group)","fractal_assignment":["../images/cyn_red.png","../images/grn_red.png","../images/blu_wht.png","../images/ylw_pnk.png","../images/gry_blk.png","../images/org_blu.png","../images/ylw_slt.png","../images/pnk_blu.png"],"mutagen_generator_assignment":[1,0],"goal":2,"start":0,"action_noise":0.1,"location_history":"[0,1,2]","action_history":"[0,0]","mutagen_history":"[1,1]","location_rts":"[1748,2533]","trial_type":"fractal-mutation","trial_index":77,"time_elapsed":1795238,"internal_node_id":"0.0-5.0-23.0"},{"group":"square cycles (cube, non-group)","fractal_assignment":["../images/cyn_red.png","../images/grn_red.png","../images/blu_wht.png","../images/ylw_pnk.png","../images/gry_blk.png","../images/org_blu.png","../images/ylw_slt.png","../images/pnk_blu.png"],"mutagen_generator_assignment":[1,0],"goal":6,"start":2,"action_noise":0.1,"location_history":"[2,6]","action_history":"[1]","mutagen_history":"[0]","location_rts":"[1446]","trial_type":"fractal-mutation","trial_index":78,"time_elapsed":1801221,"internal_node_id":"0.0-5.0-24.0"},{"group":"square cycles (cube, non-group)","fractal_assignment":["../images/cyn_red.png","../images/grn_red.png","../images/blu_wht.png","../images/ylw_pnk.png","../images/gry_blk.png","../images/org_blu.png","../images/ylw_slt.png","../images/pnk_blu.png"],"mutagen_generator_assignment":[1,0],"goal":1,"start":6,"action_noise":0.1,"location_history":"[6,7,6,5,1]","action_history":"[1,1,0,1]","mutagen_history":"[0,0,1,0]","location_rts":"[1574,440,729,1428]","trial_type":"fractal-mutation","trial_index":79,"time_elapsed":1813041,"internal_node_id":"0.0-5.0-25.0"},{"group":"square cycles (cube, non-group)","fractal_assignment":["../images/cyn_red.png","../images/grn_red.png","../images/blu_wht.png","../images/ylw_pnk.png","../images/gry_blk.png","../images/org_blu.png","../images/ylw_slt.png","../images/pnk_blu.png"],"mutagen_generator_assignment":[1,0],"goal":3,"start":1,"action_noise":0.1,"location_history":"[1,2,6,5,1,2,6,7,3]","action_history":"[0,1,1,1,0,1,1,1]","mutagen_history":"[1,0,0,0,1,0,0,0]","location_rts":"[4717,631,374,471,1064,372,578,902]","trial_type":"fractal-mutation","trial_index":80,"time_elapsed":1833948,"internal_node_id":"0.0-5.0-26.0"},{"group":"square cycles (cube, non-group)","fractal_assignment":["../images/cyn_red.png","../images/grn_red.png","../images/blu_wht.png","../images/ylw_pnk.png","../images/gry_blk.png","../images/org_blu.png","../images/ylw_slt.png","../images/pnk_blu.png"],"mutagen_generator_assignment":[1,0],"goal":7,"start":3,"action_noise":0.1,"location_history":"[3,2,6,7]","action_history":"[1,1,1]","mutagen_history":"[0,0,0]","location_rts":"[35063,466,706]","trial_type":"fractal-mutation","trial_index":81,"time_elapsed":1876797,"internal_node_id":"0.0-5.0-27.0"},{"group":"square cycles (cube, non-group)","fractal_assignment":["../images/cyn_red.png","../images/grn_red.png","../images/blu_wht.png","../images/ylw_pnk.png","../images/gry_blk.png","../images/org_blu.png","../images/ylw_slt.png","../images/pnk_blu.png"],"mutagen_generator_assignment":[1,0],"goal":4,"start":7,"action_noise":0.1,"location_history":"[7,6,5,1,2,6,5,4]","action_history":"[0,0,1,1,1,0,1]","mutagen_history":"[1,1,0,0,0,1,0]","location_rts":"[1607,786,549,478,486,935,687]","trial_type":"fractal-mutation","trial_index":82,"time_elapsed":1893161,"internal_node_id":"0.0-5.0-28.0"},{"group":"square cycles (cube, non-group)","fractal_assignment":["../images/cyn_red.png","../images/grn_red.png","../images/blu_wht.png","../images/ylw_pnk.png","../images/gry_blk.png","../images/org_blu.png","../images/ylw_slt.png","../images/pnk_blu.png"],"mutagen_generator_assignment":[1,0],"goal":0,"start":4,"action_noise":0.1,"location_history":"[4,5,1,0]","action_history":"[1,1,1]","mutagen_history":"[0,0,0]","location_rts":"[1583,610,667]","trial_type":"fractal-mutation","trial_index":83,"time_elapsed":1902631,"internal_node_id":"0.0-5.0-29.0"},{"group":"square cycles (cube, non-group)","fractal_assignment":["../images/cyn_red.png","../images/grn_red.png","../images/blu_wht.png","../images/ylw_pnk.png","../images/gry_blk.png","../images/org_blu.png","../images/ylw_slt.png","../images/pnk_blu.png"],"mutagen_generator_assignment":[1,0],"goal":5,"start":0,"action_noise":0.1,"location_history":"[0,4,5]","action_history":"[1,1]","mutagen_history":"[0,0]","location_rts":"[1668,394]","trial_type":"fractal-mutation","trial_index":84,"time_elapsed":1910260,"internal_node_id":"0.0-5.0-30.0"},{"group":"square cycles (cube, non-group)","fractal_assignment":["../images/cyn_red.png","../images/grn_red.png","../images/blu_wht.png","../images/ylw_pnk.png","../images/gry_blk.png","../images/org_blu.png","../images/ylw_slt.png","../images/pnk_blu.png"],"mutagen_generator_assignment":[1,0],"goal":3,"start":5,"action_noise":0.1,"location_history":"[5,4,7,6,7,3]","action_history":"[0,0,1,1,1]","mutagen_history":"[1,1,0,0,0]","location_rts":"[2271,828,577,760,676]","trial_type":"fractal-mutation","trial_index":85,"time_elapsed":1924089,"internal_node_id":"0.0-5.0-31.0"},{"group":"square cycles (cube, non-group)","fractal_assignment":["../images/cyn_red.png","../images/grn_red.png","../images/blu_wht.png","../images/ylw_pnk.png","../images/gry_blk.png","../images/org_blu.png","../images/ylw_slt.png","../images/pnk_blu.png"],"mutagen_generator_assignment":[1,0],"goal":2,"start":3,"action_noise":0.1,"location_history":"[3,2]","action_history":"[1]","mutagen_history":"[0]","location_rts":"[2507]","trial_type":"fractal-mutation","trial_index":86,"time_elapsed":1931133,"internal_node_id":"0.0-5.0-32.0"},{"group":"square cycles (cube, non-group)","fractal_assignment":["../images/cyn_red.png","../images/grn_red.png","../images/blu_wht.png","../images/ylw_pnk.png","../images/gry_blk.png","../images/org_blu.png","../images/ylw_slt.png","../images/pnk_blu.png"],"mutagen_generator_assignment":[1,0],"goal":6,"start":2,"action_noise":0.1,"location_history":"[2,6]","action_history":"[1]","mutagen_history":"[0]","location_rts":"[1262]","trial_type":"fractal-mutation","trial_index":87,"time_elapsed":1936932,"internal_node_id":"0.0-5.0-33.0"},{"group":"square cycles (cube, non-group)","fractal_assignment":["../images/cyn_red.png","../images/grn_red.png","../images/blu_wht.png","../images/ylw_pnk.png","../images/gry_blk.png","../images/org_blu.png","../images/ylw_slt.png","../images/pnk_blu.png"],"mutagen_generator_assignment":[1,0],"goal":1,"start":6,"action_noise":0.1,"location_history":"[6,5,1]","action_history":"[0,1]","mutagen_history":"[1,0]","location_rts":"[2712,760]","trial_type":"fractal-mutation","trial_index":88,"time_elapsed":1945990,"internal_node_id":"0.0-5.0-34.0"},{"group":"square cycles (cube, non-group)","fractal_assignment":["../images/cyn_red.png","../images/grn_red.png","../images/blu_wht.png","../images/ylw_pnk.png","../images/gry_blk.png","../images/org_blu.png","../images/ylw_slt.png","../images/pnk_blu.png"],"mutagen_generator_assignment":[1,0],"goal":7,"start":1,"action_noise":0.1,"location_history":"[1,0,4,7]","action_history":"[1,0,0]","mutagen_history":"[0,1,1]","location_rts":"[1912,1229,572]","trial_type":"fractal-mutation","trial_index":89,"time_elapsed":1956341,"internal_node_id":"0.0-5.0-35.0"},{"group":"square cycles (cube, non-group)","fractal_assignment":["../images/cyn_red.png","../images/grn_red.png","../images/blu_wht.png","../images/ylw_pnk.png","../images/gry_blk.png","../images/org_blu.png","../images/ylw_slt.png","../images/pnk_blu.png"],"mutagen_generator_assignment":[1,0],"goal":4,"start":7,"action_noise":0.1,"location_history":"[7,6,5,1,0,4]","action_history":"[0,0,1,1,1]","mutagen_history":"[1,1,0,0,0]","location_rts":"[1664,890,653,752,502]","trial_type":"fractal-mutation","trial_index":90,"time_elapsed":1969512,"internal_node_id":"0.0-5.0-36.0"},{"group":"square cycles (cube, non-group)","fractal_assignment":["../images/cyn_red.png","../images/grn_red.png","../images/blu_wht.png","../images/ylw_pnk.png","../images/gry_blk.png","../images/org_blu.png","../images/ylw_slt.png","../images/pnk_blu.png"],"mutagen_generator_assignment":[1,0],"goal":5,"start":4,"action_noise":0.1,"location_history":"[4,5]","action_history":"[1]","mutagen_history":"[0]","location_rts":"[1254]","trial_type":"fractal-mutation","trial_index":91,"time_elapsed":1975306,"internal_node_id":"0.0-5.0-37.0"},{"group":"square cycles (cube, non-group)","fractal_assignment":["../images/cyn_red.png","../images/grn_red.png","../images/blu_wht.png","../images/ylw_pnk.png","../images/gry_blk.png","../images/org_blu.png","../images/ylw_slt.png","../images/pnk_blu.png"],"mutagen_generator_assignment":[1,0],"goal":0,"start":5,"action_noise":0.1,"location_history":"[5,1,0]","action_history":"[1,1]","mutagen_history":"[0,0]","location_rts":"[1258,668]","trial_type":"fractal-mutation","trial_index":92,"time_elapsed":1982804,"internal_node_id":"0.0-5.0-38.0"},{"group":"square cycles (cube, non-group)","fractal_assignment":["../images/cyn_red.png","../images/grn_red.png","../images/blu_wht.png","../images/ylw_pnk.png","../images/gry_blk.png","../images/org_blu.png","../images/ylw_slt.png","../images/pnk_blu.png"],"mutagen_generator_assignment":[1,0],"goal":4,"start":0,"action_noise":0.1,"location_history":"[0,4]","action_history":"[1]","mutagen_history":"[0]","location_rts":"[1718]","trial_type":"fractal-mutation","trial_index":93,"time_elapsed":1989059,"internal_node_id":"0.0-5.0-39.0"},{"group":"square cycles (cube, non-group)","fractal_assignment":["../images/cyn_red.png","../images/grn_red.png","../images/blu_wht.png","../images/ylw_pnk.png","../images/gry_blk.png","../images/org_blu.png","../images/ylw_slt.png","../images/pnk_blu.png"],"mutagen_generator_assignment":[1,0],"goal":0,"start":4,"action_noise":0.1,"location_history":"[4,5,1,0]","action_history":"[1,1,1]","mutagen_history":"[0,0,0]","location_rts":"[1581,717,446]","trial_type":"fractal-mutation","trial_index":94,"time_elapsed":1998404,"internal_node_id":"0.0-5.0-40.0"},{"group":"square cycles (cube, non-group)","fractal_assignment":["../images/cyn_red.png","../images/grn_red.png","../images/blu_wht.png","../images/ylw_pnk.png","../images/gry_blk.png","../images/org_blu.png","../images/ylw_slt.png","../images/pnk_blu.png"],"mutagen_generator_assignment":[1,0],"goal":2,"start":0,"action_noise":0.1,"location_history":"[0,1,0,1,2]","action_history":"[0,1,0,0]","mutagen_history":"[1,0,1,1]","location_rts":"[1355,1689,674,719]","trial_type":"fractal-mutation","trial_index":95,"time_elapsed":2010554,"internal_node_id":"0.0-5.0-41.0"},{"group":"square cycles (cube, non-group)","fractal_assignment":["../images/cyn_red.png","../images/grn_red.png","../images/blu_wht.png","../images/ylw_pnk.png","../images/gry_blk.png","../images/org_blu.png","../images/ylw_slt.png","../images/pnk_blu.png"],"mutagen_generator_assignment":[1,0],"goal":3,"start":2,"action_noise":0.1,"location_history":"[2,6,7,3]","action_history":"[1,1,1]","mutagen_history":"[0,0,0]","location_rts":"[1792,355,353]","trial_type":"fractal-mutation","trial_index":96,"time_elapsed":2019658,"internal_node_id":"0.0-5.0-42.0"},{"group":"square cycles (cube, non-group)","fractal_assignment":["../images/cyn_red.png","../images/grn_red.png","../images/blu_wht.png","../images/ylw_pnk.png","../images/gry_blk.png","../images/org_blu.png","../images/ylw_slt.png","../images/pnk_blu.png"],"mutagen_generator_assignment":[1,0],"goal":5,"start":3,"action_noise":0.1,"location_history":"[3,0,1,0,4,5]","action_history":"[0,1,1,1,1]","mutagen_history":"[1,0,0,0,0]","location_rts":"[2215,641,737,429,777]","trial_type":"fractal-mutation","trial_index":97,"time_elapsed":2033135,"internal_node_id":"0.0-5.0-43.0"},{"group":"square cycles (cube, non-group)","fractal_assignment":["../images/cyn_red.png","../images/grn_red.png","../images/blu_wht.png","../images/ylw_pnk.png","../images/gry_blk.png","../images/org_blu.png","../images/ylw_slt.png","../images/pnk_blu.png"],"mutagen_generator_assignment":[1,0],"goal":1,"start":5,"action_noise":0.1,"location_history":"[5,1]","action_history":"[1]","mutagen_history":"[0]","location_rts":"[1098]","trial_type":"fractal-mutation","trial_index":98,"time_elapsed":2038770,"internal_node_id":"0.0-5.0-44.0"},{"group":"square cycles (cube, non-group)","fractal_assignment":["../images/cyn_red.png","../images/grn_red.png","../images/blu_wht.png","../images/ylw_pnk.png","../images/gry_blk.png","../images/org_blu.png","../images/ylw_slt.png","../images/pnk_blu.png"],"mutagen_generator_assignment":[1,0],"goal":7,"start":1,"action_noise":0.1,"location_history":"[1,2,6,7]","action_history":"[0,1,1]","mutagen_history":"[1,0,0]","location_rts":"[1940,1014,745]","trial_type":"fractal-mutation","trial_index":99,"time_elapsed":2049077,"internal_node_id":"0.0-5.0-45.0"},{"group":"square cycles (cube, non-group)","fractal_assignment":["../images/cyn_red.png","../images/grn_red.png","../images/blu_wht.png","../images/ylw_pnk.png","../images/gry_blk.png","../images/org_blu.png","../images/ylw_slt.png","../images/pnk_blu.png"],"mutagen_generator_assignment":[1,0],"goal":6,"start":7,"action_noise":0.1,"location_history":"[7,3,2,6]","action_history":"[1,1,1]","mutagen_history":"[0,0,0]","location_rts":"[1220,717,928]","trial_type":"fractal-mutation","trial_index":100,"time_elapsed":2058539,"internal_node_id":"0.0-5.0-46.0"},{"group":"square cycles (cube, non-group)","fractal_assignment":["../images/cyn_red.png","../images/grn_red.png","../images/blu_wht.png","../images/ylw_pnk.png","../images/gry_blk.png","../images/org_blu.png","../images/ylw_slt.png","../images/pnk_blu.png"],"mutagen_generator_assignment":[1,0],"goal":3,"start":6,"action_noise":0.1,"location_history":"[6,5,1,0,1,2,6,5,1,0,4,7,6,7,3]","action_history":"[1,1,0,0,0,1,1,1,1,0,0,1,1,1]","mutagen_history":"[0,0,1,1,1,0,0,0,0,1,1,0,0,0]","location_rts":"[1029,357,505,674,717,667,453,973,709,1110,492,573,754,777]","trial_type":"fractal-mutation","trial_index":101,"time_elapsed":2086390,"internal_node_id":"0.0-5.0-47.0"},{"group":"square cycles (cube, non-group)","fractal_assignment":["../images/cyn_red.png","../images/grn_red.png","../images/blu_wht.png","../images/ylw_pnk.png","../images/gry_blk.png","../images/org_blu.png","../images/ylw_slt.png","../images/pnk_blu.png"],"mutagen_generator_assignment":[1,0],"goal":0,"start":3,"action_noise":0.1,"location_history":"[3,0]","action_history":"[0]","mutagen_history":"[1]","location_rts":"[1697]","trial_type":"fractal-mutation","trial_index":102,"time_elapsed":2092643,"internal_node_id":"0.0-5.0-48.0"},{"group":"square cycles (cube, non-group)","fractal_assignment":["../images/cyn_red.png","../images/grn_red.png","../images/blu_wht.png","../images/ylw_pnk.png","../images/gry_blk.png","../images/org_blu.png","../images/ylw_slt.png","../images/pnk_blu.png"],"mutagen_generator_assignment":[1,0],"goal":2,"start":0,"action_noise":0.1,"location_history":"[0,4,7,6,7,3,2]","action_history":"[1,0,0,1,1,1]","mutagen_history":"[0,1,1,0,0,0]","location_rts":"[1248,295,731,1031,653,881]","trial_type":"fractal-mutation","trial_index":103,"time_elapsed":2107228,"internal_node_id":"0.0-5.0-49.0"},{"view_history":"[{\"page_index\":0,\"viewing_time\":8615}]","rt":8617,"trial_type":"instructions","trial_index":104,"time_elapsed":2116846,"internal_node_id":"0.0-6.0"},{"rt":22011,"responses":"{\"Q0\":\"no, it was pretty fun, went fast considering the time spent\"}","trial_type":"survey-text","trial_index":105,"time_elapsed":2139870,"internal_node_id":"0.0-7.0"}]