[{"view_history":"[{\"page_index\":0,\"viewing_time\":5557},{\"page_index\":1,\"viewing_time\":19550},{\"page_index\":2,\"viewing_time\":25144},{\"page_index\":3,\"viewing_time\":4654}]","rt":54906,"trial_type":"instructions","trial_index":0,"time_elapsed":54907,"internal_node_id":"0.0-0.0"},{"view_history":"[{\"page_index\":0,\"viewing_time\":2674},{\"page_index\":1,\"viewing_time\":74947}]","rt":77621,"trial_type":"instructions","trial_index":1,"time_elapsed":133529,"internal_node_id":"0.0-1.0"},{"group":"square cycles (cube, non-group)","room_assignment":["yellow","grey","green","purple","blue","red","brown","pink"],"door_color_assignment":["black","white"],"door_generator_assignment":[0,1],"goal":3,"start":0,"action_noise":0.1,"location_history":"[0,4,7,6,7,6,5,4,5,4,5,1,0,4,7,3]","action_history":"[1,0,0,1,0,0,1,1,0,0,1,1,1,0,1]","door_history":"[1,0,0,1,0,0,1,1,0,0,1,1,1,0,1]","location_rts":"[2978,1561,1691,1161,1776,440,1069,1200,722,600,930,862,542,610,603]","trial_type":"two-door-navigation","trial_index":2,"time_elapsed":169275,"internal_node_id":"0.0-2.0-0.0"},{"group":"square cycles (cube, non-group)","room_assignment":["yellow","grey","green","purple","blue","red","brown","pink"],"door_color_assignment":["black","white"],"door_generator_assignment":[0,1],"goal":1,"start":3,"action_noise":0.1,"location_history":"[3,2,6,5,1]","action_history":"[1,0,0,1]","door_history":"[1,0,0,1]","location_rts":"[2001,430,317,1074]","trial_type":"two-door-navigation","trial_index":3,"time_elapsed":180721,"internal_node_id":"0.0-2.0-1.0"},{"group":"square cycles (cube, non-group)","room_assignment":["yellow","grey","green","purple","blue","red","brown","pink"],"door_color_assignment":["black","white"],"door_generator_assignment":[0,1],"goal":2,"start":1,"action_noise":0.1,"location_history":"[1,2]","action_history":"[0]","door_history":"[0]","location_rts":"[1651]","trial_type":"two-door-navigation","trial_index":4,"time_elapsed":186903,"internal_node_id":"0.0-2.0-2.0"},{"group":"square cycles (cube, non-group)","room_assignment":["yellow","grey","green","purple","blue","red","brown","pink"],"door_color_assignment":["black","white"],"door_generator_assignment":[0,1],"goal":6,"start":2,"action_noise":0.1,"location_history":"[2,6]","action_history":"[1]","door_history":"[1]","location_rts":"[2601]","trial_type":"two-door-navigation","trial_index":5,"time_elapsed":194031,"internal_node_id":"0.0-2.0-3.0"},{"group":"square cycles (cube, non-group)","room_assignment":["yellow","grey","green","purple","blue","red","brown","pink"],"door_color_assignment":["black","white"],"door_generator_assignment":[0,1],"goal":5,"start":6,"action_noise":0.1,"location_history":"[6,7,6,5]","action_history":"[1,0,0]","door_history":"[1,0,0]","location_rts":"[4321,639,364]","trial_type":"two-door-navigation","trial_index":6,"time_elapsed":205953,"internal_node_id":"0.0-2.0-4.0"},{"group":"square cycles (cube, non-group)","room_assignment":["yellow","grey","green","purple","blue","red","brown","pink"],"door_color_assignment":["black","white"],"door_generator_assignment":[0,1],"goal":4,"start":5,"action_noise":0.1,"location_history":"[5,4]","action_history":"[0]","door_history":"[0]","location_rts":"[1836]","trial_type":"two-door-navigation","trial_index":7,"time_elapsed":212321,"internal_node_id":"0.0-2.0-5.0"},{"group":"square cycles (cube, non-group)","room_assignment":["yellow","grey","green","purple","blue","red","brown","pink"],"door_color_assignment":["black","white"],"door_generator_assignment":[0,1],"goal":7,"start":4,"action_noise":0.1,"location_history":"[4,5,1,0,4,5,1,0,1,0,1,2,6,7]","action_history":"[1,1,1,1,1,0,1,0,0,0,1,1,1]","door_history":"[1,1,1,1,1,0,1,0,0,0,1,1,1]","location_rts":"[4004,554,361,324,1156,518,603,268,455,344,542,434,1261]","trial_type":"two-door-navigation","trial_index":8,"time_elapsed":240066,"internal_node_id":"0.0-2.0-6.0"},{"group":"square cycles (cube, non-group)","room_assignment":["yellow","grey","green","purple","blue","red","brown","pink"],"door_color_assignment":["black","white"],"door_generator_assignment":[0,1],"goal":4,"start":7,"action_noise":0.1,"location_history":"[7,6,7,6,5,4]","action_history":"[0,1,0,0,0]","door_history":"[0,1,0,0,0]","location_rts":"[1222,599,303,178,608]","trial_type":"two-door-navigation","trial_index":9,"time_elapsed":251616,"internal_node_id":"0.0-2.0-7.0"},{"group":"square cycles (cube, non-group)","room_assignment":["yellow","grey","green","purple","blue","red","brown","pink"],"door_color_assignment":["black","white"],"door_generator_assignment":[0,1],"goal":6,"start":4,"action_noise":0.1,"location_history":"[4,5,1,0,4,5,4,5,1,0,4,5,4,7,6]","action_history":"[1,1,1,1,1,0,1,0,0,1,1,0,0,0]","door_history":"[1,1,1,1,1,0,1,0,0,1,1,0,0,0]","location_rts":"[1480,486,603,325,599,378,498,304,263,310,279,305,326,204]","trial_type":"two-door-navigation","trial_index":10,"time_elapsed":275831,"internal_node_id":"0.0-2.0-8.0"},{"group":"square cycles (cube, non-group)","room_assignment":["yellow","grey","green","purple","blue","red","brown","pink"],"door_color_assignment":["black","white"],"door_generator_assignment":[0,1],"goal":0,"start":6,"action_noise":0.1,"location_history":"[6,5,1,0]","action_history":"[0,1,1]","door_history":"[0,1,1]","location_rts":"[1408,197,205]","trial_type":"two-door-navigation","trial_index":11,"time_elapsed":284216,"internal_node_id":"0.0-2.0-9.0"},{"group":"square cycles (cube, non-group)","room_assignment":["yellow","grey","green","purple","blue","red","brown","pink"],"door_color_assignment":["black","white"],"door_generator_assignment":[0,1],"goal":1,"start":0,"action_noise":0.1,"location_history":"[0,4,7,6,5,4,5,4,5,1]","action_history":"[0,0,0,0,0,1,0,1,1]","door_history":"[0,0,0,0,0,1,0,1,1]","location_rts":"[4080,521,234,397,310,483,263,727,333]","trial_type":"two-door-navigation","trial_index":12,"time_elapsed":304280,"internal_node_id":"0.0-2.0-10.0"},{"group":"square cycles (cube, non-group)","room_assignment":["yellow","grey","green","purple","blue","red","brown","pink"],"door_color_assignment":["black","white"],"door_generator_assignment":[0,1],"goal":3,"start":1,"action_noise":0.1,"location_history":"[1,2,3]","action_history":"[0,0]","door_history":"[0,0]","location_rts":"[952,282]","trial_type":"two-door-navigation","trial_index":13,"time_elapsed":311072,"internal_node_id":"0.0-2.0-11.0"},{"group":"square cycles (cube, non-group)","room_assignment":["yellow","grey","green","purple","blue","red","brown","pink"],"door_color_assignment":["black","white"],"door_generator_assignment":[0,1],"goal":7,"start":3,"action_noise":0.1,"location_history":"[3,2,6,7]","action_history":"[1,1,1]","door_history":"[1,1,1]","location_rts":"[1739,404,856]","trial_type":"two-door-navigation","trial_index":14,"time_elapsed":320645,"internal_node_id":"0.0-2.0-12.0"},{"group":"square cycles (cube, non-group)","room_assignment":["yellow","grey","green","purple","blue","red","brown","pink"],"door_color_assignment":["black","white"],"door_generator_assignment":[0,1],"goal":5,"start":7,"action_noise":0.1,"location_history":"[7,6,5]","action_history":"[0,0]","door_history":"[0,0]","location_rts":"[1029,494]","trial_type":"two-door-navigation","trial_index":15,"time_elapsed":327740,"internal_node_id":"0.0-2.0-13.0"},{"group":"square cycles (cube, non-group)","room_assignment":["yellow","grey","green","purple","blue","red","brown","pink"],"door_color_assignment":["black","white"],"door_generator_assignment":[0,1],"goal":2,"start":5,"action_noise":0.1,"location_history":"[5,4,7,6,5,1,2]","action_history":"[0,0,0,0,0,0]","door_history":"[0,0,0,0,0,0]","location_rts":"[1474,242,464,326,542,371]","trial_type":"two-door-navigation","trial_index":16,"time_elapsed":340819,"internal_node_id":"0.0-2.0-14.0"},{"group":"square cycles (cube, non-group)","room_assignment":["yellow","grey","green","purple","blue","red","brown","pink"],"door_color_assignment":["black","white"],"door_generator_assignment":[0,1],"goal":7,"start":2,"action_noise":0.1,"location_history":"[2,6,5,4,5,1,2,6,7]","action_history":"[0,0,1,1,1,0,1,1]","door_history":"[0,0,1,1,1,0,1,1]","location_rts":"[38,1092,485,589,454,252,324,328]","trial_type":"two-door-navigation","trial_index":17,"time_elapsed":356112,"internal_node_id":"0.0-2.0-15.0"},{"group":"square cycles (cube, non-group)","room_assignment":["yellow","grey","green","purple","blue","red","brown","pink"],"door_color_assignment":["black","white"],"door_generator_assignment":[0,1],"goal":4,"start":7,"action_noise":0.1,"location_history":"[7,6,5,4]","action_history":"[0,0,0]","door_history":"[0,0,0]","location_rts":"[1404,225,242]","trial_type":"two-door-navigation","trial_index":18,"time_elapsed":364560,"internal_node_id":"0.0-2.0-16.0"},{"group":"square cycles (cube, non-group)","room_assignment":["yellow","grey","green","purple","blue","red","brown","pink"],"door_color_assignment":["black","white"],"door_generator_assignment":[0,1],"goal":2,"start":4,"action_noise":0.1,"location_history":"[4,7,3,0,1,2]","action_history":"[0,0,0,0,0]","door_history":"[0,0,0,0,0]","location_rts":"[1314,251,289,387,305]","trial_type":"two-door-navigation","trial_index":19,"time_elapsed":375738,"internal_node_id":"0.0-2.0-17.0"},{"group":"square cycles (cube, non-group)","room_assignment":["yellow","grey","green","purple","blue","red","brown","pink"],"door_color_assignment":["black","white"],"door_generator_assignment":[0,1],"goal":3,"start":2,"action_noise":0.1,"location_history":"[2,3]","action_history":"[0]","door_history":"[0]","location_rts":"[1803]","trial_type":"two-door-navigation","trial_index":20,"time_elapsed":382068,"internal_node_id":"0.0-2.0-18.0"},{"group":"square cycles (cube, non-group)","room_assignment":["yellow","grey","green","purple","blue","red","brown","pink"],"door_color_assignment":["black","white"],"door_generator_assignment":[0,1],"goal":6,"start":3,"action_noise":0.1,"location_history":"[3,2,3,2,3,0,1,0,1,2,3,0,4,5,1,0,1,2,6]","action_history":"[1,1,1,1,0,0,1,0,0,0,0,1,1,1,1,1,0,0]","door_history":"[1,1,1,1,0,0,1,0,0,0,0,1,1,1,1,1,0,0]","location_rts":"[3093,366,247,318,237,390,988,659,648,292,305,307,203,208,393,526,361,304]","trial_type":"two-door-navigation","trial_index":21,"time_elapsed":413807,"internal_node_id":"0.0-2.0-19.0"},{"group":"square cycles (cube, non-group)","room_assignment":["yellow","grey","green","purple","blue","red","brown","pink"],"door_color_assignment":["black","white"],"door_generator_assignment":[0,1],"goal":5,"start":6,"action_noise":0.1,"location_history":"[6,7,6,5]","action_history":"[1,0,0]","door_history":"[1,0,0]","location_rts":"[1787,1337,342]","trial_type":"two-door-navigation","trial_index":22,"time_elapsed":423848,"internal_node_id":"0.0-2.0-20.0"},{"group":"square cycles (cube, non-group)","room_assignment":["yellow","grey","green","purple","blue","red","brown","pink"],"door_color_assignment":["black","white"],"door_generator_assignment":[0,1],"goal":1,"start":5,"action_noise":0.1,"location_history":"[5,4,5,1]","action_history":"[0,1,1]","door_history":"[0,1,1]","location_rts":"[1306,303,177]","trial_type":"two-door-navigation","trial_index":23,"time_elapsed":432220,"internal_node_id":"0.0-2.0-21.0"},{"group":"square cycles (cube, non-group)","room_assignment":["yellow","grey","green","purple","blue","red","brown","pink"],"door_color_assignment":["black","white"],"door_generator_assignment":[0,1],"goal":0,"start":1,"action_noise":0.1,"location_history":"[1,2,6,7,3,2,3,0]","action_history":"[0,1,1,1,1,0,0]","door_history":"[0,1,1,1,1,0,0]","location_rts":"[2002,828,61,369,249,352,191]","trial_type":"two-door-navigation","trial_index":24,"time_elapsed":446971,"internal_node_id":"0.0-2.0-22.0"},{"group":"square cycles (cube, non-group)","room_assignment":["yellow","grey","green","purple","blue","red","brown","pink"],"door_color_assignment":["black","white"],"door_generator_assignment":[0,1],"goal":2,"start":0,"action_noise":0.1,"location_history":"[0,1,2]","action_history":"[0,0]","door_history":"[0,0]","location_rts":"[983,233]","trial_type":"two-door-navigation","trial_index":25,"time_elapsed":453739,"internal_node_id":"0.0-2.0-23.0"},{"group":"square cycles (cube, non-group)","room_assignment":["yellow","grey","green","purple","blue","red","brown","pink"],"door_color_assignment":["black","white"],"door_generator_assignment":[0,1],"goal":6,"start":2,"action_noise":0.1,"location_history":"[2,3,0,1,2,3,2,3,2,6]","action_history":"[0,0,0,0,0,1,0,1,1]","door_history":"[0,0,0,0,0,1,0,1,1]","location_rts":"[1098,207,257,291,779,500,258,159,523]","trial_type":"two-door-navigation","trial_index":26,"time_elapsed":470561,"internal_node_id":"0.0-2.0-24.0"},{"group":"square cycles (cube, non-group)","room_assignment":["yellow","grey","green","purple","blue","red","brown","pink"],"door_color_assignment":["black","white"],"door_generator_assignment":[0,1],"goal":1,"start":6,"action_noise":0.1,"location_history":"[6,5,4,7,6,5,1]","action_history":"[0,0,0,0,0,1]","door_history":"[0,0,0,0,0,1]","location_rts":"[2060,398,438,571,316,1537]","trial_type":"two-door-navigation","trial_index":27,"time_elapsed":485548,"internal_node_id":"0.0-2.0-25.0"},{"group":"square cycles (cube, non-group)","room_assignment":["yellow","grey","green","purple","blue","red","brown","pink"],"door_color_assignment":["black","white"],"door_generator_assignment":[0,1],"goal":3,"start":1,"action_noise":0.1,"location_history":"[1,2,3]","action_history":"[0,0]","door_history":"[0,0]","location_rts":"[1433,38]","trial_type":"two-door-navigation","trial_index":28,"time_elapsed":492570,"internal_node_id":"0.0-2.0-26.0"},{"group":"square cycles (cube, non-group)","room_assignment":["yellow","grey","green","purple","blue","red","brown","pink"],"door_color_assignment":["black","white"],"door_generator_assignment":[0,1],"goal":7,"start":3,"action_noise":0.1,"location_history":"[3,2,6,7]","action_history":"[1,1,1]","door_history":"[1,1,1]","location_rts":"[1659,296,457]","trial_type":"two-door-navigation","trial_index":29,"time_elapsed":501578,"internal_node_id":"0.0-2.0-27.0"},{"group":"square cycles (cube, non-group)","room_assignment":["yellow","grey","green","purple","blue","red","brown","pink"],"door_color_assignment":["black","white"],"door_generator_assignment":[0,1],"goal":4,"start":7,"action_noise":0.1,"location_history":"[7,6,5,1,2,3,0,1,2,3,0,1,2,3,2,6,7,6,5,4]","action_history":"[0,0,0,0,0,0,0,0,0,0,1,0,0,1,1,1,0,0,0]","door_history":"[0,0,0,0,0,0,0,0,0,0,1,0,0,1,1,1,0,0,0]","location_rts":"[1070,231,258,824,492,1080,396,367,605,1009,700,331,323,437,186,295,517,355,1137]","trial_type":"two-door-navigation","trial_index":30,"time_elapsed":535206,"internal_node_id":"0.0-2.0-28.0"},{"group":"square cycles (cube, non-group)","room_assignment":["yellow","grey","green","purple","blue","red","brown","pink"],"door_color_assignment":["black","white"],"door_generator_assignment":[0,1],"goal":0,"start":4,"action_noise":0.1,"location_history":"[4,5,1,0]","action_history":"[1,1,1]","door_history":"[1,1,1]","location_rts":"[2329,273,292]","trial_type":"two-door-navigation","trial_index":31,"time_elapsed":544671,"internal_node_id":"0.0-2.0-29.0"},{"group":"square cycles (cube, non-group)","room_assignment":["yellow","grey","green","purple","blue","red","brown","pink"],"door_color_assignment":["black","white"],"door_generator_assignment":[0,1],"goal":5,"start":0,"action_noise":0.1,"location_history":"[0,4,7,3,2,6,7,3,0,1,2,3,0,1,2,3,2,6,5]","action_history":"[0,0,1,1,1,1,1,0,0,0,0,0,0,0,0,1,1,1]","door_history":"[0,0,1,1,1,1,1,0,0,0,0,0,0,0,0,1,1,1]","location_rts":"[871,296,777,183,372,502,1003,496,325,265,260,298,247,266,913,377,223,307]","trial_type":"two-door-navigation","trial_index":32,"time_elapsed":574606,"internal_node_id":"0.0-2.0-30.0"},{"group":"square cycles (cube, non-group)","room_assignment":["yellow","grey","green","purple","blue","red","brown","pink"],"door_color_assignment":["black","white"],"door_generator_assignment":[0,1],"goal":3,"start":5,"action_noise":0.1,"location_history":"[5,4,7,6,5,4,7,6,7,3]","action_history":"[0,0,0,0,0,0,0,0,1]","door_history":"[0,0,0,0,0,0,0,0,1]","location_rts":"[1409,327,220,198,361,323,359,329,387]","trial_type":"two-door-navigation","trial_index":33,"time_elapsed":591230,"internal_node_id":"0.0-2.0-31.0"},{"group":"square cycles (cube, non-group)","room_assignment":["yellow","grey","green","purple","blue","red","brown","pink"],"door_color_assignment":["black","white"],"door_generator_assignment":[0,1],"goal":2,"start":3,"action_noise":0.1,"location_history":"[3,0,1,2]","action_history":"[0,0,0]","door_history":"[0,0,0]","location_rts":"[562,489,208]","trial_type":"two-door-navigation","trial_index":34,"time_elapsed":599067,"internal_node_id":"0.0-2.0-32.0"},{"group":"square cycles (cube, non-group)","room_assignment":["yellow","grey","green","purple","blue","red","brown","pink"],"door_color_assignment":["black","white"],"door_generator_assignment":[0,1],"goal":6,"start":2,"action_noise":0.1,"location_history":"[2,6]","action_history":"[1]","door_history":"[1]","location_rts":"[1315]","trial_type":"two-door-navigation","trial_index":35,"time_elapsed":604905,"internal_node_id":"0.0-2.0-33.0"},{"group":"square cycles (cube, non-group)","room_assignment":["yellow","grey","green","purple","blue","red","brown","pink"],"door_color_assignment":["black","white"],"door_generator_assignment":[0,1],"goal":1,"start":6,"action_noise":0.1,"location_history":"[6,7,6,7,3,2,3,0,1]","action_history":"[1,0,1,1,1,0,0,0]","door_history":"[1,0,1,1,1,0,0,0]","location_rts":"[1931,693,521,70,337,273,243,223]","trial_type":"two-door-navigation","trial_index":36,"time_elapsed":620941,"internal_node_id":"0.0-2.0-34.0"},{"group":"square cycles (cube, non-group)","room_assignment":["yellow","grey","green","purple","blue","red","brown","pink"],"door_color_assignment":["black","white"],"door_generator_assignment":[0,1],"goal":7,"start":1,"action_noise":0.1,"location_history":"[1,2,6,7]","action_history":"[0,1,1]","door_history":"[0,1,1]","location_rts":"[1229,210,322]","trial_type":"two-door-navigation","trial_index":37,"time_elapsed":629288,"internal_node_id":"0.0-2.0-35.0"},{"group":"square cycles (cube, non-group)","room_assignment":["yellow","grey","green","purple","blue","red","brown","pink"],"door_color_assignment":["black","white"],"door_generator_assignment":[0,1],"goal":4,"start":7,"action_noise":0.1,"location_history":"[7,6,5,4]","action_history":"[0,0,0]","door_history":"[0,0,0]","location_rts":"[1602,267,324]","trial_type":"two-door-navigation","trial_index":38,"time_elapsed":638061,"internal_node_id":"0.0-2.0-36.0"},{"group":"square cycles (cube, non-group)","room_assignment":["yellow","grey","green","purple","blue","red","brown","pink"],"door_color_assignment":["black","white"],"door_generator_assignment":[0,1],"goal":5,"start":4,"action_noise":0.1,"location_history":"[4,5]","action_history":"[1]","door_history":"[1]","location_rts":"[1817]","trial_type":"two-door-navigation","trial_index":39,"time_elapsed":644408,"internal_node_id":"0.0-2.0-37.0"},{"group":"square cycles (cube, non-group)","room_assignment":["yellow","grey","green","purple","blue","red","brown","pink"],"door_color_assignment":["black","white"],"door_generator_assignment":[0,1],"goal":0,"start":5,"action_noise":0.1,"location_history":"[5,1,2,6,7,3,0]","action_history":"[1,1,1,1,1,0]","door_history":"[1,1,1,1,1,0]","location_rts":"[4155,508,428,256,427,194]","trial_type":"two-door-navigation","trial_index":40,"time_elapsed":660021,"internal_node_id":"0.0-2.0-38.0"},{"group":"square cycles (cube, non-group)","room_assignment":["yellow","grey","green","purple","blue","red","brown","pink"],"door_color_assignment":["black","white"],"door_generator_assignment":[0,1],"goal":4,"start":0,"action_noise":0.1,"location_history":"[0,4]","action_history":"[0]","door_history":"[0]","location_rts":"[1110]","trial_type":"two-door-navigation","trial_index":41,"time_elapsed":665660,"internal_node_id":"0.0-2.0-39.0"},{"group":"square cycles (cube, non-group)","room_assignment":["yellow","grey","green","purple","blue","red","brown","pink"],"door_color_assignment":["black","white"],"door_generator_assignment":[0,1],"goal":0,"start":4,"action_noise":0.1,"location_history":"[4,5,1,2,3,0]","action_history":"[1,0,0,0,0]","door_history":"[1,0,0,0,0]","location_rts":"[1386,731,214,253,246]","trial_type":"two-door-navigation","trial_index":42,"time_elapsed":677141,"internal_node_id":"0.0-2.0-40.0"},{"group":"square cycles (cube, non-group)","room_assignment":["yellow","grey","green","purple","blue","red","brown","pink"],"door_color_assignment":["black","white"],"door_generator_assignment":[0,1],"goal":2,"start":0,"action_noise":0.1,"location_history":"[0,1,2]","action_history":"[0,0]","door_history":"[0,0]","location_rts":"[1450,359]","trial_type":"two-door-navigation","trial_index":43,"time_elapsed":684506,"internal_node_id":"0.0-2.0-41.0"},{"group":"square cycles (cube, non-group)","room_assignment":["yellow","grey","green","purple","blue","red","brown","pink"],"door_color_assignment":["black","white"],"door_generator_assignment":[0,1],"goal":3,"start":2,"action_noise":0.1,"location_history":"[2,3]","action_history":"[0]","door_history":"[0]","location_rts":"[1553]","trial_type":"two-door-navigation","trial_index":44,"time_elapsed":690573,"internal_node_id":"0.0-2.0-42.0"},{"group":"square cycles (cube, non-group)","room_assignment":["yellow","grey","green","purple","blue","red","brown","pink"],"door_color_assignment":["black","white"],"door_generator_assignment":[0,1],"goal":5,"start":3,"action_noise":0.1,"location_history":"[3,2,3,0,4,7,3,2,6,7,3,2,3,0,1,2,6,5]","action_history":"[1,1,1,1,0,1,1,1,1,1,0,0,0,0,0,0,0]","door_history":"[1,1,1,1,0,1,1,1,1,1,0,0,0,0,0,0,0]","location_rts":"[1025,302,348,1225,794,726,428,323,813,706,523,698,332,423,348,336,364]","trial_type":"two-door-navigation","trial_index":45,"time_elapsed":721187,"internal_node_id":"0.0-2.0-43.0"},{"group":"square cycles (cube, non-group)","room_assignment":["yellow","grey","green","purple","blue","red","brown","pink"],"door_color_assignment":["black","white"],"door_generator_assignment":[0,1],"goal":1,"start":5,"action_noise":0.1,"location_history":"[5,1]","action_history":"[0]","door_history":"[0]","location_rts":"[3489]","trial_type":"two-door-navigation","trial_index":46,"time_elapsed":729197,"internal_node_id":"0.0-2.0-44.0"},{"group":"square cycles (cube, non-group)","room_assignment":["yellow","grey","green","purple","blue","red","brown","pink"],"door_color_assignment":["black","white"],"door_generator_assignment":[0,1],"goal":7,"start":1,"action_noise":0.1,"location_history":"[1,0,4,5,1,0,4,5,1,0,4,5,1,0,4,7]","action_history":"[1,1,1,1,1,1,1,1,1,1,1,1,1,1,0]","door_history":"[1,1,1,1,1,1,1,1,1,1,1,1,1,1,0]","location_rts":"[1324,79,1165,556,794,549,555,493,458,448,269,267,238,267,274]","trial_type":"two-door-navigation","trial_index":47,"time_elapsed":755785,"internal_node_id":"0.0-2.0-45.0"},{"group":"square cycles (cube, non-group)","room_assignment":["yellow","grey","green","purple","blue","red","brown","pink"],"door_color_assignment":["black","white"],"door_generator_assignment":[0,1],"goal":6,"start":7,"action_noise":0.1,"location_history":"[7,6]","action_history":"[0]","door_history":"[0]","location_rts":"[950]","trial_type":"two-door-navigation","trial_index":48,"time_elapsed":761264,"internal_node_id":"0.0-2.0-46.0"},{"group":"square cycles (cube, non-group)","room_assignment":["yellow","grey","green","purple","blue","red","brown","pink"],"door_color_assignment":["black","white"],"door_generator_assignment":[0,1],"goal":3,"start":6,"action_noise":0.1,"location_history":"[6,5,1,2,3]","action_history":"[0,0,0,0]","door_history":"[0,0,0,0]","location_rts":"[923,184,236,338]","trial_type":"two-door-navigation","trial_index":49,"time_elapsed":770568,"internal_node_id":"0.0-2.0-47.0"},{"group":"square cycles (cube, non-group)","room_assignment":["yellow","grey","green","purple","blue","red","brown","pink"],"door_color_assignment":["black","white"],"door_generator_assignment":[0,1],"goal":0,"start":3,"action_noise":0.1,"location_history":"[3,0]","action_history":"[0]","door_history":"[0]","location_rts":"[839]","trial_type":"two-door-navigation","trial_index":50,"time_elapsed":776078,"internal_node_id":"0.0-2.0-48.0"},{"group":"square cycles (cube, non-group)","room_assignment":["yellow","grey","green","purple","blue","red","brown","pink"],"door_color_assignment":["black","white"],"door_generator_assignment":[0,1],"goal":2,"start":0,"action_noise":0.1,"location_history":"[0,1,2]","action_history":"[0,0]","door_history":"[0,0]","location_rts":"[2262,323]","trial_type":"two-door-navigation","trial_index":51,"time_elapsed":785077,"internal_node_id":"0.0-2.0-49.0"},{"view_history":"[{\"page_index\":0,\"viewing_time\":92344}]","rt":92345,"trial_type":"instructions","trial_index":52,"time_elapsed":879423,"internal_node_id":"0.0-3.0"},{"view_history":"[{\"page_index\":0,\"viewing_time\":137780},{\"page_index\":1,\"viewing_time\":73491}]","rt":211271,"trial_type":"instructions","trial_index":53,"time_elapsed":1091696,"internal_node_id":"0.0-4.0"},{"group":"tri cycles (cube, non-group)","fractal_assignment":["../images/ylw_slt.png","../images/pnk_blu.png","../images/blu_wht.png","../images/gry_blk.png","../images/ylw_pnk.png","../images/org_blu.png","../images/grn_red.png","../images/cyn_red.png"],"mutagen_generator_assignment":[1,0],"goal":3,"start":0,"action_noise":0.1,"location_history":"[0,2,6,4,7,6,4,7,3]","action_history":"[1,1,0,0,0,0,0,1]","mutagen_history":"[0,0,1,1,1,1,1,0]","location_rts":"[3038,1931,1082,963,749,1240,705,854]","trial_type":"fractal-mutation","trial_index":54,"time_elapsed":1113969,"internal_node_id":"0.0-5.0-0.0"},{"group":"tri cycles (cube, non-group)","fractal_assignment":["../images/ylw_slt.png","../images/pnk_blu.png","../images/blu_wht.png","../images/gry_blk.png","../images/ylw_pnk.png","../images/org_blu.png","../images/grn_red.png","../images/cyn_red.png"],"mutagen_generator_assignment":[1,0],"goal":1,"start":3,"action_noise":0.1,"location_history":"[3,4,7,6,5,2,6,4,0,3,4,0,2,1]","action_history":"[1,0,0,1,1,1,0,1,1,1,1,0,0]","mutagen_history":"[0,1,1,0,0,0,1,0,0,0,0,1,1]","location_rts":"[664,1362,959,1008,631,657,1417,359,777,446,404,897,739]","trial_type":"fractal-mutation","trial_index":55,"time_elapsed":1141140,"internal_node_id":"0.0-5.0-1.0"},{"group":"tri cycles (cube, non-group)","fractal_assignment":["../images/ylw_slt.png","../images/pnk_blu.png","../images/blu_wht.png","../images/gry_blk.png","../images/ylw_pnk.png","../images/org_blu.png","../images/grn_red.png","../images/cyn_red.png"],"mutagen_generator_assignment":[1,0],"goal":2,"start":1,"action_noise":0.1,"location_history":"[1,0,2]","action_history":"[0,0]","mutagen_history":"[1,1]","location_rts":"[613,949]","trial_type":"fractal-mutation","trial_index":56,"time_elapsed":1148266,"internal_node_id":"0.0-5.0-2.0"},{"group":"tri cycles (cube, non-group)","fractal_assignment":["../images/ylw_slt.png","../images/pnk_blu.png","../images/blu_wht.png","../images/gry_blk.png","../images/ylw_pnk.png","../images/org_blu.png","../images/grn_red.png","../images/cyn_red.png"],"mutagen_generator_assignment":[1,0],"goal":6,"start":2,"action_noise":0.1,"location_history":"[2,6]","action_history":"[1]","mutagen_history":"[0]","location_rts":"[1302]","trial_type":"fractal-mutation","trial_index":57,"time_elapsed":1154084,"internal_node_id":"0.0-5.0-3.0"},{"group":"tri cycles (cube, non-group)","fractal_assignment":["../images/ylw_slt.png","../images/pnk_blu.png","../images/blu_wht.png","../images/gry_blk.png","../images/ylw_pnk.png","../images/org_blu.png","../images/grn_red.png","../images/cyn_red.png"],"mutagen_generator_assignment":[1,0],"goal":5,"start":6,"action_noise":0.1,"location_history":"[6,4,0,2,1,5]","action_history":"[0,1,1,1,1]","mutagen_history":"[1,0,0,0,0]","location_rts":"[518,1161,567,503,539]","trial_type":"fractal-mutation","trial_index":58,"time_elapsed":1165955,"internal_node_id":"0.0-5.0-4.0"},{"group":"tri cycles (cube, non-group)","fractal_assignment":["../images/ylw_slt.png","../images/pnk_blu.png","../images/blu_wht.png","../images/gry_blk.png","../images/ylw_pnk.png","../images/org_blu.png","../images/grn_red.png","../images/cyn_red.png"],"mutagen_generator_assignment":[1,0],"goal":4,"start":5,"action_noise":0.1,"location_history":"[5,2,6,5,2,6,4]","action_history":"[1,1,1,1,1,0]","mutagen_history":"[0,0,0,0,0,1]","location_rts":"[1320,436,399,474,601,707]","trial_type":"fractal-mutation","trial_index":59,"time_elapsed":1179489,"internal_node_id":"0.0-5.0-5.0"},{"group":"tri cycles (cube, non-group)","fractal_assignment":["../images/ylw_slt.png","../images/pnk_blu.png","../images/blu_wht.png","../images/gry_blk.png","../images/ylw_pnk.png","../images/org_blu.png","../images/grn_red.png","../images/cyn_red.png"],"mutagen_generator_assignment":[1,0],"goal":7,"start":4,"action_noise":0.1,"location_history":"[4,7]","action_history":"[0]","mutagen_history":"[1]","location_rts":"[1583]","trial_type":"fractal-mutation","trial_index":60,"time_elapsed":1185606,"internal_node_id":"0.0-5.0-6.0"},{"group":"tri cycles (cube, non-group)","fractal_assignment":["../images/ylw_slt.png","../images/pnk_blu.png","../images/blu_wht.png","../images/gry_blk.png","../images/ylw_pnk.png","../images/org_blu.png","../images/grn_red.png","../images/cyn_red.png"],"mutagen_generator_assignment":[1,0],"goal":4,"start":7,"action_noise":0.1,"location_history":"[7,6,5,2,6,4]","action_history":"[0,1,1,1,1]","mutagen_history":"[1,0,0,0,0]","location_rts":"[1481,818,477,350,411]","trial_type":"fractal-mutation","trial_index":61,"time_elapsed":1197749,"internal_node_id":"0.0-5.0-7.0"},{"group":"tri cycles (cube, non-group)","fractal_assignment":["../images/ylw_slt.png","../images/pnk_blu.png","../images/blu_wht.png","../images/gry_blk.png","../images/ylw_pnk.png","../images/org_blu.png","../images/grn_red.png","../images/cyn_red.png"],"mutagen_generator_assignment":[1,0],"goal":6,"start":4,"action_noise":0.1,"location_history":"[4,0,3,4,0,3,4,7,6]","action_history":"[1,1,1,1,1,1,0,0]","mutagen_history":"[0,0,0,0,0,0,1,1]","location_rts":"[1195,455,355,594,490,433,750,850]","trial_type":"fractal-mutation","trial_index":62,"time_elapsed":1214548,"internal_node_id":"0.0-5.0-8.0"},{"group":"tri cycles (cube, non-group)","fractal_assignment":["../images/ylw_slt.png","../images/pnk_blu.png","../images/blu_wht.png","../images/gry_blk.png","../images/ylw_pnk.png","../images/org_blu.png","../images/grn_red.png","../images/cyn_red.png"],"mutagen_generator_assignment":[1,0],"goal":0,"start":6,"action_noise":0.1,"location_history":"[6,4,7,6,5,2,6,5,1,5,2,1,5,2,6,5,1,5,1,5,1,0]","action_history":"[0,0,0,1,1,1,1,0,1,0,0,1,1,1,1,0,0,0,1,0,0]","mutagen_history":"[1,1,1,0,0,0,0,1,0,1,1,0,0,0,0,1,1,1,0,1,1]","location_rts":"[1114,1184,729,645,883,684,481,460,1169,1044,550,884,540,466,452,408,694,394,731,420,505]","trial_type":"fractal-mutation","trial_index":63,"time_elapsed":1254079,"internal_node_id":"0.0-5.0-9.0"},{"group":"tri cycles (cube, non-group)","fractal_assignment":["../images/ylw_slt.png","../images/pnk_blu.png","../images/blu_wht.png","../images/gry_blk.png","../images/ylw_pnk.png","../images/org_blu.png","../images/grn_red.png","../images/cyn_red.png"],"mutagen_generator_assignment":[1,0],"goal":1,"start":0,"action_noise":0.1,"location_history":"[0,3,4,0,2,1]","action_history":"[1,1,1,1,0]","mutagen_history":"[0,0,0,0,1]","location_rts":"[26039,392,290,351,1847]","trial_type":"fractal-mutation","trial_index":64,"time_elapsed":1292603,"internal_node_id":"0.0-5.0-10.0"},{"group":"tri cycles (cube, non-group)","fractal_assignment":["../images/ylw_slt.png","../images/pnk_blu.png","../images/blu_wht.png","../images/gry_blk.png","../images/ylw_pnk.png","../images/org_blu.png","../images/grn_red.png","../images/cyn_red.png"],"mutagen_generator_assignment":[1,0],"goal":3,"start":1,"action_noise":0.1,"location_history":"[1,0,3]","action_history":"[0,1]","mutagen_history":"[1,0]","location_rts":"[345,304]","trial_type":"fractal-mutation","trial_index":65,"time_elapsed":1298795,"internal_node_id":"0.0-5.0-11.0"},{"group":"tri cycles (cube, non-group)","fractal_assignment":["../images/ylw_slt.png","../images/pnk_blu.png","../images/blu_wht.png","../images/gry_blk.png","../images/ylw_pnk.png","../images/org_blu.png","../images/grn_red.png","../images/cyn_red.png"],"mutagen_generator_assignment":[1,0],"goal":7,"start":3,"action_noise":0.1,"location_history":"[3,4,0,2,1,0,3,7]","action_history":"[1,1,0,0,0,1,0]","mutagen_history":"[0,0,1,1,1,0,1]","location_rts":"[651,748,1659,418,447,434,396]","trial_type":"fractal-mutation","trial_index":66,"time_elapsed":1314217,"internal_node_id":"0.0-5.0-12.0"},{"group":"tri cycles (cube, non-group)","fractal_assignment":["../images/ylw_slt.png","../images/pnk_blu.png","../images/blu_wht.png","../images/gry_blk.png","../images/ylw_pnk.png","../images/org_blu.png","../images/grn_red.png","../images/cyn_red.png"],"mutagen_generator_assignment":[1,0],"goal":5,"start":7,"action_noise":0.1,"location_history":"[7,3,4,0,3,4,0,3,7,6,4,0,3,4,7,6,4,0,3,7,3,4,0,3,4,0,2,6,5]","action_history":"[1,1,1,1,1,1,1,1,0,0,1,0,1,0,0,0,1,1,1,1,1,1,1,1,1,0,1,0]","mutagen_history":"[0,0,0,0,0,0,0,0,1,1,0,1,0,1,1,1,0,0,0,0,0,0,0,0,0,1,0,1]","location_rts":"[1574,861,434,550,363,457,683,459,1363,609,507,382,585,379,306,434,448,371,428,688,570,443,453,411,405,179,294,267]","trial_type":"fractal-mutation","trial_index":67,"time_elapsed":1361126,"internal_node_id":"0.0-5.0-13.0"},{"group":"tri cycles (cube, non-group)","fractal_assignment":["../images/ylw_slt.png","../images/pnk_blu.png","../images/blu_wht.png","../images/gry_blk.png","../images/ylw_pnk.png","../images/org_blu.png","../images/grn_red.png","../images/cyn_red.png"],"mutagen_generator_assignment":[1,0],"goal":2,"start":5,"action_noise":0.1,"location_history":"[5,2]","action_history":"[1]","mutagen_history":"[0]","location_rts":"[785]","trial_type":"fractal-mutation","trial_index":68,"time_elapsed":1366446,"internal_node_id":"0.0-5.0-14.0"},{"group":"tri cycles (cube, non-group)","fractal_assignment":["../images/ylw_slt.png","../images/pnk_blu.png","../images/blu_wht.png","../images/gry_blk.png","../images/ylw_pnk.png","../images/org_blu.png","../images/grn_red.png","../images/cyn_red.png"],"mutagen_generator_assignment":[1,0],"goal":7,"start":2,"action_noise":0.1,"location_history":"[2,1,0,3,7]","action_history":"[0,1,1,0]","mutagen_history":"[1,0,0,1]","location_rts":"[754,411,427,370]","trial_type":"fractal-mutation","trial_index":69,"time_elapsed":1375985,"internal_node_id":"0.0-5.0-15.0"},{"group":"tri cycles (cube, non-group)","fractal_assignment":["../images/ylw_slt.png","../images/pnk_blu.png","../images/blu_wht.png","../images/gry_blk.png","../images/ylw_pnk.png","../images/org_blu.png","../images/grn_red.png","../images/cyn_red.png"],"mutagen_generator_assignment":[1,0],"goal":4,"start":7,"action_noise":0.1,"location_history":"[7,3,4]","action_history":"[1,1]","mutagen_history":"[0,0]","location_rts":"[1704,753]","trial_type":"fractal-mutation","trial_index":70,"time_elapsed":1383972,"internal_node_id":"0.0-5.0-16.0"},{"group":"tri cycles (cube, non-group)","fractal_assignment":["../images/ylw_slt.png","../images/pnk_blu.png","../images/blu_wht.png","../images/gry_blk.png","../images/ylw_pnk.png","../images/org_blu.png","../images/grn_red.png","../images/cyn_red.png"],"mutagen_generator_assignment":[1,0],"goal":2,"start":4,"action_noise":0.1,"location_history":"[4,0,2]","action_history":"[1,0]","mutagen_history":"[0,1]","location_rts":"[1371,1754]","trial_type":"fractal-mutation","trial_index":71,"time_elapsed":1392653,"internal_node_id":"0.0-5.0-17.0"},{"group":"tri cycles (cube, non-group)","fractal_assignment":["../images/ylw_slt.png","../images/pnk_blu.png","../images/blu_wht.png","../images/gry_blk.png","../images/ylw_pnk.png","../images/org_blu.png","../images/grn_red.png","../images/cyn_red.png"],"mutagen_generator_assignment":[1,0],"goal":3,"start":2,"action_noise":0.1,"location_history":"[2,6,5,2,1,0,2,6,5,2,6,4,0,2,6,5,2,6,4,7,6,4,0,3]","action_history":"[1,1,1,0,1,0,1,1,1,1,0,1,0,1,1,1,1,0,0,0,0,1,1]","mutagen_history":"[0,0,0,1,0,1,0,0,0,0,1,0,1,0,0,0,0,1,1,1,1,0,0]","location_rts":"[1195,1014,1396,515,543,444,422,1477,386,556,1208,843,2027,475,683,1771,890,369,312,674,668,816,219]","trial_type":"fractal-mutation","trial_index":72,"time_elapsed":1438539,"internal_node_id":"0.0-5.0-18.0"},{"group":"tri cycles (cube, non-group)","fractal_assignment":["../images/ylw_slt.png","../images/pnk_blu.png","../images/blu_wht.png","../images/gry_blk.png","../images/ylw_pnk.png","../images/org_blu.png","../images/grn_red.png","../images/cyn_red.png"],"mutagen_generator_assignment":[1,0],"goal":6,"start":3,"action_noise":0.1,"location_history":"[3,4,0,3,4,7,3,7,6]","action_history":"[1,1,1,1,0,1,1,0]","mutagen_history":"[0,0,0,0,1,0,0,1]","location_rts":"[1665,543,366,339,458,442,338,405]","trial_type":"fractal-mutation","trial_index":73,"time_elapsed":1454759,"internal_node_id":"0.0-5.0-19.0"},{"group":"tri cycles (cube, non-group)","fractal_assignment":["../images/ylw_slt.png","../images/pnk_blu.png","../images/blu_wht.png","../images/gry_blk.png","../images/ylw_pnk.png","../images/org_blu.png","../images/grn_red.png","../images/cyn_red.png"],"mutagen_generator_assignment":[1,0],"goal":5,"start":6,"action_noise":0.1,"location_history":"[6,4,0,2,6,4,7,6,5]","action_history":"[0,1,0,1,0,0,0,1]","mutagen_history":"[1,0,1,0,1,1,1,0]","location_rts":"[373,422,204,392,436,263,444,195]","trial_type":"fractal-mutation","trial_index":74,"time_elapsed":1469198,"internal_node_id":"0.0-5.0-20.0"},{"group":"tri cycles (cube, non-group)","fractal_assignment":["../images/ylw_slt.png","../images/pnk_blu.png","../images/blu_wht.png","../images/gry_blk.png","../images/ylw_pnk.png","../images/org_blu.png","../images/grn_red.png","../images/cyn_red.png"],"mutagen_generator_assignment":[1,0],"goal":1,"start":5,"action_noise":0.1,"location_history":"[5,2,6,4,7,6,4,0,2,6,4,7,3,7,3,7,3,4,7,3,4,0,2,1]","action_history":"[1,1,0,0,0,1,0,0,0,0,0,1,0,0,0,1,1,0,1,1,1,0,0]","mutagen_history":"[0,0,1,1,1,0,1,1,1,1,1,0,1,1,1,0,0,1,0,0,0,1,1]","location_rts":"[716,380,916,320,304,254,466,570,318,258,261,210,195,347,240,348,346,494,602,378,498,335,755]","trial_type":"fractal-mutation","trial_index":75,"time_elapsed":1505736,"internal_node_id":"0.0-5.0-21.0"},{"group":"tri cycles (cube, non-group)","fractal_assignment":["../images/ylw_slt.png","../images/pnk_blu.png","../images/blu_wht.png","../images/gry_blk.png","../images/ylw_pnk.png","../images/org_blu.png","../images/grn_red.png","../images/cyn_red.png"],"mutagen_generator_assignment":[1,0],"goal":0,"start":1,"action_noise":0.1,"location_history":"[1,5,2,6,5,2,1,5,2,6,5,1,5,1,0]","action_history":"[1,1,1,1,1,0,1,1,1,1,0,1,0,0]","mutagen_history":"[0,0,0,0,0,1,0,0,0,0,1,0,1,1]","location_rts":"[2008,475,138,515,616,372,391,378,423,548,299,226,376,389]","trial_type":"fractal-mutation","trial_index":76,"time_elapsed":1530666,"internal_node_id":"0.0-5.0-22.0"},{"group":"tri cycles (cube, non-group)","fractal_assignment":["../images/ylw_slt.png","../images/pnk_blu.png","../images/blu_wht.png","../images/gry_blk.png","../images/ylw_pnk.png","../images/org_blu.png","../images/grn_red.png","../images/cyn_red.png"],"mutagen_generator_assignment":[1,0],"goal":2,"start":0,"action_noise":0.1,"location_history":"[0,2]","action_history":"[1]","mutagen_history":"[0]","location_rts":"[1242]","trial_type":"fractal-mutation","trial_index":77,"time_elapsed":1536426,"internal_node_id":"0.0-5.0-23.0"},{"group":"tri cycles (cube, non-group)","fractal_assignment":["../images/ylw_slt.png","../images/pnk_blu.png","../images/blu_wht.png","../images/gry_blk.png","../images/ylw_pnk.png","../images/org_blu.png","../images/grn_red.png","../images/cyn_red.png"],"mutagen_generator_assignment":[1,0],"goal":6,"start":2,"action_noise":0.1,"location_history":"[2,6]","action_history":"[1]","mutagen_history":"[0]","location_rts":"[4795]","trial_type":"fractal-mutation","trial_index":78,"time_elapsed":1546386,"internal_node_id":"0.0-5.0-24.0"},{"group":"tri cycles (cube, non-group)","fractal_assignment":["../images/ylw_slt.png","../images/pnk_blu.png","../images/blu_wht.png","../images/gry_blk.png","../images/ylw_pnk.png","../images/org_blu.png","../images/grn_red.png","../images/cyn_red.png"],"mutagen_generator_assignment":[1,0],"goal":1,"start":6,"action_noise":0.1,"location_history":"[6,4,7,6,4,0,3,7,3,7,6,5,2,1]","action_history":"[0,0,0,0,1,1,0,1,1,0,1,1,0]","mutagen_history":"[1,1,1,1,0,0,1,0,0,1,0,0,1]","location_rts":"[1512,566,375,385,344,410,410,469,518,333,238,181,490]","trial_type":"fractal-mutation","trial_index":79,"time_elapsed":1569420,"internal_node_id":"0.0-5.0-25.0"},{"group":"tri cycles (cube, non-group)","fractal_assignment":["../images/ylw_slt.png","../images/pnk_blu.png","../images/blu_wht.png","../images/gry_blk.png","../images/ylw_pnk.png","../images/org_blu.png","../images/grn_red.png","../images/cyn_red.png"],"mutagen_generator_assignment":[1,0],"goal":3,"start":1,"action_noise":0.1,"location_history":"[1,5,2,1,5,2,6,4,7,3]","action_history":"[1,1,0,1,1,1,1,0,1]","mutagen_history":"[0,0,1,0,0,0,0,1,0]","location_rts":"[1427,1334,508,556,379,328,1003,440,353]","trial_type":"fractal-mutation","trial_index":80,"time_elapsed":1588441,"internal_node_id":"0.0-5.0-26.0"},{"group":"tri cycles (cube, non-group)","fractal_assignment":["../images/ylw_slt.png","../images/pnk_blu.png","../images/blu_wht.png","../images/gry_blk.png","../images/ylw_pnk.png","../images/org_blu.png","../images/grn_red.png","../images/cyn_red.png"],"mutagen_generator_assignment":[1,0],"goal":7,"start":3,"action_noise":0.1,"location_history":"[3,7]","action_history":"[0]","mutagen_history":"[1]","location_rts":"[1202]","trial_type":"fractal-mutation","trial_index":81,"time_elapsed":1594192,"internal_node_id":"0.0-5.0-27.0"},{"group":"tri cycles (cube, non-group)","fractal_assignment":["../images/ylw_slt.png","../images/pnk_blu.png","../images/blu_wht.png","../images/gry_blk.png","../images/ylw_pnk.png","../images/org_blu.png","../images/grn_red.png","../images/cyn_red.png"],"mutagen_generator_assignment":[1,0],"goal":4,"start":7,"action_noise":0.1,"location_history":"[7,3,4]","action_history":"[1,1]","mutagen_history":"[0,0]","location_rts":"[1096,297]","trial_type":"fractal-mutation","trial_index":82,"time_elapsed":1601113,"internal_node_id":"0.0-5.0-28.0"},{"group":"tri cycles (cube, non-group)","fractal_assignment":["../images/ylw_slt.png","../images/pnk_blu.png","../images/blu_wht.png","../images/gry_blk.png","../images/ylw_pnk.png","../images/org_blu.png","../images/grn_red.png","../images/cyn_red.png"],"mutagen_generator_assignment":[1,0],"goal":0,"start":4,"action_noise":0.1,"location_history":"[4,7,3,4,7,3,4,0]","action_history":"[1,1,1,0,1,1,1]","mutagen_history":"[0,0,0,1,0,0,0]","location_rts":"[644,467,416,377,524,233,240]","trial_type":"fractal-mutation","trial_index":83,"time_elapsed":1614663,"internal_node_id":"0.0-5.0-29.0"},{"group":"tri cycles (cube, non-group)","fractal_assignment":["../images/ylw_slt.png","../images/pnk_blu.png","../images/blu_wht.png","../images/gry_blk.png","../images/ylw_pnk.png","../images/org_blu.png","../images/grn_red.png","../images/cyn_red.png"],"mutagen_generator_assignment":[1,0],"goal":5,"start":0,"action_noise":0.1,"location_history":"[0,3,4,0,2,6,4,0,3,7,3,4,0,2,6,5]","action_history":"[1,1,1,0,1,1,1,1,0,1,1,1,0,1,1]","mutagen_history":"[0,0,0,1,0,0,0,0,1,0,0,0,1,0,0]","location_rts":"[1087,408,652,615,623,307,757,404,3419,346,283,830,491,453,388]","trial_type":"fractal-mutation","trial_index":84,"time_elapsed":1644531,"internal_node_id":"0.0-5.0-30.0"},{"group":"tri cycles (cube, non-group)","fractal_assignment":["../images/ylw_slt.png","../images/pnk_blu.png","../images/blu_wht.png","../images/gry_blk.png","../images/ylw_pnk.png","../images/org_blu.png","../images/grn_red.png","../images/cyn_red.png"],"mutagen_generator_assignment":[1,0],"goal":3,"start":5,"action_noise":0.1,"location_history":"[5,2,1,0,3]","action_history":"[1,0,1,1]","mutagen_history":"[0,1,0,0]","location_rts":"[1835,503,590,414]","trial_type":"fractal-mutation","trial_index":85,"time_elapsed":1655450,"internal_node_id":"0.0-5.0-31.0"},{"group":"tri cycles (cube, non-group)","fractal_assignment":["../images/ylw_slt.png","../images/pnk_blu.png","../images/blu_wht.png","../images/gry_blk.png","../images/ylw_pnk.png","../images/org_blu.png","../images/grn_red.png","../images/cyn_red.png"],"mutagen_generator_assignment":[1,0],"goal":2,"start":3,"action_noise":0.1,"location_history":"[3,4,0,2]","action_history":"[1,1,0]","mutagen_history":"[0,0,1]","location_rts":"[1902,883,931]","trial_type":"fractal-mutation","trial_index":86,"time_elapsed":1665726,"internal_node_id":"0.0-5.0-32.0"},{"group":"tri cycles (cube, non-group)","fractal_assignment":["../images/ylw_slt.png","../images/pnk_blu.png","../images/blu_wht.png","../images/gry_blk.png","../images/ylw_pnk.png","../images/org_blu.png","../images/grn_red.png","../images/cyn_red.png"],"mutagen_generator_assignment":[1,0],"goal":6,"start":2,"action_noise":0.1,"location_history":"[2,6]","action_history":"[1]","mutagen_history":"[0]","location_rts":"[1312]","trial_type":"fractal-mutation","trial_index":87,"time_elapsed":1671559,"internal_node_id":"0.0-5.0-33.0"},{"group":"tri cycles (cube, non-group)","fractal_assignment":["../images/ylw_slt.png","../images/pnk_blu.png","../images/blu_wht.png","../images/gry_blk.png","../images/ylw_pnk.png","../images/org_blu.png","../images/grn_red.png","../images/cyn_red.png"],"mutagen_generator_assignment":[1,0],"goal":1,"start":6,"action_noise":0.1,"location_history":"[6,5,2,1]","action_history":"[1,1,0]","mutagen_history":"[0,0,1]","location_rts":"[1311,829,563]","trial_type":"fractal-mutation","trial_index":88,"time_elapsed":1680817,"internal_node_id":"0.0-5.0-34.0"},{"group":"tri cycles (cube, non-group)","fractal_assignment":["../images/ylw_slt.png","../images/pnk_blu.png","../images/blu_wht.png","../images/gry_blk.png","../images/ylw_pnk.png","../images/org_blu.png","../images/grn_red.png","../images/cyn_red.png"],"mutagen_generator_assignment":[1,0],"goal":7,"start":1,"action_noise":0.1,"location_history":"[1,5,1,5,2,6,4,7]","action_history":"[1,0,1,1,1,0,0]","mutagen_history":"[0,1,0,0,0,1,1]","location_rts":"[1598,780,810,265,906,581,846]","trial_type":"fractal-mutation","trial_index":89,"time_elapsed":1697273,"internal_node_id":"0.0-5.0-35.0"},{"group":"tri cycles (cube, non-group)","fractal_assignment":["../images/ylw_slt.png","../images/pnk_blu.png","../images/blu_wht.png","../images/gry_blk.png","../images/ylw_pnk.png","../images/org_blu.png","../images/grn_red.png","../images/cyn_red.png"],"mutagen_generator_assignment":[1,0],"goal":4,"start":7,"action_noise":0.1,"location_history":"[7,3,4]","action_history":"[1,1]","mutagen_history":"[0,0]","location_rts":"[1014,1125]","trial_type":"fractal-mutation","trial_index":90,"time_elapsed":1704939,"internal_node_id":"0.0-5.0-36.0"},{"group":"tri cycles (cube, non-group)","fractal_assignment":["../images/ylw_slt.png","../images/pnk_blu.png","../images/blu_wht.png","../images/gry_blk.png","../images/ylw_pnk.png","../images/org_blu.png","../images/grn_red.png","../images/cyn_red.png"],"mutagen_generator_assignment":[1,0],"goal":5,"start":4,"action_noise":0.1,"location_history":"[4,0,3,4,0,3,4,7,6,5]","action_history":"[1,1,1,1,1,1,1,0,1]","mutagen_history":"[0,0,0,0,0,0,0,1,0]","location_rts":"[1076,821,888,695,710,612,1199,1505,566]","trial_type":"fractal-mutation","trial_index":91,"time_elapsed":1725686,"internal_node_id":"0.0-5.0-37.0"},{"group":"tri cycles (cube, non-group)","fractal_assignment":["../images/ylw_slt.png","../images/pnk_blu.png","../images/blu_wht.png","../images/gry_blk.png","../images/ylw_pnk.png","../images/org_blu.png","../images/grn_red.png","../images/cyn_red.png"],"mutagen_generator_assignment":[1,0],"goal":0,"start":5,"action_noise":0.1,"location_history":"[5,2,1,5,2,1,5,2,6,4,0]","action_history":"[1,0,1,1,1,1,1,1,1,1]","mutagen_history":"[0,1,0,0,0,0,0,0,0,0]","location_rts":"[1144,1582,209,579,601,635,546,443,603,593]","trial_type":"fractal-mutation","trial_index":92,"time_elapsed":1746308,"internal_node_id":"0.0-5.0-38.0"},{"group":"tri cycles (cube, non-group)","fractal_assignment":["../images/ylw_slt.png","../images/pnk_blu.png","../images/blu_wht.png","../images/gry_blk.png","../images/ylw_pnk.png","../images/org_blu.png","../images/grn_red.png","../images/cyn_red.png"],"mutagen_generator_assignment":[1,0],"goal":4,"start":0,"action_noise":0.1,"location_history":"[0,3,4]","action_history":"[1,1]","mutagen_history":"[0,0]","location_rts":"[1387,507]","trial_type":"fractal-mutation","trial_index":93,"time_elapsed":1753732,"internal_node_id":"0.0-5.0-39.0"},{"group":"tri cycles (cube, non-group)","fractal_assignment":["../images/ylw_slt.png","../images/pnk_blu.png","../images/blu_wht.png","../images/gry_blk.png","../images/ylw_pnk.png","../images/org_blu.png","../images/grn_red.png","../images/cyn_red.png"],"mutagen_generator_assignment":[1,0],"goal":0,"start":4,"action_noise":0.1,"location_history":"[4,0]","action_history":"[1]","mutagen_history":"[0]","location_rts":"[1004]","trial_type":"fractal-mutation","trial_index":94,"time_elapsed":1759272,"internal_node_id":"0.0-5.0-40.0"},{"group":"tri cycles (cube, non-group)","fractal_assignment":["../images/ylw_slt.png","../images/pnk_blu.png","../images/blu_wht.png","../images/gry_blk.png","../images/ylw_pnk.png","../images/org_blu.png","../images/grn_red.png","../images/cyn_red.png"],"mutagen_generator_assignment":[1,0],"goal":2,"start":0,"action_noise":0.1,"location_history":"[0,3,4,0,3,4,0,3,7,6,5,2]","action_history":"[1,1,1,1,1,1,1,0,0,1,1]","mutagen_history":"[0,0,0,0,0,0,0,1,1,0,0]","location_rts":"[2367,475,313,379,862,628,590,1132,1037,7170,775]","trial_type":"fractal-mutation","trial_index":95,"time_elapsed":1789721,"internal_node_id":"0.0-5.0-41.0"},{"group":"tri cycles (cube, non-group)","fractal_assignment":["../images/ylw_slt.png","../images/pnk_blu.png","../images/blu_wht.png","../images/gry_blk.png","../images/ylw_pnk.png","../images/org_blu.png","../images/grn_red.png","../images/cyn_red.png"],"mutagen_generator_assignment":[1,0],"goal":3,"start":2,"action_noise":0.1,"location_history":"[2,1,5,2,6,5,2,6,5,2,1,5,2,6,5,2,6,5,1,5,2,6,4,0,3]","action_history":"[0,1,1,1,1,1,1,1,1,1,1,1,1,0,1,1,1,0,1,1,1,0,1,1]","mutagen_history":"[1,0,0,0,0,0,0,0,0,0,0,0,0,1,0,0,0,1,0,0,0,1,0,0]","location_rts":"[1109,565,252,451,340,318,385,419,362,361,372,321,374,484,331,373,472,286,360,309,409,322,618,434]","trial_type":"fractal-mutation","trial_index":96,"time_elapsed":1828079,"internal_node_id":"0.0-5.0-42.0"},{"group":"tri cycles (cube, non-group)","fractal_assignment":["../images/ylw_slt.png","../images/pnk_blu.png","../images/blu_wht.png","../images/gry_blk.png","../images/ylw_pnk.png","../images/org_blu.png","../images/grn_red.png","../images/cyn_red.png"],"mutagen_generator_assignment":[1,0],"goal":5,"start":3,"action_noise":0.1,"location_history":"[3,4,0,3,4,0,3,4,0,2,6,5]","action_history":"[1,1,1,1,1,1,1,1,0,1,1]","mutagen_history":"[0,0,0,0,0,0,0,0,1,0,0]","location_rts":"[1062,390,343,315,411,522,566,309,454,296,345]","trial_type":"fractal-mutation","trial_index":97,"time_elapsed":1847772,"internal_node_id":"0.0-5.0-43.0"},{"group":"tri cycles (cube, non-group)","fractal_assignment":["../images/ylw_slt.png","../images/pnk_blu.png","../images/blu_wht.png","../images/gry_blk.png","../images/ylw_pnk.png","../images/org_blu.png","../images/grn_red.png","../images/cyn_red.png"],"mutagen_generator_assignment":[1,0],"goal":1,"start":5,"action_noise":0.1,"location_history":"[5,2,1]","action_history":"[1,0]","mutagen_history":"[0,1]","location_rts":"[676,401]","trial_type":"fractal-mutation","trial_index":98,"time_elapsed":1854397,"internal_node_id":"0.0-5.0-44.0"},{"group":"tri cycles (cube, non-group)","fractal_assignment":["../images/ylw_slt.png","../images/pnk_blu.png","../images/blu_wht.png","../images/gry_blk.png","../images/ylw_pnk.png","../images/org_blu.png","../images/grn_red.png","../images/cyn_red.png"],"mutagen_generator_assignment":[1,0],"goal":7,"start":1,"action_noise":0.1,"location_history":"[1,5,2,1,5,2,6,5,2,6,5,2,6,4,7]","action_history":"[1,1,0,1,1,1,0,1,1,1,1,1,0,0]","mutagen_history":"[0,0,1,0,0,0,1,0,0,0,0,0,1,1]","location_rts":"[1644,857,617,331,400,179,446,426,427,442,336,564,828,607]","trial_type":"fractal-mutation","trial_index":99,"time_elapsed":1880265,"internal_node_id":"0.0-5.0-45.0"},{"group":"tri cycles (cube, non-group)","fractal_assignment":["../images/ylw_slt.png","../images/pnk_blu.png","../images/blu_wht.png","../images/gry_blk.png","../images/ylw_pnk.png","../images/org_blu.png","../images/grn_red.png","../images/cyn_red.png"],"mutagen_generator_assignment":[1,0],"goal":6,"start":7,"action_noise":0.1,"location_history":"[7,3,4,0,3,4,7,3,4,0,2,6]","action_history":"[1,1,1,1,1,0,0,0,1,0,1]","mutagen_history":"[0,0,0,0,0,1,1,1,0,1,0]","location_rts":"[1143,402,428,498,367,437,395,697,351,292,314]","trial_type":"fractal-mutation","trial_index":100,"time_elapsed":1900356,"internal_node_id":"0.0-5.0-46.0"},{"group":"tri cycles (cube, non-group)","fractal_assignment":["../images/ylw_slt.png","../images/pnk_blu.png","../images/blu_wht.png","../images/gry_blk.png","../images/ylw_pnk.png","../images/org_blu.png","../images/grn_red.png","../images/cyn_red.png"],"mutagen_generator_assignment":[1,0],"goal":3,"start":6,"action_noise":0.1,"location_history":"[6,5,2,6,4,7,3]","action_history":"[1,1,1,0,1,1]","mutagen_history":"[0,0,0,1,0,0]","location_rts":"[1299,402,600,689,356,709]","trial_type":"fractal-mutation","trial_index":101,"time_elapsed":1914019,"internal_node_id":"0.0-5.0-47.0"},{"group":"tri cycles (cube, non-group)","fractal_assignment":["../images/ylw_slt.png","../images/pnk_blu.png","../images/blu_wht.png","../images/gry_blk.png","../images/ylw_pnk.png","../images/org_blu.png","../images/grn_red.png","../images/cyn_red.png"],"mutagen_generator_assignment":[1,0],"goal":0,"start":3,"action_noise":0.1,"location_history":"[3,4,0]","action_history":"[1,1]","mutagen_history":"[0,0]","location_rts":"[729,589]","trial_type":"fractal-mutation","trial_index":102,"time_elapsed":1920871,"internal_node_id":"0.0-5.0-48.0"},{"group":"tri cycles (cube, non-group)","fractal_assignment":["../images/ylw_slt.png","../images/pnk_blu.png","../images/blu_wht.png","../images/gry_blk.png","../images/ylw_pnk.png","../images/org_blu.png","../images/grn_red.png","../images/cyn_red.png"],"mutagen_generator_assignment":[1,0],"goal":2,"start":0,"action_noise":0.1,"location_history":"[0,2]","action_history":"[0]","mutagen_history":"[1]","location_rts":"[1197]","trial_type":"fractal-mutation","trial_index":103,"time_elapsed":1926593,"internal_node_id":"0.0-5.0-49.0"},{"view_history":"[{\"page_index\":0,\"viewing_time\":17506}]","rt":17506,"trial_type":"instructions","trial_index":104,"time_elapsed":1945100,"internal_node_id":"0.0-6.0"},{"rt":12987,"responses":"{\"Q0\":\"\"}","trial_type":"survey-text","trial_index":105,"time_elapsed":1959094,"internal_node_id":"0.0-7.0"}]