[{"view_history":"[{\"page_index\":0,\"viewing_time\":13910},{\"page_index\":1,\"viewing_time\":416901},{\"page_index\":2,\"viewing_time\":22184},{\"page_index\":3,\"viewing_time\":12016}]","rt":465012,"trial_type":"instructions","trial_index":0,"time_elapsed":465013,"internal_node_id":"0.0-0.0"},{"view_history":"[{\"page_index\":0,\"viewing_time\":8311},{\"page_index\":1,\"viewing_time\":38947}]","rt":47258,"trial_type":"instructions","trial_index":1,"time_elapsed":513274,"internal_node_id":"0.0-1.0"},{"group":"tri cycles (cube, non-group)","room_assignment":["red","grey","yellow","pink","green","purple","brown","blue"],"door_color_assignment":["white","black"],"door_generator_assignment":[1,0],"goal":3,"start":0,"action_noise":0.1,"location_history":"[0,2,1,0,2,1,0,2,1,0,2,1,0,2,6,4,0,3]","action_history":"[0,0,0,0,0,0,0,0,0,0,0,0,0,1,1,1,1]","door_history":"[1,1,1,1,1,1,1,1,1,1,1,1,1,0,0,0,0]","location_rts":"[9016,2825,855,8345,700,766,595,694,472,538,543,1029,962,1390,1301,853,1249]","trial_type":"two-door-navigation","trial_index":2,"time_elapsed":567195,"internal_node_id":"0.0-2.0-0.0"},{"group":"tri cycles (cube, non-group)","room_assignment":["red","grey","yellow","pink","green","purple","brown","blue"],"door_color_assignment":["white","black"],"door_generator_assignment":[1,0],"goal":1,"start":3,"action_noise":0.1,"location_history":"[3,4,0,3,4,7,6,4,7,6,4,0,3,4,7,3,4,0,3,4,0,3,4,7,3,7,6,5,1]","action_history":"[1,1,0,0,0,0,0,0,0,0,1,1,1,1,1,1,1,1,1,1,1,1,1,0,0,0,1,0]","door_history":"[0,0,1,1,1,1,1,1,1,1,0,0,0,0,0,0,0,0,0,0,0,0,0,1,1,1,0,1]","location_rts":"[4013,1002,865,1332,758,657,669,821,621,716,1192,482,480,536,673,1874,718,549,600,484,531,654,513,1036,437,1036,984,532]","trial_type":"two-door-navigation","trial_index":3,"time_elapsed":625601,"internal_node_id":"0.0-2.0-1.0"},{"group":"tri cycles (cube, non-group)","room_assignment":["red","grey","yellow","pink","green","purple","brown","blue"],"door_color_assignment":["white","black"],"door_generator_assignment":[1,0],"goal":2,"start":1,"action_noise":0.1,"location_history":"[1,0,2]","action_history":"[0,0]","door_history":"[1,1]","location_rts":"[6897,883]","trial_type":"two-door-navigation","trial_index":4,"time_elapsed":639022,"internal_node_id":"0.0-2.0-2.0"},{"group":"tri cycles (cube, non-group)","room_assignment":["red","grey","yellow","pink","green","purple","brown","blue"],"door_color_assignment":["white","black"],"door_generator_assignment":[1,0],"goal":6,"start":2,"action_noise":0.1,"location_history":"[2,1,5,2,6]","action_history":"[1,1,1,1]","door_history":"[0,0,0,0]","location_rts":"[2455,662,608,581]","trial_type":"two-door-navigation","trial_index":5,"time_elapsed":651122,"internal_node_id":"0.0-2.0-3.0"},{"group":"tri cycles (cube, non-group)","room_assignment":["red","grey","yellow","pink","green","purple","brown","blue"],"door_color_assignment":["white","black"],"door_generator_assignment":[1,0],"goal":5,"start":6,"action_noise":0.1,"location_history":"[6,4,7,6,5]","action_history":"[0,0,0,0]","door_history":"[1,1,1,1]","location_rts":"[1515,609,586,388]","trial_type":"two-door-navigation","trial_index":6,"time_elapsed":662032,"internal_node_id":"0.0-2.0-4.0"},{"group":"tri cycles (cube, non-group)","room_assignment":["red","grey","yellow","pink","green","purple","brown","blue"],"door_color_assignment":["white","black"],"door_generator_assignment":[1,0],"goal":4,"start":5,"action_noise":0.1,"location_history":"[5,2,6,5,2,1,0,3,7,6,4]","action_history":"[1,1,1,1,1,1,1,0,0,0]","door_history":"[0,0,0,0,0,0,0,1,1,1]","location_rts":"[1832,463,416,388,684,448,441,1159,482,518]","trial_type":"two-door-navigation","trial_index":7,"time_elapsed":683066,"internal_node_id":"0.0-2.0-5.0"},{"group":"tri cycles (cube, non-group)","room_assignment":["red","grey","yellow","pink","green","purple","brown","blue"],"door_color_assignment":["white","black"],"door_generator_assignment":[1,0],"goal":7,"start":4,"action_noise":0.1,"location_history":"[4,0,3,7]","action_history":"[1,1,1]","door_history":"[0,0,0]","location_rts":"[4591,593,596]","trial_type":"two-door-navigation","trial_index":8,"time_elapsed":695592,"internal_node_id":"0.0-2.0-6.0"},{"group":"tri cycles (cube, non-group)","room_assignment":["red","grey","yellow","pink","green","purple","brown","blue"],"door_color_assignment":["white","black"],"door_generator_assignment":[1,0],"goal":4,"start":7,"action_noise":0.1,"location_history":"[7,6,4]","action_history":"[0,0]","door_history":"[1,1]","location_rts":"[1933,519]","trial_type":"two-door-navigation","trial_index":9,"time_elapsed":703713,"internal_node_id":"0.0-2.0-7.0"},{"group":"tri cycles (cube, non-group)","room_assignment":["red","grey","yellow","pink","green","purple","brown","blue"],"door_color_assignment":["white","black"],"door_generator_assignment":[1,0],"goal":6,"start":4,"action_noise":0.1,"location_history":"[4,7,6]","action_history":"[0,0]","door_history":"[1,1]","location_rts":"[1146,582]","trial_type":"two-door-navigation","trial_index":10,"time_elapsed":711111,"internal_node_id":"0.0-2.0-8.0"},{"group":"tri cycles (cube, non-group)","room_assignment":["red","grey","yellow","pink","green","purple","brown","blue"],"door_color_assignment":["white","black"],"door_generator_assignment":[1,0],"goal":0,"start":6,"action_noise":0.1,"location_history":"[6,5,2,6,5,2,6,5,2,1,0]","action_history":"[1,1,1,1,1,1,1,1,0,0]","door_history":"[0,0,0,0,0,0,0,0,1,1]","location_rts":"[1926,642,486,433,571,483,537,456,372,435]","trial_type":"two-door-navigation","trial_index":11,"time_elapsed":731695,"internal_node_id":"0.0-2.0-9.0"},{"group":"tri cycles (cube, non-group)","room_assignment":["red","grey","yellow","pink","green","purple","brown","blue"],"door_color_assignment":["white","black"],"door_generator_assignment":[1,0],"goal":1,"start":0,"action_noise":0.1,"location_history":"[0,2,1]","action_history":"[0,0]","door_history":"[1,1]","location_rts":"[5104,491]","trial_type":"two-door-navigation","trial_index":12,"time_elapsed":742930,"internal_node_id":"0.0-2.0-10.0"},{"group":"tri cycles (cube, non-group)","room_assignment":["red","grey","yellow","pink","green","purple","brown","blue"],"door_color_assignment":["white","black"],"door_generator_assignment":[1,0],"goal":3,"start":1,"action_noise":0.1,"location_history":"[1,5,2,6,4,7,3]","action_history":"[1,1,1,1,1,1]","door_history":"[0,0,0,0,0,0]","location_rts":"[3455,479,526,516,455,481]","trial_type":"two-door-navigation","trial_index":13,"time_elapsed":758823,"internal_node_id":"0.0-2.0-11.0"},{"group":"tri cycles (cube, non-group)","room_assignment":["red","grey","yellow","pink","green","purple","brown","blue"],"door_color_assignment":["white","black"],"door_generator_assignment":[1,0],"goal":7,"start":3,"action_noise":0.1,"location_history":"[3,7]","action_history":"[0]","door_history":"[1]","location_rts":"[1716]","trial_type":"two-door-navigation","trial_index":14,"time_elapsed":765110,"internal_node_id":"0.0-2.0-12.0"},{"group":"tri cycles (cube, non-group)","room_assignment":["red","grey","yellow","pink","green","purple","brown","blue"],"door_color_assignment":["white","black"],"door_generator_assignment":[1,0],"goal":5,"start":7,"action_noise":0.1,"location_history":"[7,3,4,0,3,4,0,2,1,0,2,1,0,3,4,0,2,6,5]","action_history":"[1,1,1,1,1,1,0,0,0,0,0,0,1,1,1,1,1,1]","door_history":"[0,0,0,0,0,0,1,1,1,1,1,1,0,0,0,0,0,0]","location_rts":"[1983,554,582,667,472,741,840,473,769,523,655,618,751,664,544,766,652,629]","trial_type":"two-door-navigation","trial_index":15,"time_elapsed":800840,"internal_node_id":"0.0-2.0-13.0"},{"group":"tri cycles (cube, non-group)","room_assignment":["red","grey","yellow","pink","green","purple","brown","blue"],"door_color_assignment":["white","black"],"door_generator_assignment":[1,0],"goal":2,"start":5,"action_noise":0.1,"location_history":"[5,1,5,1,5,2]","action_history":"[0,0,0,0,1]","door_history":"[1,1,1,1,0]","location_rts":"[2775,648,626,458,1165]","trial_type":"two-door-navigation","trial_index":16,"time_elapsed":815388,"internal_node_id":"0.0-2.0-14.0"},{"group":"tri cycles (cube, non-group)","room_assignment":["red","grey","yellow","pink","green","purple","brown","blue"],"door_color_assignment":["white","black"],"door_generator_assignment":[1,0],"goal":7,"start":2,"action_noise":0.1,"location_history":"[2,1,0,2,6,4,0,3,4,0,3,7]","action_history":"[0,0,0,0,0,1,1,1,1,1,0]","door_history":"[1,1,1,1,1,0,0,0,0,0,1]","location_rts":"[1735,590,477,525,736,938,966,846,641,718,1005]","trial_type":"two-door-navigation","trial_index":17,"time_elapsed":839909,"internal_node_id":"0.0-2.0-15.0"},{"group":"tri cycles (cube, non-group)","room_assignment":["red","grey","yellow","pink","green","purple","brown","blue"],"door_color_assignment":["white","black"],"door_generator_assignment":[1,0],"goal":4,"start":7,"action_noise":0.1,"location_history":"[7,3,4]","action_history":"[1,1]","door_history":"[0,0]","location_rts":"[6693,542]","trial_type":"two-door-navigation","trial_index":18,"time_elapsed":852798,"internal_node_id":"0.0-2.0-16.0"},{"group":"tri cycles (cube, non-group)","room_assignment":["red","grey","yellow","pink","green","purple","brown","blue"],"door_color_assignment":["white","black"],"door_generator_assignment":[1,0],"goal":2,"start":4,"action_noise":0.1,"location_history":"[4,0,2]","action_history":"[0,0]","door_history":"[1,1]","location_rts":"[2238,823]","trial_type":"two-door-navigation","trial_index":19,"time_elapsed":861507,"internal_node_id":"0.0-2.0-17.0"},{"group":"tri cycles (cube, non-group)","room_assignment":["red","grey","yellow","pink","green","purple","brown","blue"],"door_color_assignment":["white","black"],"door_generator_assignment":[1,0],"goal":3,"start":2,"action_noise":0.1,"location_history":"[2,1,0,2,1,0,2,1,5,1,5,2,6,5,2,1,5,2,6,5,1,5,2,6,5,2,6,5,2,1,0,2,1,0,2,1,0,2,1,5,1,0,2,1,5,2,6,5,2,6,4,0,3]","action_history":"[0,0,0,0,0,0,0,0,0,0,1,1,1,1,1,1,1,1,1,1,1,1,1,1,1,1,1,1,0,0,0,0,0,0,0,0,0,0,0,0,0,0,0,0,1,1,1,1,1,1,1,1]","door_history":"[1,1,1,1,1,1,1,1,1,1,0,0,0,0,0,0,0,0,0,0,0,0,0,0,0,0,0,0,1,1,1,1,1,1,1,1,1,1,1,1,1,1,1,1,0,0,0,0,0,0,0,0]","location_rts":"[2630,2516,693,909,815,740,914,776,628,598,814,545,700,682,639,664,595,915,508,602,567,441,1752,585,540,642,639,569,1110,755,596,771,881,656,735,581,671,939,607,512,544,534,552,574,670,630,560,432,535,542,457,595]","trial_type":"two-door-navigation","trial_index":20,"time_elapsed":959927,"internal_node_id":"0.0-2.0-18.0"},{"group":"tri cycles (cube, non-group)","room_assignment":["red","grey","yellow","pink","green","purple","brown","blue"],"door_color_assignment":["white","black"],"door_generator_assignment":[1,0],"goal":6,"start":3,"action_noise":0.1,"location_history":"[3,7,6]","action_history":"[0,0]","door_history":"[1,1]","location_rts":"[9983,1124]","trial_type":"two-door-navigation","trial_index":21,"time_elapsed":976705,"internal_node_id":"0.0-2.0-19.0"},{"group":"tri cycles (cube, non-group)","room_assignment":["red","grey","yellow","pink","green","purple","brown","blue"],"door_color_assignment":["white","black"],"door_generator_assignment":[1,0],"goal":5,"start":6,"action_noise":0.1,"location_history":"[6,4,7,3,7,6,5]","action_history":"[0,0,0,0,0,1]","door_history":"[1,1,1,1,1,0]","location_rts":"[1350,1634,1205,1199,1370,980]","trial_type":"two-door-navigation","trial_index":22,"time_elapsed":994416,"internal_node_id":"0.0-2.0-20.0"},{"group":"tri cycles (cube, non-group)","room_assignment":["red","grey","yellow","pink","green","purple","brown","blue"],"door_color_assignment":["white","black"],"door_generator_assignment":[1,0],"goal":1,"start":5,"action_noise":0.1,"location_history":"[5,2,1]","action_history":"[1,1]","door_history":"[0,0]","location_rts":"[1946,787]","trial_type":"two-door-navigation","trial_index":23,"time_elapsed":1002815,"internal_node_id":"0.0-2.0-21.0"},{"group":"tri cycles (cube, non-group)","room_assignment":["red","grey","yellow","pink","green","purple","brown","blue"],"door_color_assignment":["white","black"],"door_generator_assignment":[1,0],"goal":0,"start":1,"action_noise":0.1,"location_history":"[1,0]","action_history":"[0]","door_history":"[1]","location_rts":"[1207]","trial_type":"two-door-navigation","trial_index":24,"time_elapsed":1008621,"internal_node_id":"0.0-2.0-22.0"},{"group":"tri cycles (cube, non-group)","room_assignment":["red","grey","yellow","pink","green","purple","brown","blue"],"door_color_assignment":["white","black"],"door_generator_assignment":[1,0],"goal":2,"start":0,"action_noise":0.1,"location_history":"[0,2]","action_history":"[0]","door_history":"[1]","location_rts":"[935]","trial_type":"two-door-navigation","trial_index":25,"time_elapsed":1014132,"internal_node_id":"0.0-2.0-23.0"},{"group":"tri cycles (cube, non-group)","room_assignment":["red","grey","yellow","pink","green","purple","brown","blue"],"door_color_assignment":["white","black"],"door_generator_assignment":[1,0],"goal":6,"start":2,"action_noise":0.1,"location_history":"[2,6]","action_history":"[1]","door_history":"[0]","location_rts":"[1027]","trial_type":"two-door-navigation","trial_index":26,"time_elapsed":1019744,"internal_node_id":"0.0-2.0-24.0"},{"group":"tri cycles (cube, non-group)","room_assignment":["red","grey","yellow","pink","green","purple","brown","blue"],"door_color_assignment":["white","black"],"door_generator_assignment":[1,0],"goal":1,"start":6,"action_noise":0.1,"location_history":"[6,4,7,6,4,0,2,1]","action_history":"[0,0,0,0,0,0,0]","door_history":"[1,1,1,1,1,1,1]","location_rts":"[554,775,661,602,870,726,658]","trial_type":"two-door-navigation","trial_index":27,"time_elapsed":1035625,"internal_node_id":"0.0-2.0-25.0"},{"group":"tri cycles (cube, non-group)","room_assignment":["red","grey","yellow","pink","green","purple","brown","blue"],"door_color_assignment":["white","black"],"door_generator_assignment":[1,0],"goal":3,"start":1,"action_noise":0.1,"location_history":"[1,0,3]","action_history":"[0,1]","door_history":"[1,0]","location_rts":"[2516,1119]","trial_type":"two-door-navigation","trial_index":28,"time_elapsed":1044917,"internal_node_id":"0.0-2.0-26.0"},{"group":"tri cycles (cube, non-group)","room_assignment":["red","grey","yellow","pink","green","purple","brown","blue"],"door_color_assignment":["white","black"],"door_generator_assignment":[1,0],"goal":7,"start":3,"action_noise":0.1,"location_history":"[3,7]","action_history":"[0]","door_history":"[1]","location_rts":"[708]","trial_type":"two-door-navigation","trial_index":29,"time_elapsed":1050203,"internal_node_id":"0.0-2.0-27.0"},{"group":"tri cycles (cube, non-group)","room_assignment":["red","grey","yellow","pink","green","purple","brown","blue"],"door_color_assignment":["white","black"],"door_generator_assignment":[1,0],"goal":4,"start":7,"action_noise":0.1,"location_history":"[7,3,7,6,5,1,5,1,5,1,5,1,0,2,1,0,3,4]","action_history":"[1,0,0,1,0,1,0,1,0,1,0,0,0,0,1,1,1]","door_history":"[0,1,1,0,1,0,1,0,1,0,1,1,1,1,0,0,0]","location_rts":"[651,740,713,839,939,1051,1115,738,869,663,818,555,511,446,921,467,434]","trial_type":"two-door-navigation","trial_index":30,"time_elapsed":1084398,"internal_node_id":"0.0-2.0-28.0"},{"group":"tri cycles (cube, non-group)","room_assignment":["red","grey","yellow","pink","green","purple","brown","blue"],"door_color_assignment":["white","black"],"door_generator_assignment":[1,0],"goal":0,"start":4,"action_noise":0.1,"location_history":"[4,0]","action_history":"[0]","door_history":"[1]","location_rts":"[11377]","trial_type":"two-door-navigation","trial_index":31,"time_elapsed":1100357,"internal_node_id":"0.0-2.0-29.0"},{"group":"tri cycles (cube, non-group)","room_assignment":["red","grey","yellow","pink","green","purple","brown","blue"],"door_color_assignment":["white","black"],"door_generator_assignment":[1,0],"goal":5,"start":0,"action_noise":0.1,"location_history":"[0,3,4,7,6,5]","action_history":"[1,1,0,0,1]","door_history":"[0,0,1,1,0]","location_rts":"[974,817,734,589,876]","trial_type":"two-door-navigation","trial_index":32,"time_elapsed":1113235,"internal_node_id":"0.0-2.0-30.0"},{"group":"tri cycles (cube, non-group)","room_assignment":["red","grey","yellow","pink","green","purple","brown","blue"],"door_color_assignment":["white","black"],"door_generator_assignment":[1,0],"goal":3,"start":5,"action_noise":0.1,"location_history":"[5,1,0,3]","action_history":"[0,0,1]","door_history":"[1,1,0]","location_rts":"[3604,687,700]","trial_type":"two-door-navigation","trial_index":33,"time_elapsed":1124920,"internal_node_id":"0.0-2.0-31.0"},{"group":"tri cycles (cube, non-group)","room_assignment":["red","grey","yellow","pink","green","purple","brown","blue"],"door_color_assignment":["white","black"],"door_generator_assignment":[1,0],"goal":2,"start":3,"action_noise":0.1,"location_history":"[3,7,3,7,3,4,7,3,4,0,2]","action_history":"[0,0,0,1,1,1,1,1,1,1]","door_history":"[1,1,1,0,0,0,0,0,0,0]","location_rts":"[1369,717,650,917,688,538,537,640,1143,731]","trial_type":"two-door-navigation","trial_index":34,"time_elapsed":1147082,"internal_node_id":"0.0-2.0-32.0"},{"group":"tri cycles (cube, non-group)","room_assignment":["red","grey","yellow","pink","green","purple","brown","blue"],"door_color_assignment":["white","black"],"door_generator_assignment":[1,0],"goal":6,"start":2,"action_noise":0.1,"location_history":"[2,1,0,3,7,3,4,7,6]","action_history":"[0,0,1,0,1,1,0,1]","door_history":"[1,1,0,1,0,0,1,0]","location_rts":"[1850,760,1518,797,912,611,998,1020]","trial_type":"two-door-navigation","trial_index":35,"time_elapsed":1167674,"internal_node_id":"0.0-2.0-33.0"},{"group":"tri cycles (cube, non-group)","room_assignment":["red","grey","yellow","pink","green","purple","brown","blue"],"door_color_assignment":["white","black"],"door_generator_assignment":[1,0],"goal":1,"start":6,"action_noise":0.1,"location_history":"[6,5,2,6,5,1]","action_history":"[1,1,1,1,0]","door_history":"[0,0,0,0,1]","location_rts":"[11249,2493,961,971,803]","trial_type":"two-door-navigation","trial_index":36,"time_elapsed":1193003,"internal_node_id":"0.0-2.0-34.0"},{"group":"tri cycles (cube, non-group)","room_assignment":["red","grey","yellow","pink","green","purple","brown","blue"],"door_color_assignment":["white","black"],"door_generator_assignment":[1,0],"goal":7,"start":1,"action_noise":0.1,"location_history":"[1,5,1,0,2,1,5,2,1,5,1,0,3,4,0,3,4,0,3,4,7]","action_history":"[1,0,1,0,0,1,1,0,1,0,0,1,1,1,1,1,1,1,1,0]","door_history":"[0,1,0,1,1,0,0,1,0,1,1,0,0,0,0,0,0,0,0,1]","location_rts":"[1267,874,803,850,1499,1191,731,851,1309,632,948,615,474,595,684,607,518,635,448,740]","trial_type":"two-door-navigation","trial_index":37,"time_elapsed":1234224,"internal_node_id":"0.0-2.0-35.0"},{"group":"tri cycles (cube, non-group)","room_assignment":["red","grey","yellow","pink","green","purple","brown","blue"],"door_color_assignment":["white","black"],"door_generator_assignment":[1,0],"goal":4,"start":7,"action_noise":0.1,"location_history":"[7,6,4]","action_history":"[0,0]","door_history":"[1,1]","location_rts":"[6294,601]","trial_type":"two-door-navigation","trial_index":38,"time_elapsed":1246745,"internal_node_id":"0.0-2.0-36.0"},{"group":"tri cycles (cube, non-group)","room_assignment":["red","grey","yellow","pink","green","purple","brown","blue"],"door_color_assignment":["white","black"],"door_generator_assignment":[1,0],"goal":5,"start":4,"action_noise":0.1,"location_history":"[4,7,3,7,6,5]","action_history":"[0,0,0,1,1]","door_history":"[1,1,1,0,0]","location_rts":"[670,522,728,430,460]","trial_type":"two-door-navigation","trial_index":39,"time_elapsed":1258437,"internal_node_id":"0.0-2.0-37.0"},{"group":"tri cycles (cube, non-group)","room_assignment":["red","grey","yellow","pink","green","purple","brown","blue"],"door_color_assignment":["white","black"],"door_generator_assignment":[1,0],"goal":0,"start":5,"action_noise":0.1,"location_history":"[5,2,6,5,2,1,0]","action_history":"[1,1,1,1,0,0]","door_history":"[0,0,0,0,1,1]","location_rts":"[1028,506,725,615,646,413]","trial_type":"two-door-navigation","trial_index":40,"time_elapsed":1272323,"internal_node_id":"0.0-2.0-38.0"},{"group":"tri cycles (cube, non-group)","room_assignment":["red","grey","yellow","pink","green","purple","brown","blue"],"door_color_assignment":["white","black"],"door_generator_assignment":[1,0],"goal":4,"start":0,"action_noise":0.1,"location_history":"[0,3,7,6,4]","action_history":"[0,0,0,0]","door_history":"[1,1,1,1]","location_rts":"[1114,720,918,508]","trial_type":"two-door-navigation","trial_index":41,"time_elapsed":1283368,"internal_node_id":"0.0-2.0-39.0"},{"group":"tri cycles (cube, non-group)","room_assignment":["red","grey","yellow","pink","green","purple","brown","blue"],"door_color_assignment":["white","black"],"door_generator_assignment":[1,0],"goal":0,"start":4,"action_noise":0.1,"location_history":"[4,0]","action_history":"[0]","door_history":"[1]","location_rts":"[1083]","trial_type":"two-door-navigation","trial_index":42,"time_elapsed":1289037,"internal_node_id":"0.0-2.0-40.0"},{"group":"tri cycles (cube, non-group)","room_assignment":["red","grey","yellow","pink","green","purple","brown","blue"],"door_color_assignment":["white","black"],"door_generator_assignment":[1,0],"goal":2,"start":0,"action_noise":0.1,"location_history":"[0,2]","action_history":"[0]","door_history":"[1]","location_rts":"[463]","trial_type":"two-door-navigation","trial_index":43,"time_elapsed":1294081,"internal_node_id":"0.0-2.0-41.0"},{"group":"tri cycles (cube, non-group)","room_assignment":["red","grey","yellow","pink","green","purple","brown","blue"],"door_color_assignment":["white","black"],"door_generator_assignment":[1,0],"goal":3,"start":2,"action_noise":0.1,"location_history":"[2,1,0,2,1,0,2,1,0,2,1,0,2,6,5,2,6,5,2,1,0,3]","action_history":"[0,0,0,0,0,0,0,0,0,0,0,0,1,1,1,1,1,1,0,0,0]","door_history":"[1,1,1,1,1,1,1,1,1,1,1,1,0,0,0,0,0,0,1,1,1]","location_rts":"[864,5618,682,574,405,674,614,974,605,436,474,482,914,525,613,580,660,502,857,630,563]","trial_type":"two-door-navigation","trial_index":44,"time_elapsed":1338299,"internal_node_id":"0.0-2.0-42.0"},{"group":"tri cycles (cube, non-group)","room_assignment":["red","grey","yellow","pink","green","purple","brown","blue"],"door_color_assignment":["white","black"],"door_generator_assignment":[1,0],"goal":5,"start":3,"action_noise":0.1,"location_history":"[3,4,7,6,4,7,6,5]","action_history":"[0,0,0,0,0,0,0]","door_history":"[1,1,1,1,1,1,1]","location_rts":"[4437,613,571,447,592,462,395]","trial_type":"two-door-navigation","trial_index":45,"time_elapsed":1356830,"internal_node_id":"0.0-2.0-43.0"},{"group":"tri cycles (cube, non-group)","room_assignment":["red","grey","yellow","pink","green","purple","brown","blue"],"door_color_assignment":["white","black"],"door_generator_assignment":[1,0],"goal":1,"start":5,"action_noise":0.1,"location_history":"[5,1]","action_history":"[0]","door_history":"[1]","location_rts":"[1196]","trial_type":"two-door-navigation","trial_index":46,"time_elapsed":1362623,"internal_node_id":"0.0-2.0-44.0"},{"group":"tri cycles (cube, non-group)","room_assignment":["red","grey","yellow","pink","green","purple","brown","blue"],"door_color_assignment":["white","black"],"door_generator_assignment":[1,0],"goal":7,"start":1,"action_noise":0.1,"location_history":"[1,5,2,6,5,1,5,2,6,5,2,1,0,3,4,0,2,1,0,2,6,5,1,5,1,0,3,7]","action_history":"[1,1,1,1,1,1,1,1,1,1,0,0,0,0,1,0,0,0,0,1,1,0,0,0,0,1,0]","door_history":"[0,0,0,0,0,0,0,0,0,0,1,1,1,1,0,1,1,1,1,0,0,1,1,1,1,0,1]","location_rts":"[1342,601,400,757,534,9746,557,518,425,427,418,364,566,1031,821,919,585,436,410,526,586,374,477,546,435,710,613]","trial_type":"two-door-navigation","trial_index":47,"time_elapsed":1420188,"internal_node_id":"0.0-2.0-45.0"},{"group":"tri cycles (cube, non-group)","room_assignment":["red","grey","yellow","pink","green","purple","brown","blue"],"door_color_assignment":["white","black"],"door_generator_assignment":[1,0],"goal":6,"start":7,"action_noise":0.1,"location_history":"[7,6]","action_history":"[0]","door_history":"[1]","location_rts":"[1016]","trial_type":"two-door-navigation","trial_index":48,"time_elapsed":1425791,"internal_node_id":"0.0-2.0-46.0"},{"group":"tri cycles (cube, non-group)","room_assignment":["red","grey","yellow","pink","green","purple","brown","blue"],"door_color_assignment":["white","black"],"door_generator_assignment":[1,0],"goal":3,"start":6,"action_noise":0.1,"location_history":"[6,4,0,2,6,4,0,3]","action_history":"[0,1,0,1,0,1,0]","door_history":"[1,0,1,0,1,0,1]","location_rts":"[689,848,896,687,640,582,569]","trial_type":"two-door-navigation","trial_index":49,"time_elapsed":1441709,"internal_node_id":"0.0-2.0-47.0"},{"group":"tri cycles (cube, non-group)","room_assignment":["red","grey","yellow","pink","green","purple","brown","blue"],"door_color_assignment":["white","black"],"door_generator_assignment":[1,0],"goal":0,"start":3,"action_noise":0.1,"location_history":"[3,4,7,3,7,3,7,3,7,3,7,3,7,6,4,7,6,4,7,3,4,7,3,4,7,6,4,7,6,4,7,3,7,6,4,0]","action_history":"[1,0,1,0,1,0,1,0,1,0,1,0,0,0,0,0,0,0,0,0,0,1,1,0,0,0,0,0,0,0,0,0,0,0,1]","door_history":"[0,1,0,1,0,1,0,1,0,1,0,1,1,1,1,1,1,1,1,1,1,0,0,1,1,1,1,1,1,1,1,1,1,1,0]","location_rts":"[1793,742,1077,705,775,1123,697,603,726,720,714,755,603,494,498,500,491,437,435,394,418,771,629,1037,476,412,388,434,518,411,421,397,381,499,501]","trial_type":"two-door-navigation","trial_index":50,"time_elapsed":1504713,"internal_node_id":"0.0-2.0-48.0"},{"group":"tri cycles (cube, non-group)","room_assignment":["red","grey","yellow","pink","green","purple","brown","blue"],"door_color_assignment":["white","black"],"door_generator_assignment":[1,0],"goal":2,"start":0,"action_noise":0.1,"location_history":"[0,3,4,7,6,4,0,2]","action_history":"[1,1,0,0,0,1,1]","door_history":"[0,0,1,1,1,0,0]","location_rts":"[8619,789,593,437,411,521,598]","trial_type":"two-door-navigation","trial_index":51,"time_elapsed":1527691,"internal_node_id":"0.0-2.0-49.0"},{"view_history":"[{\"page_index\":0,\"viewing_time\":13766}]","rt":13766,"trial_type":"instructions","trial_index":52,"time_elapsed":1542461,"internal_node_id":"0.0-3.0"},{"view_history":"[{\"page_index\":0,\"viewing_time\":5468},{\"page_index\":1,\"viewing_time\":35811}]","rt":41279,"trial_type":"instructions","trial_index":53,"time_elapsed":1584740,"internal_node_id":"0.0-4.0"},{"group":"square cycles (cube, non-group)","fractal_assignment":["../images/grn_red.png","../images/org_blu.png","../images/gry_blk.png","../images/cyn_red.png","../images/blu_wht.png","../images/pnk_blu.png","../images/ylw_pnk.png","../images/ylw_slt.png"],"mutagen_generator_assignment":[1,0],"goal":3,"start":0,"action_noise":0.1,"location_history":"[0,4,7,3]","action_history":"[1,0,1]","mutagen_history":"[0,1,0]","location_rts":"[5489,1627,961]","trial_type":"fractal-mutation","trial_index":54,"time_elapsed":1599587,"internal_node_id":"0.0-5.0-0.0"},{"group":"square cycles (cube, non-group)","fractal_assignment":["../images/grn_red.png","../images/org_blu.png","../images/gry_blk.png","../images/cyn_red.png","../images/blu_wht.png","../images/pnk_blu.png","../images/ylw_pnk.png","../images/ylw_slt.png"],"mutagen_generator_assignment":[1,0],"goal":1,"start":3,"action_noise":0.1,"location_history":"[3,2,3,2,3,0,1]","action_history":"[0,0,1,0,0,0]","mutagen_history":"[1,1,0,1,1,1]","location_rts":"[1688,738,1092,1278,2601,725]","trial_type":"fractal-mutation","trial_index":55,"time_elapsed":1617738,"internal_node_id":"0.0-5.0-1.0"},{"group":"square cycles (cube, non-group)","fractal_assignment":["../images/grn_red.png","../images/org_blu.png","../images/gry_blk.png","../images/cyn_red.png","../images/blu_wht.png","../images/pnk_blu.png","../images/ylw_pnk.png","../images/ylw_slt.png"],"mutagen_generator_assignment":[1,0],"goal":2,"start":1,"action_noise":0.1,"location_history":"[1,2]","action_history":"[0]","mutagen_history":"[1]","location_rts":"[2183]","trial_type":"fractal-mutation","trial_index":56,"time_elapsed":1624522,"internal_node_id":"0.0-5.0-2.0"},{"group":"square cycles (cube, non-group)","fractal_assignment":["../images/grn_red.png","../images/org_blu.png","../images/gry_blk.png","../images/cyn_red.png","../images/blu_wht.png","../images/pnk_blu.png","../images/ylw_pnk.png","../images/ylw_slt.png"],"mutagen_generator_assignment":[1,0],"goal":6,"start":2,"action_noise":0.1,"location_history":"[2,3,0,1,2,3,0,4,5,1,0,4,7,6]","action_history":"[0,0,0,0,0,0,1,1,1,1,1,0,0]","mutagen_history":"[1,1,1,1,1,1,0,0,0,0,0,1,1]","location_rts":"[1359,1056,666,832,666,916,927,774,645,833,971,608,743]","trial_type":"fractal-mutation","trial_index":57,"time_elapsed":1653112,"internal_node_id":"0.0-5.0-3.0"},{"group":"square cycles (cube, non-group)","fractal_assignment":["../images/grn_red.png","../images/org_blu.png","../images/gry_blk.png","../images/cyn_red.png","../images/blu_wht.png","../images/pnk_blu.png","../images/ylw_pnk.png","../images/ylw_slt.png"],"mutagen_generator_assignment":[1,0],"goal":5,"start":6,"action_noise":0.1,"location_history":"[6,5]","action_history":"[0]","mutagen_history":"[1]","location_rts":"[3086]","trial_type":"fractal-mutation","trial_index":58,"time_elapsed":1660797,"internal_node_id":"0.0-5.0-4.0"},{"group":"square cycles (cube, non-group)","fractal_assignment":["../images/grn_red.png","../images/org_blu.png","../images/gry_blk.png","../images/cyn_red.png","../images/blu_wht.png","../images/pnk_blu.png","../images/ylw_pnk.png","../images/ylw_slt.png"],"mutagen_generator_assignment":[1,0],"goal":4,"start":5,"action_noise":0.1,"location_history":"[5,4]","action_history":"[0]","mutagen_history":"[1]","location_rts":"[1430]","trial_type":"fractal-mutation","trial_index":59,"time_elapsed":1666823,"internal_node_id":"0.0-5.0-5.0"},{"group":"square cycles (cube, non-group)","fractal_assignment":["../images/grn_red.png","../images/org_blu.png","../images/gry_blk.png","../images/cyn_red.png","../images/blu_wht.png","../images/pnk_blu.png","../images/ylw_pnk.png","../images/ylw_slt.png"],"mutagen_generator_assignment":[1,0],"goal":7,"start":4,"action_noise":0.1,"location_history":"[4,5,1,2,3,2,3,0,1,2,6,7]","action_history":"[1,1,1,0,1,0,0,0,0,0,0]","mutagen_history":"[0,0,0,1,0,1,1,1,1,1,1]","location_rts":"[1445,841,699,648,1074,719,761,553,795,834,1217]","trial_type":"fractal-mutation","trial_index":60,"time_elapsed":1691814,"internal_node_id":"0.0-5.0-6.0"},{"group":"square cycles (cube, non-group)","fractal_assignment":["../images/grn_red.png","../images/org_blu.png","../images/gry_blk.png","../images/cyn_red.png","../images/blu_wht.png","../images/pnk_blu.png","../images/ylw_pnk.png","../images/ylw_slt.png"],"mutagen_generator_assignment":[1,0],"goal":4,"start":7,"action_noise":0.1,"location_history":"[7,6,7,3,2,3,2,3,2,6,7,6,7,3,0,1,2,3,0,4]","action_history":"[1,1,1,1,0,1,0,1,1,1,1,1,1,0,0,0,0,0,1]","mutagen_history":"[0,0,0,0,1,0,1,0,0,0,0,0,0,1,1,1,1,1,0]","location_rts":"[1544,722,592,1259,631,1253,769,892,731,690,722,868,750,556,550,574,612,893,595]","trial_type":"fractal-mutation","trial_index":61,"time_elapsed":1731029,"internal_node_id":"0.0-5.0-7.0"},{"group":"square cycles (cube, non-group)","fractal_assignment":["../images/grn_red.png","../images/org_blu.png","../images/gry_blk.png","../images/cyn_red.png","../images/blu_wht.png","../images/pnk_blu.png","../images/ylw_pnk.png","../images/ylw_slt.png"],"mutagen_generator_assignment":[1,0],"goal":6,"start":4,"action_noise":0.1,"location_history":"[4,5,1,0,4,7,6]","action_history":"[1,1,1,1,0,0]","mutagen_history":"[0,0,0,0,1,1]","location_rts":"[2008,1043,652,805,563,742]","trial_type":"fractal-mutation","trial_index":62,"time_elapsed":1746838,"internal_node_id":"0.0-5.0-8.0"},{"group":"square cycles (cube, non-group)","fractal_assignment":["../images/grn_red.png","../images/org_blu.png","../images/gry_blk.png","../images/cyn_red.png","../images/blu_wht.png","../images/pnk_blu.png","../images/ylw_pnk.png","../images/ylw_slt.png"],"mutagen_generator_assignment":[1,0],"goal":0,"start":6,"action_noise":0.1,"location_history":"[6,7,3,2,6,5,1,2,3,2,6,5,4,5,4,7,6,5,4,7,3,2,6,5,4,5,4,7,3,2,6,7,6,7,3,0]","action_history":"[1,1,1,0,0,1,1,0,1,1,1,0,1,0,0,0,0,0,0,1,1,1,0,0,1,0,0,1,1,1,1,1,1,1,0]","mutagen_history":"[0,0,0,1,1,0,0,1,0,0,0,1,0,1,1,1,1,1,1,0,0,0,1,1,0,1,1,0,0,0,0,0,0,0,1]","location_rts":"[812,834,1321,729,1456,701,837,841,657,670,633,694,869,880,658,617,569,610,579,524,671,723,835,912,1490,680,699,655,501,580,586,659,617,706,1618]","trial_type":"fractal-mutation","trial_index":63,"time_elapsed":1815599,"internal_node_id":"0.0-5.0-9.0"},{"group":"square cycles (cube, non-group)","fractal_assignment":["../images/grn_red.png","../images/org_blu.png","../images/gry_blk.png","../images/cyn_red.png","../images/blu_wht.png","../images/pnk_blu.png","../images/ylw_pnk.png","../images/ylw_slt.png"],"mutagen_generator_assignment":[1,0],"goal":1,"start":0,"action_noise":0.1,"location_history":"[0,1]","action_history":"[0]","mutagen_history":"[1]","location_rts":"[609]","trial_type":"fractal-mutation","trial_index":64,"time_elapsed":1820800,"internal_node_id":"0.0-5.0-10.0"},{"group":"square cycles (cube, non-group)","fractal_assignment":["../images/grn_red.png","../images/org_blu.png","../images/gry_blk.png","../images/cyn_red.png","../images/blu_wht.png","../images/pnk_blu.png","../images/ylw_pnk.png","../images/ylw_slt.png"],"mutagen_generator_assignment":[1,0],"goal":3,"start":1,"action_noise":0.1,"location_history":"[1,2,6,7,3]","action_history":"[1,1,1,1]","mutagen_history":"[0,0,0,0]","location_rts":"[944,646,543,429]","trial_type":"fractal-mutation","trial_index":65,"time_elapsed":1831159,"internal_node_id":"0.0-5.0-11.0"},{"group":"square cycles (cube, non-group)","fractal_assignment":["../images/grn_red.png","../images/org_blu.png","../images/gry_blk.png","../images/cyn_red.png","../images/blu_wht.png","../images/pnk_blu.png","../images/ylw_pnk.png","../images/ylw_slt.png"],"mutagen_generator_assignment":[1,0],"goal":7,"start":3,"action_noise":0.1,"location_history":"[3,0,1,2,3,0,1,2,6,7]","action_history":"[0,0,0,0,0,0,0,1,1]","mutagen_history":"[1,1,1,1,1,1,1,0,0]","location_rts":"[1642,902,497,587,485,1168,740,485,758]","trial_type":"fractal-mutation","trial_index":66,"time_elapsed":1851689,"internal_node_id":"0.0-5.0-12.0"},{"group":"square cycles (cube, non-group)","fractal_assignment":["../images/grn_red.png","../images/org_blu.png","../images/gry_blk.png","../images/cyn_red.png","../images/blu_wht.png","../images/pnk_blu.png","../images/ylw_pnk.png","../images/ylw_slt.png"],"mutagen_generator_assignment":[1,0],"goal":5,"start":7,"action_noise":0.1,"location_history":"[7,6,5]","action_history":"[0,0]","mutagen_history":"[1,1]","location_rts":"[1050,649]","trial_type":"fractal-mutation","trial_index":67,"time_elapsed":1859060,"internal_node_id":"0.0-5.0-13.0"},{"group":"square cycles (cube, non-group)","fractal_assignment":["../images/grn_red.png","../images/org_blu.png","../images/gry_blk.png","../images/cyn_red.png","../images/blu_wht.png","../images/pnk_blu.png","../images/ylw_pnk.png","../images/ylw_slt.png"],"mutagen_generator_assignment":[1,0],"goal":2,"start":5,"action_noise":0.1,"location_history":"[5,1,0,1,0,4,5,4,5,1,0,4,5,4,7,6,5,4,5,1,0,4,7,6,7,6,7,3,2]","action_history":"[1,1,0,1,1,1,0,1,1,1,1,1,0,0,0,0,0,1,1,0,1,0,0,1,0,1,1,1]","mutagen_history":"[0,0,1,0,0,0,1,0,0,0,0,0,1,1,1,1,1,0,0,1,0,1,1,0,1,0,0,0]","location_rts":"[1668,923,501,704,902,790,1629,751,614,704,757,739,542,719,458,1080,773,556,574,800,814,649,616,707,1341,582,564,586]","trial_type":"fractal-mutation","trial_index":68,"time_elapsed":1914862,"internal_node_id":"0.0-5.0-14.0"},{"group":"square cycles (cube, non-group)","fractal_assignment":["../images/grn_red.png","../images/org_blu.png","../images/gry_blk.png","../images/cyn_red.png","../images/blu_wht.png","../images/pnk_blu.png","../images/ylw_pnk.png","../images/ylw_slt.png"],"mutagen_generator_assignment":[1,0],"goal":7,"start":2,"action_noise":0.1,"location_history":"[2,3,0,1,2,3,0,1,0,1,2,6,5,4,5,4,5,4,7]","action_history":"[0,0,0,0,0,0,0,0,0,0,0,0,0,1,0,1,0,0]","mutagen_history":"[1,1,1,1,1,1,1,1,1,1,1,1,1,0,1,0,1,1]","location_rts":"[1034,627,545,614,449,619,484,564,575,636,578,601,599,479,482,379,481,665]","trial_type":"fractal-mutation","trial_index":69,"time_elapsed":1948257,"internal_node_id":"0.0-5.0-15.0"},{"group":"square cycles (cube, non-group)","fractal_assignment":["../images/grn_red.png","../images/org_blu.png","../images/gry_blk.png","../images/cyn_red.png","../images/blu_wht.png","../images/pnk_blu.png","../images/ylw_pnk.png","../images/ylw_slt.png"],"mutagen_generator_assignment":[1,0],"goal":4,"start":7,"action_noise":0.1,"location_history":"[7,3,0,1,2,6,5,1,2,6,5,4]","action_history":"[1,0,0,0,1,0,1,0,1,0,1]","mutagen_history":"[0,1,1,1,0,1,0,1,0,1,0]","location_rts":"[7869,498,696,760,997,780,807,1458,601,522,389]","trial_type":"fractal-mutation","trial_index":70,"time_elapsed":1979055,"internal_node_id":"0.0-5.0-16.0"},{"group":"square cycles (cube, non-group)","fractal_assignment":["../images/grn_red.png","../images/org_blu.png","../images/gry_blk.png","../images/cyn_red.png","../images/blu_wht.png","../images/pnk_blu.png","../images/ylw_pnk.png","../images/ylw_slt.png"],"mutagen_generator_assignment":[1,0],"goal":2,"start":4,"action_noise":0.1,"location_history":"[4,5,4,5,4,5,1,0,4,5,1,2]","action_history":"[1,0,1,0,1,0,0,1,1,1,0]","mutagen_history":"[0,1,0,1,0,1,1,0,0,0,1]","location_rts":"[631,594,608,608,599,599,657,454,553,541,795]","trial_type":"fractal-mutation","trial_index":71,"time_elapsed":2001111,"internal_node_id":"0.0-5.0-17.0"},{"group":"square cycles (cube, non-group)","fractal_assignment":["../images/grn_red.png","../images/org_blu.png","../images/gry_blk.png","../images/cyn_red.png","../images/blu_wht.png","../images/pnk_blu.png","../images/ylw_pnk.png","../images/ylw_slt.png"],"mutagen_generator_assignment":[1,0],"goal":3,"start":2,"action_noise":0.1,"location_history":"[2,3]","action_history":"[0]","mutagen_history":"[1]","location_rts":"[1162]","trial_type":"fractal-mutation","trial_index":72,"time_elapsed":2006867,"internal_node_id":"0.0-5.0-18.0"},{"group":"square cycles (cube, non-group)","fractal_assignment":["../images/grn_red.png","../images/org_blu.png","../images/gry_blk.png","../images/cyn_red.png","../images/blu_wht.png","../images/pnk_blu.png","../images/ylw_pnk.png","../images/ylw_slt.png"],"mutagen_generator_assignment":[1,0],"goal":6,"start":3,"action_noise":0.1,"location_history":"[3,2,6]","action_history":"[0,1]","mutagen_history":"[1,0]","location_rts":"[1401,543]","trial_type":"fractal-mutation","trial_index":73,"time_elapsed":2014495,"internal_node_id":"0.0-5.0-19.0"},{"group":"square cycles (cube, non-group)","fractal_assignment":["../images/grn_red.png","../images/org_blu.png","../images/gry_blk.png","../images/cyn_red.png","../images/blu_wht.png","../images/pnk_blu.png","../images/ylw_pnk.png","../images/ylw_slt.png"],"mutagen_generator_assignment":[1,0],"goal":5,"start":6,"action_noise":0.1,"location_history":"[6,5]","action_history":"[0]","mutagen_history":"[1]","location_rts":"[1356]","trial_type":"fractal-mutation","trial_index":74,"time_elapsed":2020436,"internal_node_id":"0.0-5.0-20.0"},{"group":"square cycles (cube, non-group)","fractal_assignment":["../images/grn_red.png","../images/org_blu.png","../images/gry_blk.png","../images/cyn_red.png","../images/blu_wht.png","../images/pnk_blu.png","../images/ylw_pnk.png","../images/ylw_slt.png"],"mutagen_generator_assignment":[1,0],"goal":1,"start":5,"action_noise":0.1,"location_history":"[5,4,5,4,7,6,5,1]","action_history":"[1,1,0,0,0,0,1]","mutagen_history":"[0,0,1,1,1,1,0]","location_rts":"[1168,655,484,403,557,1110,816]","trial_type":"fractal-mutation","trial_index":75,"time_elapsed":2036704,"internal_node_id":"0.0-5.0-21.0"},{"group":"square cycles (cube, non-group)","fractal_assignment":["../images/grn_red.png","../images/org_blu.png","../images/gry_blk.png","../images/cyn_red.png","../images/blu_wht.png","../images/pnk_blu.png","../images/ylw_pnk.png","../images/ylw_slt.png"],"mutagen_generator_assignment":[1,0],"goal":0,"start":1,"action_noise":0.1,"location_history":"[1,0]","action_history":"[1]","mutagen_history":"[0]","location_rts":"[8502]","trial_type":"fractal-mutation","trial_index":76,"time_elapsed":2049796,"internal_node_id":"0.0-5.0-22.0"},{"group":"square cycles (cube, non-group)","fractal_assignment":["../images/grn_red.png","../images/org_blu.png","../images/gry_blk.png","../images/cyn_red.png","../images/blu_wht.png","../images/pnk_blu.png","../images/ylw_pnk.png","../images/ylw_slt.png"],"mutagen_generator_assignment":[1,0],"goal":2,"start":0,"action_noise":0.1,"location_history":"[0,4,5,4,5,1,2]","action_history":"[1,1,0,1,1,0]","mutagen_history":"[0,0,1,0,0,1]","location_rts":"[761,600,537,593,492,651]","trial_type":"fractal-mutation","trial_index":77,"time_elapsed":2063419,"internal_node_id":"0.0-5.0-23.0"},{"group":"square cycles (cube, non-group)","fractal_assignment":["../images/grn_red.png","../images/org_blu.png","../images/gry_blk.png","../images/cyn_red.png","../images/blu_wht.png","../images/pnk_blu.png","../images/ylw_pnk.png","../images/ylw_slt.png"],"mutagen_generator_assignment":[1,0],"goal":6,"start":2,"action_noise":0.1,"location_history":"[2,3,2,6]","action_history":"[0,1,1]","mutagen_history":"[1,0,0]","location_rts":"[629,1331,743]","trial_type":"fractal-mutation","trial_index":78,"time_elapsed":2072886,"internal_node_id":"0.0-5.0-24.0"},{"group":"square cycles (cube, non-group)","fractal_assignment":["../images/grn_red.png","../images/org_blu.png","../images/gry_blk.png","../images/cyn_red.png","../images/blu_wht.png","../images/pnk_blu.png","../images/ylw_pnk.png","../images/ylw_slt.png"],"mutagen_generator_assignment":[1,0],"goal":1,"start":6,"action_noise":0.1,"location_history":"[6,5,1]","action_history":"[0,1]","mutagen_history":"[1,0]","location_rts":"[691,615]","trial_type":"fractal-mutation","trial_index":79,"time_elapsed":2079872,"internal_node_id":"0.0-5.0-25.0"},{"group":"square cycles (cube, non-group)","fractal_assignment":["../images/grn_red.png","../images/org_blu.png","../images/gry_blk.png","../images/cyn_red.png","../images/blu_wht.png","../images/pnk_blu.png","../images/ylw_pnk.png","../images/ylw_slt.png"],"mutagen_generator_assignment":[1,0],"goal":3,"start":1,"action_noise":0.1,"location_history":"[1,2,6,5,4,5,1,0,1,2,3]","action_history":"[0,1,0,0,0,1,1,0,0,1]","mutagen_history":"[1,0,1,1,1,0,0,1,1,0]","location_rts":"[948,616,1084,509,905,866,647,972,1582,641]","trial_type":"fractal-mutation","trial_index":80,"time_elapsed":2102979,"internal_node_id":"0.0-5.0-26.0"},{"group":"square cycles (cube, non-group)","fractal_assignment":["../images/grn_red.png","../images/org_blu.png","../images/gry_blk.png","../images/cyn_red.png","../images/blu_wht.png","../images/pnk_blu.png","../images/ylw_pnk.png","../images/ylw_slt.png"],"mutagen_generator_assignment":[1,0],"goal":7,"start":3,"action_noise":0.1,"location_history":"[3,2,6,7]","action_history":"[1,1,1]","mutagen_history":"[0,0,0]","location_rts":"[704,709,548]","trial_type":"fractal-mutation","trial_index":81,"time_elapsed":2111678,"internal_node_id":"0.0-5.0-27.0"},{"group":"square cycles (cube, non-group)","fractal_assignment":["../images/grn_red.png","../images/org_blu.png","../images/gry_blk.png","../images/cyn_red.png","../images/blu_wht.png","../images/pnk_blu.png","../images/ylw_pnk.png","../images/ylw_slt.png"],"mutagen_generator_assignment":[1,0],"goal":4,"start":7,"action_noise":0.1,"location_history":"[7,6,5,4]","action_history":"[0,0,0]","mutagen_history":"[1,1,1]","location_rts":"[2005,728,588]","trial_type":"fractal-mutation","trial_index":82,"time_elapsed":2121750,"internal_node_id":"0.0-5.0-28.0"},{"group":"square cycles (cube, non-group)","fractal_assignment":["../images/grn_red.png","../images/org_blu.png","../images/gry_blk.png","../images/cyn_red.png","../images/blu_wht.png","../images/pnk_blu.png","../images/ylw_pnk.png","../images/ylw_slt.png"],"mutagen_generator_assignment":[1,0],"goal":0,"start":4,"action_noise":0.1,"location_history":"[4,5,4,7,6,5,4,5,4,7,6,7,6,5,4,7,3,0]","action_history":"[1,0,0,0,0,0,1,0,0,0,1,1,0,0,0,1,0]","mutagen_history":"[0,1,1,1,1,1,0,1,1,1,0,0,1,1,1,0,1]","location_rts":"[6468,666,782,506,625,572,504,567,547,1007,673,686,622,622,598,632,658]","trial_type":"fractal-mutation","trial_index":83,"time_elapsed":2160392,"internal_node_id":"0.0-5.0-29.0"},{"group":"square cycles (cube, non-group)","fractal_assignment":["../images/grn_red.png","../images/org_blu.png","../images/gry_blk.png","../images/cyn_red.png","../images/blu_wht.png","../images/pnk_blu.png","../images/ylw_pnk.png","../images/ylw_slt.png"],"mutagen_generator_assignment":[1,0],"goal":5,"start":0,"action_noise":0.1,"location_history":"[0,1,2,3,0,4,5]","action_history":"[0,0,0,0,1,1]","mutagen_history":"[1,1,1,1,0,0]","location_rts":"[810,618,728,560,740,570]","trial_type":"fractal-mutation","trial_index":84,"time_elapsed":2174422,"internal_node_id":"0.0-5.0-30.0"},{"group":"square cycles (cube, non-group)","fractal_assignment":["../images/grn_red.png","../images/org_blu.png","../images/gry_blk.png","../images/cyn_red.png","../images/blu_wht.png","../images/pnk_blu.png","../images/ylw_pnk.png","../images/ylw_slt.png"],"mutagen_generator_assignment":[1,0],"goal":3,"start":5,"action_noise":0.1,"location_history":"[5,4,7,6,5,4,7,6,5,1,0,4,7,3]","action_history":"[0,0,0,0,0,0,0,0,1,1,1,0,0]","mutagen_history":"[1,1,1,1,1,1,1,1,0,0,0,1,1]","location_rts":"[1619,558,812,707,1177,768,1178,907,692,628,1012,730,511]","trial_type":"fractal-mutation","trial_index":85,"time_elapsed":2203303,"internal_node_id":"0.0-5.0-31.0"},{"group":"square cycles (cube, non-group)","fractal_assignment":["../images/grn_red.png","../images/org_blu.png","../images/gry_blk.png","../images/cyn_red.png","../images/blu_wht.png","../images/pnk_blu.png","../images/ylw_pnk.png","../images/ylw_slt.png"],"mutagen_generator_assignment":[1,0],"goal":2,"start":3,"action_noise":0.1,"location_history":"[3,2]","action_history":"[1]","mutagen_history":"[0]","location_rts":"[10190]","trial_type":"fractal-mutation","trial_index":86,"time_elapsed":2218082,"internal_node_id":"0.0-5.0-32.0"},{"group":"square cycles (cube, non-group)","fractal_assignment":["../images/grn_red.png","../images/org_blu.png","../images/gry_blk.png","../images/cyn_red.png","../images/blu_wht.png","../images/pnk_blu.png","../images/ylw_pnk.png","../images/ylw_slt.png"],"mutagen_generator_assignment":[1,0],"goal":6,"start":2,"action_noise":0.1,"location_history":"[2,3,2,3,2,6]","action_history":"[0,1,0,1,1]","mutagen_history":"[1,0,1,0,0]","location_rts":"[2142,579,619,471,540]","trial_type":"fractal-mutation","trial_index":87,"time_elapsed":2231347,"internal_node_id":"0.0-5.0-33.0"},{"group":"square cycles (cube, non-group)","fractal_assignment":["../images/grn_red.png","../images/org_blu.png","../images/gry_blk.png","../images/cyn_red.png","../images/blu_wht.png","../images/pnk_blu.png","../images/ylw_pnk.png","../images/ylw_slt.png"],"mutagen_generator_assignment":[1,0],"goal":1,"start":6,"action_noise":0.1,"location_history":"[6,5,1]","action_history":"[0,1]","mutagen_history":"[1,0]","location_rts":"[2666,795]","trial_type":"fractal-mutation","trial_index":88,"time_elapsed":2240466,"internal_node_id":"0.0-5.0-34.0"},{"group":"square cycles (cube, non-group)","fractal_assignment":["../images/grn_red.png","../images/org_blu.png","../images/gry_blk.png","../images/cyn_red.png","../images/blu_wht.png","../images/pnk_blu.png","../images/ylw_pnk.png","../images/ylw_slt.png"],"mutagen_generator_assignment":[1,0],"goal":7,"start":1,"action_noise":0.1,"location_history":"[1,0,1,2,3,0,1,2,3,0,1,2,3,0,1,2,3,0,1,2,3,2,6,7]","action_history":"[0,0,0,0,0,0,0,0,0,0,0,0,0,0,0,0,0,0,0,1,1,1,1]","mutagen_history":"[1,1,1,1,1,1,1,1,1,1,1,1,1,1,1,1,1,1,1,0,0,0,0]","location_rts":"[834,576,525,447,437,471,367,440,413,455,445,500,445,426,521,571,177,971,468,1604,665,931,861]","trial_type":"fractal-mutation","trial_index":89,"time_elapsed":2282389,"internal_node_id":"0.0-5.0-35.0"},{"group":"square cycles (cube, non-group)","fractal_assignment":["../images/grn_red.png","../images/org_blu.png","../images/gry_blk.png","../images/cyn_red.png","../images/blu_wht.png","../images/pnk_blu.png","../images/ylw_pnk.png","../images/ylw_slt.png"],"mutagen_generator_assignment":[1,0],"goal":4,"start":7,"action_noise":0.1,"location_history":"[7,3,2,6,7,6,7,6,7,3,2,6,5,1,0,1,2,3,0,1,2,6,7,6,7,3,2,6,5,1,0,4]","action_history":"[1,1,0,1,0,1,0,1,1,1,1,1,1,1,0,0,0,0,0,1,1,1,0,1,1,1,1,0,1,1,1]","mutagen_history":"[0,0,1,0,1,0,1,0,0,0,0,0,0,0,1,1,1,1,1,0,0,0,1,0,0,0,0,1,0,0,0]","location_rts":"[3767,676,854,692,497,646,485,896,719,621,556,611,384,519,453,603,559,822,555,460,840,695,429,537,538,725,643,555,701,547,669]","trial_type":"fractal-mutation","trial_index":90,"time_elapsed":2341598,"internal_node_id":"0.0-5.0-36.0"},{"group":"square cycles (cube, non-group)","fractal_assignment":["../images/grn_red.png","../images/org_blu.png","../images/gry_blk.png","../images/cyn_red.png","../images/blu_wht.png","../images/pnk_blu.png","../images/ylw_pnk.png","../images/ylw_slt.png"],"mutagen_generator_assignment":[1,0],"goal":5,"start":4,"action_noise":0.1,"location_history":"[4,7,6,5]","action_history":"[0,0,0]","mutagen_history":"[1,1,1]","location_rts":"[1281,534,863]","trial_type":"fractal-mutation","trial_index":91,"time_elapsed":2351006,"internal_node_id":"0.0-5.0-37.0"},{"group":"square cycles (cube, non-group)","fractal_assignment":["../images/grn_red.png","../images/org_blu.png","../images/gry_blk.png","../images/cyn_red.png","../images/blu_wht.png","../images/pnk_blu.png","../images/ylw_pnk.png","../images/ylw_slt.png"],"mutagen_generator_assignment":[1,0],"goal":0,"start":5,"action_noise":0.1,"location_history":"[5,1,0]","action_history":"[1,1]","mutagen_history":"[0,0]","location_rts":"[7466,567]","trial_type":"fractal-mutation","trial_index":92,"time_elapsed":2364711,"internal_node_id":"0.0-5.0-38.0"},{"group":"square cycles (cube, non-group)","fractal_assignment":["../images/grn_red.png","../images/org_blu.png","../images/gry_blk.png","../images/cyn_red.png","../images/blu_wht.png","../images/pnk_blu.png","../images/ylw_pnk.png","../images/ylw_slt.png"],"mutagen_generator_assignment":[1,0],"goal":4,"start":0,"action_noise":0.1,"location_history":"[0,4]","action_history":"[1]","mutagen_history":"[0]","location_rts":"[893]","trial_type":"fractal-mutation","trial_index":93,"time_elapsed":2370194,"internal_node_id":"0.0-5.0-39.0"},{"group":"square cycles (cube, non-group)","fractal_assignment":["../images/grn_red.png","../images/org_blu.png","../images/gry_blk.png","../images/cyn_red.png","../images/blu_wht.png","../images/pnk_blu.png","../images/ylw_pnk.png","../images/ylw_slt.png"],"mutagen_generator_assignment":[1,0],"goal":0,"start":4,"action_noise":0.1,"location_history":"[4,7,6,5,4,7,3,0]","action_history":"[0,0,0,0,0,1,0]","mutagen_history":"[1,1,1,1,1,0,1]","location_rts":"[1339,538,2155,829,630,633,478]","trial_type":"fractal-mutation","trial_index":94,"time_elapsed":2387879,"internal_node_id":"0.0-5.0-40.0"},{"group":"square cycles (cube, non-group)","fractal_assignment":["../images/grn_red.png","../images/org_blu.png","../images/gry_blk.png","../images/cyn_red.png","../images/blu_wht.png","../images/pnk_blu.png","../images/ylw_pnk.png","../images/ylw_slt.png"],"mutagen_generator_assignment":[1,0],"goal":2,"start":0,"action_noise":0.1,"location_history":"[0,4,7,6,5,4,5,4,5,4,5,4,5,4,7,6,7,6,5,4,7,6,5,1,2]","action_history":"[1,0,0,1,0,1,0,1,0,1,0,1,0,0,0,1,0,0,0,0,0,0,0,0]","mutagen_history":"[0,1,1,0,1,0,1,0,1,0,1,0,1,1,1,0,1,1,1,1,1,1,1,1]","location_rts":"[15111,768,507,616,800,628,533,690,556,709,517,609,569,968,420,572,1490,1439,1072,1068,754,658,581,1015]","trial_type":"fractal-mutation","trial_index":95,"time_elapsed":2449988,"internal_node_id":"0.0-5.0-41.0"},{"group":"square cycles (cube, non-group)","fractal_assignment":["../images/grn_red.png","../images/org_blu.png","../images/gry_blk.png","../images/cyn_red.png","../images/blu_wht.png","../images/pnk_blu.png","../images/ylw_pnk.png","../images/ylw_slt.png"],"mutagen_generator_assignment":[1,0],"goal":3,"start":2,"action_noise":0.1,"location_history":"[2,6,7,3]","action_history":"[1,0,1]","mutagen_history":"[0,1,0]","location_rts":"[1433,466,552]","trial_type":"fractal-mutation","trial_index":96,"time_elapsed":2459195,"internal_node_id":"0.0-5.0-42.0"},{"group":"square cycles (cube, non-group)","fractal_assignment":["../images/grn_red.png","../images/org_blu.png","../images/gry_blk.png","../images/cyn_red.png","../images/blu_wht.png","../images/pnk_blu.png","../images/ylw_pnk.png","../images/ylw_slt.png"],"mutagen_generator_assignment":[1,0],"goal":5,"start":3,"action_noise":0.1,"location_history":"[3,0,1,2,6,7,3,2,3,2,3,0,1,2,3,0,1,0,1,0,4,7,6,7,6,5]","action_history":"[0,0,0,0,1,1,1,0,1,0,1,0,0,0,0,0,1,0,1,1,0,1,0,0,0]","mutagen_history":"[1,1,1,1,0,0,0,1,0,1,0,1,1,1,1,1,0,1,0,0,1,0,1,1,1]","location_rts":"[1045,558,422,516,504,415,482,568,376,509,457,1116,432,901,1206,697,546,483,656,556,632,746,764,1058,882]","trial_type":"fractal-mutation","trial_index":97,"time_elapsed":2506241,"internal_node_id":"0.0-5.0-43.0"},{"group":"square cycles (cube, non-group)","fractal_assignment":["../images/grn_red.png","../images/org_blu.png","../images/gry_blk.png","../images/cyn_red.png","../images/blu_wht.png","../images/pnk_blu.png","../images/ylw_pnk.png","../images/ylw_slt.png"],"mutagen_generator_assignment":[1,0],"goal":1,"start":5,"action_noise":0.1,"location_history":"[5,1]","action_history":"[1]","mutagen_history":"[0]","location_rts":"[798]","trial_type":"fractal-mutation","trial_index":98,"time_elapsed":2511641,"internal_node_id":"0.0-5.0-44.0"},{"group":"square cycles (cube, non-group)","fractal_assignment":["../images/grn_red.png","../images/org_blu.png","../images/gry_blk.png","../images/cyn_red.png","../images/blu_wht.png","../images/pnk_blu.png","../images/ylw_pnk.png","../images/ylw_slt.png"],"mutagen_generator_assignment":[1,0],"goal":7,"start":1,"action_noise":0.1,"location_history":"[1,2,3,2,6,5,1,0,4,7]","action_history":"[0,1,1,1,0,1,1,1,0]","mutagen_history":"[1,0,0,0,1,0,0,0,1]","location_rts":"[1025,533,780,590,1669,678,735,791,678]","trial_type":"fractal-mutation","trial_index":99,"time_elapsed":2532369,"internal_node_id":"0.0-5.0-45.0"},{"group":"square cycles (cube, non-group)","fractal_assignment":["../images/grn_red.png","../images/org_blu.png","../images/gry_blk.png","../images/cyn_red.png","../images/blu_wht.png","../images/pnk_blu.png","../images/ylw_pnk.png","../images/ylw_slt.png"],"mutagen_generator_assignment":[1,0],"goal":6,"start":7,"action_noise":0.1,"location_history":"[7,6]","action_history":"[0]","mutagen_history":"[1]","location_rts":"[827]","trial_type":"fractal-mutation","trial_index":100,"time_elapsed":2537793,"internal_node_id":"0.0-5.0-46.0"},{"group":"square cycles (cube, non-group)","fractal_assignment":["../images/grn_red.png","../images/org_blu.png","../images/gry_blk.png","../images/cyn_red.png","../images/blu_wht.png","../images/pnk_blu.png","../images/ylw_pnk.png","../images/ylw_slt.png"],"mutagen_generator_assignment":[1,0],"goal":3,"start":6,"action_noise":0.1,"location_history":"[6,5,4,5,1,0,4,5,1,2,6,7,3]","action_history":"[1,0,1,1,1,1,1,0,1,1,1,1]","mutagen_history":"[0,1,0,0,0,0,0,1,0,0,0,0]","location_rts":"[668,1088,547,909,875,2118,947,974,624,655,574,787]","trial_type":"fractal-mutation","trial_index":101,"time_elapsed":2565050,"internal_node_id":"0.0-5.0-47.0"},{"group":"square cycles (cube, non-group)","fractal_assignment":["../images/grn_red.png","../images/org_blu.png","../images/gry_blk.png","../images/cyn_red.png","../images/blu_wht.png","../images/pnk_blu.png","../images/ylw_pnk.png","../images/ylw_slt.png"],"mutagen_generator_assignment":[1,0],"goal":0,"start":3,"action_noise":0.1,"location_history":"[3,0]","action_history":"[0]","mutagen_history":"[1]","location_rts":"[906]","trial_type":"fractal-mutation","trial_index":102,"time_elapsed":2570552,"internal_node_id":"0.0-5.0-48.0"},{"group":"square cycles (cube, non-group)","fractal_assignment":["../images/grn_red.png","../images/org_blu.png","../images/gry_blk.png","../images/cyn_red.png","../images/blu_wht.png","../images/pnk_blu.png","../images/ylw_pnk.png","../images/ylw_slt.png"],"mutagen_generator_assignment":[1,0],"goal":2,"start":0,"action_noise":0.1,"location_history":"[0,4,7,3,2]","action_history":"[1,0,1,1]","mutagen_history":"[0,1,0,0]","location_rts":"[894,857,570,815]","trial_type":"fractal-mutation","trial_index":103,"time_elapsed":2581532,"internal_node_id":"0.0-5.0-49.0"},{"view_history":"[{\"page_index\":0,\"viewing_time\":30648}]","rt":30648,"trial_type":"instructions","trial_index":104,"time_elapsed":2613184,"internal_node_id":"0.0-6.0"},{"rt":2652,"responses":"{\"Q0\":\"\"}","trial_type":"survey-text","trial_index":105,"time_elapsed":2616843,"internal_node_id":"0.0-7.0"}]