[{"view_history":"[{\"page_index\":0,\"viewing_time\":8656},{\"page_index\":1,\"viewing_time\":16641},{\"page_index\":2,\"viewing_time\":10626},{\"page_index\":3,\"viewing_time\":2512}]","rt":38436,"trial_type":"instructions","trial_index":0,"time_elapsed":38436,"internal_node_id":"0.0-0.0"},{"view_history":"[{\"page_index\":0,\"viewing_time\":1206},{\"page_index\":1,\"viewing_time\":43896}]","rt":45102,"trial_type":"instructions","trial_index":1,"time_elapsed":84541,"internal_node_id":"0.0-1.0"},{"group":"tri cycles (cube, non-group)","room_assignment":["blue","green","brown","grey","purple","red","pink","yellow"],"door_color_assignment":["black","white"],"door_generator_assignment":[0,1],"goal":3,"start":0,"action_noise":0.1,"location_history":"[0,3]","action_history":"[0]","door_history":"[0]","location_rts":"[3445]","trial_type":"two-door-navigation","trial_index":2,"time_elapsed":92561,"internal_node_id":"0.0-2.0-0.0"},{"group":"tri cycles (cube, non-group)","room_assignment":["blue","green","brown","grey","purple","red","pink","yellow"],"door_color_assignment":["black","white"],"door_generator_assignment":[0,1],"goal":1,"start":3,"action_noise":0.1,"location_history":"[3,7,6,4,7,3,4,7,3,7,3,4,0,2,1]","action_history":"[0,0,0,0,1,1,0,1,0,1,1,1,0,0]","door_history":"[0,0,0,0,1,1,0,1,0,1,1,1,0,0]","location_rts":"[2355,3196,2232,1530,1133,1471,1835,1841,606,1555,1696,599,4058,1081]","trial_type":"two-door-navigation","trial_index":3,"time_elapsed":135539,"internal_node_id":"0.0-2.0-1.0"},{"group":"tri cycles (cube, non-group)","room_assignment":["blue","green","brown","grey","purple","red","pink","yellow"],"door_color_assignment":["black","white"],"door_generator_assignment":[0,1],"goal":2,"start":1,"action_noise":0.1,"location_history":"[1,5,1,0,2]","action_history":"[1,0,0,0]","door_history":"[1,0,0,0]","location_rts":"[3624,1636,2774,1068]","trial_type":"two-door-navigation","trial_index":4,"time_elapsed":152233,"internal_node_id":"0.0-2.0-2.0"},{"group":"tri cycles (cube, non-group)","room_assignment":["blue","green","brown","grey","purple","red","pink","yellow"],"door_color_assignment":["black","white"],"door_generator_assignment":[0,1],"goal":6,"start":2,"action_noise":0.1,"location_history":"[2,6]","action_history":"[1]","door_history":"[1]","location_rts":"[5998]","trial_type":"two-door-navigation","trial_index":5,"time_elapsed":162756,"internal_node_id":"0.0-2.0-3.0"},{"group":"tri cycles (cube, non-group)","room_assignment":["blue","green","brown","grey","purple","red","pink","yellow"],"door_color_assignment":["black","white"],"door_generator_assignment":[0,1],"goal":5,"start":6,"action_noise":0.1,"location_history":"[6,4,7,3,4,0,3,4,0,3,7,3,7,6,4,7,6,5]","action_history":"[0,0,1,1,1,1,1,1,1,0,1,0,0,0,0,0,1]","door_history":"[0,0,1,1,1,1,1,1,1,0,1,0,0,0,0,0,1]","location_rts":"[3861,808,1111,396,471,443,425,497,604,854,963,318,1561,1237,1086,513,1094]","trial_type":"two-door-navigation","trial_index":6,"time_elapsed":199852,"internal_node_id":"0.0-2.0-4.0"},{"group":"tri cycles (cube, non-group)","room_assignment":["blue","green","brown","grey","purple","red","pink","yellow"],"door_color_assignment":["black","white"],"door_generator_assignment":[0,1],"goal":4,"start":5,"action_noise":0.1,"location_history":"[5,1,5,2,1,5,2,6,5,1,5,1,0,2,1,5,1,0,3,4]","action_history":"[0,1,1,1,1,1,0,0,0,0,0,0,1,0,0,0,0,1,1]","door_history":"[0,1,1,1,1,1,0,0,0,0,0,0,1,0,0,0,0,1,1]","location_rts":"[2409,2486,2327,342,363,348,730,355,363,324,279,419,991,521,575,417,418,1210,879]","trial_type":"two-door-navigation","trial_index":7,"time_elapsed":238509,"internal_node_id":"0.0-2.0-5.0"},{"group":"tri cycles (cube, non-group)","room_assignment":["blue","green","brown","grey","purple","red","pink","yellow"],"door_color_assignment":["black","white"],"door_generator_assignment":[0,1],"goal":7,"start":4,"action_noise":0.1,"location_history":"[4,7]","action_history":"[0]","door_history":"[0]","location_rts":"[4746]","trial_type":"two-door-navigation","trial_index":8,"time_elapsed":247780,"internal_node_id":"0.0-2.0-6.0"},{"group":"tri cycles (cube, non-group)","room_assignment":["blue","green","brown","grey","purple","red","pink","yellow"],"door_color_assignment":["black","white"],"door_generator_assignment":[0,1],"goal":4,"start":7,"action_noise":0.1,"location_history":"[7,3,7,6,4]","action_history":"[0,0,0,0]","door_history":"[0,0,0,0]","location_rts":"[3153,427,363,908]","trial_type":"two-door-navigation","trial_index":9,"time_elapsed":260219,"internal_node_id":"0.0-2.0-7.0"},{"group":"tri cycles (cube, non-group)","room_assignment":["blue","green","brown","grey","purple","red","pink","yellow"],"door_color_assignment":["black","white"],"door_generator_assignment":[0,1],"goal":6,"start":4,"action_noise":0.1,"location_history":"[4,0,3,7,3,4,0,3,7,6]","action_history":"[1,1,0,1,1,1,1,0,0]","door_history":"[1,1,0,1,1,1,1,0,0]","location_rts":"[1450,675,1174,560,379,362,420,796,195]","trial_type":"two-door-navigation","trial_index":10,"time_elapsed":278921,"internal_node_id":"0.0-2.0-8.0"},{"group":"tri cycles (cube, non-group)","room_assignment":["blue","green","brown","grey","purple","red","pink","yellow"],"door_color_assignment":["black","white"],"door_generator_assignment":[0,1],"goal":0,"start":6,"action_noise":0.1,"location_history":"[6,5,2,6,4,0]","action_history":"[1,1,1,1,1]","door_history":"[1,1,1,1,1]","location_rts":"[11065,423,451,419,372]","trial_type":"two-door-navigation","trial_index":11,"time_elapsed":300256,"internal_node_id":"0.0-2.0-9.0"},{"group":"tri cycles (cube, non-group)","room_assignment":["blue","green","brown","grey","purple","red","pink","yellow"],"door_color_assignment":["black","white"],"door_generator_assignment":[0,1],"goal":1,"start":0,"action_noise":0.1,"location_history":"[0,2,6,4,0,2,6,4,0,2,1]","action_history":"[0,1,0,1,0,1,0,1,0,0]","door_history":"[0,1,0,1,0,1,0,1,0,0]","location_rts":"[3013,630,737,132,667,364,389,568,799,364]","trial_type":"two-door-navigation","trial_index":12,"time_elapsed":321624,"internal_node_id":"0.0-2.0-10.0"},{"group":"tri cycles (cube, non-group)","room_assignment":["blue","green","brown","grey","purple","red","pink","yellow"],"door_color_assignment":["black","white"],"door_generator_assignment":[0,1],"goal":3,"start":1,"action_noise":0.1,"location_history":"[1,5,1,0,3]","action_history":"[1,0,0,0]","door_history":"[1,0,0,0]","location_rts":"[2072,2301,372,309]","trial_type":"two-door-navigation","trial_index":13,"time_elapsed":334264,"internal_node_id":"0.0-2.0-11.0"},{"group":"tri cycles (cube, non-group)","room_assignment":["blue","green","brown","grey","purple","red","pink","yellow"],"door_color_assignment":["black","white"],"door_generator_assignment":[0,1],"goal":7,"start":3,"action_noise":0.1,"location_history":"[3,4,0,3,4,7]","action_history":"[1,1,1,0,0]","door_history":"[1,1,1,0,0]","location_rts":"[1792,693,292,705,341]","trial_type":"two-door-navigation","trial_index":14,"time_elapsed":346694,"internal_node_id":"0.0-2.0-12.0"},{"group":"tri cycles (cube, non-group)","room_assignment":["blue","green","brown","grey","purple","red","pink","yellow"],"door_color_assignment":["black","white"],"door_generator_assignment":[0,1],"goal":5,"start":7,"action_noise":0.1,"location_history":"[7,6,5]","action_history":"[1,1]","door_history":"[1,1]","location_rts":"[69303,629]","trial_type":"two-door-navigation","trial_index":15,"time_elapsed":422166,"internal_node_id":"0.0-2.0-13.0"},{"group":"tri cycles (cube, non-group)","room_assignment":["blue","green","brown","grey","purple","red","pink","yellow"],"door_color_assignment":["black","white"],"door_generator_assignment":[0,1],"goal":2,"start":5,"action_noise":0.1,"location_history":"[5,1,0,2]","action_history":"[0,0,0]","door_history":"[0,0,0]","location_rts":"[1264,378,351]","trial_type":"two-door-navigation","trial_index":16,"time_elapsed":430725,"internal_node_id":"0.0-2.0-14.0"},{"group":"tri cycles (cube, non-group)","room_assignment":["blue","green","brown","grey","purple","red","pink","yellow"],"door_color_assignment":["black","white"],"door_generator_assignment":[0,1],"goal":7,"start":2,"action_noise":0.1,"location_history":"[2,6,5,2,6,5,1,0,2,1,0,2,6,5,1,0,3,4,0,2,6,4,7]","action_history":"[1,1,1,1,1,1,0,0,0,0,0,1,1,0,0,0,1,1,0,1,0,0]","door_history":"[1,1,1,1,1,1,0,0,0,0,0,1,1,0,0,0,1,1,0,1,0,0]","location_rts":"[1194,574,231,357,736,629,326,292,309,349,292,622,955,677,348,386,1111,468,396,807,738,209]","trial_type":"two-door-navigation","trial_index":17,"time_elapsed":468689,"internal_node_id":"0.0-2.0-15.0"},{"group":"tri cycles (cube, non-group)","room_assignment":["blue","green","brown","grey","purple","red","pink","yellow"],"door_color_assignment":["black","white"],"door_generator_assignment":[0,1],"goal":4,"start":7,"action_noise":0.1,"location_history":"[7,6,4]","action_history":"[0,0]","door_history":"[0,0]","location_rts":"[1255,247]","trial_type":"two-door-navigation","trial_index":18,"time_elapsed":475737,"internal_node_id":"0.0-2.0-16.0"},{"group":"tri cycles (cube, non-group)","room_assignment":["blue","green","brown","grey","purple","red","pink","yellow"],"door_color_assignment":["black","white"],"door_generator_assignment":[0,1],"goal":2,"start":4,"action_noise":0.1,"location_history":"[4,7,3,4,0,3,4,0,3,4,7,6,5,1,0,2]","action_history":"[1,1,1,1,1,1,1,1,1,0,0,0,0,0,0]","door_history":"[1,1,1,1,1,1,1,1,1,0,0,0,0,0,0]","location_rts":"[1636,427,489,683,388,790,301,340,643,358,263,53,505,215,333]","trial_type":"two-door-navigation","trial_index":19,"time_elapsed":501974,"internal_node_id":"0.0-2.0-17.0"},{"group":"tri cycles (cube, non-group)","room_assignment":["blue","green","brown","grey","purple","red","pink","yellow"],"door_color_assignment":["black","white"],"door_generator_assignment":[0,1],"goal":3,"start":2,"action_noise":0.1,"location_history":"[2,6,5,2,6,4,0,3]","action_history":"[1,1,1,1,0,1,1]","door_history":"[1,1,1,1,0,1,1]","location_rts":"[3687,790,317,309,502,575,67]","trial_type":"two-door-navigation","trial_index":20,"time_elapsed":518869,"internal_node_id":"0.0-2.0-18.0"},{"group":"tri cycles (cube, non-group)","room_assignment":["blue","green","brown","grey","purple","red","pink","yellow"],"door_color_assignment":["black","white"],"door_generator_assignment":[0,1],"goal":6,"start":3,"action_noise":0.1,"location_history":"[3,7,6]","action_history":"[0,0]","door_history":"[0,0]","location_rts":"[1134,389]","trial_type":"two-door-navigation","trial_index":21,"time_elapsed":525933,"internal_node_id":"0.0-2.0-19.0"},{"group":"tri cycles (cube, non-group)","room_assignment":["blue","green","brown","grey","purple","red","pink","yellow"],"door_color_assignment":["black","white"],"door_generator_assignment":[0,1],"goal":5,"start":6,"action_noise":0.1,"location_history":"[6,5]","action_history":"[1]","door_history":"[1]","location_rts":"[1248]","trial_type":"two-door-navigation","trial_index":22,"time_elapsed":531705,"internal_node_id":"0.0-2.0-20.0"},{"group":"tri cycles (cube, non-group)","room_assignment":["blue","green","brown","grey","purple","red","pink","yellow"],"door_color_assignment":["black","white"],"door_generator_assignment":[0,1],"goal":1,"start":5,"action_noise":0.1,"location_history":"[5,1]","action_history":"[0]","door_history":"[0]","location_rts":"[908]","trial_type":"two-door-navigation","trial_index":23,"time_elapsed":537138,"internal_node_id":"0.0-2.0-21.0"},{"group":"tri cycles (cube, non-group)","room_assignment":["blue","green","brown","grey","purple","red","pink","yellow"],"door_color_assignment":["black","white"],"door_generator_assignment":[0,1],"goal":0,"start":1,"action_noise":0.1,"location_history":"[1,0]","action_history":"[1]","door_history":"[1]","location_rts":"[966]","trial_type":"two-door-navigation","trial_index":24,"time_elapsed":542625,"internal_node_id":"0.0-2.0-22.0"},{"group":"tri cycles (cube, non-group)","room_assignment":["blue","green","brown","grey","purple","red","pink","yellow"],"door_color_assignment":["black","white"],"door_generator_assignment":[0,1],"goal":2,"start":0,"action_noise":0.1,"location_history":"[0,2]","action_history":"[0]","door_history":"[0]","location_rts":"[1361]","trial_type":"two-door-navigation","trial_index":25,"time_elapsed":548511,"internal_node_id":"0.0-2.0-23.0"},{"group":"tri cycles (cube, non-group)","room_assignment":["blue","green","brown","grey","purple","red","pink","yellow"],"door_color_assignment":["black","white"],"door_generator_assignment":[0,1],"goal":6,"start":2,"action_noise":0.1,"location_history":"[2,1,0,3,7,3,4,0,3,4,0,3,4,7,6]","action_history":"[0,0,1,1,1,1,1,1,1,1,1,0,0,0]","door_history":"[0,0,1,1,1,1,1,1,1,1,1,0,0,0]","location_rts":"[2027,456,528,404,316,311,339,365,542,402,381,502,348,364]","trial_type":"two-door-navigation","trial_index":26,"time_elapsed":573594,"internal_node_id":"0.0-2.0-24.0"},{"group":"tri cycles (cube, non-group)","room_assignment":["blue","green","brown","grey","purple","red","pink","yellow"],"door_color_assignment":["black","white"],"door_generator_assignment":[0,1],"goal":1,"start":6,"action_noise":0.1,"location_history":"[6,5,1]","action_history":"[1,0]","door_history":"[1,0]","location_rts":"[1417,746]","trial_type":"two-door-navigation","trial_index":27,"time_elapsed":581299,"internal_node_id":"0.0-2.0-25.0"},{"group":"tri cycles (cube, non-group)","room_assignment":["blue","green","brown","grey","purple","red","pink","yellow"],"door_color_assignment":["black","white"],"door_generator_assignment":[0,1],"goal":3,"start":1,"action_noise":0.1,"location_history":"[1,5,2,1,5,1,5,2,6,5,2,1,0,2,1,0,3]","action_history":"[1,1,0,1,0,1,1,1,1,1,0,0,0,0,0,1]","door_history":"[1,1,0,1,0,1,1,1,1,1,0,0,0,0,0,1]","location_rts":"[1365,700,630,886,201,386,752,607,564,348,577,662,396,937,480,901]","trial_type":"two-door-navigation","trial_index":28,"time_elapsed":611517,"internal_node_id":"0.0-2.0-26.0"},{"group":"tri cycles (cube, non-group)","room_assignment":["blue","green","brown","grey","purple","red","pink","yellow"],"door_color_assignment":["black","white"],"door_generator_assignment":[0,1],"goal":7,"start":3,"action_noise":0.1,"location_history":"[3,4,7]","action_history":"[1,0]","door_history":"[1,0]","location_rts":"[2686,1189]","trial_type":"two-door-navigation","trial_index":29,"time_elapsed":620935,"internal_node_id":"0.0-2.0-27.0"},{"group":"tri cycles (cube, non-group)","room_assignment":["blue","green","brown","grey","purple","red","pink","yellow"],"door_color_assignment":["black","white"],"door_generator_assignment":[0,1],"goal":4,"start":7,"action_noise":0.1,"location_history":"[7,3,4]","action_history":"[1,1]","door_history":"[1,1]","location_rts":"[1241,770]","trial_type":"two-door-navigation","trial_index":30,"time_elapsed":628490,"internal_node_id":"0.0-2.0-28.0"},{"group":"tri cycles (cube, non-group)","room_assignment":["blue","green","brown","grey","purple","red","pink","yellow"],"door_color_assignment":["black","white"],"door_generator_assignment":[0,1],"goal":0,"start":4,"action_noise":0.1,"location_history":"[4,0]","action_history":"[1]","door_history":"[1]","location_rts":"[2290]","trial_type":"two-door-navigation","trial_index":31,"time_elapsed":635303,"internal_node_id":"0.0-2.0-29.0"},{"group":"tri cycles (cube, non-group)","room_assignment":["blue","green","brown","grey","purple","red","pink","yellow"],"door_color_assignment":["black","white"],"door_generator_assignment":[0,1],"goal":5,"start":0,"action_noise":0.1,"location_history":"[0,2,6,5]","action_history":"[0,1,1]","door_history":"[0,1,1]","location_rts":"[2774,704,92]","trial_type":"two-door-navigation","trial_index":32,"time_elapsed":645437,"internal_node_id":"0.0-2.0-30.0"},{"group":"tri cycles (cube, non-group)","room_assignment":["blue","green","brown","grey","purple","red","pink","yellow"],"door_color_assignment":["black","white"],"door_generator_assignment":[0,1],"goal":3,"start":5,"action_noise":0.1,"location_history":"[5,2,1,5,1,0,2,1,0,2,1,5,1,0,2,6,5,1,0,2,1,5,2,6,5,2,6,4,7,6,4,7,6,4,0,3]","action_history":"[1,0,1,0,0,0,0,0,0,0,0,0,0,1,1,1,0,0,0,0,1,1,1,1,1,1,0,0,0,0,0,0,0,1,1]","door_history":"[1,0,1,0,0,0,0,0,0,0,0,0,0,1,1,1,0,0,0,0,1,1,1,1,1,1,0,0,0,0,0,0,0,1,1]","location_rts":"[1802,224,520,386,99,387,931,394,2675,3068,2644,419,481,1227,342,783,350,409,519,1198,583,583,848,598,411,708,746,355,323,342,560,572,502,1104,721]","trial_type":"two-door-navigation","trial_index":33,"time_elapsed":712473,"internal_node_id":"0.0-2.0-31.0"},{"group":"tri cycles (cube, non-group)","room_assignment":["blue","green","brown","grey","purple","red","pink","yellow"],"door_color_assignment":["black","white"],"door_generator_assignment":[0,1],"goal":2,"start":3,"action_noise":0.1,"location_history":"[3,7,3,7,6,4,0,2]","action_history":"[0,1,0,0,0,1,0]","door_history":"[0,1,0,0,0,1,0]","location_rts":"[2821,752,545,202,458,1280,8044]","trial_type":"two-door-navigation","trial_index":34,"time_elapsed":737225,"internal_node_id":"0.0-2.0-32.0"},{"group":"tri cycles (cube, non-group)","room_assignment":["blue","green","brown","grey","purple","red","pink","yellow"],"door_color_assignment":["black","white"],"door_generator_assignment":[0,1],"goal":6,"start":2,"action_noise":0.1,"location_history":"[2,6]","action_history":"[1]","door_history":"[1]","location_rts":"[3288]","trial_type":"two-door-navigation","trial_index":35,"time_elapsed":745040,"internal_node_id":"0.0-2.0-33.0"},{"group":"tri cycles (cube, non-group)","room_assignment":["blue","green","brown","grey","purple","red","pink","yellow"],"door_color_assignment":["black","white"],"door_generator_assignment":[0,1],"goal":1,"start":6,"action_noise":0.1,"location_history":"[6,5,2,1]","action_history":"[1,1,0]","door_history":"[1,1,0]","location_rts":"[1815,808,739]","trial_type":"two-door-navigation","trial_index":36,"time_elapsed":754964,"internal_node_id":"0.0-2.0-34.0"},{"group":"tri cycles (cube, non-group)","room_assignment":["blue","green","brown","grey","purple","red","pink","yellow"],"door_color_assignment":["black","white"],"door_generator_assignment":[0,1],"goal":7,"start":1,"action_noise":0.1,"location_history":"[1,5,1,0,2,1,0,3,7]","action_history":"[1,0,0,0,0,0,1,0]","door_history":"[1,0,0,0,0,0,1,0]","location_rts":"[1722,1036,309,333,333,395,675,715]","trial_type":"two-door-navigation","trial_index":37,"time_elapsed":772148,"internal_node_id":"0.0-2.0-35.0"},{"group":"tri cycles (cube, non-group)","room_assignment":["blue","green","brown","grey","purple","red","pink","yellow"],"door_color_assignment":["black","white"],"door_generator_assignment":[0,1],"goal":4,"start":7,"action_noise":0.1,"location_history":"[7,6,4]","action_history":"[0,0]","door_history":"[0,0]","location_rts":"[1173,1881]","trial_type":"two-door-navigation","trial_index":38,"time_elapsed":780746,"internal_node_id":"0.0-2.0-36.0"},{"group":"tri cycles (cube, non-group)","room_assignment":["blue","green","brown","grey","purple","red","pink","yellow"],"door_color_assignment":["black","white"],"door_generator_assignment":[0,1],"goal":5,"start":4,"action_noise":0.1,"location_history":"[4,0,3,4,0,2,1,0,3,4,0,2,6,4,0,2,6,5]","action_history":"[1,1,1,1,0,0,0,1,1,0,0,1,0,1,1,1,1]","door_history":"[1,1,1,1,0,0,0,1,1,0,0,1,0,1,1,1,1]","location_rts":"[7470,374,1033,444,697,514,411,738,949,887,520,1009,801,870,894,402,335]","trial_type":"two-door-navigation","trial_index":39,"time_elapsed":819942,"internal_node_id":"0.0-2.0-37.0"},{"group":"tri cycles (cube, non-group)","room_assignment":["blue","green","brown","grey","purple","red","pink","yellow"],"door_color_assignment":["black","white"],"door_generator_assignment":[0,1],"goal":0,"start":5,"action_noise":0.1,"location_history":"[5,1,5,2,1,5,2,6,5,1,0]","action_history":"[0,1,1,0,1,1,1,1,0,0]","door_history":"[0,1,1,0,1,1,1,1,0,0]","location_rts":"[1059,995,225,721,965,53,401,459,736,472]","trial_type":"two-door-navigation","trial_index":40,"time_elapsed":839739,"internal_node_id":"0.0-2.0-38.0"},{"group":"tri cycles (cube, non-group)","room_assignment":["blue","green","brown","grey","purple","red","pink","yellow"],"door_color_assignment":["black","white"],"door_generator_assignment":[0,1],"goal":4,"start":0,"action_noise":0.1,"location_history":"[0,3,7,3,7,3,4]","action_history":"[1,0,0,0,0,1]","door_history":"[1,0,0,0,0,1]","location_rts":"[1684,604,404,373,340,512]","trial_type":"two-door-navigation","trial_index":41,"time_elapsed":853282,"internal_node_id":"0.0-2.0-39.0"},{"group":"tri cycles (cube, non-group)","room_assignment":["blue","green","brown","grey","purple","red","pink","yellow"],"door_color_assignment":["black","white"],"door_generator_assignment":[0,1],"goal":0,"start":4,"action_noise":0.1,"location_history":"[4,7,6,5,2,6,5,2,1,0]","action_history":"[0,1,1,1,1,1,1,0,0]","door_history":"[0,1,1,1,1,1,1,0,0]","location_rts":"[1326,2652,457,386,520,684,551,815,394]","trial_type":"two-door-navigation","trial_index":42,"time_elapsed":873758,"internal_node_id":"0.0-2.0-40.0"},{"group":"tri cycles (cube, non-group)","room_assignment":["blue","green","brown","grey","purple","red","pink","yellow"],"door_color_assignment":["black","white"],"door_generator_assignment":[0,1],"goal":2,"start":0,"action_noise":0.1,"location_history":"[0,2]","action_history":"[0]","door_history":"[0]","location_rts":"[13611]","trial_type":"two-door-navigation","trial_index":43,"time_elapsed":891894,"internal_node_id":"0.0-2.0-41.0"},{"group":"tri cycles (cube, non-group)","room_assignment":["blue","green","brown","grey","purple","red","pink","yellow"],"door_color_assignment":["black","white"],"door_generator_assignment":[0,1],"goal":3,"start":2,"action_noise":0.1,"location_history":"[2,6,4,7,3]","action_history":"[1,0,0,1]","door_history":"[1,0,0,1]","location_rts":"[937,606,403,305]","trial_type":"two-door-navigation","trial_index":44,"time_elapsed":901725,"internal_node_id":"0.0-2.0-42.0"},{"group":"tri cycles (cube, non-group)","room_assignment":["blue","green","brown","grey","purple","red","pink","yellow"],"door_color_assignment":["black","white"],"door_generator_assignment":[0,1],"goal":5,"start":3,"action_noise":0.1,"location_history":"[3,7,3,4,0,3,7,6,4,7,6,4,0,3,4,0,3,4,0,3,7,3,4,7,6,4,7,3,4,0,2,6,5]","action_history":"[0,1,1,1,1,0,0,0,0,0,0,1,0,1,1,1,1,1,1,0,0,1,0,0,0,0,0,0,1,0,1,1]","door_history":"[0,1,1,1,1,0,0,0,0,0,0,1,0,1,1,1,1,1,1,0,0,1,0,0,0,0,0,0,1,0,1,1]","location_rts":"[1249,3555,417,436,479,1057,654,473,387,387,738,784,737,372,512,486,435,395,412,387,372,987,474,379,488,426,380,409,864,628,441,519]","trial_type":"two-door-navigation","trial_index":45,"time_elapsed":958617,"internal_node_id":"0.0-2.0-43.0"},{"group":"tri cycles (cube, non-group)","room_assignment":["blue","green","brown","grey","purple","red","pink","yellow"],"door_color_assignment":["black","white"],"door_generator_assignment":[0,1],"goal":1,"start":5,"action_noise":0.1,"location_history":"[5,1]","action_history":"[0]","door_history":"[0]","location_rts":"[2230]","trial_type":"two-door-navigation","trial_index":46,"time_elapsed":965371,"internal_node_id":"0.0-2.0-44.0"},{"group":"tri cycles (cube, non-group)","room_assignment":["blue","green","brown","grey","purple","red","pink","yellow"],"door_color_assignment":["black","white"],"door_generator_assignment":[0,1],"goal":7,"start":1,"action_noise":0.1,"location_history":"[1,5,1,0,2,1,5,2,1,5,2,1,0,3,4,7]","action_history":"[1,0,0,0,0,1,1,1,1,1,0,0,0,1,0]","door_history":"[1,0,0,0,0,1,1,1,1,1,0,0,0,1,0]","location_rts":"[926,889,574,370,1329,650,156,61,93,239,684,535,367,1222,232]","trial_type":"two-door-navigation","trial_index":47,"time_elapsed":992511,"internal_node_id":"0.0-2.0-45.0"},{"group":"tri cycles (cube, non-group)","room_assignment":["blue","green","brown","grey","purple","red","pink","yellow"],"door_color_assignment":["black","white"],"door_generator_assignment":[0,1],"goal":6,"start":7,"action_noise":0.1,"location_history":"[7,3,4,7,6]","action_history":"[1,0,0,0]","door_history":"[1,0,0,0]","location_rts":"[1847,373,231,326]","trial_type":"two-door-navigation","trial_index":48,"time_elapsed":1002874,"internal_node_id":"0.0-2.0-46.0"},{"group":"tri cycles (cube, non-group)","room_assignment":["blue","green","brown","grey","purple","red","pink","yellow"],"door_color_assignment":["black","white"],"door_generator_assignment":[0,1],"goal":3,"start":6,"action_noise":0.1,"location_history":"[6,5,1,0,2,6,5,2,6,4,7,6,4,0,2,1,0,2,6,4,7,3]","action_history":"[1,0,0,0,0,0,1,0,0,0,0,0,1,0,0,0,0,1,0,0,0]","door_history":"[1,0,0,0,0,0,1,0,0,0,0,0,1,0,0,0,0,1,0,0,0]","location_rts":"[1924,233,316,364,318,434,434,266,578,332,316,474,828,101,148,280,248,754,22,233,202]","trial_type":"two-door-navigation","trial_index":49,"time_elapsed":1036607,"internal_node_id":"0.0-2.0-47.0"},{"group":"tri cycles (cube, non-group)","room_assignment":["blue","green","brown","grey","purple","red","pink","yellow"],"door_color_assignment":["black","white"],"door_generator_assignment":[0,1],"goal":0,"start":3,"action_noise":0.1,"location_history":"[3,4,7,6,4,0]","action_history":"[1,0,0,0,0]","door_history":"[1,0,0,0,0]","location_rts":"[1387,249,288,310,527]","trial_type":"two-door-navigation","trial_index":50,"time_elapsed":1047972,"internal_node_id":"0.0-2.0-48.0"},{"group":"tri cycles (cube, non-group)","room_assignment":["blue","green","brown","grey","purple","red","pink","yellow"],"door_color_assignment":["black","white"],"door_generator_assignment":[0,1],"goal":2,"start":0,"action_noise":0.1,"location_history":"[0,3,7,6,4,7,6,4,7,3,7,6,4,7,6,5,1,0,2]","action_history":"[1,0,0,0,0,0,0,0,1,0,0,0,0,0,1,0,0,0]","door_history":"[1,0,0,0,0,0,0,0,1,0,0,0,0,0,1,0,0,0]","location_rts":"[1099,1068,518,178,14,551,357,61,409,61,29,256,133,157,214,124,125,0]","trial_type":"two-door-navigation","trial_index":51,"time_elapsed":1075196,"internal_node_id":"0.0-2.0-49.0"},{"view_history":"[{\"page_index\":0,\"viewing_time\":3548}]","rt":3548,"trial_type":"instructions","trial_index":52,"time_elapsed":1079746,"internal_node_id":"0.0-3.0"},{"view_history":"[{\"page_index\":0,\"viewing_time\":1534},{\"page_index\":1,\"viewing_time\":20003}]","rt":21538,"trial_type":"instructions","trial_index":53,"time_elapsed":1102286,"internal_node_id":"0.0-4.0"},{"group":"tri cycles (cube, non-group)","fractal_assignment":["../images/grn_red.png","../images/ylw_slt.png","../images/pnk_blu.png","../images/blu_wht.png","../images/cyn_red.png","../images/ylw_pnk.png","../images/org_blu.png","../images/gry_blk.png"],"mutagen_generator_assignment":[0,1],"goal":3,"start":0,"action_noise":0.1,"location_history":"[0,2,6,4,0,2,6,5,2,1,5,1,0,2,1,5,2,6,4,7,6,4,7,6,5,2,6,5,2,1,0,2,6,5,1,0,2,6,5,2,6,5,1,5,1,0,3]","action_history":"[0,1,0,1,0,1,1,1,0,0,0,0,0,1,1,1,1,1,0,0,0,0,1,1,1,0,1,1,0,0,0,1,1,0,0,0,1,1,1,1,1,0,1,0,0,1]","mutagen_history":"[0,1,0,1,0,1,1,1,0,0,0,0,0,1,1,1,1,1,0,0,0,0,1,1,1,0,1,1,0,0,0,1,1,0,0,0,1,1,1,1,1,0,1,0,0,1]","location_rts":"[9049,900,972,697,842,525,103,611,1401,235,402,658,1947,385,1547,1851,1961,623,1624,816,706,834,797,581,1452,853,873,1799,781,779,505,771,666,906,1315,1497,849,55,198,8,648,231,937,1355,937,921]","trial_type":"fractal-mutation","trial_index":54,"time_elapsed":1201454,"internal_node_id":"0.0-5.0-0.0"},{"group":"tri cycles (cube, non-group)","fractal_assignment":["../images/grn_red.png","../images/ylw_slt.png","../images/pnk_blu.png","../images/blu_wht.png","../images/cyn_red.png","../images/ylw_pnk.png","../images/org_blu.png","../images/gry_blk.png"],"mutagen_generator_assignment":[0,1],"goal":1,"start":3,"action_noise":0.1,"location_history":"[3,4,7,6,5,2,1]","action_history":"[1,0,0,1,1,0]","mutagen_history":"[1,0,0,1,1,0]","location_rts":"[5199,943,729,690,673,865]","trial_type":"fractal-mutation","trial_index":55,"time_elapsed":1220234,"internal_node_id":"0.0-5.0-1.0"},{"group":"tri cycles (cube, non-group)","fractal_assignment":["../images/grn_red.png","../images/ylw_slt.png","../images/pnk_blu.png","../images/blu_wht.png","../images/cyn_red.png","../images/ylw_pnk.png","../images/org_blu.png","../images/gry_blk.png"],"mutagen_generator_assignment":[0,1],"goal":2,"start":1,"action_noise":0.1,"location_history":"[1,5,2]","action_history":"[1,1]","mutagen_history":"[1,1]","location_rts":"[2258,535]","trial_type":"fractal-mutation","trial_index":56,"time_elapsed":1228582,"internal_node_id":"0.0-5.0-2.0"},{"group":"tri cycles (cube, non-group)","fractal_assignment":["../images/grn_red.png","../images/ylw_slt.png","../images/pnk_blu.png","../images/blu_wht.png","../images/cyn_red.png","../images/ylw_pnk.png","../images/org_blu.png","../images/gry_blk.png"],"mutagen_generator_assignment":[0,1],"goal":6,"start":2,"action_noise":0.1,"location_history":"[2,6]","action_history":"[1]","mutagen_history":"[1]","location_rts":"[1030]","trial_type":"fractal-mutation","trial_index":57,"time_elapsed":1234155,"internal_node_id":"0.0-5.0-3.0"},{"group":"tri cycles (cube, non-group)","fractal_assignment":["../images/grn_red.png","../images/ylw_slt.png","../images/pnk_blu.png","../images/blu_wht.png","../images/cyn_red.png","../images/ylw_pnk.png","../images/org_blu.png","../images/gry_blk.png"],"mutagen_generator_assignment":[0,1],"goal":5,"start":6,"action_noise":0.1,"location_history":"[6,4,7,6,4,7,6,4,0,2,6,5]","action_history":"[1,1,0,0,0,0,1,1,0,1,1]","mutagen_history":"[1,1,0,0,0,0,1,1,0,1,1]","location_rts":"[890,422,578,656,426,568,274,527,957,618,519]","trial_type":"fractal-mutation","trial_index":58,"time_elapsed":1255414,"internal_node_id":"0.0-5.0-4.0"},{"group":"tri cycles (cube, non-group)","fractal_assignment":["../images/grn_red.png","../images/ylw_slt.png","../images/pnk_blu.png","../images/blu_wht.png","../images/cyn_red.png","../images/ylw_pnk.png","../images/org_blu.png","../images/gry_blk.png"],"mutagen_generator_assignment":[0,1],"goal":4,"start":5,"action_noise":0.1,"location_history":"[5,2,1,0,2,1,0,3,7,6,5,2,1,0,2,1,0,3,4]","action_history":"[1,0,0,1,0,0,1,0,1,1,1,0,0,0,0,0,0,1]","mutagen_history":"[1,0,0,1,0,0,1,0,1,1,1,0,0,0,0,0,0,1]","location_rts":"[2229,4134,619,819,611,230,905,727,714,725,557,599,186,347,458,353,586,706]","trial_type":"fractal-mutation","trial_index":59,"time_elapsed":1292924,"internal_node_id":"0.0-5.0-5.0"},{"group":"tri cycles (cube, non-group)","fractal_assignment":["../images/grn_red.png","../images/ylw_slt.png","../images/pnk_blu.png","../images/blu_wht.png","../images/cyn_red.png","../images/ylw_pnk.png","../images/org_blu.png","../images/gry_blk.png"],"mutagen_generator_assignment":[0,1],"goal":7,"start":4,"action_noise":0.1,"location_history":"[4,0,3,7]","action_history":"[1,0,0]","mutagen_history":"[1,0,0]","location_rts":"[1265,745,290]","trial_type":"fractal-mutation","trial_index":60,"time_elapsed":1301794,"internal_node_id":"0.0-5.0-6.0"},{"group":"tri cycles (cube, non-group)","fractal_assignment":["../images/grn_red.png","../images/ylw_slt.png","../images/pnk_blu.png","../images/blu_wht.png","../images/cyn_red.png","../images/ylw_pnk.png","../images/org_blu.png","../images/gry_blk.png"],"mutagen_generator_assignment":[0,1],"goal":4,"start":7,"action_noise":0.1,"location_history":"[7,3,7,6,4]","action_history":"[1,0,0,0]","mutagen_history":"[1,0,0,0]","location_rts":"[698,241,250,458]","trial_type":"fractal-mutation","trial_index":61,"time_elapsed":1311050,"internal_node_id":"0.0-5.0-7.0"},{"group":"tri cycles (cube, non-group)","fractal_assignment":["../images/grn_red.png","../images/ylw_slt.png","../images/pnk_blu.png","../images/blu_wht.png","../images/cyn_red.png","../images/ylw_pnk.png","../images/org_blu.png","../images/gry_blk.png"],"mutagen_generator_assignment":[0,1],"goal":6,"start":4,"action_noise":0.1,"location_history":"[4,0,2,1,0,2,6]","action_history":"[1,0,0,0,0,1]","mutagen_history":"[1,0,0,0,0,1]","location_rts":"[283,299,241,395,561,330]","trial_type":"fractal-mutation","trial_index":62,"time_elapsed":1322821,"internal_node_id":"0.0-5.0-8.0"},{"group":"tri cycles (cube, non-group)","fractal_assignment":["../images/grn_red.png","../images/ylw_slt.png","../images/pnk_blu.png","../images/blu_wht.png","../images/cyn_red.png","../images/ylw_pnk.png","../images/org_blu.png","../images/gry_blk.png"],"mutagen_generator_assignment":[0,1],"goal":0,"start":6,"action_noise":0.1,"location_history":"[6,5,1,0]","action_history":"[1,0,0]","mutagen_history":"[1,0,0]","location_rts":"[534,289,321]","trial_type":"fractal-mutation","trial_index":63,"time_elapsed":1330546,"internal_node_id":"0.0-5.0-9.0"},{"group":"tri cycles (cube, non-group)","fractal_assignment":["../images/grn_red.png","../images/ylw_slt.png","../images/pnk_blu.png","../images/blu_wht.png","../images/cyn_red.png","../images/ylw_pnk.png","../images/org_blu.png","../images/gry_blk.png"],"mutagen_generator_assignment":[0,1],"goal":1,"start":0,"action_noise":0.1,"location_history":"[0,3,7,6,5,1]","action_history":"[1,0,0,1,0]","mutagen_history":"[1,0,0,1,0]","location_rts":"[291,269,344,498,695]","trial_type":"fractal-mutation","trial_index":64,"time_elapsed":1341281,"internal_node_id":"0.0-5.0-10.0"},{"group":"tri cycles (cube, non-group)","fractal_assignment":["../images/grn_red.png","../images/ylw_slt.png","../images/pnk_blu.png","../images/blu_wht.png","../images/cyn_red.png","../images/ylw_pnk.png","../images/org_blu.png","../images/gry_blk.png"],"mutagen_generator_assignment":[0,1],"goal":3,"start":1,"action_noise":0.1,"location_history":"[1,5,1,0,3]","action_history":"[1,0,0,1]","mutagen_history":"[1,0,0,1]","location_rts":"[850,249,490,283]","trial_type":"fractal-mutation","trial_index":65,"time_elapsed":1350767,"internal_node_id":"0.0-5.0-11.0"},{"group":"tri cycles (cube, non-group)","fractal_assignment":["../images/grn_red.png","../images/ylw_slt.png","../images/pnk_blu.png","../images/blu_wht.png","../images/cyn_red.png","../images/ylw_pnk.png","../images/org_blu.png","../images/gry_blk.png"],"mutagen_generator_assignment":[0,1],"goal":7,"start":3,"action_noise":0.1,"location_history":"[3,4,7]","action_history":"[1,0]","mutagen_history":"[1,0]","location_rts":"[821,403]","trial_type":"fractal-mutation","trial_index":66,"time_elapsed":1357553,"internal_node_id":"0.0-5.0-12.0"},{"group":"tri cycles (cube, non-group)","fractal_assignment":["../images/grn_red.png","../images/ylw_slt.png","../images/pnk_blu.png","../images/blu_wht.png","../images/cyn_red.png","../images/ylw_pnk.png","../images/org_blu.png","../images/gry_blk.png"],"mutagen_generator_assignment":[0,1],"goal":5,"start":7,"action_noise":0.1,"location_history":"[7,3,7,6,4,0,2,1,5]","action_history":"[1,0,0,0,1,1,0,0]","mutagen_history":"[1,0,0,0,1,1,0,0]","location_rts":"[579,343,417,618,368,773,384,465]","trial_type":"fractal-mutation","trial_index":67,"time_elapsed":1373209,"internal_node_id":"0.0-5.0-13.0"},{"group":"tri cycles (cube, non-group)","fractal_assignment":["../images/grn_red.png","../images/ylw_slt.png","../images/pnk_blu.png","../images/blu_wht.png","../images/cyn_red.png","../images/ylw_pnk.png","../images/org_blu.png","../images/gry_blk.png"],"mutagen_generator_assignment":[0,1],"goal":2,"start":5,"action_noise":0.1,"location_history":"[5,2]","action_history":"[1]","mutagen_history":"[1]","location_rts":"[713]","trial_type":"fractal-mutation","trial_index":68,"time_elapsed":1378469,"internal_node_id":"0.0-5.0-14.0"},{"group":"tri cycles (cube, non-group)","fractal_assignment":["../images/grn_red.png","../images/ylw_slt.png","../images/pnk_blu.png","../images/blu_wht.png","../images/cyn_red.png","../images/ylw_pnk.png","../images/org_blu.png","../images/gry_blk.png"],"mutagen_generator_assignment":[0,1],"goal":7,"start":2,"action_noise":0.1,"location_history":"[2,6,5,2,6,4,7]","action_history":"[0,1,1,1,0,0]","mutagen_history":"[0,1,1,1,0,0]","location_rts":"[869,659,382,736,353,466]","trial_type":"fractal-mutation","trial_index":69,"time_elapsed":1391603,"internal_node_id":"0.0-5.0-15.0"},{"group":"tri cycles (cube, non-group)","fractal_assignment":["../images/grn_red.png","../images/ylw_slt.png","../images/pnk_blu.png","../images/blu_wht.png","../images/cyn_red.png","../images/ylw_pnk.png","../images/org_blu.png","../images/gry_blk.png"],"mutagen_generator_assignment":[0,1],"goal":4,"start":7,"action_noise":0.1,"location_history":"[7,3,4]","action_history":"[1,1]","mutagen_history":"[1,1]","location_rts":"[511,616]","trial_type":"fractal-mutation","trial_index":70,"time_elapsed":1398316,"internal_node_id":"0.0-5.0-16.0"},{"group":"tri cycles (cube, non-group)","fractal_assignment":["../images/grn_red.png","../images/ylw_slt.png","../images/pnk_blu.png","../images/blu_wht.png","../images/cyn_red.png","../images/ylw_pnk.png","../images/org_blu.png","../images/gry_blk.png"],"mutagen_generator_assignment":[0,1],"goal":2,"start":4,"action_noise":0.1,"location_history":"[4,0,3,7,6,4,0,3,7,6,4,7,3,4,7,6,5,1,0,3,7,6,5,1,0,3,7,3,4,0,3,7,6,5,2]","action_history":"[1,1,0,0,0,1,1,0,0,0,0,1,1,0,0,1,0,0,1,0,0,1,0,0,1,0,1,1,0,1,1,0,1,1]","mutagen_history":"[1,1,0,0,0,1,1,0,0,0,0,1,1,0,0,1,0,0,1,0,0,1,0,0,1,0,1,1,0,1,1,0,1,1]","location_rts":"[2889,590,515,393,465,446,385,279,474,378,433,410,861,382,338,274,303,265,281,475,360,225,334,184,218,565,130,420,126,426,817,462,689,101]","trial_type":"fractal-mutation","trial_index":71,"time_elapsed":1452645,"internal_node_id":"0.0-5.0-17.0"},{"group":"tri cycles (cube, non-group)","fractal_assignment":["../images/grn_red.png","../images/ylw_slt.png","../images/pnk_blu.png","../images/blu_wht.png","../images/cyn_red.png","../images/ylw_pnk.png","../images/org_blu.png","../images/gry_blk.png"],"mutagen_generator_assignment":[0,1],"goal":3,"start":2,"action_noise":0.1,"location_history":"[2,6,5,1,5,2,1,5,2,1,0,3]","action_history":"[1,1,0,1,1,0,1,1,0,0,0]","mutagen_history":"[1,1,0,1,1,0,1,1,0,0,0]","location_rts":"[863,330,292,720,383,198,353,455,247,498,419]","trial_type":"fractal-mutation","trial_index":72,"time_elapsed":1472240,"internal_node_id":"0.0-5.0-18.0"},{"group":"tri cycles (cube, non-group)","fractal_assignment":["../images/grn_red.png","../images/ylw_slt.png","../images/pnk_blu.png","../images/blu_wht.png","../images/cyn_red.png","../images/ylw_pnk.png","../images/org_blu.png","../images/gry_blk.png"],"mutagen_generator_assignment":[0,1],"goal":6,"start":3,"action_noise":0.1,"location_history":"[3,4,0,2,6]","action_history":"[1,1,0,1]","mutagen_history":"[1,1,0,1]","location_rts":"[587,321,134,433]","trial_type":"fractal-mutation","trial_index":73,"time_elapsed":1481333,"internal_node_id":"0.0-5.0-19.0"},{"group":"tri cycles (cube, non-group)","fractal_assignment":["../images/grn_red.png","../images/ylw_slt.png","../images/pnk_blu.png","../images/blu_wht.png","../images/cyn_red.png","../images/ylw_pnk.png","../images/org_blu.png","../images/gry_blk.png"],"mutagen_generator_assignment":[0,1],"goal":5,"start":6,"action_noise":0.1,"location_history":"[6,4,0,2,1,5]","action_history":"[1,1,0,1,1]","mutagen_history":"[1,1,0,1,1]","location_rts":"[479,272,73,450,132]","trial_type":"fractal-mutation","trial_index":74,"time_elapsed":1491382,"internal_node_id":"0.0-5.0-20.0"},{"group":"tri cycles (cube, non-group)","fractal_assignment":["../images/grn_red.png","../images/ylw_slt.png","../images/pnk_blu.png","../images/blu_wht.png","../images/cyn_red.png","../images/ylw_pnk.png","../images/org_blu.png","../images/gry_blk.png"],"mutagen_generator_assignment":[0,1],"goal":1,"start":5,"action_noise":0.1,"location_history":"[5,2,6,4,0,3,7,6,5,1]","action_history":"[1,1,0,1,1,0,0,1,1]","mutagen_history":"[1,1,0,1,1,0,0,1,1]","location_rts":"[46,433,1625,362,197,129,833,307,93]","trial_type":"fractal-mutation","trial_index":75,"time_elapsed":1508172,"internal_node_id":"0.0-5.0-21.0"},{"group":"tri cycles (cube, non-group)","fractal_assignment":["../images/grn_red.png","../images/ylw_slt.png","../images/pnk_blu.png","../images/blu_wht.png","../images/cyn_red.png","../images/ylw_pnk.png","../images/org_blu.png","../images/gry_blk.png"],"mutagen_generator_assignment":[0,1],"goal":0,"start":1,"action_noise":0.1,"location_history":"[1,5,2,1,0]","action_history":"[1,1,0,0]","mutagen_history":"[1,1,0,0]","location_rts":"[2254,256,174,491]","trial_type":"fractal-mutation","trial_index":76,"time_elapsed":1518960,"internal_node_id":"0.0-5.0-22.0"},{"group":"tri cycles (cube, non-group)","fractal_assignment":["../images/grn_red.png","../images/ylw_slt.png","../images/pnk_blu.png","../images/blu_wht.png","../images/cyn_red.png","../images/ylw_pnk.png","../images/org_blu.png","../images/gry_blk.png"],"mutagen_generator_assignment":[0,1],"goal":2,"start":0,"action_noise":0.1,"location_history":"[0,3,7,6,4,7,3,4,7,3,4,7,3,7,6,5,2]","action_history":"[1,0,1,1,0,1,1,0,1,1,0,1,1,0,1,1]","mutagen_history":"[1,0,1,1,0,1,1,0,1,1,0,1,1,0,1,1]","location_rts":"[98,106,51,78,21,162,196,123,65,22,142,11,200,7,122,285]","trial_type":"fractal-mutation","trial_index":77,"time_elapsed":1540646,"internal_node_id":"0.0-5.0-23.0"},{"group":"tri cycles (cube, non-group)","fractal_assignment":["../images/grn_red.png","../images/ylw_slt.png","../images/pnk_blu.png","../images/blu_wht.png","../images/cyn_red.png","../images/ylw_pnk.png","../images/org_blu.png","../images/gry_blk.png"],"mutagen_generator_assignment":[0,1],"goal":6,"start":2,"action_noise":0.1,"location_history":"[2,1,5,1,5,2,6]","action_history":"[1,1,0,1,0,1]","mutagen_history":"[1,1,0,1,0,1]","location_rts":"[140,29,88,81,163,130]","trial_type":"fractal-mutation","trial_index":78,"time_elapsed":1550945,"internal_node_id":"0.0-5.0-24.0"},{"group":"tri cycles (cube, non-group)","fractal_assignment":["../images/grn_red.png","../images/ylw_slt.png","../images/pnk_blu.png","../images/blu_wht.png","../images/cyn_red.png","../images/ylw_pnk.png","../images/org_blu.png","../images/gry_blk.png"],"mutagen_generator_assignment":[0,1],"goal":1,"start":6,"action_noise":0.1,"location_history":"[6,5,2,1]","action_history":"[1,1,0]","mutagen_history":"[1,1,0]","location_rts":"[89,85,158]","trial_type":"fractal-mutation","trial_index":79,"time_elapsed":1557872,"internal_node_id":"0.0-5.0-25.0"},{"group":"tri cycles (cube, non-group)","fractal_assignment":["../images/grn_red.png","../images/ylw_slt.png","../images/pnk_blu.png","../images/blu_wht.png","../images/cyn_red.png","../images/ylw_pnk.png","../images/org_blu.png","../images/gry_blk.png"],"mutagen_generator_assignment":[0,1],"goal":3,"start":1,"action_noise":0.1,"location_history":"[1,0,3]","action_history":"[1,1]","mutagen_history":"[1,1]","location_rts":"[115,104]","trial_type":"fractal-mutation","trial_index":80,"time_elapsed":1563665,"internal_node_id":"0.0-5.0-26.0"},{"group":"tri cycles (cube, non-group)","fractal_assignment":["../images/grn_red.png","../images/ylw_slt.png","../images/pnk_blu.png","../images/blu_wht.png","../images/cyn_red.png","../images/ylw_pnk.png","../images/org_blu.png","../images/gry_blk.png"],"mutagen_generator_assignment":[0,1],"goal":7,"start":3,"action_noise":0.1,"location_history":"[3,4,7]","action_history":"[1,0]","mutagen_history":"[1,0]","location_rts":"[49,118]","trial_type":"fractal-mutation","trial_index":81,"time_elapsed":1569401,"internal_node_id":"0.0-5.0-27.0"},{"group":"tri cycles (cube, non-group)","fractal_assignment":["../images/grn_red.png","../images/ylw_slt.png","../images/pnk_blu.png","../images/blu_wht.png","../images/cyn_red.png","../images/ylw_pnk.png","../images/org_blu.png","../images/gry_blk.png"],"mutagen_generator_assignment":[0,1],"goal":4,"start":7,"action_noise":0.1,"location_history":"[7,3,7,3,4]","action_history":"[1,0,1,1]","mutagen_history":"[1,0,1,1]","location_rts":"[184,4,152,207]","trial_type":"fractal-mutation","trial_index":82,"time_elapsed":1577573,"internal_node_id":"0.0-5.0-28.0"},{"group":"tri cycles (cube, non-group)","fractal_assignment":["../images/grn_red.png","../images/ylw_slt.png","../images/pnk_blu.png","../images/blu_wht.png","../images/cyn_red.png","../images/ylw_pnk.png","../images/org_blu.png","../images/gry_blk.png"],"mutagen_generator_assignment":[0,1],"goal":0,"start":4,"action_noise":0.1,"location_history":"[4,0]","action_history":"[1]","mutagen_history":"[1]","location_rts":"[189]","trial_type":"fractal-mutation","trial_index":83,"time_elapsed":1582292,"internal_node_id":"0.0-5.0-29.0"},{"group":"tri cycles (cube, non-group)","fractal_assignment":["../images/grn_red.png","../images/ylw_slt.png","../images/pnk_blu.png","../images/blu_wht.png","../images/cyn_red.png","../images/ylw_pnk.png","../images/org_blu.png","../images/gry_blk.png"],"mutagen_generator_assignment":[0,1],"goal":5,"start":0,"action_noise":0.1,"location_history":"[0,3,4,7,3,7,6,5]","action_history":"[1,1,0,1,0,1,1]","mutagen_history":"[1,1,0,1,0,1,1]","location_rts":"[14,163,87,11,86,74,48]","trial_type":"fractal-mutation","trial_index":84,"time_elapsed":1593507,"internal_node_id":"0.0-5.0-30.0"},{"group":"tri cycles (cube, non-group)","fractal_assignment":["../images/grn_red.png","../images/ylw_slt.png","../images/pnk_blu.png","../images/blu_wht.png","../images/cyn_red.png","../images/ylw_pnk.png","../images/org_blu.png","../images/gry_blk.png"],"mutagen_generator_assignment":[0,1],"goal":3,"start":5,"action_noise":0.1,"location_history":"[5,2,1,5,2,6,4,0,2,6,4,0,2,1,5,2,1,0,2,1,0,2,6,5,1,5,1,5,2,1,5,2,1,5,2,6,5,1,5,2,1,0,2,1,0,2,6,4,7,3]","action_history":"[1,1,1,0,1,0,1,0,0,0,1,0,0,1,0,0,0,0,0,0,0,1,1,0,1,0,1,1,0,1,1,0,1,1,1,1,0,1,1,0,0,0,0,0,0,1,0,0,1]","mutagen_history":"[1,1,1,0,1,0,1,0,0,0,1,0,0,1,0,0,0,0,0,0,0,1,1,0,1,0,1,1,0,1,1,0,1,1,1,1,0,1,1,0,0,0,0,0,0,1,0,0,1]","location_rts":"[143,39,120,156,75,176,96,100,219,251,139,304,17,161,38,169,57,258,217,159,27,89,150,87,42,310,18,39,189,202,177,211,203,199,55,167,87,130,345,57,431,57,139,170,138,137,334,129,203]","trial_type":"fractal-mutation","trial_index":85,"time_elapsed":1654755,"internal_node_id":"0.0-5.0-31.0"},{"group":"tri cycles (cube, non-group)","fractal_assignment":["../images/grn_red.png","../images/ylw_slt.png","../images/pnk_blu.png","../images/blu_wht.png","../images/cyn_red.png","../images/ylw_pnk.png","../images/org_blu.png","../images/gry_blk.png"],"mutagen_generator_assignment":[0,1],"goal":2,"start":3,"action_noise":0.1,"location_history":"[3,4,7,6,4,0,2]","action_history":"[1,0,0,0,1,0]","mutagen_history":"[1,0,0,0,1,0]","location_rts":"[158,39,146,114,42,102]","trial_type":"fractal-mutation","trial_index":86,"time_elapsed":1665031,"internal_node_id":"0.0-5.0-32.0"},{"group":"tri cycles (cube, non-group)","fractal_assignment":["../images/grn_red.png","../images/ylw_slt.png","../images/pnk_blu.png","../images/blu_wht.png","../images/cyn_red.png","../images/ylw_pnk.png","../images/org_blu.png","../images/gry_blk.png"],"mutagen_generator_assignment":[0,1],"goal":6,"start":2,"action_noise":0.1,"location_history":"[2,6]","action_history":"[1]","mutagen_history":"[1]","location_rts":"[201]","trial_type":"fractal-mutation","trial_index":87,"time_elapsed":1669779,"internal_node_id":"0.0-5.0-33.0"},{"group":"tri cycles (cube, non-group)","fractal_assignment":["../images/grn_red.png","../images/ylw_slt.png","../images/pnk_blu.png","../images/blu_wht.png","../images/cyn_red.png","../images/ylw_pnk.png","../images/org_blu.png","../images/gry_blk.png"],"mutagen_generator_assignment":[0,1],"goal":1,"start":6,"action_noise":0.1,"location_history":"[6,5,1]","action_history":"[1,0]","mutagen_history":"[1,0]","location_rts":"[14,122]","trial_type":"fractal-mutation","trial_index":88,"time_elapsed":1675462,"internal_node_id":"0.0-5.0-34.0"},{"group":"tri cycles (cube, non-group)","fractal_assignment":["../images/grn_red.png","../images/ylw_slt.png","../images/pnk_blu.png","../images/blu_wht.png","../images/cyn_red.png","../images/ylw_pnk.png","../images/org_blu.png","../images/gry_blk.png"],"mutagen_generator_assignment":[0,1],"goal":7,"start":1,"action_noise":0.1,"location_history":"[1,5,2,1,0,3,7]","action_history":"[1,1,0,0,0,0]","mutagen_history":"[1,1,0,0,0,0]","location_rts":"[74,119,59,49,82,42]","trial_type":"fractal-mutation","trial_index":89,"time_elapsed":1685543,"internal_node_id":"0.0-5.0-35.0"},{"group":"tri cycles (cube, non-group)","fractal_assignment":["../images/grn_red.png","../images/ylw_slt.png","../images/pnk_blu.png","../images/blu_wht.png","../images/cyn_red.png","../images/ylw_pnk.png","../images/org_blu.png","../images/gry_blk.png"],"mutagen_generator_assignment":[0,1],"goal":4,"start":7,"action_noise":0.1,"location_history":"[7,6,4]","action_history":"[1,0]","mutagen_history":"[1,0]","location_rts":"[90,64]","trial_type":"fractal-mutation","trial_index":90,"time_elapsed":1691255,"internal_node_id":"0.0-5.0-36.0"},{"group":"tri cycles (cube, non-group)","fractal_assignment":["../images/grn_red.png","../images/ylw_slt.png","../images/pnk_blu.png","../images/blu_wht.png","../images/cyn_red.png","../images/ylw_pnk.png","../images/org_blu.png","../images/gry_blk.png"],"mutagen_generator_assignment":[0,1],"goal":5,"start":4,"action_noise":0.1,"location_history":"[4,0,3,7,6,4,0,2,1,0,2,1,5]","action_history":"[1,1,0,0,0,1,0,0,0,0,0,1]","mutagen_history":"[1,1,0,0,0,1,0,0,0,0,0,1]","location_rts":"[80,92,182,58,195,122,6,169,322,4,14,106]","trial_type":"fractal-mutation","trial_index":91,"time_elapsed":1708425,"internal_node_id":"0.0-5.0-37.0"},{"group":"tri cycles (cube, non-group)","fractal_assignment":["../images/grn_red.png","../images/ylw_slt.png","../images/pnk_blu.png","../images/blu_wht.png","../images/cyn_red.png","../images/ylw_pnk.png","../images/org_blu.png","../images/gry_blk.png"],"mutagen_generator_assignment":[0,1],"goal":0,"start":5,"action_noise":0.1,"location_history":"[5,1,5,1,5,1,5,2,1,0]","action_history":"[1,1,1,0,0,1,1,1,0]","mutagen_history":"[1,1,1,0,0,1,1,1,0]","location_rts":"[159,142,196,74,344,4,61,6242,82]","trial_type":"fractal-mutation","trial_index":92,"time_elapsed":1728481,"internal_node_id":"0.0-5.0-38.0"},{"group":"tri cycles (cube, non-group)","fractal_assignment":["../images/grn_red.png","../images/ylw_slt.png","../images/pnk_blu.png","../images/blu_wht.png","../images/cyn_red.png","../images/ylw_pnk.png","../images/org_blu.png","../images/gry_blk.png"],"mutagen_generator_assignment":[0,1],"goal":4,"start":0,"action_noise":0.1,"location_history":"[0,3,7,6,4]","action_history":"[1,0,0,0]","mutagen_history":"[1,0,0,0]","location_rts":"[104,79,160,179]","trial_type":"fractal-mutation","trial_index":93,"time_elapsed":1736616,"internal_node_id":"0.0-5.0-39.0"},{"group":"tri cycles (cube, non-group)","fractal_assignment":["../images/grn_red.png","../images/ylw_slt.png","../images/pnk_blu.png","../images/blu_wht.png","../images/cyn_red.png","../images/ylw_pnk.png","../images/org_blu.png","../images/gry_blk.png"],"mutagen_generator_assignment":[0,1],"goal":0,"start":4,"action_noise":0.1,"location_history":"[4,7,6,4,7,6,4,0]","action_history":"[1,0,0,0,0,1,1]","mutagen_history":"[1,0,0,0,0,1,1]","location_rts":"[114,85,4,49,88,50,47]","trial_type":"fractal-mutation","trial_index":94,"time_elapsed":1747761,"internal_node_id":"0.0-5.0-40.0"},{"group":"tri cycles (cube, non-group)","fractal_assignment":["../images/grn_red.png","../images/ylw_slt.png","../images/pnk_blu.png","../images/blu_wht.png","../images/cyn_red.png","../images/ylw_pnk.png","../images/org_blu.png","../images/gry_blk.png"],"mutagen_generator_assignment":[0,1],"goal":2,"start":0,"action_noise":0.1,"location_history":"[0,3,4,0,2]","action_history":"[1,1,1,0]","mutagen_history":"[1,1,1,0]","location_rts":"[177,6,118,55]","trial_type":"fractal-mutation","trial_index":95,"time_elapsed":1755731,"internal_node_id":"0.0-5.0-41.0"},{"group":"tri cycles (cube, non-group)","fractal_assignment":["../images/grn_red.png","../images/ylw_slt.png","../images/pnk_blu.png","../images/blu_wht.png","../images/cyn_red.png","../images/ylw_pnk.png","../images/org_blu.png","../images/gry_blk.png"],"mutagen_generator_assignment":[0,1],"goal":3,"start":2,"action_noise":0.1,"location_history":"[2,6,4,7,3]","action_history":"[1,0,0,1]","mutagen_history":"[1,0,0,1]","location_rts":"[149,47,67,409]","trial_type":"fractal-mutation","trial_index":96,"time_elapsed":1764020,"internal_node_id":"0.0-5.0-42.0"},{"group":"tri cycles (cube, non-group)","fractal_assignment":["../images/grn_red.png","../images/ylw_slt.png","../images/pnk_blu.png","../images/blu_wht.png","../images/cyn_red.png","../images/ylw_pnk.png","../images/org_blu.png","../images/gry_blk.png"],"mutagen_generator_assignment":[0,1],"goal":5,"start":3,"action_noise":0.1,"location_history":"[3,4,7,3,7,6,5]","action_history":"[1,0,0,0,1,1]","mutagen_history":"[1,0,0,0,1,1]","location_rts":"[157,184,134,107,130,38]","trial_type":"fractal-mutation","trial_index":97,"time_elapsed":1774448,"internal_node_id":"0.0-5.0-43.0"},{"group":"tri cycles (cube, non-group)","fractal_assignment":["../images/grn_red.png","../images/ylw_slt.png","../images/pnk_blu.png","../images/blu_wht.png","../images/cyn_red.png","../images/ylw_pnk.png","../images/org_blu.png","../images/gry_blk.png"],"mutagen_generator_assignment":[0,1],"goal":1,"start":5,"action_noise":0.1,"location_history":"[5,2,1]","action_history":"[1,0]","mutagen_history":"[1,0]","location_rts":"[160,100]","trial_type":"fractal-mutation","trial_index":98,"time_elapsed":1780256,"internal_node_id":"0.0-5.0-44.0"},{"group":"tri cycles (cube, non-group)","fractal_assignment":["../images/grn_red.png","../images/ylw_slt.png","../images/pnk_blu.png","../images/blu_wht.png","../images/cyn_red.png","../images/ylw_pnk.png","../images/org_blu.png","../images/gry_blk.png"],"mutagen_generator_assignment":[0,1],"goal":7,"start":1,"action_noise":0.1,"location_history":"[1,5,1,0,2,1,0,3,7]","action_history":"[1,0,0,0,0,0,1,0]","mutagen_history":"[1,0,0,0,0,0,1,0]","location_rts":"[32,17,8,16,204,9,136,191]","trial_type":"fractal-mutation","trial_index":99,"time_elapsed":1792582,"internal_node_id":"0.0-5.0-45.0"},{"group":"tri cycles (cube, non-group)","fractal_assignment":["../images/grn_red.png","../images/ylw_slt.png","../images/pnk_blu.png","../images/blu_wht.png","../images/cyn_red.png","../images/ylw_pnk.png","../images/org_blu.png","../images/gry_blk.png"],"mutagen_generator_assignment":[0,1],"goal":6,"start":7,"action_noise":0.1,"location_history":"[7,3,7,6]","action_history":"[1,0,0]","mutagen_history":"[1,0,0]","location_rts":"[59,179,94]","trial_type":"fractal-mutation","trial_index":100,"time_elapsed":1799494,"internal_node_id":"0.0-5.0-46.0"},{"group":"tri cycles (cube, non-group)","fractal_assignment":["../images/grn_red.png","../images/ylw_slt.png","../images/pnk_blu.png","../images/blu_wht.png","../images/cyn_red.png","../images/ylw_pnk.png","../images/org_blu.png","../images/gry_blk.png"],"mutagen_generator_assignment":[0,1],"goal":3,"start":6,"action_noise":0.1,"location_history":"[6,5,1,0,2,1,5,1,0,2,6,4,7,6,5,2,1,5,2,6,4,0,2,6,5,1,0,3]","action_history":"[1,0,0,0,0,1,0,0,0,1,0,0,0,1,1,0,1,1,1,0,1,0,1,0,0,0,1]","mutagen_history":"[1,0,0,0,0,1,0,0,0,1,0,0,0,1,1,0,1,1,1,0,1,0,1,0,0,0,1]","location_rts":"[123,45,65,43,42,4,131,137,130,33,200,115,106,194,477,293,65,323,401,383,242,819,899,114,298,193,432]","trial_type":"fractal-mutation","trial_index":101,"time_elapsed":1837036,"internal_node_id":"0.0-5.0-47.0"},{"group":"tri cycles (cube, non-group)","fractal_assignment":["../images/grn_red.png","../images/ylw_slt.png","../images/pnk_blu.png","../images/blu_wht.png","../images/cyn_red.png","../images/ylw_pnk.png","../images/org_blu.png","../images/gry_blk.png"],"mutagen_generator_assignment":[0,1],"goal":0,"start":3,"action_noise":0.1,"location_history":"[3,4,7,6,4,7,6,5,1,5,2,1,0]","action_history":"[1,0,0,0,1,0,0,1,1,1,0,0]","mutagen_history":"[1,0,0,0,1,0,0,1,1,1,0,0]","location_rts":"[36,9,81,162,65,34,201,115,95,96,94,65]","trial_type":"fractal-mutation","trial_index":102,"time_elapsed":1853911,"internal_node_id":"0.0-5.0-48.0"},{"group":"tri cycles (cube, non-group)","fractal_assignment":["../images/grn_red.png","../images/ylw_slt.png","../images/pnk_blu.png","../images/blu_wht.png","../images/cyn_red.png","../images/ylw_pnk.png","../images/org_blu.png","../images/gry_blk.png"],"mutagen_generator_assignment":[0,1],"goal":2,"start":0,"action_noise":0.1,"location_history":"[0,3,7,3,4,0,2]","action_history":"[1,0,1,1,1,1]","mutagen_history":"[1,0,1,1,1,1]","location_rts":"[66,115,50,87,116,130]","trial_type":"fractal-mutation","trial_index":103,"time_elapsed":1864163,"internal_node_id":"0.0-5.0-49.0"},{"view_history":"[{\"page_index\":0,\"viewing_time\":1983}]","rt":1983,"trial_type":"instructions","trial_index":104,"time_elapsed":1867147,"internal_node_id":"0.0-6.0"},{"rt":1089,"responses":"{\"Q0\":\"\"}","trial_type":"survey-text","trial_index":105,"time_elapsed":1869245,"internal_node_id":"0.0-7.0"}]