[{"view_history":"[{\"page_index\":0,\"viewing_time\":2246},{\"page_index\":1,\"viewing_time\":12008},{\"page_index\":2,\"viewing_time\":26540},{\"page_index\":3,\"viewing_time\":5291}]","rt":46086,"trial_type":"instructions","trial_index":0,"time_elapsed":46087,"internal_node_id":"0.0-0.0"},{"view_history":"[{\"page_index\":0,\"viewing_time\":1613},{\"page_index\":1,\"viewing_time\":41847}]","rt":43460,"trial_type":"instructions","trial_index":1,"time_elapsed":90549,"internal_node_id":"0.0-1.0"},{"group":"tri cycles (cube, non-group)","room_assignment":["green","blue","brown","yellow","grey","purple","pink","red"],"door_color_assignment":["white","black"],"door_generator_assignment":[1,0],"goal":3,"start":0,"action_noise":0.1,"location_history":"[0,2,1,5,1,0,2,1,5,2,6,4,0,3]","action_history":"[0,0,0,0,0,0,0,1,1,1,1,1,1]","door_history":"[1,1,1,1,1,1,1,0,0,0,0,0,0]","location_rts":"[4422,6169,847,508,5690,3315,1340,1581,3582,1503,891,419,487]","trial_type":"two-door-navigation","trial_index":2,"time_elapsed":138025,"internal_node_id":"0.0-2.0-0.0"},{"group":"tri cycles (cube, non-group)","room_assignment":["green","blue","brown","yellow","grey","purple","pink","red"],"door_color_assignment":["white","black"],"door_generator_assignment":[1,0],"goal":1,"start":3,"action_noise":0.1,"location_history":"[3,7,6,4,7,6,4,7,3,4,0,3,4,0,2,6,4,0,2,1]","action_history":"[0,0,0,0,0,0,0,1,1,1,1,1,1,0,0,0,1,0,0]","door_history":"[1,1,1,1,1,1,1,0,0,0,0,0,0,1,1,1,0,1,1]","location_rts":"[2330,351,445,331,371,454,433,548,227,285,332,234,268,681,315,449,235,405,3867]","trial_type":"two-door-navigation","trial_index":3,"time_elapsed":173409,"internal_node_id":"0.0-2.0-1.0"},{"group":"tri cycles (cube, non-group)","room_assignment":["green","blue","brown","yellow","grey","purple","pink","red"],"door_color_assignment":["white","black"],"door_generator_assignment":[1,0],"goal":2,"start":1,"action_noise":0.1,"location_history":"[1,5,1,0,2]","action_history":"[1,0,0,0]","door_history":"[0,1,1,1]","location_rts":"[2998,434,627,993]","trial_type":"two-door-navigation","trial_index":4,"time_elapsed":186032,"internal_node_id":"0.0-2.0-2.0"},{"group":"tri cycles (cube, non-group)","room_assignment":["green","blue","brown","yellow","grey","purple","pink","red"],"door_color_assignment":["white","black"],"door_generator_assignment":[1,0],"goal":6,"start":2,"action_noise":0.1,"location_history":"[2,6]","action_history":"[0]","door_history":"[1]","location_rts":"[2165]","trial_type":"two-door-navigation","trial_index":5,"time_elapsed":192718,"internal_node_id":"0.0-2.0-3.0"},{"group":"tri cycles (cube, non-group)","room_assignment":["green","blue","brown","yellow","grey","purple","pink","red"],"door_color_assignment":["white","black"],"door_generator_assignment":[1,0],"goal":5,"start":6,"action_noise":0.1,"location_history":"[6,4,0,3,4,0,3,4,0,3,7,6,5]","action_history":"[0,1,1,1,1,1,1,1,1,0,1,0]","door_history":"[1,0,0,0,0,0,0,0,0,1,0,1]","location_rts":"[309,547,534,399,285,284,235,277,249,792,245,253]","trial_type":"two-door-navigation","trial_index":6,"time_elapsed":212826,"internal_node_id":"0.0-2.0-4.0"},{"group":"tri cycles (cube, non-group)","room_assignment":["green","blue","brown","yellow","grey","purple","pink","red"],"door_color_assignment":["white","black"],"door_generator_assignment":[1,0],"goal":4,"start":5,"action_noise":0.1,"location_history":"[5,2,1,0,2,1,5,2,6,4]","action_history":"[0,0,0,0,0,1,1,1,1]","door_history":"[1,1,1,1,1,0,0,0,0]","location_rts":"[55454,259,108,55,56,55,120,117,284]","trial_type":"two-door-navigation","trial_index":7,"time_elapsed":281991,"internal_node_id":"0.0-2.0-5.0"},{"group":"tri cycles (cube, non-group)","room_assignment":["green","blue","brown","yellow","grey","purple","pink","red"],"door_color_assignment":["white","black"],"door_generator_assignment":[1,0],"goal":7,"start":4,"action_noise":0.1,"location_history":"[4,7]","action_history":"[0]","door_history":"[1]","location_rts":"[1225]","trial_type":"two-door-navigation","trial_index":8,"time_elapsed":287737,"internal_node_id":"0.0-2.0-6.0"},{"group":"tri cycles (cube, non-group)","room_assignment":["green","blue","brown","yellow","grey","purple","pink","red"],"door_color_assignment":["white","black"],"door_generator_assignment":[1,0],"goal":4,"start":7,"action_noise":0.1,"location_history":"[7,3,4]","action_history":"[1,1]","door_history":"[0,0]","location_rts":"[1132,320]","trial_type":"two-door-navigation","trial_index":9,"time_elapsed":294727,"internal_node_id":"0.0-2.0-7.0"},{"group":"tri cycles (cube, non-group)","room_assignment":["green","blue","brown","yellow","grey","purple","pink","red"],"door_color_assignment":["white","black"],"door_generator_assignment":[1,0],"goal":6,"start":4,"action_noise":0.1,"location_history":"[4,7,6]","action_history":"[0,0]","door_history":"[1,1]","location_rts":"[2282,278]","trial_type":"two-door-navigation","trial_index":10,"time_elapsed":302825,"internal_node_id":"0.0-2.0-8.0"},{"group":"tri cycles (cube, non-group)","room_assignment":["green","blue","brown","yellow","grey","purple","pink","red"],"door_color_assignment":["white","black"],"door_generator_assignment":[1,0],"goal":0,"start":6,"action_noise":0.1,"location_history":"[6,5,2,6,4,0]","action_history":"[0,1,1,1,1]","door_history":"[1,0,0,0,0]","location_rts":"[1073,495,116,245,363]","trial_type":"two-door-navigation","trial_index":11,"time_elapsed":313701,"internal_node_id":"0.0-2.0-9.0"},{"group":"tri cycles (cube, non-group)","room_assignment":["green","blue","brown","yellow","grey","purple","pink","red"],"door_color_assignment":["white","black"],"door_generator_assignment":[1,0],"goal":1,"start":0,"action_noise":0.1,"location_history":"[0,3,4,7,3,4,0,3,4,7,6,4,7,6,4,7,6,4,0,2,6,4,7,6,4,7,6,4,7,6,5,2,6,5,2,6,5,2,1]","action_history":"[1,1,1,1,1,1,1,1,0,0,0,0,0,0,0,0,0,1,0,1,0,0,0,0,0,0,0,0,0,1,1,1,1,1,1,1,1,1]","door_history":"[0,0,0,0,0,0,0,0,1,1,1,1,1,1,1,1,1,0,1,0,1,1,1,1,1,1,1,1,1,0,0,0,0,0,0,0,0,0]","location_rts":"[2894,234,64,82,56,179,271,218,284,272,195,243,172,245,249,316,211,112,180,88,38,17,213,15,355,233,210,254,276,428,249,291,311,221,132,665,635,508]","trial_type":"two-door-navigation","trial_index":12,"time_elapsed":367468,"internal_node_id":"0.0-2.0-10.0"},{"group":"tri cycles (cube, non-group)","room_assignment":["green","blue","brown","yellow","grey","purple","pink","red"],"door_color_assignment":["white","black"],"door_generator_assignment":[1,0],"goal":3,"start":1,"action_noise":0.1,"location_history":"[1,5,1,5,2,6,5,2,6,5,1,0,3]","action_history":"[0,0,0,1,1,1,1,1,1,0,0,1]","door_history":"[1,1,1,0,0,0,0,0,0,1,1,0]","location_rts":"[1172,248,217,189,127,143,32,334,94,180,263,286]","trial_type":"two-door-navigation","trial_index":13,"time_elapsed":386457,"internal_node_id":"0.0-2.0-11.0"},{"group":"tri cycles (cube, non-group)","room_assignment":["green","blue","brown","yellow","grey","purple","pink","red"],"door_color_assignment":["white","black"],"door_generator_assignment":[1,0],"goal":7,"start":3,"action_noise":0.1,"location_history":"[3,4,0,2,6,5,2,1,0,2,1,0,2,6,4,7]","action_history":"[1,1,1,1,1,1,0,0,0,0,0,0,1,0,0]","door_history":"[0,0,0,0,0,0,1,1,1,1,1,1,0,1,1]","location_rts":"[2336,431,188,471,593,644,43,53,49,375,397,268,370,201,103]","trial_type":"two-door-navigation","trial_index":14,"time_elapsed":411747,"internal_node_id":"0.0-2.0-12.0"},{"group":"tri cycles (cube, non-group)","room_assignment":["green","blue","brown","yellow","grey","purple","pink","red"],"door_color_assignment":["white","black"],"door_generator_assignment":[1,0],"goal":5,"start":7,"action_noise":0.1,"location_history":"[7,6,4,7,3,4,0,3,4,7,3,4,0,2,6,4,7,6,4,7,6,4,0,2,6,4,7,3,4,0,3,4,0,2,1,5]","action_history":"[0,0,0,1,1,1,1,1,0,1,1,1,1,1,0,0,0,0,0,0,1,1,0,1,0,1,1,1,1,1,1,1,0,0,1]","door_history":"[1,1,1,0,0,0,0,0,1,0,0,0,0,0,1,1,1,1,1,1,0,0,1,0,1,0,0,0,0,0,0,0,1,1,0]","location_rts":"[536,330,329,120,250,250,146,251,795,47,258,213,195,260,2,129,186,183,153,195,111,214,313,50,485,199,281,260,346,70,452,331,304,222,501]","trial_type":"two-door-navigation","trial_index":15,"time_elapsed":459835,"internal_node_id":"0.0-2.0-13.0"},{"group":"tri cycles (cube, non-group)","room_assignment":["green","blue","brown","yellow","grey","purple","pink","red"],"door_color_assignment":["white","black"],"door_generator_assignment":[1,0],"goal":2,"start":5,"action_noise":0.1,"location_history":"[5,2]","action_history":"[0]","door_history":"[1]","location_rts":"[7577]","trial_type":"two-door-navigation","trial_index":16,"time_elapsed":471931,"internal_node_id":"0.0-2.0-14.0"},{"group":"tri cycles (cube, non-group)","room_assignment":["green","blue","brown","yellow","grey","purple","pink","red"],"door_color_assignment":["white","black"],"door_generator_assignment":[1,0],"goal":7,"start":2,"action_noise":0.1,"location_history":"[2,1,5,1,0,2,6,4,7]","action_history":"[0,1,0,0,0,1,0,0]","door_history":"[1,0,1,1,1,0,1,1]","location_rts":"[1364,63,355,169,252,217,192,369]","trial_type":"two-door-navigation","trial_index":17,"time_elapsed":486558,"internal_node_id":"0.0-2.0-15.0"},{"group":"tri cycles (cube, non-group)","room_assignment":["green","blue","brown","yellow","grey","purple","pink","red"],"door_color_assignment":["white","black"],"door_generator_assignment":[1,0],"goal":4,"start":7,"action_noise":0.1,"location_history":"[7,6,4]","action_history":"[0,0]","door_history":"[1,1]","location_rts":"[1325,96]","trial_type":"two-door-navigation","trial_index":18,"time_elapsed":493513,"internal_node_id":"0.0-2.0-16.0"},{"group":"tri cycles (cube, non-group)","room_assignment":["green","blue","brown","yellow","grey","purple","pink","red"],"door_color_assignment":["white","black"],"door_generator_assignment":[1,0],"goal":2,"start":4,"action_noise":0.1,"location_history":"[4,7,3,4,0,3,4,0,2]","action_history":"[0,1,1,1,1,1,1,0]","door_history":"[1,0,0,0,0,0,0,1]","location_rts":"[968,191,190,172,227,172,194,1230]","trial_type":"two-door-navigation","trial_index":19,"time_elapsed":508499,"internal_node_id":"0.0-2.0-17.0"},{"group":"tri cycles (cube, non-group)","room_assignment":["green","blue","brown","yellow","grey","purple","pink","red"],"door_color_assignment":["white","black"],"door_generator_assignment":[1,0],"goal":3,"start":2,"action_noise":0.1,"location_history":"[2,6,5,2,6,5,2,6,5,2,6,4,7,3]","action_history":"[0,1,1,1,1,1,1,1,1,1,0,0,1]","door_history":"[1,0,0,0,0,0,0,0,0,0,1,1,0]","location_rts":"[813,91,17,202,183,250,259,198,142,118,104,116,450]","trial_type":"two-door-navigation","trial_index":20,"time_elapsed":528172,"internal_node_id":"0.0-2.0-18.0"},{"group":"tri cycles (cube, non-group)","room_assignment":["green","blue","brown","yellow","grey","purple","pink","red"],"door_color_assignment":["white","black"],"door_generator_assignment":[1,0],"goal":6,"start":3,"action_noise":0.1,"location_history":"[3,7,6]","action_history":"[0,0]","door_history":"[1,1]","location_rts":"[1066,170]","trial_type":"two-door-navigation","trial_index":21,"time_elapsed":534948,"internal_node_id":"0.0-2.0-19.0"},{"group":"tri cycles (cube, non-group)","room_assignment":["green","blue","brown","yellow","grey","purple","pink","red"],"door_color_assignment":["white","black"],"door_generator_assignment":[1,0],"goal":5,"start":6,"action_noise":0.1,"location_history":"[6,4,7,6,5]","action_history":"[0,0,0,0]","door_history":"[1,1,1,1]","location_rts":"[3604,52,94,145]","trial_type":"two-door-navigation","trial_index":22,"time_elapsed":547303,"internal_node_id":"0.0-2.0-20.0"},{"group":"tri cycles (cube, non-group)","room_assignment":["green","blue","brown","yellow","grey","purple","pink","red"],"door_color_assignment":["white","black"],"door_generator_assignment":[1,0],"goal":1,"start":5,"action_noise":0.1,"location_history":"[5,1]","action_history":"[0]","door_history":"[1]","location_rts":"[2180]","trial_type":"two-door-navigation","trial_index":23,"time_elapsed":554003,"internal_node_id":"0.0-2.0-21.0"},{"group":"tri cycles (cube, non-group)","room_assignment":["green","blue","brown","yellow","grey","purple","pink","red"],"door_color_assignment":["white","black"],"door_generator_assignment":[1,0],"goal":0,"start":1,"action_noise":0.1,"location_history":"[1,0]","action_history":"[0]","door_history":"[1]","location_rts":"[1044]","trial_type":"two-door-navigation","trial_index":24,"time_elapsed":559565,"internal_node_id":"0.0-2.0-22.0"},{"group":"tri cycles (cube, non-group)","room_assignment":["green","blue","brown","yellow","grey","purple","pink","red"],"door_color_assignment":["white","black"],"door_generator_assignment":[1,0],"goal":2,"start":0,"action_noise":0.1,"location_history":"[0,3,4,0,3,4,0,3,7,6,5,2]","action_history":"[0,1,1,1,1,1,1,0,0,1,1]","door_history":"[1,0,0,0,0,0,0,1,1,0,0]","location_rts":"[898,244,102,164,206,62,85,166,30,47,193]","trial_type":"two-door-navigation","trial_index":25,"time_elapsed":576459,"internal_node_id":"0.0-2.0-23.0"},{"group":"tri cycles (cube, non-group)","room_assignment":["green","blue","brown","yellow","grey","purple","pink","red"],"door_color_assignment":["white","black"],"door_generator_assignment":[1,0],"goal":6,"start":2,"action_noise":0.1,"location_history":"[2,1,0,2,1,0,3,7,6]","action_history":"[0,0,0,0,0,1,0,0]","door_history":"[1,1,1,1,1,0,1,1]","location_rts":"[1522,324,667,524,462,362,555,256]","trial_type":"two-door-navigation","trial_index":26,"time_elapsed":592767,"internal_node_id":"0.0-2.0-24.0"},{"group":"tri cycles (cube, non-group)","room_assignment":["green","blue","brown","yellow","grey","purple","pink","red"],"door_color_assignment":["white","black"],"door_generator_assignment":[1,0],"goal":1,"start":6,"action_noise":0.1,"location_history":"[6,4,7,6,5,2,6,4,7,6,5,1]","action_history":"[0,0,0,1,1,1,0,0,0,1,0]","door_history":"[1,1,1,0,0,0,1,1,1,0,1]","location_rts":"[1103,312,275,426,274,506,463,1258,262,329,260]","trial_type":"two-door-navigation","trial_index":27,"time_elapsed":612919,"internal_node_id":"0.0-2.0-25.0"},{"group":"tri cycles (cube, non-group)","room_assignment":["green","blue","brown","yellow","grey","purple","pink","red"],"door_color_assignment":["white","black"],"door_generator_assignment":[1,0],"goal":3,"start":1,"action_noise":0.1,"location_history":"[1,0,2,1,0,3]","action_history":"[0,0,0,0,1]","door_history":"[1,1,1,1,0]","location_rts":"[932,3594,108,112,258]","trial_type":"two-door-navigation","trial_index":28,"time_elapsed":626513,"internal_node_id":"0.0-2.0-26.0"},{"group":"tri cycles (cube, non-group)","room_assignment":["green","blue","brown","yellow","grey","purple","pink","red"],"door_color_assignment":["white","black"],"door_generator_assignment":[1,0],"goal":7,"start":3,"action_noise":0.1,"location_history":"[3,7]","action_history":"[0]","door_history":"[1]","location_rts":"[318]","trial_type":"two-door-navigation","trial_index":29,"time_elapsed":631365,"internal_node_id":"0.0-2.0-27.0"},{"group":"tri cycles (cube, non-group)","room_assignment":["green","blue","brown","yellow","grey","purple","pink","red"],"door_color_assignment":["white","black"],"door_generator_assignment":[1,0],"goal":4,"start":7,"action_noise":0.1,"location_history":"[7,6,4]","action_history":"[0,0]","door_history":"[1,1]","location_rts":"[364,167]","trial_type":"two-door-navigation","trial_index":30,"time_elapsed":637431,"internal_node_id":"0.0-2.0-28.0"},{"group":"tri cycles (cube, non-group)","room_assignment":["green","blue","brown","yellow","grey","purple","pink","red"],"door_color_assignment":["white","black"],"door_generator_assignment":[1,0],"goal":0,"start":4,"action_noise":0.1,"location_history":"[4,7,6,4,7,3,7,6,4,7,3,4,7,6,4,0]","action_history":"[0,0,0,0,1,0,0,0,0,1,0,0,0,0,1]","door_history":"[1,1,1,1,0,1,1,1,1,0,1,1,1,1,0]","location_rts":"[473,228,202,985,261,1316,138,227,407,273,2735,199,204,679,195]","trial_type":"two-door-navigation","trial_index":31,"time_elapsed":664716,"internal_node_id":"0.0-2.0-29.0"},{"group":"tri cycles (cube, non-group)","room_assignment":["green","blue","brown","yellow","grey","purple","pink","red"],"door_color_assignment":["white","black"],"door_generator_assignment":[1,0],"goal":5,"start":0,"action_noise":0.1,"location_history":"[0,3,4,7,3,7,6,4,0,2,1,0,3,7,6,4,7,3,7,6,4,7,6,5]","action_history":"[0,0,0,1,0,0,0,1,0,0,0,1,0,0,0,0,1,0,0,0,0,0,1]","door_history":"[1,1,1,0,1,1,1,0,1,1,1,0,1,1,1,1,0,1,1,1,1,1,0]","location_rts":"[2859,267,149,295,280,173,252,290,335,319,592,190,186,219,211,227,237,180,251,218,284,596,206]","trial_type":"two-door-navigation","trial_index":32,"time_elapsed":700437,"internal_node_id":"0.0-2.0-30.0"},{"group":"tri cycles (cube, non-group)","room_assignment":["green","blue","brown","yellow","grey","purple","pink","red"],"door_color_assignment":["white","black"],"door_generator_assignment":[1,0],"goal":3,"start":5,"action_noise":0.1,"location_history":"[5,1,0,2,6,4,7,6,4,0,2,1,0,2,6,4,7,6,4,7,6,4,0,2,1,5,1,0,2,1,5,2,6,5,1,0,2,1,0,3]","action_history":"[0,0,0,1,0,0,0,0,1,0,0,0,0,1,0,0,0,0,0,0,0,1,0,0,1,0,0,0,1,1,1,1,1,0,0,0,0,0,1]","door_history":"[1,1,1,0,1,1,1,1,0,1,1,1,1,0,1,1,1,1,1,1,1,0,1,1,0,1,1,1,0,0,0,0,0,1,1,1,1,1,0]","location_rts":"[9550,203,140,234,199,174,166,182,306,134,132,118,144,365,173,134,24,306,180,271,329,101,111,299,67,202,148,172,203,30,172,189,173,210,148,156,273,117,207]","trial_type":"two-door-navigation","trial_index":33,"time_elapsed":760105,"internal_node_id":"0.0-2.0-31.0"},{"group":"tri cycles (cube, non-group)","room_assignment":["green","blue","brown","yellow","grey","purple","pink","red"],"door_color_assignment":["white","black"],"door_generator_assignment":[1,0],"goal":2,"start":3,"action_noise":0.1,"location_history":"[3,7,6,4,0,2]","action_history":"[0,0,0,1,0]","door_history":"[1,1,1,0,1]","location_rts":"[1134,83,158,197,147]","trial_type":"two-door-navigation","trial_index":34,"time_elapsed":770417,"internal_node_id":"0.0-2.0-32.0"},{"group":"tri cycles (cube, non-group)","room_assignment":["green","blue","brown","yellow","grey","purple","pink","red"],"door_color_assignment":["white","black"],"door_generator_assignment":[1,0],"goal":6,"start":2,"action_noise":0.1,"location_history":"[2,1,0,2,1,5,1,0,2,1,5,2,1,0,2,1,5,1,0,2,1,0,3,7,6]","action_history":"[0,0,0,0,1,0,0,0,0,0,1,0,0,0,0,1,0,0,0,0,0,0,0,0]","door_history":"[1,1,1,1,0,1,1,1,1,1,0,1,1,1,1,0,1,1,1,1,1,1,1,1]","location_rts":"[817,116,125,213,252,179,883,86,181,723,378,1298,157,50,143,341,32,182,55,418,385,139,519,244]","trial_type":"two-door-navigation","trial_index":35,"time_elapsed":806243,"internal_node_id":"0.0-2.0-33.0"},{"group":"tri cycles (cube, non-group)","room_assignment":["green","blue","brown","yellow","grey","purple","pink","red"],"door_color_assignment":["white","black"],"door_generator_assignment":[1,0],"goal":1,"start":6,"action_noise":0.1,"location_history":"[6,4,7,6,5,1]","action_history":"[0,0,0,1,0]","door_history":"[1,1,1,0,1]","location_rts":"[23941,85,177,180,250]","trial_type":"two-door-navigation","trial_index":36,"time_elapsed":839471,"internal_node_id":"0.0-2.0-34.0"},{"group":"tri cycles (cube, non-group)","room_assignment":["green","blue","brown","yellow","grey","purple","pink","red"],"door_color_assignment":["white","black"],"door_generator_assignment":[1,0],"goal":7,"start":1,"action_noise":0.1,"location_history":"[1,0,2,1,0,2,6,5,1,0,2,1,5,1,0,3,7]","action_history":"[0,0,0,0,0,1,0,0,0,0,0,1,0,0,1,0]","door_history":"[1,1,1,1,1,0,1,1,1,1,1,0,1,1,0,1]","location_rts":"[369,191,126,203,215,236,103,143,112,303,397,252,337,268,198,171]","trial_type":"two-door-navigation","trial_index":37,"time_elapsed":862862,"internal_node_id":"0.0-2.0-35.0"},{"group":"tri cycles (cube, non-group)","room_assignment":["green","blue","brown","yellow","grey","purple","pink","red"],"door_color_assignment":["white","black"],"door_generator_assignment":[1,0],"goal":4,"start":7,"action_noise":0.1,"location_history":"[7,6,4]","action_history":"[0,0]","door_history":"[1,1]","location_rts":"[1552,1463]","trial_type":"two-door-navigation","trial_index":38,"time_elapsed":871412,"internal_node_id":"0.0-2.0-36.0"},{"group":"tri cycles (cube, non-group)","room_assignment":["green","blue","brown","yellow","grey","purple","pink","red"],"door_color_assignment":["white","black"],"door_generator_assignment":[1,0],"goal":5,"start":4,"action_noise":0.1,"location_history":"[4,7,6,4,7,3,7,6,4,7,6,4,7,3,4,0,2,1,0,3,7,6,4,7,6,4,7,6,5]","action_history":"[0,0,0,0,1,0,0,0,0,0,0,1,0,0,0,0,0,0,1,0,0,0,0,0,0,0,0,0]","door_history":"[1,1,1,1,0,1,1,1,1,1,1,0,1,1,1,1,1,1,0,1,1,1,1,1,1,1,1,1]","location_rts":"[1900,293,36,166,259,204,410,124,3085,1310,142,280,78,219,283,165,273,455,136,218,70,290,1079,44,431,415,264,290]","trial_type":"two-door-navigation","trial_index":39,"time_elapsed":916316,"internal_node_id":"0.0-2.0-37.0"},{"group":"tri cycles (cube, non-group)","room_assignment":["green","blue","brown","yellow","grey","purple","pink","red"],"door_color_assignment":["white","black"],"door_generator_assignment":[1,0],"goal":0,"start":5,"action_noise":0.1,"location_history":"[5,1,0]","action_history":"[0,0]","door_history":"[1,1]","location_rts":"[2464,747]","trial_type":"two-door-navigation","trial_index":40,"time_elapsed":925064,"internal_node_id":"0.0-2.0-38.0"},{"group":"tri cycles (cube, non-group)","room_assignment":["green","blue","brown","yellow","grey","purple","pink","red"],"door_color_assignment":["white","black"],"door_generator_assignment":[1,0],"goal":4,"start":0,"action_noise":0.1,"location_history":"[0,3,7,6,4]","action_history":"[0,0,0,0]","door_history":"[1,1,1,1]","location_rts":"[1386,226,157,280]","trial_type":"two-door-navigation","trial_index":41,"time_elapsed":934684,"internal_node_id":"0.0-2.0-39.0"},{"group":"tri cycles (cube, non-group)","room_assignment":["green","blue","brown","yellow","grey","purple","pink","red"],"door_color_assignment":["white","black"],"door_generator_assignment":[1,0],"goal":0,"start":4,"action_noise":0.1,"location_history":"[4,7,3,7,6,5,2,6,5,2,1,0]","action_history":"[0,0,0,0,1,1,1,1,1,0,0]","door_history":"[1,1,1,1,0,0,0,0,0,1,1]","location_rts":"[961,235,202,230,157,235,245,134,249,3398,335]","trial_type":"two-door-navigation","trial_index":42,"time_elapsed":955762,"internal_node_id":"0.0-2.0-40.0"},{"group":"tri cycles (cube, non-group)","room_assignment":["green","blue","brown","yellow","grey","purple","pink","red"],"door_color_assignment":["white","black"],"door_generator_assignment":[1,0],"goal":2,"start":0,"action_noise":0.1,"location_history":"[0,2]","action_history":"[0]","door_history":"[1]","location_rts":"[68039]","trial_type":"two-door-navigation","trial_index":43,"time_elapsed":1028321,"internal_node_id":"0.0-2.0-41.0"},{"group":"tri cycles (cube, non-group)","room_assignment":["green","blue","brown","yellow","grey","purple","pink","red"],"door_color_assignment":["white","black"],"door_generator_assignment":[1,0],"goal":3,"start":2,"action_noise":0.1,"location_history":"[2,1,0,2,1,0,3]","action_history":"[0,0,0,0,0,1]","door_history":"[1,1,1,1,1,0]","location_rts":"[9610,266,61,150,52,368]","trial_type":"two-door-navigation","trial_index":44,"time_elapsed":1048955,"internal_node_id":"0.0-2.0-42.0"},{"group":"tri cycles (cube, non-group)","room_assignment":["green","blue","brown","yellow","grey","purple","pink","red"],"door_color_assignment":["white","black"],"door_generator_assignment":[1,0],"goal":5,"start":3,"action_noise":0.1,"location_history":"[3,4,7,6,4,7,3,4,0,3,4,0,3,4,7,3,7,3,7,3,4,0,3,7,6,5]","action_history":"[0,0,0,0,0,1,1,1,1,1,1,1,1,1,1,1,1,1,1,1,1,1,0,0,0]","door_history":"[1,1,1,1,1,0,0,0,0,0,0,0,0,0,0,0,0,0,0,0,0,0,1,1,1]","location_rts":"[615,1917,671,508,155,104,172,300,845,241,172,898,685,140,149,55,87,101,61,293,203,120,391,462,600]","trial_type":"two-door-navigation","trial_index":45,"time_elapsed":1087833,"internal_node_id":"0.0-2.0-43.0"},{"group":"tri cycles (cube, non-group)","room_assignment":["green","blue","brown","yellow","grey","purple","pink","red"],"door_color_assignment":["white","black"],"door_generator_assignment":[1,0],"goal":1,"start":5,"action_noise":0.1,"location_history":"[5,1]","action_history":"[0]","door_history":"[1]","location_rts":"[701]","trial_type":"two-door-navigation","trial_index":46,"time_elapsed":1093053,"internal_node_id":"0.0-2.0-44.0"},{"group":"tri cycles (cube, non-group)","room_assignment":["green","blue","brown","yellow","grey","purple","pink","red"],"door_color_assignment":["white","black"],"door_generator_assignment":[1,0],"goal":7,"start":1,"action_noise":0.1,"location_history":"[1,5,1,0,2,1,5,2,1,5,1,0,3,4,7]","action_history":"[0,0,0,0,0,1,1,0,1,0,0,0,0,0]","door_history":"[1,1,1,1,1,0,0,1,0,1,1,1,1,1]","location_rts":"[427,88,73,125,74,57,31,78,67,158,21,63,95,15]","trial_type":"two-door-navigation","trial_index":47,"time_elapsed":1112164,"internal_node_id":"0.0-2.0-45.0"},{"group":"tri cycles (cube, non-group)","room_assignment":["green","blue","brown","yellow","grey","purple","pink","red"],"door_color_assignment":["white","black"],"door_generator_assignment":[1,0],"goal":6,"start":7,"action_noise":0.1,"location_history":"[7,6]","action_history":"[0]","door_history":"[1]","location_rts":"[92761]","trial_type":"two-door-navigation","trial_index":48,"time_elapsed":1209444,"internal_node_id":"0.0-2.0-46.0"},{"group":"tri cycles (cube, non-group)","room_assignment":["green","blue","brown","yellow","grey","purple","pink","red"],"door_color_assignment":["white","black"],"door_generator_assignment":[1,0],"goal":3,"start":6,"action_noise":0.1,"location_history":"[6,4,7,6,4,7,6,4,0,2,1,0,3]","action_history":"[0,0,0,0,0,0,0,0,0,0,0,1]","door_history":"[1,1,1,1,1,1,1,1,1,1,1,0]","location_rts":"[5343,271,148,253,289,4035,74,221,126,71,342,627]","trial_type":"two-door-navigation","trial_index":49,"time_elapsed":1236950,"internal_node_id":"0.0-2.0-47.0"},{"group":"tri cycles (cube, non-group)","room_assignment":["green","blue","brown","yellow","grey","purple","pink","red"],"door_color_assignment":["white","black"],"door_generator_assignment":[1,0],"goal":0,"start":3,"action_noise":0.1,"location_history":"[3,7,6,4,7,3,7,6,4,7,6,4,7,3,4,0]","action_history":"[0,0,0,0,0,1,0,0,0,0,0,0,0,1,1]","door_history":"[1,1,1,1,1,0,1,1,1,1,1,1,1,0,0]","location_rts":"[1540,360,235,104,218,125,510,97,71,92,103,110,110,503,131]","trial_type":"two-door-navigation","trial_index":50,"time_elapsed":1260018,"internal_node_id":"0.0-2.0-48.0"},{"group":"tri cycles (cube, non-group)","room_assignment":["green","blue","brown","yellow","grey","purple","pink","red"],"door_color_assignment":["white","black"],"door_generator_assignment":[1,0],"goal":2,"start":0,"action_noise":0.1,"location_history":"[0,2]","action_history":"[0]","door_history":"[1]","location_rts":"[664]","trial_type":"two-door-navigation","trial_index":51,"time_elapsed":1265203,"internal_node_id":"0.0-2.0-49.0"},{"view_history":"[{\"page_index\":0,\"viewing_time\":2052}]","rt":2053,"trial_type":"instructions","trial_index":52,"time_elapsed":1268257,"internal_node_id":"0.0-3.0"},{"view_history":"[{\"page_index\":0,\"viewing_time\":2489},{\"page_index\":1,\"viewing_time\":40880}]","rt":43369,"trial_type":"instructions","trial_index":53,"time_elapsed":1312626,"internal_node_id":"0.0-4.0"},{"group":"tri cycles (cube, non-group)","fractal_assignment":["../images/ylw_slt.png","../images/pnk_blu.png","../images/org_blu.png","../images/ylw_pnk.png","../images/grn_red.png","../images/cyn_red.png","../images/gry_blk.png","../images/blu_wht.png"],"mutagen_generator_assignment":[0,1],"goal":3,"start":0,"action_noise":0.1,"location_history":"[0,2,1,5,1,0,2,6,4,7,6,5,1,5,2,6,4,0,3]","action_history":"[0,0,1,0,0,0,1,0,0,0,1,0,1,0,1,0,1,0]","mutagen_history":"[0,0,1,0,0,0,1,0,0,0,1,0,1,0,1,0,1,0]","location_rts":"[5061,1203,1891,760,612,479,404,486,88,328,340,580,4,344,652,1001,962,475]","trial_type":"fractal-mutation","trial_index":54,"time_elapsed":1350243,"internal_node_id":"0.0-5.0-0.0"},{"group":"tri cycles (cube, non-group)","fractal_assignment":["../images/ylw_slt.png","../images/pnk_blu.png","../images/org_blu.png","../images/ylw_pnk.png","../images/grn_red.png","../images/cyn_red.png","../images/gry_blk.png","../images/blu_wht.png"],"mutagen_generator_assignment":[0,1],"goal":1,"start":3,"action_noise":0.1,"location_history":"[3,7,6,4,7,3,4,0,3,4,0,3,7,6,4,0,2,6,5,1]","action_history":"[0,0,0,0,0,0,1,1,1,1,1,0,0,0,1,0,1,1,0]","mutagen_history":"[0,0,0,0,0,0,1,1,1,1,1,0,0,0,1,0,1,1,0]","location_rts":"[1993,429,225,164,216,230,412,263,777,307,423,265,448,244,831,862,296,451,777]","trial_type":"fractal-mutation","trial_index":55,"time_elapsed":1382789,"internal_node_id":"0.0-5.0-1.0"},{"group":"tri cycles (cube, non-group)","fractal_assignment":["../images/ylw_slt.png","../images/pnk_blu.png","../images/org_blu.png","../images/ylw_pnk.png","../images/grn_red.png","../images/cyn_red.png","../images/gry_blk.png","../images/blu_wht.png"],"mutagen_generator_assignment":[0,1],"goal":2,"start":1,"action_noise":0.1,"location_history":"[1,0,2]","action_history":"[0,0]","mutagen_history":"[0,0]","location_rts":"[2099,288]","trial_type":"fractal-mutation","trial_index":56,"time_elapsed":1390718,"internal_node_id":"0.0-5.0-2.0"},{"group":"tri cycles (cube, non-group)","fractal_assignment":["../images/ylw_slt.png","../images/pnk_blu.png","../images/org_blu.png","../images/ylw_pnk.png","../images/grn_red.png","../images/cyn_red.png","../images/gry_blk.png","../images/blu_wht.png"],"mutagen_generator_assignment":[0,1],"goal":6,"start":2,"action_noise":0.1,"location_history":"[2,1,0,2,6]","action_history":"[0,0,0,1]","mutagen_history":"[0,0,0,1]","location_rts":"[2461,1040,121,628]","trial_type":"fractal-mutation","trial_index":57,"time_elapsed":1402553,"internal_node_id":"0.0-5.0-3.0"},{"group":"tri cycles (cube, non-group)","fractal_assignment":["../images/ylw_slt.png","../images/pnk_blu.png","../images/org_blu.png","../images/ylw_pnk.png","../images/grn_red.png","../images/cyn_red.png","../images/gry_blk.png","../images/blu_wht.png"],"mutagen_generator_assignment":[0,1],"goal":5,"start":6,"action_noise":0.1,"location_history":"[6,5]","action_history":"[1]","mutagen_history":"[1]","location_rts":"[2989]","trial_type":"fractal-mutation","trial_index":58,"time_elapsed":1410073,"internal_node_id":"0.0-5.0-4.0"},{"group":"tri cycles (cube, non-group)","fractal_assignment":["../images/ylw_slt.png","../images/pnk_blu.png","../images/org_blu.png","../images/ylw_pnk.png","../images/grn_red.png","../images/cyn_red.png","../images/gry_blk.png","../images/blu_wht.png"],"mutagen_generator_assignment":[0,1],"goal":4,"start":5,"action_noise":0.1,"location_history":"[5,1,0,2,6,4]","action_history":"[0,0,0,0,0]","mutagen_history":"[0,0,0,0,0]","location_rts":"[1268,420,339,447,222]","trial_type":"fractal-mutation","trial_index":59,"time_elapsed":1421378,"internal_node_id":"0.0-5.0-5.0"},{"group":"tri cycles (cube, non-group)","fractal_assignment":["../images/ylw_slt.png","../images/pnk_blu.png","../images/org_blu.png","../images/ylw_pnk.png","../images/grn_red.png","../images/cyn_red.png","../images/gry_blk.png","../images/blu_wht.png"],"mutagen_generator_assignment":[0,1],"goal":7,"start":4,"action_noise":0.1,"location_history":"[4,7]","action_history":"[0]","mutagen_history":"[0]","location_rts":"[436]","trial_type":"fractal-mutation","trial_index":60,"time_elapsed":1426336,"internal_node_id":"0.0-5.0-6.0"},{"group":"tri cycles (cube, non-group)","fractal_assignment":["../images/ylw_slt.png","../images/pnk_blu.png","../images/org_blu.png","../images/ylw_pnk.png","../images/grn_red.png","../images/cyn_red.png","../images/gry_blk.png","../images/blu_wht.png"],"mutagen_generator_assignment":[0,1],"goal":4,"start":7,"action_noise":0.1,"location_history":"[7,6,4]","action_history":"[0,0]","mutagen_history":"[0,0]","location_rts":"[195,282]","trial_type":"fractal-mutation","trial_index":61,"time_elapsed":1432355,"internal_node_id":"0.0-5.0-7.0"},{"group":"tri cycles (cube, non-group)","fractal_assignment":["../images/ylw_slt.png","../images/pnk_blu.png","../images/org_blu.png","../images/ylw_pnk.png","../images/grn_red.png","../images/cyn_red.png","../images/gry_blk.png","../images/blu_wht.png"],"mutagen_generator_assignment":[0,1],"goal":6,"start":4,"action_noise":0.1,"location_history":"[4,7,6]","action_history":"[0,0]","mutagen_history":"[0,0]","location_rts":"[298,258]","trial_type":"fractal-mutation","trial_index":62,"time_elapsed":1438455,"internal_node_id":"0.0-5.0-8.0"},{"group":"tri cycles (cube, non-group)","fractal_assignment":["../images/ylw_slt.png","../images/pnk_blu.png","../images/org_blu.png","../images/ylw_pnk.png","../images/grn_red.png","../images/cyn_red.png","../images/gry_blk.png","../images/blu_wht.png"],"mutagen_generator_assignment":[0,1],"goal":0,"start":6,"action_noise":0.1,"location_history":"[6,4,7,3,7,6,4,0]","action_history":"[0,0,0,0,0,0,1]","mutagen_history":"[0,0,0,0,0,0,1]","location_rts":"[619,306,169,157,232,368,397]","trial_type":"fractal-mutation","trial_index":63,"time_elapsed":1451345,"internal_node_id":"0.0-5.0-9.0"},{"group":"tri cycles (cube, non-group)","fractal_assignment":["../images/ylw_slt.png","../images/pnk_blu.png","../images/org_blu.png","../images/ylw_pnk.png","../images/grn_red.png","../images/cyn_red.png","../images/gry_blk.png","../images/blu_wht.png"],"mutagen_generator_assignment":[0,1],"goal":1,"start":0,"action_noise":0.1,"location_history":"[0,2,1]","action_history":"[0,0]","mutagen_history":"[0,0]","location_rts":"[783,419]","trial_type":"fractal-mutation","trial_index":64,"time_elapsed":1458092,"internal_node_id":"0.0-5.0-10.0"},{"group":"tri cycles (cube, non-group)","fractal_assignment":["../images/ylw_slt.png","../images/pnk_blu.png","../images/org_blu.png","../images/ylw_pnk.png","../images/grn_red.png","../images/cyn_red.png","../images/gry_blk.png","../images/blu_wht.png"],"mutagen_generator_assignment":[0,1],"goal":3,"start":1,"action_noise":0.1,"location_history":"[1,0,2,6,4,7,3]","action_history":"[0,0,1,0,0,0]","mutagen_history":"[0,0,1,0,0,0]","location_rts":"[580,1283,292,488,265,250]","trial_type":"fractal-mutation","trial_index":65,"time_elapsed":1470871,"internal_node_id":"0.0-5.0-11.0"},{"group":"tri cycles (cube, non-group)","fractal_assignment":["../images/ylw_slt.png","../images/pnk_blu.png","../images/org_blu.png","../images/ylw_pnk.png","../images/grn_red.png","../images/cyn_red.png","../images/gry_blk.png","../images/blu_wht.png"],"mutagen_generator_assignment":[0,1],"goal":7,"start":3,"action_noise":0.1,"location_history":"[3,7]","action_history":"[0]","mutagen_history":"[0]","location_rts":"[667]","trial_type":"fractal-mutation","trial_index":66,"time_elapsed":1476060,"internal_node_id":"0.0-5.0-12.0"},{"group":"tri cycles (cube, non-group)","fractal_assignment":["../images/ylw_slt.png","../images/pnk_blu.png","../images/org_blu.png","../images/ylw_pnk.png","../images/grn_red.png","../images/cyn_red.png","../images/gry_blk.png","../images/blu_wht.png"],"mutagen_generator_assignment":[0,1],"goal":5,"start":7,"action_noise":0.1,"location_history":"[7,6,4,0,2,6,4,7,6,5]","action_history":"[0,0,1,0,1,0,1,0,1]","mutagen_history":"[0,0,1,0,1,0,1,0,1]","location_rts":"[243,395,578,1067,424,231,1051,527,531]","trial_type":"fractal-mutation","trial_index":67,"time_elapsed":1493817,"internal_node_id":"0.0-5.0-13.0"},{"group":"tri cycles (cube, non-group)","fractal_assignment":["../images/ylw_slt.png","../images/pnk_blu.png","../images/org_blu.png","../images/ylw_pnk.png","../images/grn_red.png","../images/cyn_red.png","../images/gry_blk.png","../images/blu_wht.png"],"mutagen_generator_assignment":[0,1],"goal":2,"start":5,"action_noise":0.1,"location_history":"[5,1,0,2]","action_history":"[0,0,0]","mutagen_history":"[0,0,0]","location_rts":"[977,514,75]","trial_type":"fractal-mutation","trial_index":68,"time_elapsed":1501945,"internal_node_id":"0.0-5.0-14.0"},{"group":"tri cycles (cube, non-group)","fractal_assignment":["../images/ylw_slt.png","../images/pnk_blu.png","../images/org_blu.png","../images/ylw_pnk.png","../images/grn_red.png","../images/cyn_red.png","../images/gry_blk.png","../images/blu_wht.png"],"mutagen_generator_assignment":[0,1],"goal":7,"start":2,"action_noise":0.1,"location_history":"[2,1,0,2,1,0,2,1,0,2,6,5,2,6,5,2,6,5,1,0,2,1,0,2,6,4,0,2,6,4,0,3,4,7]","action_history":"[0,0,0,0,0,0,0,0,0,1,1,1,1,1,1,1,1,0,0,0,0,0,0,1,0,1,0,1,0,1,1,1,1]","mutagen_history":"[0,0,0,0,0,0,0,0,0,1,1,1,1,1,1,1,1,0,0,0,0,0,0,1,0,1,0,1,0,1,1,1,1]","location_rts":"[224,251,940,564,437,885,60,445,385,72,215,512,6,134,98,154,66,7,10,1039,337,174,234,171,128,158,74,56,55,137,229,86,276]","trial_type":"fractal-mutation","trial_index":69,"time_elapsed":1547823,"internal_node_id":"0.0-5.0-15.0"},{"group":"tri cycles (cube, non-group)","fractal_assignment":["../images/ylw_slt.png","../images/pnk_blu.png","../images/org_blu.png","../images/ylw_pnk.png","../images/grn_red.png","../images/cyn_red.png","../images/gry_blk.png","../images/blu_wht.png"],"mutagen_generator_assignment":[0,1],"goal":4,"start":7,"action_noise":0.1,"location_history":"[7,6,4]","action_history":"[0,0]","mutagen_history":"[0,0]","location_rts":"[1810,264]","trial_type":"fractal-mutation","trial_index":70,"time_elapsed":1555432,"internal_node_id":"0.0-5.0-16.0"},{"group":"tri cycles (cube, non-group)","fractal_assignment":["../images/ylw_slt.png","../images/pnk_blu.png","../images/org_blu.png","../images/ylw_pnk.png","../images/grn_red.png","../images/cyn_red.png","../images/gry_blk.png","../images/blu_wht.png"],"mutagen_generator_assignment":[0,1],"goal":2,"start":4,"action_noise":0.1,"location_history":"[4,7,6,5,1,0,2]","action_history":"[0,0,0,0,0,0]","mutagen_history":"[0,0,0,0,0,0]","location_rts":"[882,461,154,245,232,95]","trial_type":"fractal-mutation","trial_index":71,"time_elapsed":1567121,"internal_node_id":"0.0-5.0-17.0"},{"group":"tri cycles (cube, non-group)","fractal_assignment":["../images/ylw_slt.png","../images/pnk_blu.png","../images/org_blu.png","../images/ylw_pnk.png","../images/grn_red.png","../images/cyn_red.png","../images/gry_blk.png","../images/blu_wht.png"],"mutagen_generator_assignment":[0,1],"goal":3,"start":2,"action_noise":0.1,"location_history":"[2,1,0,2,6,5,1,5,2,6,4,7,6,5,1,5,2,6,5,2,1,5,1,5,1,0,3]","action_history":"[0,0,0,0,1,0,1,1,1,1,1,1,1,0,1,1,1,1,1,0,1,0,1,0,0,1]","mutagen_history":"[0,0,0,0,1,0,1,1,1,1,1,1,1,0,1,1,1,1,1,0,1,0,1,0,0,1]","location_rts":"[3406,122,223,290,135,102,132,870,142,252,304,7406,214,417,235,240,526,252,252,193,655,436,350,354,211,415]","trial_type":"fractal-mutation","trial_index":72,"time_elapsed":1615350,"internal_node_id":"0.0-5.0-18.0"},{"group":"tri cycles (cube, non-group)","fractal_assignment":["../images/ylw_slt.png","../images/pnk_blu.png","../images/org_blu.png","../images/ylw_pnk.png","../images/grn_red.png","../images/cyn_red.png","../images/gry_blk.png","../images/blu_wht.png"],"mutagen_generator_assignment":[0,1],"goal":6,"start":3,"action_noise":0.1,"location_history":"[3,7,6]","action_history":"[0,0]","mutagen_history":"[0,0]","location_rts":"[1923,582]","trial_type":"fractal-mutation","trial_index":73,"time_elapsed":1623398,"internal_node_id":"0.0-5.0-19.0"},{"group":"tri cycles (cube, non-group)","fractal_assignment":["../images/ylw_slt.png","../images/pnk_blu.png","../images/org_blu.png","../images/ylw_pnk.png","../images/grn_red.png","../images/cyn_red.png","../images/gry_blk.png","../images/blu_wht.png"],"mutagen_generator_assignment":[0,1],"goal":5,"start":6,"action_noise":0.1,"location_history":"[6,5]","action_history":"[0]","mutagen_history":"[0]","location_rts":"[287]","trial_type":"fractal-mutation","trial_index":74,"time_elapsed":1628207,"internal_node_id":"0.0-5.0-20.0"},{"group":"tri cycles (cube, non-group)","fractal_assignment":["../images/ylw_slt.png","../images/pnk_blu.png","../images/org_blu.png","../images/ylw_pnk.png","../images/grn_red.png","../images/cyn_red.png","../images/gry_blk.png","../images/blu_wht.png"],"mutagen_generator_assignment":[0,1],"goal":1,"start":5,"action_noise":0.1,"location_history":"[5,1]","action_history":"[0]","mutagen_history":"[0]","location_rts":"[1274]","trial_type":"fractal-mutation","trial_index":75,"time_elapsed":1634004,"internal_node_id":"0.0-5.0-21.0"},{"group":"tri cycles (cube, non-group)","fractal_assignment":["../images/ylw_slt.png","../images/pnk_blu.png","../images/org_blu.png","../images/ylw_pnk.png","../images/grn_red.png","../images/cyn_red.png","../images/gry_blk.png","../images/blu_wht.png"],"mutagen_generator_assignment":[0,1],"goal":0,"start":1,"action_noise":0.1,"location_history":"[1,0]","action_history":"[0]","mutagen_history":"[0]","location_rts":"[2615]","trial_type":"fractal-mutation","trial_index":76,"time_elapsed":1641145,"internal_node_id":"0.0-5.0-22.0"},{"group":"tri cycles (cube, non-group)","fractal_assignment":["../images/ylw_slt.png","../images/pnk_blu.png","../images/org_blu.png","../images/ylw_pnk.png","../images/grn_red.png","../images/cyn_red.png","../images/gry_blk.png","../images/blu_wht.png"],"mutagen_generator_assignment":[0,1],"goal":2,"start":0,"action_noise":0.1,"location_history":"[0,2]","action_history":"[0]","mutagen_history":"[0]","location_rts":"[1548]","trial_type":"fractal-mutation","trial_index":77,"time_elapsed":1647215,"internal_node_id":"0.0-5.0-23.0"},{"group":"tri cycles (cube, non-group)","fractal_assignment":["../images/ylw_slt.png","../images/pnk_blu.png","../images/org_blu.png","../images/ylw_pnk.png","../images/grn_red.png","../images/cyn_red.png","../images/gry_blk.png","../images/blu_wht.png"],"mutagen_generator_assignment":[0,1],"goal":6,"start":2,"action_noise":0.1,"location_history":"[2,1,5,2,6]","action_history":"[0,1,1,1]","mutagen_history":"[0,1,1,1]","location_rts":"[897,2149,1111,544]","trial_type":"fractal-mutation","trial_index":78,"time_elapsed":1659514,"internal_node_id":"0.0-5.0-24.0"},{"group":"tri cycles (cube, non-group)","fractal_assignment":["../images/ylw_slt.png","../images/pnk_blu.png","../images/org_blu.png","../images/ylw_pnk.png","../images/grn_red.png","../images/cyn_red.png","../images/gry_blk.png","../images/blu_wht.png"],"mutagen_generator_assignment":[0,1],"goal":1,"start":6,"action_noise":0.1,"location_history":"[6,4,7,6,5,1]","action_history":"[0,0,0,0,0]","mutagen_history":"[0,0,0,0,0]","location_rts":"[2569,410,232,243,551]","trial_type":"fractal-mutation","trial_index":79,"time_elapsed":1672121,"internal_node_id":"0.0-5.0-25.0"},{"group":"tri cycles (cube, non-group)","fractal_assignment":["../images/ylw_slt.png","../images/pnk_blu.png","../images/org_blu.png","../images/ylw_pnk.png","../images/grn_red.png","../images/cyn_red.png","../images/gry_blk.png","../images/blu_wht.png"],"mutagen_generator_assignment":[0,1],"goal":3,"start":1,"action_noise":0.1,"location_history":"[1,0,2,1,5,1,5,2,1,5,2,6,4,0,2,1,5,2,6,4,0,2,1,0,2,1,0,3]","action_history":"[0,0,1,1,1,1,1,1,1,1,1,0,1,0,0,1,1,1,1,1,0,0,0,0,0,1,1]","mutagen_history":"[0,0,1,1,1,1,1,1,1,1,1,0,1,0,0,1,1,1,1,1,0,0,0,0,0,1,1]","location_rts":"[1142,228,771,235,324,174,198,273,337,636,774,228,229,810,445,255,166,369,224,44,125,256,130,10,256,725,516]","trial_type":"fractal-mutation","trial_index":80,"time_elapsed":1713142,"internal_node_id":"0.0-5.0-26.0"},{"group":"tri cycles (cube, non-group)","fractal_assignment":["../images/ylw_slt.png","../images/pnk_blu.png","../images/org_blu.png","../images/ylw_pnk.png","../images/grn_red.png","../images/cyn_red.png","../images/gry_blk.png","../images/blu_wht.png"],"mutagen_generator_assignment":[0,1],"goal":7,"start":3,"action_noise":0.1,"location_history":"[3,4,0,2,6,4,0,2,6,5,1,5,2,1,5,2,1,5,2,6,5,2,6,5,2,6,5,1,0,2,1,0,3,4,7]","action_history":"[1,1,0,0,0,1,0,1,1,1,1,1,0,1,1,0,1,1,1,1,0,1,1,1,1,1,0,0,0,0,0,0,1,0]","mutagen_history":"[1,1,0,0,0,1,0,1,1,1,1,1,0,1,1,0,1,1,1,1,0,1,1,1,1,1,0,0,0,0,0,0,1,0]","location_rts":"[559,260,245,250,163,2389,602,791,295,263,244,218,212,64,347,123,206,156,647,350,577,1128,172,593,116,204,23,80,195,199,142,33,766,596]","trial_type":"fractal-mutation","trial_index":81,"time_elapsed":1764631,"internal_node_id":"0.0-5.0-27.0"},{"group":"tri cycles (cube, non-group)","fractal_assignment":["../images/ylw_slt.png","../images/pnk_blu.png","../images/org_blu.png","../images/ylw_pnk.png","../images/grn_red.png","../images/cyn_red.png","../images/gry_blk.png","../images/blu_wht.png"],"mutagen_generator_assignment":[0,1],"goal":4,"start":7,"action_noise":0.1,"location_history":"[7,6,4]","action_history":"[1,0]","mutagen_history":"[1,0]","location_rts":"[2655,1117]","trial_type":"fractal-mutation","trial_index":82,"time_elapsed":1773955,"internal_node_id":"0.0-5.0-28.0"},{"group":"tri cycles (cube, non-group)","fractal_assignment":["../images/ylw_slt.png","../images/pnk_blu.png","../images/org_blu.png","../images/ylw_pnk.png","../images/grn_red.png","../images/cyn_red.png","../images/gry_blk.png","../images/blu_wht.png"],"mutagen_generator_assignment":[0,1],"goal":0,"start":4,"action_noise":0.1,"location_history":"[4,0]","action_history":"[1]","mutagen_history":"[1]","location_rts":"[2135]","trial_type":"fractal-mutation","trial_index":83,"time_elapsed":1780617,"internal_node_id":"0.0-5.0-29.0"},{"group":"tri cycles (cube, non-group)","fractal_assignment":["../images/ylw_slt.png","../images/pnk_blu.png","../images/org_blu.png","../images/ylw_pnk.png","../images/grn_red.png","../images/cyn_red.png","../images/gry_blk.png","../images/blu_wht.png"],"mutagen_generator_assignment":[0,1],"goal":5,"start":0,"action_noise":0.1,"location_history":"[0,2,6,5]","action_history":"[1,1,1]","mutagen_history":"[1,1,1]","location_rts":"[1679,192,895]","trial_type":"fractal-mutation","trial_index":84,"time_elapsed":1789964,"internal_node_id":"0.0-5.0-30.0"},{"group":"tri cycles (cube, non-group)","fractal_assignment":["../images/ylw_slt.png","../images/pnk_blu.png","../images/org_blu.png","../images/ylw_pnk.png","../images/grn_red.png","../images/cyn_red.png","../images/gry_blk.png","../images/blu_wht.png"],"mutagen_generator_assignment":[0,1],"goal":3,"start":5,"action_noise":0.1,"location_history":"[5,2,6,4,0,3]","action_history":"[1,1,0,1,1]","mutagen_history":"[1,1,0,1,1]","location_rts":"[2633,834,318,517,474]","trial_type":"fractal-mutation","trial_index":85,"time_elapsed":1803364,"internal_node_id":"0.0-5.0-31.0"},{"group":"tri cycles (cube, non-group)","fractal_assignment":["../images/ylw_slt.png","../images/pnk_blu.png","../images/org_blu.png","../images/ylw_pnk.png","../images/grn_red.png","../images/cyn_red.png","../images/gry_blk.png","../images/blu_wht.png"],"mutagen_generator_assignment":[0,1],"goal":2,"start":3,"action_noise":0.1,"location_history":"[3,7,6,5,2]","action_history":"[0,0,1,1]","mutagen_history":"[0,0,1,1]","location_rts":"[1569,292,265,571]","trial_type":"fractal-mutation","trial_index":86,"time_elapsed":1813652,"internal_node_id":"0.0-5.0-32.0"},{"group":"tri cycles (cube, non-group)","fractal_assignment":["../images/ylw_slt.png","../images/pnk_blu.png","../images/org_blu.png","../images/ylw_pnk.png","../images/grn_red.png","../images/cyn_red.png","../images/gry_blk.png","../images/blu_wht.png"],"mutagen_generator_assignment":[0,1],"goal":6,"start":2,"action_noise":0.1,"location_history":"[2,6]","action_history":"[1]","mutagen_history":"[1]","location_rts":"[1091]","trial_type":"fractal-mutation","trial_index":87,"time_elapsed":1819273,"internal_node_id":"0.0-5.0-33.0"},{"group":"tri cycles (cube, non-group)","fractal_assignment":["../images/ylw_slt.png","../images/pnk_blu.png","../images/org_blu.png","../images/ylw_pnk.png","../images/grn_red.png","../images/cyn_red.png","../images/gry_blk.png","../images/blu_wht.png"],"mutagen_generator_assignment":[0,1],"goal":1,"start":6,"action_noise":0.1,"location_history":"[6,5,2,6,5,1]","action_history":"[1,1,1,1,0]","mutagen_history":"[1,1,1,1,0]","location_rts":"[1288,1016,238,486,264]","trial_type":"fractal-mutation","trial_index":88,"time_elapsed":1831189,"internal_node_id":"0.0-5.0-34.0"},{"group":"tri cycles (cube, non-group)","fractal_assignment":["../images/ylw_slt.png","../images/pnk_blu.png","../images/org_blu.png","../images/ylw_pnk.png","../images/grn_red.png","../images/cyn_red.png","../images/gry_blk.png","../images/blu_wht.png"],"mutagen_generator_assignment":[0,1],"goal":7,"start":1,"action_noise":0.1,"location_history":"[1,5,2,6,5,2,1,0,3,4,0,2,1,0,3,4,0,2,1,5,2,6,5,1,0,3,7]","action_history":"[1,1,1,1,1,1,0,1,1,1,0,0,0,1,1,1,0,0,1,1,1,1,1,0,1,0]","mutagen_history":"[1,1,1,1,1,1,0,1,1,1,0,0,0,1,1,1,0,0,1,1,1,1,1,0,1,0]","location_rts":"[898,1214,643,649,261,1403,14334,32,1950,479,225,234,195,318,148,436,428,552,244,823,463,298,336,399,386,261]","trial_type":"fractal-mutation","trial_index":89,"time_elapsed":1888947,"internal_node_id":"0.0-5.0-35.0"},{"group":"tri cycles (cube, non-group)","fractal_assignment":["../images/ylw_slt.png","../images/pnk_blu.png","../images/org_blu.png","../images/ylw_pnk.png","../images/grn_red.png","../images/cyn_red.png","../images/gry_blk.png","../images/blu_wht.png"],"mutagen_generator_assignment":[0,1],"goal":4,"start":7,"action_noise":0.1,"location_history":"[7,6,4]","action_history":"[1,1]","mutagen_history":"[1,1]","location_rts":"[2854,365]","trial_type":"fractal-mutation","trial_index":90,"time_elapsed":1897720,"internal_node_id":"0.0-5.0-36.0"},{"group":"tri cycles (cube, non-group)","fractal_assignment":["../images/ylw_slt.png","../images/pnk_blu.png","../images/org_blu.png","../images/ylw_pnk.png","../images/grn_red.png","../images/cyn_red.png","../images/gry_blk.png","../images/blu_wht.png"],"mutagen_generator_assignment":[0,1],"goal":5,"start":4,"action_noise":0.1,"location_history":"[4,0,2,1,0,2,1,0,3,4,0,3,4,0,2,1,5]","action_history":"[1,0,0,0,0,0,0,1,1,1,1,1,1,1,0,1]","mutagen_history":"[1,0,0,0,0,0,0,1,1,1,1,1,1,1,0,1]","location_rts":"[704,622,214,223,263,266,307,114,209,269,34,83,166,207,215,74]","trial_type":"fractal-mutation","trial_index":91,"time_elapsed":1921548,"internal_node_id":"0.0-5.0-37.0"},{"group":"tri cycles (cube, non-group)","fractal_assignment":["../images/ylw_slt.png","../images/pnk_blu.png","../images/org_blu.png","../images/ylw_pnk.png","../images/grn_red.png","../images/cyn_red.png","../images/gry_blk.png","../images/blu_wht.png"],"mutagen_generator_assignment":[0,1],"goal":0,"start":5,"action_noise":0.1,"location_history":"[5,2,1,0]","action_history":"[1,1,1]","mutagen_history":"[1,1,1]","location_rts":"[2787,157,234]","trial_type":"fractal-mutation","trial_index":92,"time_elapsed":1931309,"internal_node_id":"0.0-5.0-38.0"},{"group":"tri cycles (cube, non-group)","fractal_assignment":["../images/ylw_slt.png","../images/pnk_blu.png","../images/org_blu.png","../images/ylw_pnk.png","../images/grn_red.png","../images/cyn_red.png","../images/gry_blk.png","../images/blu_wht.png"],"mutagen_generator_assignment":[0,1],"goal":4,"start":0,"action_noise":0.1,"location_history":"[0,3,4]","action_history":"[1,1]","mutagen_history":"[1,1]","location_rts":"[422,235]","trial_type":"fractal-mutation","trial_index":93,"time_elapsed":1937517,"internal_node_id":"0.0-5.0-39.0"},{"group":"tri cycles (cube, non-group)","fractal_assignment":["../images/ylw_slt.png","../images/pnk_blu.png","../images/org_blu.png","../images/ylw_pnk.png","../images/grn_red.png","../images/cyn_red.png","../images/gry_blk.png","../images/blu_wht.png"],"mutagen_generator_assignment":[0,1],"goal":0,"start":4,"action_noise":0.1,"location_history":"[4,0]","action_history":"[1]","mutagen_history":"[1]","location_rts":"[301]","trial_type":"fractal-mutation","trial_index":94,"time_elapsed":1942346,"internal_node_id":"0.0-5.0-40.0"},{"group":"tri cycles (cube, non-group)","fractal_assignment":["../images/ylw_slt.png","../images/pnk_blu.png","../images/org_blu.png","../images/ylw_pnk.png","../images/grn_red.png","../images/cyn_red.png","../images/gry_blk.png","../images/blu_wht.png"],"mutagen_generator_assignment":[0,1],"goal":2,"start":0,"action_noise":0.1,"location_history":"[0,3,4,0,3,4,0,2]","action_history":"[1,1,1,1,1,1,1]","mutagen_history":"[1,1,1,1,1,1,1]","location_rts":"[731,321,139,236,190,110,105]","trial_type":"fractal-mutation","trial_index":95,"time_elapsed":1954868,"internal_node_id":"0.0-5.0-41.0"},{"group":"tri cycles (cube, non-group)","fractal_assignment":["../images/ylw_slt.png","../images/pnk_blu.png","../images/org_blu.png","../images/ylw_pnk.png","../images/grn_red.png","../images/cyn_red.png","../images/gry_blk.png","../images/blu_wht.png"],"mutagen_generator_assignment":[0,1],"goal":3,"start":2,"action_noise":0.1,"location_history":"[2,1,5,2,6,5,1,5,1,5,2,6,5,2,1,0,3]","action_history":"[1,1,1,1,1,1,1,0,1,1,1,1,1,0,0,1]","mutagen_history":"[1,1,1,1,1,1,1,0,1,1,1,1,1,0,0,1]","location_rts":"[427,375,513,471,109,168,251,43,36,26,579,90,276,254,146,179]","trial_type":"fractal-mutation","trial_index":96,"time_elapsed":1978702,"internal_node_id":"0.0-5.0-42.0"},{"group":"tri cycles (cube, non-group)","fractal_assignment":["../images/ylw_slt.png","../images/pnk_blu.png","../images/org_blu.png","../images/ylw_pnk.png","../images/grn_red.png","../images/cyn_red.png","../images/gry_blk.png","../images/blu_wht.png"],"mutagen_generator_assignment":[0,1],"goal":5,"start":3,"action_noise":0.1,"location_history":"[3,4,0,2,6,5]","action_history":"[1,1,0,1,1]","mutagen_history":"[1,1,0,1,1]","location_rts":"[799,129,646,401,265]","trial_type":"fractal-mutation","trial_index":97,"time_elapsed":1989571,"internal_node_id":"0.0-5.0-43.0"},{"group":"tri cycles (cube, non-group)","fractal_assignment":["../images/ylw_slt.png","../images/pnk_blu.png","../images/org_blu.png","../images/ylw_pnk.png","../images/grn_red.png","../images/cyn_red.png","../images/gry_blk.png","../images/blu_wht.png"],"mutagen_generator_assignment":[0,1],"goal":1,"start":5,"action_noise":0.1,"location_history":"[5,2,6,4,0,3,4,0,2,6,4,7,3,7,6,4,7,6,4,7,6,4,0,2,1]","action_history":"[1,1,1,1,1,1,1,1,1,1,0,1,0,0,0,0,0,0,0,0,0,1,0,0]","mutagen_history":"[1,1,1,1,1,1,1,1,1,1,0,1,0,0,0,0,0,0,0,0,0,1,0,0]","location_rts":"[394,267,140,131,69,49,326,121,172,371,291,518,227,688,155,189,101,201,110,64,95,67,35,374]","trial_type":"fractal-mutation","trial_index":98,"time_elapsed":2022778,"internal_node_id":"0.0-5.0-44.0"},{"group":"tri cycles (cube, non-group)","fractal_assignment":["../images/ylw_slt.png","../images/pnk_blu.png","../images/org_blu.png","../images/ylw_pnk.png","../images/grn_red.png","../images/cyn_red.png","../images/gry_blk.png","../images/blu_wht.png"],"mutagen_generator_assignment":[0,1],"goal":7,"start":1,"action_noise":0.1,"location_history":"[1,5,1,5,1,5,1,0,3,4,7]","action_history":"[1,0,1,0,1,1,0,1,1,0]","mutagen_history":"[1,0,1,0,1,1,0,1,1,0]","location_rts":"[2316,1341,201,151,770,383,480,5110,149,179]","trial_type":"fractal-mutation","trial_index":99,"time_elapsed":2047602,"internal_node_id":"0.0-5.0-45.0"},{"group":"tri cycles (cube, non-group)","fractal_assignment":["../images/ylw_slt.png","../images/pnk_blu.png","../images/org_blu.png","../images/ylw_pnk.png","../images/grn_red.png","../images/cyn_red.png","../images/gry_blk.png","../images/blu_wht.png"],"mutagen_generator_assignment":[0,1],"goal":6,"start":7,"action_noise":0.1,"location_history":"[7,6]","action_history":"[1]","mutagen_history":"[1]","location_rts":"[1900]","trial_type":"fractal-mutation","trial_index":100,"time_elapsed":2054032,"internal_node_id":"0.0-5.0-46.0"},{"group":"tri cycles (cube, non-group)","fractal_assignment":["../images/ylw_slt.png","../images/pnk_blu.png","../images/org_blu.png","../images/ylw_pnk.png","../images/grn_red.png","../images/cyn_red.png","../images/gry_blk.png","../images/blu_wht.png"],"mutagen_generator_assignment":[0,1],"goal":3,"start":6,"action_noise":0.1,"location_history":"[6,5,2,6,5,2,1,5,1,5,2,6,4,7,3]","action_history":"[1,1,1,1,1,1,1,0,1,1,1,0,1,1]","mutagen_history":"[1,1,1,1,1,1,1,0,1,1,1,0,1,1]","location_rts":"[1964,203,277,321,753,614,1094,408,321,428,338,669,367,617]","trial_type":"fractal-mutation","trial_index":101,"time_elapsed":2080264,"internal_node_id":"0.0-5.0-47.0"},{"group":"tri cycles (cube, non-group)","fractal_assignment":["../images/ylw_slt.png","../images/pnk_blu.png","../images/org_blu.png","../images/ylw_pnk.png","../images/grn_red.png","../images/cyn_red.png","../images/gry_blk.png","../images/blu_wht.png"],"mutagen_generator_assignment":[0,1],"goal":0,"start":3,"action_noise":0.1,"location_history":"[3,4,0]","action_history":"[1,1]","mutagen_history":"[1,1]","location_rts":"[1049,37]","trial_type":"fractal-mutation","trial_index":102,"time_elapsed":2086902,"internal_node_id":"0.0-5.0-48.0"},{"group":"tri cycles (cube, non-group)","fractal_assignment":["../images/ylw_slt.png","../images/pnk_blu.png","../images/org_blu.png","../images/ylw_pnk.png","../images/grn_red.png","../images/cyn_red.png","../images/gry_blk.png","../images/blu_wht.png"],"mutagen_generator_assignment":[0,1],"goal":2,"start":0,"action_noise":0.1,"location_history":"[0,3,4,0,3,4,0,3,4,0,2]","action_history":"[1,1,1,1,1,1,1,1,1,0]","mutagen_history":"[1,1,1,1,1,1,1,1,1,0]","location_rts":"[360,303,269,6,175,142,32,29,503,124]","trial_type":"fractal-mutation","trial_index":103,"time_elapsed":2102611,"internal_node_id":"0.0-5.0-49.0"},{"view_history":"[{\"page_index\":0,\"viewing_time\":7629}]","rt":7629,"trial_type":"instructions","trial_index":104,"time_elapsed":2111240,"internal_node_id":"0.0-6.0"},{"rt":5953,"responses":"{\"Q0\":\"NOPE :)\"}","trial_type":"survey-text","trial_index":105,"time_elapsed":2118197,"internal_node_id":"0.0-7.0"}]