[{"view_history":"[{\"page_index\":0,\"viewing_time\":2419},{\"page_index\":1,\"viewing_time\":8854},{\"page_index\":2,\"viewing_time\":15471},{\"page_index\":3,\"viewing_time\":2951}]","rt":29695,"trial_type":"instructions","trial_index":0,"time_elapsed":29695,"internal_node_id":"0.0-0.0"},{"view_history":"[{\"page_index\":0,\"viewing_time\":25371},{\"page_index\":1,\"viewing_time\":27019}]","rt":52390,"trial_type":"instructions","trial_index":1,"time_elapsed":83087,"internal_node_id":"0.0-1.0"},{"group":"square cycles (cube, non-group)","room_assignment":["yellow","brown","grey","red","pink","blue","purple","green"],"door_color_assignment":["white","black"],"door_generator_assignment":[1,0],"goal":3,"start":0,"action_noise":0.1,"location_history":"[0,4,5,1,0,4,7,6,5,4,7,6,5,4,5,4,7,6,5,1,0,4,5,4,7,6,5,1,0,4,7,6,7,3]","action_history":"[1,1,1,1,1,0,0,0,1,0,0,0,0,0,0,0,0,1,1,1,1,1,0,0,0,0,0,0,0,0,0,1,1]","door_history":"[0,0,0,0,0,1,1,1,0,1,1,1,1,1,1,1,1,0,0,0,0,0,1,1,1,1,1,1,1,1,1,0,0]","location_rts":"[2210,2186,451,3397,680,1773,413,5513,685,733,435,3001,1067,270,354,453,1240,1700,925,1308,492,566,512,981,620,3203,433,350,399,711,376,2308,260]","trial_type":"two-door-navigation","trial_index":2,"time_elapsed":160439,"internal_node_id":"0.0-2.0-0.0"},{"group":"square cycles (cube, non-group)","room_assignment":["yellow","brown","grey","red","pink","blue","purple","green"],"door_color_assignment":["white","black"],"door_generator_assignment":[1,0],"goal":1,"start":3,"action_noise":0.1,"location_history":"[3,0,1]","action_history":"[0,0]","door_history":"[1,1]","location_rts":"[1720,422]","trial_type":"two-door-navigation","trial_index":3,"time_elapsed":168131,"internal_node_id":"0.0-2.0-1.0"},{"group":"square cycles (cube, non-group)","room_assignment":["yellow","brown","grey","red","pink","blue","purple","green"],"door_color_assignment":["white","black"],"door_generator_assignment":[1,0],"goal":2,"start":1,"action_noise":0.1,"location_history":"[1,0,4,7,3,2]","action_history":"[1,1,0,1,1]","door_history":"[0,0,1,0,0]","location_rts":"[1508,694,446,485,376]","trial_type":"two-door-navigation","trial_index":4,"time_elapsed":180277,"internal_node_id":"0.0-2.0-2.0"},{"group":"square cycles (cube, non-group)","room_assignment":["yellow","brown","grey","red","pink","blue","purple","green"],"door_color_assignment":["white","black"],"door_generator_assignment":[1,0],"goal":6,"start":2,"action_noise":0.1,"location_history":"[2,3,0,1,2,3,0,4,7,3,2,3,2,6]","action_history":"[0,0,0,0,0,0,1,0,1,1,1,1,1]","door_history":"[1,1,1,1,1,1,0,1,0,0,0,0,0]","location_rts":"[701,892,543,914,614,841,728,938,957,435,446,481,1077]","trial_type":"two-door-navigation","trial_index":5,"time_elapsed":206680,"internal_node_id":"0.0-2.0-3.0"},{"group":"square cycles (cube, non-group)","room_assignment":["yellow","brown","grey","red","pink","blue","purple","green"],"door_color_assignment":["white","black"],"door_generator_assignment":[1,0],"goal":5,"start":6,"action_noise":0.1,"location_history":"[6,5]","action_history":"[0]","door_history":"[1]","location_rts":"[1163]","trial_type":"two-door-navigation","trial_index":6,"time_elapsed":212373,"internal_node_id":"0.0-2.0-4.0"},{"group":"square cycles (cube, non-group)","room_assignment":["yellow","brown","grey","red","pink","blue","purple","green"],"door_color_assignment":["white","black"],"door_generator_assignment":[1,0],"goal":4,"start":5,"action_noise":0.1,"location_history":"[5,1,0,4]","action_history":"[1,1,1]","door_history":"[0,0,0]","location_rts":"[1138,475,1102]","trial_type":"two-door-navigation","trial_index":7,"time_elapsed":221671,"internal_node_id":"0.0-2.0-5.0"},{"group":"square cycles (cube, non-group)","room_assignment":["yellow","brown","grey","red","pink","blue","purple","green"],"door_color_assignment":["white","black"],"door_generator_assignment":[1,0],"goal":7,"start":4,"action_noise":0.1,"location_history":"[4,7]","action_history":"[0]","door_history":"[1]","location_rts":"[878]","trial_type":"two-door-navigation","trial_index":8,"time_elapsed":227087,"internal_node_id":"0.0-2.0-6.0"},{"group":"square cycles (cube, non-group)","room_assignment":["yellow","brown","grey","red","pink","blue","purple","green"],"door_color_assignment":["white","black"],"door_generator_assignment":[1,0],"goal":4,"start":7,"action_noise":0.1,"location_history":"[7,3,2,6,7,6,7,3,2,3,2,6,7,3,0,1,2,3,2,6,5,1,0,1,2,3,2,6,7,6,5,4]","action_history":"[1,1,1,1,0,1,1,1,0,1,1,1,1,0,0,0,0,1,1,0,1,1,0,0,0,1,1,1,0,0,0]","door_history":"[0,0,0,0,1,0,0,0,1,0,0,0,0,1,1,1,1,0,0,1,0,0,1,1,1,0,0,0,1,1,1]","location_rts":"[1033,671,430,417,703,481,345,495,1008,791,281,485,1167,1011,728,1054,685,821,395,575,722,445,621,385,418,993,250,326,406,811,405]","trial_type":"two-door-navigation","trial_index":9,"time_elapsed":281820,"internal_node_id":"0.0-2.0-7.0"},{"group":"square cycles (cube, non-group)","room_assignment":["yellow","brown","grey","red","pink","blue","purple","green"],"door_color_assignment":["white","black"],"door_generator_assignment":[1,0],"goal":6,"start":4,"action_noise":0.1,"location_history":"[4,5,1,2,3,0,4,7,6]","action_history":"[1,1,0,0,0,1,0,0]","door_history":"[0,0,1,1,1,0,1,1]","location_rts":"[1093,99,600,661,801,379,219,603]","trial_type":"two-door-navigation","trial_index":10,"time_elapsed":297960,"internal_node_id":"0.0-2.0-8.0"},{"group":"square cycles (cube, non-group)","room_assignment":["yellow","brown","grey","red","pink","blue","purple","green"],"door_color_assignment":["white","black"],"door_generator_assignment":[1,0],"goal":0,"start":6,"action_noise":0.1,"location_history":"[6,5,4,7,3,0]","action_history":"[0,0,0,1,0]","door_history":"[1,1,1,0,1]","location_rts":"[811,114,899,589,450]","trial_type":"two-door-navigation","trial_index":11,"time_elapsed":309465,"internal_node_id":"0.0-2.0-9.0"},{"group":"square cycles (cube, non-group)","room_assignment":["yellow","brown","grey","red","pink","blue","purple","green"],"door_color_assignment":["white","black"],"door_generator_assignment":[1,0],"goal":1,"start":0,"action_noise":0.1,"location_history":"[0,1]","action_history":"[0]","door_history":"[1]","location_rts":"[691]","trial_type":"two-door-navigation","trial_index":12,"time_elapsed":314683,"internal_node_id":"0.0-2.0-10.0"},{"group":"square cycles (cube, non-group)","room_assignment":["yellow","brown","grey","red","pink","blue","purple","green"],"door_color_assignment":["white","black"],"door_generator_assignment":[1,0],"goal":3,"start":1,"action_noise":0.1,"location_history":"[1,0,1,2,3]","action_history":"[1,0,0,0]","door_history":"[0,1,1,1]","location_rts":"[1892,250,582,641]","trial_type":"two-door-navigation","trial_index":13,"time_elapsed":325648,"internal_node_id":"0.0-2.0-11.0"},{"group":"square cycles (cube, non-group)","room_assignment":["yellow","brown","grey","red","pink","blue","purple","green"],"door_color_assignment":["white","black"],"door_generator_assignment":[1,0],"goal":7,"start":3,"action_noise":0.1,"location_history":"[3,0,4,7]","action_history":"[0,1,0]","door_history":"[1,0,1]","location_rts":"[311,355,383]","trial_type":"two-door-navigation","trial_index":14,"time_elapsed":333285,"internal_node_id":"0.0-2.0-12.0"},{"group":"square cycles (cube, non-group)","room_assignment":["yellow","brown","grey","red","pink","blue","purple","green"],"door_color_assignment":["white","black"],"door_generator_assignment":[1,0],"goal":5,"start":7,"action_noise":0.1,"location_history":"[7,6,7,6,5]","action_history":"[0,1,0,0]","door_history":"[1,0,1,1]","location_rts":"[635,567,399,449]","trial_type":"two-door-navigation","trial_index":15,"time_elapsed":342963,"internal_node_id":"0.0-2.0-13.0"},{"group":"square cycles (cube, non-group)","room_assignment":["yellow","brown","grey","red","pink","blue","purple","green"],"door_color_assignment":["white","black"],"door_generator_assignment":[1,0],"goal":2,"start":5,"action_noise":0.1,"location_history":"[5,4,5,1,0,1,0,4,7,3,2]","action_history":"[0,1,1,1,0,1,1,0,1,1]","door_history":"[1,0,0,0,1,0,0,1,0,0]","location_rts":"[336,305,173,979,460,181,333,295,441,337]","trial_type":"two-door-navigation","trial_index":16,"time_elapsed":360551,"internal_node_id":"0.0-2.0-14.0"},{"group":"square cycles (cube, non-group)","room_assignment":["yellow","brown","grey","red","pink","blue","purple","green"],"door_color_assignment":["white","black"],"door_generator_assignment":[1,0],"goal":7,"start":2,"action_noise":0.1,"location_history":"[2,3,0,4,7]","action_history":"[0,0,1,0]","door_history":"[1,1,0,1]","location_rts":"[459,122,219,322]","trial_type":"two-door-navigation","trial_index":17,"time_elapsed":369291,"internal_node_id":"0.0-2.0-15.0"},{"group":"square cycles (cube, non-group)","room_assignment":["yellow","brown","grey","red","pink","blue","purple","green"],"door_color_assignment":["white","black"],"door_generator_assignment":[1,0],"goal":4,"start":7,"action_noise":0.1,"location_history":"[7,3,0,4]","action_history":"[1,0,1]","door_history":"[0,1,0]","location_rts":"[361,406,301]","trial_type":"two-door-navigation","trial_index":18,"time_elapsed":376953,"internal_node_id":"0.0-2.0-16.0"},{"group":"square cycles (cube, non-group)","room_assignment":["yellow","brown","grey","red","pink","blue","purple","green"],"door_color_assignment":["white","black"],"door_generator_assignment":[1,0],"goal":2,"start":4,"action_noise":0.1,"location_history":"[4,7,6,7,6,5,4,7,3,2]","action_history":"[0,0,1,1,0,1,0,1,1]","door_history":"[1,1,0,0,1,0,1,0,0]","location_rts":"[1298,74,439,320,365,747,1849,424,207]","trial_type":"two-door-navigation","trial_index":19,"time_elapsed":395428,"internal_node_id":"0.0-2.0-17.0"},{"group":"square cycles (cube, non-group)","room_assignment":["yellow","brown","grey","red","pink","blue","purple","green"],"door_color_assignment":["white","black"],"door_generator_assignment":[1,0],"goal":3,"start":2,"action_noise":0.1,"location_history":"[2,6,7,6,7,6,5,4,5,4,7,3]","action_history":"[0,1,0,1,0,0,0,1,0,0,0]","door_history":"[1,0,1,0,1,1,1,0,1,1,1]","location_rts":"[424,926,498,483,465,502,477,215,369,235,614]","trial_type":"two-door-navigation","trial_index":20,"time_elapsed":415409,"internal_node_id":"0.0-2.0-18.0"},{"group":"square cycles (cube, non-group)","room_assignment":["yellow","brown","grey","red","pink","blue","purple","green"],"door_color_assignment":["white","black"],"door_generator_assignment":[1,0],"goal":6,"start":3,"action_noise":0.1,"location_history":"[3,2,3,0,4,5,4,7,3,2,3,0,4,5,4,5,4,5,1,2,6]","action_history":"[1,0,0,1,1,0,0,1,1,0,0,1,1,0,1,0,1,1,0,1]","door_history":"[0,1,1,0,0,1,1,0,0,1,1,0,0,1,0,1,0,0,1,0]","location_rts":"[783,348,391,405,334,795,631,1329,1006,1117,2014,1273,435,500,463,433,424,401,792,880]","trial_type":"two-door-navigation","trial_index":21,"time_elapsed":454181,"internal_node_id":"0.0-2.0-19.0"},{"group":"square cycles (cube, non-group)","room_assignment":["yellow","brown","grey","red","pink","blue","purple","green"],"door_color_assignment":["white","black"],"door_generator_assignment":[1,0],"goal":5,"start":6,"action_noise":0.1,"location_history":"[6,7,3,0,4,5]","action_history":"[0,0,0,1,0]","door_history":"[1,1,1,0,1]","location_rts":"[871,1777,847,1363,864]","trial_type":"two-door-navigation","trial_index":22,"time_elapsed":468521,"internal_node_id":"0.0-2.0-20.0"},{"group":"square cycles (cube, non-group)","room_assignment":["yellow","brown","grey","red","pink","blue","purple","green"],"door_color_assignment":["white","black"],"door_generator_assignment":[1,0],"goal":1,"start":5,"action_noise":0.1,"location_history":"[5,4,5,4,7,6,5,1]","action_history":"[0,1,0,1,0,0,1]","door_history":"[1,0,1,0,1,1,0]","location_rts":"[1307,516,440,433,476,434,447]","trial_type":"two-door-navigation","trial_index":23,"time_elapsed":483251,"internal_node_id":"0.0-2.0-21.0"},{"group":"square cycles (cube, non-group)","room_assignment":["yellow","brown","grey","red","pink","blue","purple","green"],"door_color_assignment":["white","black"],"door_generator_assignment":[1,0],"goal":0,"start":1,"action_noise":0.1,"location_history":"[1,0]","action_history":"[1]","door_history":"[0]","location_rts":"[954]","trial_type":"two-door-navigation","trial_index":24,"time_elapsed":488735,"internal_node_id":"0.0-2.0-22.0"},{"group":"square cycles (cube, non-group)","room_assignment":["yellow","brown","grey","red","pink","blue","purple","green"],"door_color_assignment":["white","black"],"door_generator_assignment":[1,0],"goal":2,"start":0,"action_noise":0.1,"location_history":"[0,4,7,6,5,1,2]","action_history":"[1,0,1,0,1,0]","door_history":"[0,1,0,1,0,1]","location_rts":"[1902,502,396,377,329,413]","trial_type":"two-door-navigation","trial_index":25,"time_elapsed":502322,"internal_node_id":"0.0-2.0-23.0"},{"group":"square cycles (cube, non-group)","room_assignment":["yellow","brown","grey","red","pink","blue","purple","green"],"door_color_assignment":["white","black"],"door_generator_assignment":[1,0],"goal":6,"start":2,"action_noise":0.1,"location_history":"[2,3,2,6]","action_history":"[0,1,1]","door_history":"[1,0,0]","location_rts":"[2181,658,781]","trial_type":"two-door-navigation","trial_index":26,"time_elapsed":512512,"internal_node_id":"0.0-2.0-24.0"},{"group":"square cycles (cube, non-group)","room_assignment":["yellow","brown","grey","red","pink","blue","purple","green"],"door_color_assignment":["white","black"],"door_generator_assignment":[1,0],"goal":1,"start":6,"action_noise":0.1,"location_history":"[6,7,3,0,4,5,4,7,6,7,6,7,6,5,1]","action_history":"[1,0,0,1,1,0,0,0,1,1,1,0,0,1]","door_history":"[0,1,1,0,0,1,1,1,0,0,0,1,1,0]","location_rts":"[537,389,438,238,668,672,620,640,919,323,463,1259,835,654]","trial_type":"two-door-navigation","trial_index":27,"time_elapsed":539055,"internal_node_id":"0.0-2.0-25.0"},{"group":"square cycles (cube, non-group)","room_assignment":["yellow","brown","grey","red","pink","blue","purple","green"],"door_color_assignment":["white","black"],"door_generator_assignment":[1,0],"goal":3,"start":1,"action_noise":0.1,"location_history":"[1,2,6,7,6,5,1,0,1,2,3]","action_history":"[0,1,0,0,0,1,1,0,0,0]","door_history":"[1,0,1,1,1,0,0,1,1,1]","location_rts":"[687,1485,889,682,512,1607,822,933,695,305]","trial_type":"two-door-navigation","trial_index":28,"time_elapsed":561400,"internal_node_id":"0.0-2.0-26.0"},{"group":"square cycles (cube, non-group)","room_assignment":["yellow","brown","grey","red","pink","blue","purple","green"],"door_color_assignment":["white","black"],"door_generator_assignment":[1,0],"goal":7,"start":3,"action_noise":0.1,"location_history":"[3,2,3,2,3,0,4,7]","action_history":"[1,0,1,0,0,1,0]","door_history":"[0,1,0,1,1,0,1]","location_rts":"[701,305,505,93,353,72,336]","trial_type":"two-door-navigation","trial_index":29,"time_elapsed":574434,"internal_node_id":"0.0-2.0-27.0"},{"group":"square cycles (cube, non-group)","room_assignment":["yellow","brown","grey","red","pink","blue","purple","green"],"door_color_assignment":["white","black"],"door_generator_assignment":[1,0],"goal":4,"start":7,"action_noise":0.1,"location_history":"[7,3,2,3,2,6,7,3,0,4]","action_history":"[1,1,0,1,1,1,1,0,1]","door_history":"[0,0,1,0,0,0,0,1,0]","location_rts":"[980,395,621,824,494,498,1160,1873,503]","trial_type":"two-door-navigation","trial_index":30,"time_elapsed":594474,"internal_node_id":"0.0-2.0-28.0"},{"group":"square cycles (cube, non-group)","room_assignment":["yellow","brown","grey","red","pink","blue","purple","green"],"door_color_assignment":["white","black"],"door_generator_assignment":[1,0],"goal":0,"start":4,"action_noise":0.1,"location_history":"[4,5,1,2,6,5,1,0]","action_history":"[0,1,0,1,0,1,1]","door_history":"[1,0,1,0,1,0,0]","location_rts":"[1680,759,875,602,844,474,650]","trial_type":"two-door-navigation","trial_index":31,"time_elapsed":611067,"internal_node_id":"0.0-2.0-29.0"},{"group":"square cycles (cube, non-group)","room_assignment":["yellow","brown","grey","red","pink","blue","purple","green"],"door_color_assignment":["white","black"],"door_generator_assignment":[1,0],"goal":5,"start":0,"action_noise":0.1,"location_history":"[0,4,5]","action_history":"[0,1]","door_history":"[1,0]","location_rts":"[1811,837]","trial_type":"two-door-navigation","trial_index":32,"time_elapsed":619267,"internal_node_id":"0.0-2.0-30.0"},{"group":"square cycles (cube, non-group)","room_assignment":["yellow","brown","grey","red","pink","blue","purple","green"],"door_color_assignment":["white","black"],"door_generator_assignment":[1,0],"goal":3,"start":5,"action_noise":0.1,"location_history":"[5,4,5,1,2,3]","action_history":"[0,1,1,0,0]","door_history":"[1,0,0,1,1]","location_rts":"[1350,704,805,321,1424]","trial_type":"two-door-navigation","trial_index":33,"time_elapsed":632491,"internal_node_id":"0.0-2.0-31.0"},{"group":"square cycles (cube, non-group)","room_assignment":["yellow","brown","grey","red","pink","blue","purple","green"],"door_color_assignment":["white","black"],"door_generator_assignment":[1,0],"goal":2,"start":3,"action_noise":0.1,"location_history":"[3,0,1,2]","action_history":"[1,0,0]","door_history":"[0,1,1]","location_rts":"[571,843,358]","trial_type":"two-door-navigation","trial_index":34,"time_elapsed":640829,"internal_node_id":"0.0-2.0-32.0"},{"group":"square cycles (cube, non-group)","room_assignment":["yellow","brown","grey","red","pink","blue","purple","green"],"door_color_assignment":["white","black"],"door_generator_assignment":[1,0],"goal":6,"start":2,"action_noise":0.1,"location_history":"[2,6]","action_history":"[1]","door_history":"[0]","location_rts":"[610]","trial_type":"two-door-navigation","trial_index":35,"time_elapsed":645972,"internal_node_id":"0.0-2.0-33.0"},{"group":"square cycles (cube, non-group)","room_assignment":["yellow","brown","grey","red","pink","blue","purple","green"],"door_color_assignment":["white","black"],"door_generator_assignment":[1,0],"goal":1,"start":6,"action_noise":0.1,"location_history":"[6,7,6,7,6,5,1]","action_history":"[1,0,1,0,0,1]","door_history":"[0,1,0,1,1,0]","location_rts":"[627,673,847,466,488,779]","trial_type":"two-door-navigation","trial_index":36,"time_elapsed":659523,"internal_node_id":"0.0-2.0-34.0"},{"group":"square cycles (cube, non-group)","room_assignment":["yellow","brown","grey","red","pink","blue","purple","green"],"door_color_assignment":["white","black"],"door_generator_assignment":[1,0],"goal":7,"start":1,"action_noise":0.1,"location_history":"[1,2,3,0,4,7]","action_history":"[1,0,0,1,0]","door_history":"[0,1,1,0,1]","location_rts":"[548,281,511,315,383]","trial_type":"two-door-navigation","trial_index":37,"time_elapsed":670199,"internal_node_id":"0.0-2.0-35.0"},{"group":"square cycles (cube, non-group)","room_assignment":["yellow","brown","grey","red","pink","blue","purple","green"],"door_color_assignment":["white","black"],"door_generator_assignment":[1,0],"goal":4,"start":7,"action_noise":0.1,"location_history":"[7,6,5,1,0,1,2,6,7,6,7,3,2,6,5,1,0,4]","action_history":"[1,0,1,1,0,0,1,1,0,1,1,1,1,0,1,1,1]","door_history":"[0,1,0,0,1,1,0,0,1,0,0,0,0,1,0,0,0]","location_rts":"[783,585,662,726,462,526,527,479,979,460,397,620,438,756,745,607,509]","trial_type":"two-door-navigation","trial_index":38,"time_elapsed":701368,"internal_node_id":"0.0-2.0-36.0"},{"group":"square cycles (cube, non-group)","room_assignment":["yellow","brown","grey","red","pink","blue","purple","green"],"door_color_assignment":["white","black"],"door_generator_assignment":[1,0],"goal":5,"start":4,"action_noise":0.1,"location_history":"[4,7,6,7,3,2,6,5]","action_history":"[0,0,1,1,1,1,0]","door_history":"[1,1,0,0,0,0,1]","location_rts":"[913,1417,340,1541,328,664,581]","trial_type":"two-door-navigation","trial_index":39,"time_elapsed":717817,"internal_node_id":"0.0-2.0-37.0"},{"group":"square cycles (cube, non-group)","room_assignment":["yellow","brown","grey","red","pink","blue","purple","green"],"door_color_assignment":["white","black"],"door_generator_assignment":[1,0],"goal":0,"start":5,"action_noise":0.1,"location_history":"[5,4,5,4,5,1,2,6,5,4,5,4,5,4,5,4,5,1,2,6,7,3,0]","action_history":"[0,1,0,0,1,0,1,0,0,1,0,1,0,1,0,1,1,0,1,1,1,0]","door_history":"[1,0,1,1,0,1,0,1,1,0,1,0,1,0,1,0,0,1,0,0,0,1]","location_rts":"[799,726,535,354,490,773,612,2043,1504,1245,1125,974,762,942,650,805,518,1020,1027,424,1530,420]","trial_type":"two-door-navigation","trial_index":40,"time_elapsed":763118,"internal_node_id":"0.0-2.0-38.0"},{"group":"square cycles (cube, non-group)","room_assignment":["yellow","brown","grey","red","pink","blue","purple","green"],"door_color_assignment":["white","black"],"door_generator_assignment":[1,0],"goal":4,"start":0,"action_noise":0.1,"location_history":"[0,1,0,4]","action_history":"[0,0,1]","door_history":"[1,1,0]","location_rts":"[1033,385,590]","trial_type":"two-door-navigation","trial_index":41,"time_elapsed":771694,"internal_node_id":"0.0-2.0-39.0"},{"group":"square cycles (cube, non-group)","room_assignment":["yellow","brown","grey","red","pink","blue","purple","green"],"door_color_assignment":["white","black"],"door_generator_assignment":[1,0],"goal":0,"start":4,"action_noise":0.1,"location_history":"[4,7,3,0]","action_history":"[0,1,0]","door_history":"[1,0,1]","location_rts":"[737,403,496]","trial_type":"two-door-navigation","trial_index":42,"time_elapsed":779900,"internal_node_id":"0.0-2.0-40.0"},{"group":"square cycles (cube, non-group)","room_assignment":["yellow","brown","grey","red","pink","blue","purple","green"],"door_color_assignment":["white","black"],"door_generator_assignment":[1,0],"goal":2,"start":0,"action_noise":0.1,"location_history":"[0,4,7,6,7,6,7,3,0,4,7,6,7,6,5,4,5,1,2]","action_history":"[1,0,1,1,0,0,1,1,1,0,0,1,0,0,0,1,1,0]","door_history":"[0,1,0,0,1,1,0,0,0,1,1,0,1,1,1,0,0,1]","location_rts":"[406,334,474,774,1173,233,430,501,1340,555,687,1020,630,595,906,1329,554,1251]","trial_type":"two-door-navigation","trial_index":43,"time_elapsed":815078,"internal_node_id":"0.0-2.0-41.0"},{"group":"square cycles (cube, non-group)","room_assignment":["yellow","brown","grey","red","pink","blue","purple","green"],"door_color_assignment":["white","black"],"door_generator_assignment":[1,0],"goal":3,"start":2,"action_noise":0.1,"location_history":"[2,6,5,1,0,4,5,4,5,1,0,1,2,6,7,6,5,1,0,1,2,3]","action_history":"[1,0,1,0,1,1,0,1,1,1,0,0,1,1,0,0,1,1,0,0,0]","door_history":"[0,1,0,1,0,0,1,0,0,0,1,1,0,0,1,1,0,0,1,1,1]","location_rts":"[1363,616,2379,469,494,460,638,677,537,743,562,510,842,1140,1017,634,895,1547,399,389,385]","trial_type":"two-door-navigation","trial_index":44,"time_elapsed":856785,"internal_node_id":"0.0-2.0-42.0"},{"group":"square cycles (cube, non-group)","room_assignment":["yellow","brown","grey","red","pink","blue","purple","green"],"door_color_assignment":["white","black"],"door_generator_assignment":[1,0],"goal":5,"start":3,"action_noise":0.1,"location_history":"[3,2,3,0,4,7,6,7,3,2,6,5]","action_history":"[1,0,0,1,0,0,1,1,1,1,0]","door_history":"[0,1,1,0,1,1,0,0,0,0,1]","location_rts":"[800,268,366,386,857,1167,386,304,285,283,577]","trial_type":"two-door-navigation","trial_index":45,"time_elapsed":877210,"internal_node_id":"0.0-2.0-43.0"},{"group":"square cycles (cube, non-group)","room_assignment":["yellow","brown","grey","red","pink","blue","purple","green"],"door_color_assignment":["white","black"],"door_generator_assignment":[1,0],"goal":1,"start":5,"action_noise":0.1,"location_history":"[5,4,5,4,7,6,5,1]","action_history":"[0,1,0,0,0,0,1]","door_history":"[1,0,1,1,1,1,0]","location_rts":"[900,546,531,376,881,1655,640]","trial_type":"two-door-navigation","trial_index":46,"time_elapsed":893434,"internal_node_id":"0.0-2.0-44.0"},{"group":"square cycles (cube, non-group)","room_assignment":["yellow","brown","grey","red","pink","blue","purple","green"],"door_color_assignment":["white","black"],"door_generator_assignment":[1,0],"goal":7,"start":1,"action_noise":0.1,"location_history":"[1,2,6,5,4,7]","action_history":"[0,1,0,0,0]","door_history":"[1,0,1,1,1]","location_rts":"[912,336,425,255,419]","trial_type":"two-door-navigation","trial_index":47,"time_elapsed":904400,"internal_node_id":"0.0-2.0-45.0"},{"group":"square cycles (cube, non-group)","room_assignment":["yellow","brown","grey","red","pink","blue","purple","green"],"door_color_assignment":["white","black"],"door_generator_assignment":[1,0],"goal":6,"start":7,"action_noise":0.1,"location_history":"[7,3,2,3,2,6]","action_history":"[1,1,0,1,1]","door_history":"[0,0,1,0,0]","location_rts":"[825,543,1109,411,1728]","trial_type":"two-door-navigation","trial_index":48,"time_elapsed":917634,"internal_node_id":"0.0-2.0-46.0"},{"group":"square cycles (cube, non-group)","room_assignment":["yellow","brown","grey","red","pink","blue","purple","green"],"door_color_assignment":["white","black"],"door_generator_assignment":[1,0],"goal":3,"start":6,"action_noise":0.1,"location_history":"[6,7,6,7,3]","action_history":"[1,0,1,1]","door_history":"[0,1,0,0]","location_rts":"[849,370,979,380]","trial_type":"two-door-navigation","trial_index":49,"time_elapsed":927848,"internal_node_id":"0.0-2.0-47.0"},{"group":"square cycles (cube, non-group)","room_assignment":["yellow","brown","grey","red","pink","blue","purple","green"],"door_color_assignment":["white","black"],"door_generator_assignment":[1,0],"goal":0,"start":3,"action_noise":0.1,"location_history":"[3,0]","action_history":"[0]","door_history":"[1]","location_rts":"[995]","trial_type":"two-door-navigation","trial_index":50,"time_elapsed":933377,"internal_node_id":"0.0-2.0-48.0"},{"group":"square cycles (cube, non-group)","room_assignment":["yellow","brown","grey","red","pink","blue","purple","green"],"door_color_assignment":["white","black"],"door_generator_assignment":[1,0],"goal":2,"start":0,"action_noise":0.1,"location_history":"[0,1,2]","action_history":"[1,0]","door_history":"[0,1]","location_rts":"[665,244]","trial_type":"two-door-navigation","trial_index":51,"time_elapsed":939855,"internal_node_id":"0.0-2.0-49.0"},{"view_history":"[{\"page_index\":0,\"viewing_time\":138068}]","rt":138069,"trial_type":"instructions","trial_index":52,"time_elapsed":1078924,"internal_node_id":"0.0-3.0"},{"view_history":"[{\"page_index\":0,\"viewing_time\":2172},{\"page_index\":1,\"viewing_time\":33877}]","rt":36049,"trial_type":"instructions","trial_index":53,"time_elapsed":1115973,"internal_node_id":"0.0-4.0"},{"group":"square cycles (cube, non-group)","fractal_assignment":["../images/grn_red.png","../images/cyn_red.png","../images/org_blu.png","../images/pnk_blu.png","../images/ylw_slt.png","../images/gry_blk.png","../images/blu_wht.png","../images/ylw_pnk.png"],"mutagen_generator_assignment":[1,0],"goal":3,"start":0,"action_noise":0.1,"location_history":"[0,4,7,6,5,4,5,1,0,1,2,3]","action_history":"[1,0,0,0,0,1,1,0,1,0,0]","mutagen_history":"[0,1,1,1,1,0,0,1,0,1,1]","location_rts":"[26686,2435,1332,1505,654,439,1332,944,1158,1151,692]","trial_type":"fractal-mutation","trial_index":54,"time_elapsed":1170247,"internal_node_id":"0.0-5.0-0.0"},{"group":"square cycles (cube, non-group)","fractal_assignment":["../images/grn_red.png","../images/cyn_red.png","../images/org_blu.png","../images/pnk_blu.png","../images/ylw_slt.png","../images/gry_blk.png","../images/blu_wht.png","../images/ylw_pnk.png"],"mutagen_generator_assignment":[1,0],"goal":1,"start":3,"action_noise":0.1,"location_history":"[3,0,1]","action_history":"[0,0]","mutagen_history":"[1,1]","location_rts":"[3192,712]","trial_type":"fractal-mutation","trial_index":55,"time_elapsed":1179978,"internal_node_id":"0.0-5.0-1.0"},{"group":"square cycles (cube, non-group)","fractal_assignment":["../images/grn_red.png","../images/cyn_red.png","../images/org_blu.png","../images/pnk_blu.png","../images/ylw_slt.png","../images/gry_blk.png","../images/blu_wht.png","../images/ylw_pnk.png"],"mutagen_generator_assignment":[1,0],"goal":2,"start":1,"action_noise":0.1,"location_history":"[1,0,4,5,4,7,3,0,4,5,4,7,3,2]","action_history":"[1,1,1,0,0,1,0,1,1,0,0,1,0]","mutagen_history":"[0,0,0,1,1,0,1,0,0,1,1,0,1]","location_rts":"[1160,617,931,504,1280,580,902,783,1070,403,3496,1405,752]","trial_type":"fractal-mutation","trial_index":56,"time_elapsed":1211823,"internal_node_id":"0.0-5.0-2.0"},{"group":"square cycles (cube, non-group)","fractal_assignment":["../images/grn_red.png","../images/cyn_red.png","../images/org_blu.png","../images/pnk_blu.png","../images/ylw_slt.png","../images/gry_blk.png","../images/blu_wht.png","../images/ylw_pnk.png"],"mutagen_generator_assignment":[1,0],"goal":6,"start":2,"action_noise":0.1,"location_history":"[2,6]","action_history":"[1]","mutagen_history":"[0]","location_rts":"[698]","trial_type":"fractal-mutation","trial_index":57,"time_elapsed":1217144,"internal_node_id":"0.0-5.0-3.0"},{"group":"square cycles (cube, non-group)","fractal_assignment":["../images/grn_red.png","../images/cyn_red.png","../images/org_blu.png","../images/pnk_blu.png","../images/ylw_slt.png","../images/gry_blk.png","../images/blu_wht.png","../images/ylw_pnk.png"],"mutagen_generator_assignment":[1,0],"goal":5,"start":6,"action_noise":0.1,"location_history":"[6,5]","action_history":"[0]","mutagen_history":"[1]","location_rts":"[2403]","trial_type":"fractal-mutation","trial_index":58,"time_elapsed":1224160,"internal_node_id":"0.0-5.0-4.0"},{"group":"square cycles (cube, non-group)","fractal_assignment":["../images/grn_red.png","../images/cyn_red.png","../images/org_blu.png","../images/pnk_blu.png","../images/ylw_slt.png","../images/gry_blk.png","../images/blu_wht.png","../images/ylw_pnk.png"],"mutagen_generator_assignment":[1,0],"goal":4,"start":5,"action_noise":0.1,"location_history":"[5,4]","action_history":"[0]","mutagen_history":"[1]","location_rts":"[655]","trial_type":"fractal-mutation","trial_index":59,"time_elapsed":1229479,"internal_node_id":"0.0-5.0-5.0"},{"group":"square cycles (cube, non-group)","fractal_assignment":["../images/grn_red.png","../images/cyn_red.png","../images/org_blu.png","../images/pnk_blu.png","../images/ylw_slt.png","../images/gry_blk.png","../images/blu_wht.png","../images/ylw_pnk.png"],"mutagen_generator_assignment":[1,0],"goal":7,"start":4,"action_noise":0.1,"location_history":"[4,7]","action_history":"[0]","mutagen_history":"[1]","location_rts":"[1091]","trial_type":"fractal-mutation","trial_index":60,"time_elapsed":1235197,"internal_node_id":"0.0-5.0-6.0"},{"group":"square cycles (cube, non-group)","fractal_assignment":["../images/grn_red.png","../images/cyn_red.png","../images/org_blu.png","../images/pnk_blu.png","../images/ylw_slt.png","../images/gry_blk.png","../images/blu_wht.png","../images/ylw_pnk.png"],"mutagen_generator_assignment":[1,0],"goal":4,"start":7,"action_noise":0.1,"location_history":"[7,6,5,1,0,1,2,3,0,1,0,1,2,6,5,4]","action_history":"[0,1,1,1,1,0,0,0,0,0,0,0,1,0,0]","mutagen_history":"[1,0,0,0,0,1,1,1,1,1,1,1,0,1,1]","location_rts":"[1665,1018,583,852,725,696,994,1426,1877,1754,1067,861,1106,668,870]","trial_type":"fractal-mutation","trial_index":61,"time_elapsed":1271690,"internal_node_id":"0.0-5.0-7.0"},{"group":"square cycles (cube, non-group)","fractal_assignment":["../images/grn_red.png","../images/cyn_red.png","../images/org_blu.png","../images/pnk_blu.png","../images/ylw_slt.png","../images/gry_blk.png","../images/blu_wht.png","../images/ylw_pnk.png"],"mutagen_generator_assignment":[1,0],"goal":6,"start":4,"action_noise":0.1,"location_history":"[4,5,1,0,1,2,3,2,6]","action_history":"[1,1,1,0,0,1,1,1]","mutagen_history":"[0,0,0,1,1,0,0,0]","location_rts":"[913,1161,1151,561,687,1113,745,894]","trial_type":"fractal-mutation","trial_index":62,"time_elapsed":1291224,"internal_node_id":"0.0-5.0-8.0"},{"group":"square cycles (cube, non-group)","fractal_assignment":["../images/grn_red.png","../images/cyn_red.png","../images/org_blu.png","../images/pnk_blu.png","../images/ylw_slt.png","../images/gry_blk.png","../images/blu_wht.png","../images/ylw_pnk.png"],"mutagen_generator_assignment":[1,0],"goal":0,"start":6,"action_noise":0.1,"location_history":"[6,5,4,7,6,7,3,0]","action_history":"[0,0,0,0,1,1,0]","mutagen_history":"[1,1,1,1,0,0,1]","location_rts":"[467,885,644,373,396,687,446]","trial_type":"fractal-mutation","trial_index":63,"time_elapsed":1306530,"internal_node_id":"0.0-5.0-9.0"},{"group":"square cycles (cube, non-group)","fractal_assignment":["../images/grn_red.png","../images/cyn_red.png","../images/org_blu.png","../images/pnk_blu.png","../images/ylw_slt.png","../images/gry_blk.png","../images/blu_wht.png","../images/ylw_pnk.png"],"mutagen_generator_assignment":[1,0],"goal":1,"start":0,"action_noise":0.1,"location_history":"[0,1]","action_history":"[0]","mutagen_history":"[1]","location_rts":"[550]","trial_type":"fractal-mutation","trial_index":64,"time_elapsed":1311774,"internal_node_id":"0.0-5.0-10.0"},{"group":"square cycles (cube, non-group)","fractal_assignment":["../images/grn_red.png","../images/cyn_red.png","../images/org_blu.png","../images/pnk_blu.png","../images/ylw_slt.png","../images/gry_blk.png","../images/blu_wht.png","../images/ylw_pnk.png"],"mutagen_generator_assignment":[1,0],"goal":3,"start":1,"action_noise":0.1,"location_history":"[1,2,3]","action_history":"[0,0]","mutagen_history":"[1,1]","location_rts":"[964,737]","trial_type":"fractal-mutation","trial_index":65,"time_elapsed":1319355,"internal_node_id":"0.0-5.0-11.0"},{"group":"square cycles (cube, non-group)","fractal_assignment":["../images/grn_red.png","../images/cyn_red.png","../images/org_blu.png","../images/pnk_blu.png","../images/ylw_slt.png","../images/gry_blk.png","../images/blu_wht.png","../images/ylw_pnk.png"],"mutagen_generator_assignment":[1,0],"goal":7,"start":3,"action_noise":0.1,"location_history":"[3,0,1,2,3,0,1,0,4,5,1,2,6,7]","action_history":"[0,0,0,0,1,0,0,1,1,1,1,1,0]","mutagen_history":"[1,1,1,1,0,1,1,0,0,0,0,0,1]","location_rts":"[604,720,793,603,444,486,790,1388,492,462,622,569,819]","trial_type":"fractal-mutation","trial_index":66,"time_elapsed":1346202,"internal_node_id":"0.0-5.0-12.0"},{"group":"square cycles (cube, non-group)","fractal_assignment":["../images/grn_red.png","../images/cyn_red.png","../images/org_blu.png","../images/pnk_blu.png","../images/ylw_slt.png","../images/gry_blk.png","../images/blu_wht.png","../images/ylw_pnk.png"],"mutagen_generator_assignment":[1,0],"goal":5,"start":7,"action_noise":0.1,"location_history":"[7,3,0,1,0,1,0,4,5]","action_history":"[1,0,0,0,0,1,1,1]","mutagen_history":"[0,1,1,1,1,0,0,0]","location_rts":"[939,646,469,515,990,944,919,782]","trial_type":"fractal-mutation","trial_index":67,"time_elapsed":1364865,"internal_node_id":"0.0-5.0-13.0"},{"group":"square cycles (cube, non-group)","fractal_assignment":["../images/grn_red.png","../images/cyn_red.png","../images/org_blu.png","../images/pnk_blu.png","../images/ylw_slt.png","../images/gry_blk.png","../images/blu_wht.png","../images/ylw_pnk.png"],"mutagen_generator_assignment":[1,0],"goal":2,"start":5,"action_noise":0.1,"location_history":"[5,4,7,6,7,6,7,3,2]","action_history":"[0,0,0,1,0,1,1,1]","mutagen_history":"[1,1,1,0,1,0,0,0]","location_rts":"[642,493,635,605,396,383,548,691]","trial_type":"fractal-mutation","trial_index":68,"time_elapsed":1381728,"internal_node_id":"0.0-5.0-14.0"},{"group":"square cycles (cube, non-group)","fractal_assignment":["../images/grn_red.png","../images/cyn_red.png","../images/org_blu.png","../images/pnk_blu.png","../images/ylw_slt.png","../images/gry_blk.png","../images/blu_wht.png","../images/ylw_pnk.png"],"mutagen_generator_assignment":[1,0],"goal":7,"start":2,"action_noise":0.1,"location_history":"[2,3,2,3,0,1,2,3,2,6,5,1,0,1,2,3,0,1,2,3,2,6,7]","action_history":"[0,0,0,0,0,0,0,1,1,1,1,1,0,0,0,0,0,0,0,1,1,1]","mutagen_history":"[1,1,1,1,1,1,1,0,0,0,0,0,1,1,1,1,1,1,1,0,0,0]","location_rts":"[696,463,879,525,703,949,853,407,639,518,887,829,691,604,666,705,1111,789,575,579,919,579]","trial_type":"fractal-mutation","trial_index":69,"time_elapsed":1425351,"internal_node_id":"0.0-5.0-15.0"},{"group":"square cycles (cube, non-group)","fractal_assignment":["../images/grn_red.png","../images/cyn_red.png","../images/org_blu.png","../images/pnk_blu.png","../images/ylw_slt.png","../images/gry_blk.png","../images/blu_wht.png","../images/ylw_pnk.png"],"mutagen_generator_assignment":[1,0],"goal":4,"start":7,"action_noise":0.1,"location_history":"[7,6,5,4]","action_history":"[0,0,0]","mutagen_history":"[1,1,1]","location_rts":"[869,544,809]","trial_type":"fractal-mutation","trial_index":70,"time_elapsed":1434452,"internal_node_id":"0.0-5.0-16.0"},{"group":"square cycles (cube, non-group)","fractal_assignment":["../images/grn_red.png","../images/cyn_red.png","../images/org_blu.png","../images/pnk_blu.png","../images/ylw_slt.png","../images/gry_blk.png","../images/blu_wht.png","../images/ylw_pnk.png"],"mutagen_generator_assignment":[1,0],"goal":2,"start":4,"action_noise":0.1,"location_history":"[4,7,6,7,3,2]","action_history":"[0,0,1,1,1]","mutagen_history":"[1,1,0,0,0]","location_rts":"[432,455,512,673,816]","trial_type":"fractal-mutation","trial_index":71,"time_elapsed":1446437,"internal_node_id":"0.0-5.0-17.0"},{"group":"square cycles (cube, non-group)","fractal_assignment":["../images/grn_red.png","../images/cyn_red.png","../images/org_blu.png","../images/pnk_blu.png","../images/ylw_slt.png","../images/gry_blk.png","../images/blu_wht.png","../images/ylw_pnk.png"],"mutagen_generator_assignment":[1,0],"goal":3,"start":2,"action_noise":0.1,"location_history":"[2,6,5,4,7,6,7,3]","action_history":"[1,0,0,0,0,1,0]","mutagen_history":"[0,1,1,1,1,0,1]","location_rts":"[678,531,662,624,350,481,553]","trial_type":"fractal-mutation","trial_index":72,"time_elapsed":1461730,"internal_node_id":"0.0-5.0-18.0"},{"group":"square cycles (cube, non-group)","fractal_assignment":["../images/grn_red.png","../images/cyn_red.png","../images/org_blu.png","../images/pnk_blu.png","../images/ylw_slt.png","../images/gry_blk.png","../images/blu_wht.png","../images/ylw_pnk.png"],"mutagen_generator_assignment":[1,0],"goal":6,"start":3,"action_noise":0.1,"location_history":"[3,0,4,7,3,2,3,0,1,0,4,5,4,5,1,2,3,0,1,2,3,2,3,0,4,7,6]","action_history":"[0,1,0,1,1,0,0,0,1,1,1,0,1,1,0,0,0,0,0,1,1,0,0,0,0,0]","mutagen_history":"[1,0,1,0,0,1,1,1,0,0,0,1,0,0,1,1,1,1,1,0,0,1,1,1,1,1]","location_rts":"[236,436,306,376,437,476,341,1036,415,324,924,544,693,598,650,366,1031,405,475,317,440,562,484,585,540,545]","trial_type":"fractal-mutation","trial_index":73,"time_elapsed":1508048,"internal_node_id":"0.0-5.0-19.0"},{"group":"square cycles (cube, non-group)","fractal_assignment":["../images/grn_red.png","../images/cyn_red.png","../images/org_blu.png","../images/pnk_blu.png","../images/ylw_slt.png","../images/gry_blk.png","../images/blu_wht.png","../images/ylw_pnk.png"],"mutagen_generator_assignment":[1,0],"goal":5,"start":6,"action_noise":0.1,"location_history":"[6,7,6,7,6,5]","action_history":"[0,0,0,0,0]","mutagen_history":"[1,1,1,1,1]","location_rts":"[831,398,807,462,522]","trial_type":"fractal-mutation","trial_index":74,"time_elapsed":1520255,"internal_node_id":"0.0-5.0-20.0"},{"group":"square cycles (cube, non-group)","fractal_assignment":["../images/grn_red.png","../images/cyn_red.png","../images/org_blu.png","../images/pnk_blu.png","../images/ylw_slt.png","../images/gry_blk.png","../images/blu_wht.png","../images/ylw_pnk.png"],"mutagen_generator_assignment":[1,0],"goal":1,"start":5,"action_noise":0.1,"location_history":"[5,4,7,3,2,3,2,6,5,1]","action_history":"[0,0,1,1,0,1,1,1,1]","mutagen_history":"[1,1,0,0,1,0,0,0,0]","location_rts":"[847,655,374,540,404,468,469,336,521]","trial_type":"fractal-mutation","trial_index":75,"time_elapsed":1538372,"internal_node_id":"0.0-5.0-21.0"},{"group":"square cycles (cube, non-group)","fractal_assignment":["../images/grn_red.png","../images/cyn_red.png","../images/org_blu.png","../images/pnk_blu.png","../images/ylw_slt.png","../images/gry_blk.png","../images/blu_wht.png","../images/ylw_pnk.png"],"mutagen_generator_assignment":[1,0],"goal":0,"start":1,"action_noise":0.1,"location_history":"[1,2,3,0]","action_history":"[0,0,0]","mutagen_history":"[1,1,1]","location_rts":"[395,434,514]","trial_type":"fractal-mutation","trial_index":76,"time_elapsed":1546574,"internal_node_id":"0.0-5.0-22.0"},{"group":"square cycles (cube, non-group)","fractal_assignment":["../images/grn_red.png","../images/cyn_red.png","../images/org_blu.png","../images/pnk_blu.png","../images/ylw_slt.png","../images/gry_blk.png","../images/blu_wht.png","../images/ylw_pnk.png"],"mutagen_generator_assignment":[1,0],"goal":2,"start":0,"action_noise":0.1,"location_history":"[0,1,0,4,7,6,7,3,0,1,0,4,5,1,0,4,7,6,5,4,7,6,7,3,0,1,0,1,2]","action_history":"[0,1,1,0,0,1,0,0,0,0,1,1,1,1,1,0,0,0,0,0,0,1,1,0,0,1,0,0]","mutagen_history":"[1,0,0,1,1,0,1,1,1,1,0,0,0,0,0,1,1,1,1,1,1,0,0,1,1,0,1,1]","location_rts":"[1724,489,1175,512,450,379,659,347,463,634,467,560,559,489,458,838,553,456,798,576,701,524,908,1098,497,472,540,516]","trial_type":"fractal-mutation","trial_index":77,"time_elapsed":1599318,"internal_node_id":"0.0-5.0-23.0"},{"group":"square cycles (cube, non-group)","fractal_assignment":["../images/grn_red.png","../images/cyn_red.png","../images/org_blu.png","../images/pnk_blu.png","../images/ylw_slt.png","../images/gry_blk.png","../images/blu_wht.png","../images/ylw_pnk.png"],"mutagen_generator_assignment":[1,0],"goal":6,"start":2,"action_noise":0.1,"location_history":"[2,3,0,4,5,4,7,6]","action_history":"[0,0,1,0,0,0,0]","mutagen_history":"[1,1,0,1,1,1,1]","location_rts":"[517,638,667,1548,785,704,600]","trial_type":"fractal-mutation","trial_index":78,"time_elapsed":1616336,"internal_node_id":"0.0-5.0-24.0"},{"group":"square cycles (cube, non-group)","fractal_assignment":["../images/grn_red.png","../images/cyn_red.png","../images/org_blu.png","../images/pnk_blu.png","../images/ylw_slt.png","../images/gry_blk.png","../images/blu_wht.png","../images/ylw_pnk.png"],"mutagen_generator_assignment":[1,0],"goal":1,"start":6,"action_noise":0.1,"location_history":"[6,5,1]","action_history":"[0,0]","mutagen_history":"[1,1]","location_rts":"[322,422]","trial_type":"fractal-mutation","trial_index":79,"time_elapsed":1622909,"internal_node_id":"0.0-5.0-25.0"},{"group":"square cycles (cube, non-group)","fractal_assignment":["../images/grn_red.png","../images/cyn_red.png","../images/org_blu.png","../images/pnk_blu.png","../images/ylw_slt.png","../images/gry_blk.png","../images/blu_wht.png","../images/ylw_pnk.png"],"mutagen_generator_assignment":[1,0],"goal":3,"start":1,"action_noise":0.1,"location_history":"[1,2,3]","action_history":"[0,0]","mutagen_history":"[1,1]","location_rts":"[351,380]","trial_type":"fractal-mutation","trial_index":80,"time_elapsed":1629400,"internal_node_id":"0.0-5.0-26.0"},{"group":"square cycles (cube, non-group)","fractal_assignment":["../images/grn_red.png","../images/cyn_red.png","../images/org_blu.png","../images/pnk_blu.png","../images/ylw_slt.png","../images/gry_blk.png","../images/blu_wht.png","../images/ylw_pnk.png"],"mutagen_generator_assignment":[1,0],"goal":7,"start":3,"action_noise":0.1,"location_history":"[3,2,3,2,6,5,1,0,4,5,4,7]","action_history":"[0,0,1,1,0,1,1,1,1,0,0]","mutagen_history":"[1,1,0,0,1,0,0,0,0,1,1]","location_rts":"[1039,445,475,420,410,277,379,1038,357,494,348]","trial_type":"fractal-mutation","trial_index":81,"time_elapsed":1650822,"internal_node_id":"0.0-5.0-27.0"},{"group":"square cycles (cube, non-group)","fractal_assignment":["../images/grn_red.png","../images/cyn_red.png","../images/org_blu.png","../images/pnk_blu.png","../images/ylw_slt.png","../images/gry_blk.png","../images/blu_wht.png","../images/ylw_pnk.png"],"mutagen_generator_assignment":[1,0],"goal":4,"start":7,"action_noise":0.1,"location_history":"[7,6,5,4]","action_history":"[0,0,0]","mutagen_history":"[1,1,1]","location_rts":"[691,475,855]","trial_type":"fractal-mutation","trial_index":82,"time_elapsed":1659761,"internal_node_id":"0.0-5.0-28.0"},{"group":"square cycles (cube, non-group)","fractal_assignment":["../images/grn_red.png","../images/cyn_red.png","../images/org_blu.png","../images/pnk_blu.png","../images/ylw_slt.png","../images/gry_blk.png","../images/blu_wht.png","../images/ylw_pnk.png"],"mutagen_generator_assignment":[1,0],"goal":0,"start":4,"action_noise":0.1,"location_history":"[4,7,3,0]","action_history":"[0,0,0]","mutagen_history":"[1,1,1]","location_rts":"[1628,503,624]","trial_type":"fractal-mutation","trial_index":83,"time_elapsed":1669532,"internal_node_id":"0.0-5.0-29.0"},{"group":"square cycles (cube, non-group)","fractal_assignment":["../images/grn_red.png","../images/cyn_red.png","../images/org_blu.png","../images/pnk_blu.png","../images/ylw_slt.png","../images/gry_blk.png","../images/blu_wht.png","../images/ylw_pnk.png"],"mutagen_generator_assignment":[1,0],"goal":5,"start":0,"action_noise":0.1,"location_history":"[0,1,2,3,0,1,0,1,2,3,0,1,2,6,7,6,7,3,0,1,0,1,2,6,5]","action_history":"[0,1,0,0,0,1,0,0,0,0,0,0,1,1,0,1,1,0,0,1,0,0,0,0]","mutagen_history":"[1,0,1,1,1,0,1,1,1,1,1,1,0,0,1,0,0,1,1,0,1,1,1,1]","location_rts":"[362,277,184,348,391,491,352,269,188,362,734,945,138,616,273,883,430,638,490,359,815,667,611,1153]","trial_type":"fractal-mutation","trial_index":84,"time_elapsed":1711986,"internal_node_id":"0.0-5.0-30.0"},{"group":"square cycles (cube, non-group)","fractal_assignment":["../images/grn_red.png","../images/cyn_red.png","../images/org_blu.png","../images/pnk_blu.png","../images/ylw_slt.png","../images/gry_blk.png","../images/blu_wht.png","../images/ylw_pnk.png"],"mutagen_generator_assignment":[1,0],"goal":3,"start":5,"action_noise":0.1,"location_history":"[5,4,7,6,5,4,7,3]","action_history":"[0,0,0,1,0,0,1]","mutagen_history":"[1,1,1,0,1,1,0]","location_rts":"[380,457,653,540,389,316,504]","trial_type":"fractal-mutation","trial_index":85,"time_elapsed":1726607,"internal_node_id":"0.0-5.0-31.0"},{"group":"square cycles (cube, non-group)","fractal_assignment":["../images/grn_red.png","../images/cyn_red.png","../images/org_blu.png","../images/pnk_blu.png","../images/ylw_slt.png","../images/gry_blk.png","../images/blu_wht.png","../images/ylw_pnk.png"],"mutagen_generator_assignment":[1,0],"goal":2,"start":3,"action_noise":0.1,"location_history":"[3,0,1,2]","action_history":"[0,0,0]","mutagen_history":"[1,1,1]","location_rts":"[611,440,411]","trial_type":"fractal-mutation","trial_index":86,"time_elapsed":1734984,"internal_node_id":"0.0-5.0-32.0"},{"group":"square cycles (cube, non-group)","fractal_assignment":["../images/grn_red.png","../images/cyn_red.png","../images/org_blu.png","../images/pnk_blu.png","../images/ylw_slt.png","../images/gry_blk.png","../images/blu_wht.png","../images/ylw_pnk.png"],"mutagen_generator_assignment":[1,0],"goal":6,"start":2,"action_noise":0.1,"location_history":"[2,3,0,1,2,3,0,1,2,3,0,4,7,3,0,1,2,6]","action_history":"[0,1,1,0,0,0,0,0,0,0,1,0,0,0,0,0,1]","mutagen_history":"[1,0,0,1,1,1,1,1,1,1,0,1,1,1,1,1,0]","location_rts":"[704,595,369,394,339,207,337,392,358,391,405,754,387,1179,432,596,591]","trial_type":"fractal-mutation","trial_index":87,"time_elapsed":1766056,"internal_node_id":"0.0-5.0-33.0"},{"group":"square cycles (cube, non-group)","fractal_assignment":["../images/grn_red.png","../images/cyn_red.png","../images/org_blu.png","../images/pnk_blu.png","../images/ylw_slt.png","../images/gry_blk.png","../images/blu_wht.png","../images/ylw_pnk.png"],"mutagen_generator_assignment":[1,0],"goal":1,"start":6,"action_noise":0.1,"location_history":"[6,5,4,7,6,5,4,7,3,2,6,7,6,5,4,7,6,5,4,5,4,7,6,7,3,2,6,5,1]","action_history":"[0,0,0,0,0,0,0,1,1,1,1,0,0,0,0,1,0,0,1,0,0,0,1,1,1,1,0,0]","mutagen_history":"[1,1,1,1,1,1,1,0,0,0,0,1,1,1,1,0,1,1,0,1,1,1,0,0,0,0,1,1]","location_rts":"[792,524,688,359,784,312,697,517,560,997,356,360,257,437,445,348,541,10,405,610,85,400,300,519,1154,682,960,143]","trial_type":"fractal-mutation","trial_index":88,"time_elapsed":1815166,"internal_node_id":"0.0-5.0-34.0"},{"group":"square cycles (cube, non-group)","fractal_assignment":["../images/grn_red.png","../images/cyn_red.png","../images/org_blu.png","../images/pnk_blu.png","../images/ylw_slt.png","../images/gry_blk.png","../images/blu_wht.png","../images/ylw_pnk.png"],"mutagen_generator_assignment":[1,0],"goal":7,"start":1,"action_noise":0.1,"location_history":"[1,2,3,0,1,2,3,2,3,2,3,0,1,2,3,0,4,5,4,7]","action_history":"[0,0,0,0,0,0,0,0,1,1,0,0,0,0,1,1,0,0,0]","mutagen_history":"[1,1,1,1,1,1,1,1,0,0,1,1,1,1,0,0,1,1,1]","location_rts":"[803,2219,725,462,365,260,448,542,1302,540,654,464,531,692,714,577,421,372,540]","trial_type":"fractal-mutation","trial_index":89,"time_elapsed":1852741,"internal_node_id":"0.0-5.0-35.0"},{"group":"square cycles (cube, non-group)","fractal_assignment":["../images/grn_red.png","../images/cyn_red.png","../images/org_blu.png","../images/pnk_blu.png","../images/ylw_slt.png","../images/gry_blk.png","../images/blu_wht.png","../images/ylw_pnk.png"],"mutagen_generator_assignment":[1,0],"goal":4,"start":7,"action_noise":0.1,"location_history":"[7,6,5,4]","action_history":"[0,0,0]","mutagen_history":"[1,1,1]","location_rts":"[810,590,455]","trial_type":"fractal-mutation","trial_index":90,"time_elapsed":1861528,"internal_node_id":"0.0-5.0-36.0"},{"group":"square cycles (cube, non-group)","fractal_assignment":["../images/grn_red.png","../images/cyn_red.png","../images/org_blu.png","../images/pnk_blu.png","../images/ylw_slt.png","../images/gry_blk.png","../images/blu_wht.png","../images/ylw_pnk.png"],"mutagen_generator_assignment":[1,0],"goal":5,"start":4,"action_noise":0.1,"location_history":"[4,7,6,5]","action_history":"[0,0,0]","mutagen_history":"[1,1,1]","location_rts":"[661,338,407]","trial_type":"fractal-mutation","trial_index":91,"time_elapsed":1869922,"internal_node_id":"0.0-5.0-37.0"},{"group":"square cycles (cube, non-group)","fractal_assignment":["../images/grn_red.png","../images/cyn_red.png","../images/org_blu.png","../images/pnk_blu.png","../images/ylw_slt.png","../images/gry_blk.png","../images/blu_wht.png","../images/ylw_pnk.png"],"mutagen_generator_assignment":[1,0],"goal":0,"start":5,"action_noise":0.1,"location_history":"[5,4,7,3,0]","action_history":"[0,0,1,0]","mutagen_history":"[1,1,0,1]","location_rts":"[380,335,513,228]","trial_type":"fractal-mutation","trial_index":92,"time_elapsed":1879434,"internal_node_id":"0.0-5.0-38.0"},{"group":"square cycles (cube, non-group)","fractal_assignment":["../images/grn_red.png","../images/cyn_red.png","../images/org_blu.png","../images/pnk_blu.png","../images/ylw_slt.png","../images/gry_blk.png","../images/blu_wht.png","../images/ylw_pnk.png"],"mutagen_generator_assignment":[1,0],"goal":4,"start":0,"action_noise":0.1,"location_history":"[0,1,2,6,5,4]","action_history":"[0,0,1,0,0]","mutagen_history":"[1,1,0,1,1]","location_rts":"[377,154,189,328,256]","trial_type":"fractal-mutation","trial_index":93,"time_elapsed":1889962,"internal_node_id":"0.0-5.0-39.0"},{"group":"square cycles (cube, non-group)","fractal_assignment":["../images/grn_red.png","../images/cyn_red.png","../images/org_blu.png","../images/pnk_blu.png","../images/ylw_slt.png","../images/gry_blk.png","../images/blu_wht.png","../images/ylw_pnk.png"],"mutagen_generator_assignment":[1,0],"goal":0,"start":4,"action_noise":0.1,"location_history":"[4,7,6,7,6,5,4,7,6,7,6,7,6,7,3,2,6,5,4,5,4,7,6,5,4,7,6,5,1,2,3,0]","action_history":"[0,0,1,0,0,0,0,0,1,1,1,1,1,1,1,1,0,0,0,0,0,1,0,0,0,0,0,1,0,0,0]","mutagen_history":"[1,1,0,1,1,1,1,1,0,0,0,0,0,0,0,0,1,1,1,1,1,0,1,1,1,1,1,0,1,1,1]","location_rts":"[644,1107,544,460,631,140,371,370,437,660,562,605,543,404,513,526,947,580,87,398,424,366,151,238,311,330,385,130,1188,397,538]","trial_type":"fractal-mutation","trial_index":94,"time_elapsed":1942941,"internal_node_id":"0.0-5.0-40.0"},{"group":"square cycles (cube, non-group)","fractal_assignment":["../images/grn_red.png","../images/cyn_red.png","../images/org_blu.png","../images/pnk_blu.png","../images/ylw_slt.png","../images/gry_blk.png","../images/blu_wht.png","../images/ylw_pnk.png"],"mutagen_generator_assignment":[1,0],"goal":2,"start":0,"action_noise":0.1,"location_history":"[0,1,0,1,2]","action_history":"[0,1,0,0]","mutagen_history":"[1,0,1,1]","location_rts":"[683,348,668,93]","trial_type":"fractal-mutation","trial_index":95,"time_elapsed":1952738,"internal_node_id":"0.0-5.0-41.0"},{"group":"square cycles (cube, non-group)","fractal_assignment":["../images/grn_red.png","../images/cyn_red.png","../images/org_blu.png","../images/pnk_blu.png","../images/ylw_slt.png","../images/gry_blk.png","../images/blu_wht.png","../images/ylw_pnk.png"],"mutagen_generator_assignment":[1,0],"goal":3,"start":2,"action_noise":0.1,"location_history":"[2,3]","action_history":"[0]","mutagen_history":"[1]","location_rts":"[645]","trial_type":"fractal-mutation","trial_index":96,"time_elapsed":1958033,"internal_node_id":"0.0-5.0-42.0"},{"group":"square cycles (cube, non-group)","fractal_assignment":["../images/grn_red.png","../images/cyn_red.png","../images/org_blu.png","../images/pnk_blu.png","../images/ylw_slt.png","../images/gry_blk.png","../images/blu_wht.png","../images/ylw_pnk.png"],"mutagen_generator_assignment":[1,0],"goal":5,"start":3,"action_noise":0.1,"location_history":"[3,0,1,0,1,2,3,2,3,2,3,0,1,2,3,0,4,7,3,2,3,2,6,7,6,7,3,0,1,2,3,0,4,7,6,7,3,0,1,2,3,0,1,0,1,2,3,2,6,5]","action_history":"[0,0,1,0,0,0,0,0,1,0,0,0,0,0,0,0,1,1,1,0,1,1,1,0,1,1,0,0,0,0,0,0,0,1,1,1,0,0,0,0,0,0,1,0,0,0,1,1,0]","mutagen_history":"[1,1,0,1,1,1,1,1,0,1,1,1,1,1,1,1,0,0,0,1,0,0,0,1,0,0,1,1,1,1,1,1,1,0,0,0,1,1,1,1,1,1,0,1,1,1,0,0,1]","location_rts":"[718,225,221,262,4,471,541,741,1609,841,361,405,402,375,441,439,13,349,453,289,319,371,500,407,584,465,684,211,396,324,458,399,184,502,589,381,455,448,321,301,513,472,675,395,204,744,318,507,1110]","trial_type":"fractal-mutation","trial_index":97,"time_elapsed":2038688,"internal_node_id":"0.0-5.0-43.0"},{"group":"square cycles (cube, non-group)","fractal_assignment":["../images/grn_red.png","../images/cyn_red.png","../images/org_blu.png","../images/pnk_blu.png","../images/ylw_slt.png","../images/gry_blk.png","../images/blu_wht.png","../images/ylw_pnk.png"],"mutagen_generator_assignment":[1,0],"goal":1,"start":5,"action_noise":0.1,"location_history":"[5,4,7,6,7,6,7,3,2,3,0,1]","action_history":"[0,0,0,1,0,1,1,1,0,0,0]","mutagen_history":"[1,1,1,0,1,0,0,0,1,1,1]","location_rts":"[662,210,356,515,893,509,438,681,412,299,687]","trial_type":"fractal-mutation","trial_index":98,"time_elapsed":2060111,"internal_node_id":"0.0-5.0-44.0"},{"group":"square cycles (cube, non-group)","fractal_assignment":["../images/grn_red.png","../images/cyn_red.png","../images/org_blu.png","../images/pnk_blu.png","../images/ylw_slt.png","../images/gry_blk.png","../images/blu_wht.png","../images/ylw_pnk.png"],"mutagen_generator_assignment":[1,0],"goal":7,"start":1,"action_noise":0.1,"location_history":"[1,0,1,2,3,0,1,2,3,0,1,2,3,0,1,2,3,2,3,0,1,2,3,0,1,0,4,5,1,0,1,2,6,7]","action_history":"[1,0,0,0,0,0,0,0,0,0,0,0,0,0,0,0,1,0,0,0,0,0,0,0,1,1,1,1,1,0,0,0,1]","mutagen_history":"[0,1,1,1,1,1,1,1,1,1,1,1,1,1,1,1,0,1,1,1,1,1,1,1,0,0,0,0,0,1,1,1,0]","location_rts":"[3810,440,75,357,180,373,42,696,467,1188,475,432,371,364,385,571,356,129,593,283,638,396,559,681,336,403,356,377,467,251,240,450,771]","trial_type":"fractal-mutation","trial_index":99,"time_elapsed":2118106,"internal_node_id":"0.0-5.0-45.0"},{"group":"square cycles (cube, non-group)","fractal_assignment":["../images/grn_red.png","../images/cyn_red.png","../images/org_blu.png","../images/pnk_blu.png","../images/ylw_slt.png","../images/gry_blk.png","../images/blu_wht.png","../images/ylw_pnk.png"],"mutagen_generator_assignment":[1,0],"goal":6,"start":7,"action_noise":0.1,"location_history":"[7,6]","action_history":"[0]","mutagen_history":"[1]","location_rts":"[580]","trial_type":"fractal-mutation","trial_index":100,"time_elapsed":2123298,"internal_node_id":"0.0-5.0-46.0"},{"group":"square cycles (cube, non-group)","fractal_assignment":["../images/grn_red.png","../images/cyn_red.png","../images/org_blu.png","../images/pnk_blu.png","../images/ylw_slt.png","../images/gry_blk.png","../images/blu_wht.png","../images/ylw_pnk.png"],"mutagen_generator_assignment":[1,0],"goal":3,"start":6,"action_noise":0.1,"location_history":"[6,5,1,0,4,5,1,0,4,5,1,0,4,5,4,7,6,5,4,7,6,5,1,0,4,5,4,7,6,7,3]","action_history":"[0,1,1,1,1,1,1,1,1,1,1,1,1,0,0,0,0,0,0,0,0,1,1,1,0,0,0,0,1,1]","mutagen_history":"[1,0,0,0,0,0,0,0,0,0,0,0,0,1,1,1,1,1,1,1,1,0,0,0,1,1,1,1,0,0]","location_rts":"[690,827,519,544,148,467,405,420,467,477,1450,456,404,2319,338,374,380,432,435,374,420,797,274,1057,824,297,533,880,440,563]","trial_type":"fractal-mutation","trial_index":101,"time_elapsed":2178424,"internal_node_id":"0.0-5.0-47.0"},{"group":"square cycles (cube, non-group)","fractal_assignment":["../images/grn_red.png","../images/cyn_red.png","../images/org_blu.png","../images/pnk_blu.png","../images/ylw_slt.png","../images/gry_blk.png","../images/blu_wht.png","../images/ylw_pnk.png"],"mutagen_generator_assignment":[1,0],"goal":0,"start":3,"action_noise":0.1,"location_history":"[3,2,3,0]","action_history":"[0,0,0]","mutagen_history":"[1,1,1]","location_rts":"[945,352,2878]","trial_type":"fractal-mutation","trial_index":102,"time_elapsed":2189538,"internal_node_id":"0.0-5.0-48.0"},{"group":"square cycles (cube, non-group)","fractal_assignment":["../images/grn_red.png","../images/cyn_red.png","../images/org_blu.png","../images/pnk_blu.png","../images/ylw_slt.png","../images/gry_blk.png","../images/blu_wht.png","../images/ylw_pnk.png"],"mutagen_generator_assignment":[1,0],"goal":2,"start":0,"action_noise":0.1,"location_history":"[0,1,0,4,7,6,5,4,7,6,7,6,5,4,7,6,7,6,7,3,0,4,7,6,5,4,7,6,7,6,5,4,5,4,5,4,7,6,5,1,2]","action_history":"[0,1,1,0,0,0,0,0,0,0,0,0,1,0,0,0,0,1,1,1,1,1,0,0,0,0,0,1,0,0,0,1,0,0,1,1,0,0,0,0]","mutagen_history":"[1,0,0,1,1,1,1,1,1,1,1,1,0,1,1,1,1,0,0,0,0,0,1,1,1,1,1,0,1,1,1,0,1,1,0,0,1,1,1,1]","location_rts":"[662,361,414,640,301,385,326,398,447,511,770,546,629,434,369,297,648,467,466,413,847,412,500,527,384,438,720,599,354,455,477,328,449,435,474,519,447,313,459,633]","trial_type":"fractal-mutation","trial_index":103,"time_elapsed":2256980,"internal_node_id":"0.0-5.0-49.0"},{"view_history":"[{\"page_index\":0,\"viewing_time\":5448}]","rt":5449,"trial_type":"instructions","trial_index":104,"time_elapsed":2263430,"internal_node_id":"0.0-6.0"},{"rt":5344,"responses":"{\"Q0\":\"\"}","trial_type":"survey-text","trial_index":105,"time_elapsed":2269779,"internal_node_id":"0.0-7.0"}]