[{"view_history":"[{\"page_index\":0,\"viewing_time\":70268},{\"page_index\":1,\"viewing_time\":4655},{\"page_index\":2,\"viewing_time\":1334},{\"page_index\":3,\"viewing_time\":950}]","rt":77209,"trial_type":"instructions","trial_index":0,"time_elapsed":77212,"internal_node_id":"0.0-0.0"},{"view_history":"[{\"page_index\":0,\"viewing_time\":1107},{\"page_index\":1,\"viewing_time\":1726}]","rt":2834,"trial_type":"instructions","trial_index":1,"time_elapsed":81047,"internal_node_id":"0.0-1.0"},{"group":"tri cycles (cube, non-group)","room_assignment":["green","pink","yellow","purple","blue","red","grey","brown"],"door_color_assignment":["black","white"],"door_generator_assignment":[1,0],"goal":3,"start":0,"action_noise":0.1,"location_history":"[0,2,1,0,2,6,4,0,3]","action_history":"[0,0,1,0,1,0,1,1]","door_history":"[1,1,0,1,0,1,0,0]","location_rts":"[750,810,571,84,302,88,179,10546]","trial_type":"two-door-navigation","trial_index":2,"time_elapsed":106089,"internal_node_id":"0.0-2.0-0.0"},{"group":"tri cycles (cube, non-group)","room_assignment":["green","pink","yellow","purple","blue","red","grey","brown"],"door_color_assignment":["black","white"],"door_generator_assignment":[1,0],"goal":1,"start":3,"action_noise":0.1,"location_history":"[3,7,3,7,3,7,6,4,0,2,6,4,0,3,7,3,7,3,7,3,7,3,7,6,5,2,6,5,1]","action_history":"[0,1,0,1,0,0,0,1,0,1,0,1,0,0,1,0,1,0,1,0,1,0,0,1,0,1,1,0]","door_history":"[1,0,1,0,1,1,1,0,1,0,1,0,1,1,0,1,0,1,0,1,0,1,1,0,1,0,0,1]","location_rts":"[1218,124,113,204,149,1322,3542,150,140,109,86,160,5031,1529,176,517,96,805,4,67,77,148,301,410,577,1,231,332]","trial_type":"two-door-navigation","trial_index":3,"time_elapsed":155833,"internal_node_id":"0.0-2.0-1.0"},{"group":"tri cycles (cube, non-group)","room_assignment":["green","pink","yellow","purple","blue","red","grey","brown"],"door_color_assignment":["black","white"],"door_generator_assignment":[1,0],"goal":2,"start":1,"action_noise":0.1,"location_history":"[1,5,1,5,1,5,1,0,2]","action_history":"[1,0,1,0,1,0,1,0]","door_history":"[0,1,0,1,0,1,0,1]","location_rts":"[902,362,227,313,4319,323,512,103]","trial_type":"two-door-navigation","trial_index":4,"time_elapsed":174594,"internal_node_id":"0.0-2.0-2.0"},{"group":"tri cycles (cube, non-group)","room_assignment":["green","pink","yellow","purple","blue","red","grey","brown"],"door_color_assignment":["black","white"],"door_generator_assignment":[1,0],"goal":6,"start":2,"action_noise":0.1,"location_history":"[2,1,5,1,5,2,6]","action_history":"[0,1,0,1,1,1]","door_history":"[1,0,1,0,0,0]","location_rts":"[3385,82,117,236,184,223]","trial_type":"two-door-navigation","trial_index":5,"time_elapsed":188456,"internal_node_id":"0.0-2.0-3.0"},{"group":"tri cycles (cube, non-group)","room_assignment":["green","pink","yellow","purple","blue","red","grey","brown"],"door_color_assignment":["black","white"],"door_generator_assignment":[1,0],"goal":5,"start":6,"action_noise":0.1,"location_history":"[6,4,0,2,1,0,3,7,3,7,3,7,6,4,0,2,6,4,7,6,5]","action_history":"[0,1,0,0,0,1,0,1,0,1,0,1,0,1,0,1,0,1,0,1]","door_history":"[1,0,1,1,1,0,1,0,1,0,1,0,1,0,1,0,1,0,1,0]","location_rts":"[575,328,20,385,23,277,376,338,386,307,601,377,313,255,308,578,119,76,380,579]","trial_type":"two-door-navigation","trial_index":6,"time_elapsed":219012,"internal_node_id":"0.0-2.0-4.0"},{"group":"tri cycles (cube, non-group)","room_assignment":["green","pink","yellow","purple","blue","red","grey","brown"],"door_color_assignment":["black","white"],"door_generator_assignment":[1,0],"goal":4,"start":5,"action_noise":0.1,"location_history":"[5,1,5,2,1,0,3,7,3,7,6,5,1,0,3,7,3,7,3,7,3,4]","action_history":"[0,1,1,0,0,1,0,1,0,0,1,0,0,1,0,1,0,1,0,1,0]","door_history":"[1,0,0,1,1,0,1,0,1,1,0,1,1,0,1,0,1,0,1,0,1]","location_rts":"[14118,340,1366,269,745,4868,135,173,89,276,604,427,798,34,41,35,168,15,5,132,33]","trial_type":"two-door-navigation","trial_index":7,"time_elapsed":268635,"internal_node_id":"0.0-2.0-5.0"},{"group":"tri cycles (cube, non-group)","room_assignment":["green","pink","yellow","purple","blue","red","grey","brown"],"door_color_assignment":["black","white"],"door_generator_assignment":[1,0],"goal":7,"start":4,"action_noise":0.1,"location_history":"[4,0,2,6,4,7]","action_history":"[1,0,1,0,0]","door_history":"[0,1,0,1,1]","location_rts":"[2090,520,68,90,241]","trial_type":"two-door-navigation","trial_index":8,"time_elapsed":280257,"internal_node_id":"0.0-2.0-6.0"},{"group":"tri cycles (cube, non-group)","room_assignment":["green","pink","yellow","purple","blue","red","grey","brown"],"door_color_assignment":["black","white"],"door_generator_assignment":[1,0],"goal":4,"start":7,"action_noise":0.1,"location_history":"[7,6,5,1,5,2,6,4]","action_history":"[0,1,0,1,0,1,0]","door_history":"[1,0,1,0,1,0,1]","location_rts":"[777,519,133,4336,335,388,506]","trial_type":"two-door-navigation","trial_index":9,"time_elapsed":297911,"internal_node_id":"0.0-2.0-7.0"},{"group":"tri cycles (cube, non-group)","room_assignment":["green","pink","yellow","purple","blue","red","grey","brown"],"door_color_assignment":["black","white"],"door_generator_assignment":[1,0],"goal":6,"start":4,"action_noise":0.1,"location_history":"[4,7,3,4,7,3,4,7,3,7,3,7,3,4,7,6]","action_history":"[0,0,1,0,1,1,0,1,0,1,0,0,1,0,0]","door_history":"[1,1,0,1,0,0,1,0,1,0,1,1,0,1,1]","location_rts":"[3103,771,86,331,268,523,195,111,1906,473,31,317,615,61,454]","trial_type":"two-door-navigation","trial_index":10,"time_elapsed":326008,"internal_node_id":"0.0-2.0-8.0"},{"group":"tri cycles (cube, non-group)","room_assignment":["green","pink","yellow","purple","blue","red","grey","brown"],"door_color_assignment":["black","white"],"door_generator_assignment":[1,0],"goal":0,"start":6,"action_noise":0.1,"location_history":"[6,5,2,1,0]","action_history":"[0,1,0,0]","door_history":"[1,0,1,1]","location_rts":"[4791,12,1,663]","trial_type":"two-door-navigation","trial_index":11,"time_elapsed":339064,"internal_node_id":"0.0-2.0-9.0"},{"group":"tri cycles (cube, non-group)","room_assignment":["green","pink","yellow","purple","blue","red","grey","brown"],"door_color_assignment":["black","white"],"door_generator_assignment":[1,0],"goal":1,"start":0,"action_noise":0.1,"location_history":"[0,2,6,4,0,2,6,4,0,2,6,4,0,2,6,4,0,2,6,5,1]","action_history":"[0,1,0,1,0,1,0,1,0,1,0,1,0,1,0,1,0,1,1,0]","door_history":"[1,0,1,0,1,0,1,0,1,0,1,0,1,0,1,0,1,0,0,1]","location_rts":"[1057,115,732,105,51,67,152,37,16,1754,183,151,402,198,22,351,167,85,845,132]","trial_type":"two-door-navigation","trial_index":12,"time_elapsed":369604,"internal_node_id":"0.0-2.0-10.0"},{"group":"tri cycles (cube, non-group)","room_assignment":["green","pink","yellow","purple","blue","red","grey","brown"],"door_color_assignment":["black","white"],"door_generator_assignment":[1,0],"goal":3,"start":1,"action_noise":0.1,"location_history":"[1,0,3]","action_history":"[0,1]","door_history":"[1,0]","location_rts":"[438,62]","trial_type":"two-door-navigation","trial_index":13,"time_elapsed":375649,"internal_node_id":"0.0-2.0-11.0"},{"group":"tri cycles (cube, non-group)","room_assignment":["green","pink","yellow","purple","blue","red","grey","brown"],"door_color_assignment":["black","white"],"door_generator_assignment":[1,0],"goal":7,"start":3,"action_noise":0.1,"location_history":"[3,4,7]","action_history":"[1,0]","door_history":"[0,1]","location_rts":"[606,43]","trial_type":"two-door-navigation","trial_index":14,"time_elapsed":381850,"internal_node_id":"0.0-2.0-12.0"},{"group":"tri cycles (cube, non-group)","room_assignment":["green","pink","yellow","purple","blue","red","grey","brown"],"door_color_assignment":["black","white"],"door_generator_assignment":[1,0],"goal":5,"start":7,"action_noise":0.1,"location_history":"[7,6,5]","action_history":"[0,1]","door_history":"[1,0]","location_rts":"[19399,65]","trial_type":"two-door-navigation","trial_index":15,"time_elapsed":406862,"internal_node_id":"0.0-2.0-13.0"},{"group":"tri cycles (cube, non-group)","room_assignment":["green","pink","yellow","purple","blue","red","grey","brown"],"door_color_assignment":["black","white"],"door_generator_assignment":[1,0],"goal":2,"start":5,"action_noise":0.1,"location_history":"[5,2]","action_history":"[1]","door_history":"[0]","location_rts":"[491]","trial_type":"two-door-navigation","trial_index":16,"time_elapsed":411890,"internal_node_id":"0.0-2.0-14.0"},{"group":"tri cycles (cube, non-group)","room_assignment":["green","pink","yellow","purple","blue","red","grey","brown"],"door_color_assignment":["black","white"],"door_generator_assignment":[1,0],"goal":7,"start":2,"action_noise":0.1,"location_history":"[2,1,5,1,5,2,1,0,3,7]","action_history":"[0,1,0,1,1,0,0,1,0]","door_history":"[1,0,1,0,0,1,1,0,1]","location_rts":"[658,1244,96,222,35,1115,78,338,54]","trial_type":"two-door-navigation","trial_index":17,"time_elapsed":428423,"internal_node_id":"0.0-2.0-15.0"},{"group":"tri cycles (cube, non-group)","room_assignment":["green","pink","yellow","purple","blue","red","grey","brown"],"door_color_assignment":["black","white"],"door_generator_assignment":[1,0],"goal":4,"start":7,"action_noise":0.1,"location_history":"[7,3,7,3,7,6,4]","action_history":"[1,0,1,0,0,0]","door_history":"[0,1,0,1,1,1]","location_rts":"[603,3498,370,760,174,2079]","trial_type":"two-door-navigation","trial_index":18,"time_elapsed":445544,"internal_node_id":"0.0-2.0-16.0"},{"group":"tri cycles (cube, non-group)","room_assignment":["green","pink","yellow","purple","blue","red","grey","brown"],"door_color_assignment":["black","white"],"door_generator_assignment":[1,0],"goal":2,"start":4,"action_noise":0.1,"location_history":"[4,7,3,7,3,4,7,3,4,7,3,7,3,7,6,5,2]","action_history":"[0,1,0,1,0,0,1,0,0,1,0,1,0,0,1,1]","door_history":"[1,0,1,0,1,1,0,1,1,0,1,0,1,1,0,0]","location_rts":"[4207,607,94,54,122,35,76,116,389,159,7,291,116,502,286,78]","trial_type":"two-door-navigation","trial_index":19,"time_elapsed":472555,"internal_node_id":"0.0-2.0-17.0"},{"group":"tri cycles (cube, non-group)","room_assignment":["green","pink","yellow","purple","blue","red","grey","brown"],"door_color_assignment":["black","white"],"door_generator_assignment":[1,0],"goal":3,"start":2,"action_noise":0.1,"location_history":"[2,6,4,0,3]","action_history":"[1,0,0,1]","door_history":"[0,1,1,0]","location_rts":"[1400,288,487,13]","trial_type":"two-door-navigation","trial_index":20,"time_elapsed":482330,"internal_node_id":"0.0-2.0-18.0"},{"group":"tri cycles (cube, non-group)","room_assignment":["green","pink","yellow","purple","blue","red","grey","brown"],"door_color_assignment":["black","white"],"door_generator_assignment":[1,0],"goal":6,"start":3,"action_noise":0.1,"location_history":"[3,7,3,7,3,4,7,3,4,0,2,6]","action_history":"[0,1,0,1,0,0,1,1,1,0,0]","door_history":"[1,0,1,0,1,1,0,0,0,1,1]","location_rts":"[524,748,340,159,163,163,47,12,75,312,68]","trial_type":"two-door-navigation","trial_index":21,"time_elapsed":499728,"internal_node_id":"0.0-2.0-19.0"},{"group":"tri cycles (cube, non-group)","room_assignment":["green","pink","yellow","purple","blue","red","grey","brown"],"door_color_assignment":["black","white"],"door_generator_assignment":[1,0],"goal":5,"start":6,"action_noise":0.1,"location_history":"[6,5]","action_history":"[1]","door_history":"[0]","location_rts":"[536]","trial_type":"two-door-navigation","trial_index":22,"time_elapsed":504792,"internal_node_id":"0.0-2.0-20.0"},{"group":"tri cycles (cube, non-group)","room_assignment":["green","pink","yellow","purple","blue","red","grey","brown"],"door_color_assignment":["black","white"],"door_generator_assignment":[1,0],"goal":1,"start":5,"action_noise":0.1,"location_history":"[5,1]","action_history":"[0]","door_history":"[1]","location_rts":"[18471]","trial_type":"two-door-navigation","trial_index":23,"time_elapsed":527791,"internal_node_id":"0.0-2.0-21.0"},{"group":"tri cycles (cube, non-group)","room_assignment":["green","pink","yellow","purple","blue","red","grey","brown"],"door_color_assignment":["black","white"],"door_generator_assignment":[1,0],"goal":0,"start":1,"action_noise":0.1,"location_history":"[1,0]","action_history":"[0]","door_history":"[1]","location_rts":"[2729]","trial_type":"two-door-navigation","trial_index":24,"time_elapsed":535046,"internal_node_id":"0.0-2.0-22.0"},{"group":"tri cycles (cube, non-group)","room_assignment":["green","pink","yellow","purple","blue","red","grey","brown"],"door_color_assignment":["black","white"],"door_generator_assignment":[1,0],"goal":2,"start":0,"action_noise":0.1,"location_history":"[0,2]","action_history":"[0]","door_history":"[1]","location_rts":"[9049]","trial_type":"two-door-navigation","trial_index":25,"time_elapsed":548619,"internal_node_id":"0.0-2.0-23.0"},{"group":"tri cycles (cube, non-group)","room_assignment":["green","pink","yellow","purple","blue","red","grey","brown"],"door_color_assignment":["black","white"],"door_generator_assignment":[1,0],"goal":6,"start":2,"action_noise":0.1,"location_history":"[2,6]","action_history":"[1]","door_history":"[0]","location_rts":"[466]","trial_type":"two-door-navigation","trial_index":26,"time_elapsed":553613,"internal_node_id":"0.0-2.0-24.0"},{"group":"tri cycles (cube, non-group)","room_assignment":["green","pink","yellow","purple","blue","red","grey","brown"],"door_color_assignment":["black","white"],"door_generator_assignment":[1,0],"goal":1,"start":6,"action_noise":0.1,"location_history":"[6,4,0,2,6,4,0,3,4,7,3,4,7,3,4,0,2,1]","action_history":"[0,1,0,1,0,1,1,0,0,1,1,0,1,1,0,0,0]","door_history":"[1,0,1,0,1,0,0,1,1,0,0,1,0,0,1,1,1]","location_rts":"[447,656,88,167,134,407,1910,437,5042,360,704,66,697,408,140,29,67]","trial_type":"two-door-navigation","trial_index":27,"time_elapsed":586245,"internal_node_id":"0.0-2.0-25.0"},{"group":"tri cycles (cube, non-group)","room_assignment":["green","pink","yellow","purple","blue","red","grey","brown"],"door_color_assignment":["black","white"],"door_generator_assignment":[1,0],"goal":3,"start":1,"action_noise":0.1,"location_history":"[1,5,1,0,3]","action_history":"[1,0,0,1]","door_history":"[0,1,1,0]","location_rts":"[645,151,59,233]","trial_type":"two-door-navigation","trial_index":28,"time_elapsed":594917,"internal_node_id":"0.0-2.0-26.0"},{"group":"tri cycles (cube, non-group)","room_assignment":["green","pink","yellow","purple","blue","red","grey","brown"],"door_color_assignment":["black","white"],"door_generator_assignment":[1,0],"goal":7,"start":3,"action_noise":0.1,"location_history":"[3,7]","action_history":"[0]","door_history":"[1]","location_rts":"[544]","trial_type":"two-door-navigation","trial_index":29,"time_elapsed":599997,"internal_node_id":"0.0-2.0-27.0"},{"group":"tri cycles (cube, non-group)","room_assignment":["green","pink","yellow","purple","blue","red","grey","brown"],"door_color_assignment":["black","white"],"door_generator_assignment":[1,0],"goal":4,"start":7,"action_noise":0.1,"location_history":"[7,3,4]","action_history":"[0,1]","door_history":"[1,0]","location_rts":"[1664,617]","trial_type":"two-door-navigation","trial_index":30,"time_elapsed":607824,"internal_node_id":"0.0-2.0-28.0"},{"group":"tri cycles (cube, non-group)","room_assignment":["green","pink","yellow","purple","blue","red","grey","brown"],"door_color_assignment":["black","white"],"door_generator_assignment":[1,0],"goal":0,"start":4,"action_noise":0.1,"location_history":"[4,0]","action_history":"[1]","door_history":"[0]","location_rts":"[907]","trial_type":"two-door-navigation","trial_index":31,"time_elapsed":613258,"internal_node_id":"0.0-2.0-29.0"},{"group":"tri cycles (cube, non-group)","room_assignment":["green","pink","yellow","purple","blue","red","grey","brown"],"door_color_assignment":["black","white"],"door_generator_assignment":[1,0],"goal":5,"start":0,"action_noise":0.1,"location_history":"[0,2,6,4,0,2,6,4,7,6,5]","action_history":"[0,1,0,1,0,1,0,1,0,1]","door_history":"[1,0,1,0,1,0,1,0,1,0]","location_rts":"[620,119,23,322,110,620,35,87,696,67]","trial_type":"two-door-navigation","trial_index":32,"time_elapsed":629676,"internal_node_id":"0.0-2.0-30.0"},{"group":"tri cycles (cube, non-group)","room_assignment":["green","pink","yellow","purple","blue","red","grey","brown"],"door_color_assignment":["black","white"],"door_generator_assignment":[1,0],"goal":3,"start":5,"action_noise":0.1,"location_history":"[5,2,1,5,1,0,3]","action_history":"[1,0,1,0,0,1]","door_history":"[0,1,0,1,1,0]","location_rts":"[301,144,98,0,438,127]","trial_type":"two-door-navigation","trial_index":33,"time_elapsed":640420,"internal_node_id":"0.0-2.0-31.0"},{"group":"tri cycles (cube, non-group)","room_assignment":["green","pink","yellow","purple","blue","red","grey","brown"],"door_color_assignment":["black","white"],"door_generator_assignment":[1,0],"goal":2,"start":3,"action_noise":0.1,"location_history":"[3,7,3,7,6,5,2]","action_history":"[0,1,0,0,1,1]","door_history":"[1,0,1,1,0,0]","location_rts":"[621,419,155,805,134,102]","trial_type":"two-door-navigation","trial_index":34,"time_elapsed":652302,"internal_node_id":"0.0-2.0-32.0"},{"group":"tri cycles (cube, non-group)","room_assignment":["green","pink","yellow","purple","blue","red","grey","brown"],"door_color_assignment":["black","white"],"door_generator_assignment":[1,0],"goal":6,"start":2,"action_noise":0.1,"location_history":"[2,6]","action_history":"[1]","door_history":"[0]","location_rts":"[572]","trial_type":"two-door-navigation","trial_index":35,"time_elapsed":657400,"internal_node_id":"0.0-2.0-33.0"},{"group":"tri cycles (cube, non-group)","room_assignment":["green","pink","yellow","purple","blue","red","grey","brown"],"door_color_assignment":["black","white"],"door_generator_assignment":[1,0],"goal":1,"start":6,"action_noise":0.1,"location_history":"[6,4,0,3,7,3,7,3,4,7,3,4,7,6,5,2,1]","action_history":"[0,1,1,0,1,0,1,1,0,1,0,0,0,1,1,0]","door_history":"[1,0,0,1,0,1,0,0,1,0,1,1,1,0,0,1]","location_rts":"[1042,168,316,408,86,252,46,424,148,23,562,167,49,209,12,119]","trial_type":"two-door-navigation","trial_index":36,"time_elapsed":681303,"internal_node_id":"0.0-2.0-34.0"},{"group":"tri cycles (cube, non-group)","room_assignment":["green","pink","yellow","purple","blue","red","grey","brown"],"door_color_assignment":["black","white"],"door_generator_assignment":[1,0],"goal":7,"start":1,"action_noise":0.1,"location_history":"[1,5,1,0,2,1,5,2,1,0,2,1,0,3,7]","action_history":"[1,0,0,0,1,1,1,0,0,0,1,0,1,0]","door_history":"[0,1,1,1,0,0,0,1,1,1,0,1,0,1]","location_rts":"[420,657,359,9306,3512,609,2317,293,325,78,28,286,66,9]","trial_type":"two-door-navigation","trial_index":37,"time_elapsed":717388,"internal_node_id":"0.0-2.0-35.0"},{"group":"tri cycles (cube, non-group)","room_assignment":["green","pink","yellow","purple","blue","red","grey","brown"],"door_color_assignment":["black","white"],"door_generator_assignment":[1,0],"goal":4,"start":7,"action_noise":0.1,"location_history":"[7,6,5,2,1,5,1,0,3,7,3,7,6,5,1,5,1,5,2,1,5,2,6,4]","action_history":"[0,1,1,0,1,0,0,1,0,1,0,0,1,0,1,0,0,1,0,1,0,1,0]","door_history":"[1,0,0,1,0,1,1,0,1,0,1,1,0,1,0,1,1,0,1,0,1,0,1]","location_rts":"[656,126,232,582,184,273,6974,235,406,130,1164,709,503,2127,246,310,622,90,370,40,416,121,20]","trial_type":"two-door-navigation","trial_index":38,"time_elapsed":760911,"internal_node_id":"0.0-2.0-36.0"},{"group":"tri cycles (cube, non-group)","room_assignment":["green","pink","yellow","purple","blue","red","grey","brown"],"door_color_assignment":["black","white"],"door_generator_assignment":[1,0],"goal":5,"start":4,"action_noise":0.1,"location_history":"[4,7,3,4,7,6,4,7,3,7,3,7,6,4,0,2,1,5]","action_history":"[0,1,0,1,0,0,0,1,0,1,0,0,0,1,0,0,1]","door_history":"[1,0,1,0,1,1,1,0,1,0,1,1,1,0,1,1,0]","location_rts":"[2339,241,99,303,158,1146,1134,1590,173,310,185,361,868,674,77,505,1858]","trial_type":"two-door-navigation","trial_index":39,"time_elapsed":793808,"internal_node_id":"0.0-2.0-37.0"},{"group":"tri cycles (cube, non-group)","room_assignment":["green","pink","yellow","purple","blue","red","grey","brown"],"door_color_assignment":["black","white"],"door_generator_assignment":[1,0],"goal":0,"start":5,"action_noise":0.1,"location_history":"[5,1,0]","action_history":"[0,0]","door_history":"[1,1]","location_rts":"[1176,2181]","trial_type":"two-door-navigation","trial_index":40,"time_elapsed":802709,"internal_node_id":"0.0-2.0-38.0"},{"group":"tri cycles (cube, non-group)","room_assignment":["green","pink","yellow","purple","blue","red","grey","brown"],"door_color_assignment":["black","white"],"door_generator_assignment":[1,0],"goal":4,"start":0,"action_noise":0.1,"location_history":"[0,2,6,4]","action_history":"[0,1,0]","door_history":"[1,0,1]","location_rts":"[3570,2964,594]","trial_type":"two-door-navigation","trial_index":41,"time_elapsed":816405,"internal_node_id":"0.0-2.0-39.0"},{"group":"tri cycles (cube, non-group)","room_assignment":["green","pink","yellow","purple","blue","red","grey","brown"],"door_color_assignment":["black","white"],"door_generator_assignment":[1,0],"goal":0,"start":4,"action_noise":0.1,"location_history":"[4,0]","action_history":"[1]","door_history":"[0]","location_rts":"[1301]","trial_type":"two-door-navigation","trial_index":42,"time_elapsed":822230,"internal_node_id":"0.0-2.0-40.0"},{"group":"tri cycles (cube, non-group)","room_assignment":["green","pink","yellow","purple","blue","red","grey","brown"],"door_color_assignment":["black","white"],"door_generator_assignment":[1,0],"goal":2,"start":0,"action_noise":0.1,"location_history":"[0,3,4,7,3,7,3,7,3,4,7,3,7,3,7,6,5,1,5,1,5,1,0,2]","action_history":"[0,1,0,1,0,1,0,1,1,0,1,0,1,0,0,1,0,1,0,1,0,0,0]","door_history":"[1,0,1,0,1,0,1,0,0,1,0,1,0,1,1,0,1,0,1,0,1,1,1]","location_rts":"[870,362,21,137,80,293,990,296,1891,327,412,3,600,160,297,4,72,1569,410,116,316,127,246]","trial_type":"two-door-navigation","trial_index":43,"time_elapsed":858815,"internal_node_id":"0.0-2.0-41.0"},{"group":"tri cycles (cube, non-group)","room_assignment":["green","pink","yellow","purple","blue","red","grey","brown"],"door_color_assignment":["black","white"],"door_generator_assignment":[1,0],"goal":3,"start":2,"action_noise":0.1,"location_history":"[2,6,4,7,3]","action_history":"[1,0,0,1]","door_history":"[0,1,1,0]","location_rts":"[535,293,74,218]","trial_type":"two-door-navigation","trial_index":44,"time_elapsed":867521,"internal_node_id":"0.0-2.0-42.0"},{"group":"tri cycles (cube, non-group)","room_assignment":["green","pink","yellow","purple","blue","red","grey","brown"],"door_color_assignment":["black","white"],"door_generator_assignment":[1,0],"goal":5,"start":3,"action_noise":0.1,"location_history":"[3,4,7,6,5]","action_history":"[1,0,0,1]","door_history":"[0,1,1,0]","location_rts":"[437,201,1582,348]","trial_type":"two-door-navigation","trial_index":45,"time_elapsed":877683,"internal_node_id":"0.0-2.0-43.0"},{"group":"tri cycles (cube, non-group)","room_assignment":["green","pink","yellow","purple","blue","red","grey","brown"],"door_color_assignment":["black","white"],"door_generator_assignment":[1,0],"goal":1,"start":5,"action_noise":0.1,"location_history":"[5,1]","action_history":"[0]","door_history":"[1]","location_rts":"[471]","trial_type":"two-door-navigation","trial_index":46,"time_elapsed":882678,"internal_node_id":"0.0-2.0-44.0"},{"group":"tri cycles (cube, non-group)","room_assignment":["green","pink","yellow","purple","blue","red","grey","brown"],"door_color_assignment":["black","white"],"door_generator_assignment":[1,0],"goal":7,"start":1,"action_noise":0.1,"location_history":"[1,5,2,6,5,2,6,5,2,1,0,2,6,5,2,6,5,1,0,3,7]","action_history":"[1,1,1,1,1,1,1,1,0,0,1,0,1,0,1,1,0,0,1,0]","door_history":"[0,0,0,0,0,0,0,0,1,1,0,1,0,1,0,0,1,1,0,1]","location_rts":"[483,178,382,218,288,8,705,286,568,4463,256,15,868,688,236,520,42,199,284,1680]","trial_type":"two-door-navigation","trial_index":47,"time_elapsed":918985,"internal_node_id":"0.0-2.0-45.0"},{"group":"tri cycles (cube, non-group)","room_assignment":["green","pink","yellow","purple","blue","red","grey","brown"],"door_color_assignment":["black","white"],"door_generator_assignment":[1,0],"goal":6,"start":7,"action_noise":0.1,"location_history":"[7,6]","action_history":"[1]","door_history":"[0]","location_rts":"[620]","trial_type":"two-door-navigation","trial_index":48,"time_elapsed":924131,"internal_node_id":"0.0-2.0-46.0"},{"group":"tri cycles (cube, non-group)","room_assignment":["green","pink","yellow","purple","blue","red","grey","brown"],"door_color_assignment":["black","white"],"door_generator_assignment":[1,0],"goal":3,"start":6,"action_noise":0.1,"location_history":"[6,5,2,1,0,3]","action_history":"[1,1,0,0,1]","door_history":"[0,0,1,1,0]","location_rts":"[509,494,106,485,443]","trial_type":"two-door-navigation","trial_index":49,"time_elapsed":934784,"internal_node_id":"0.0-2.0-47.0"},{"group":"tri cycles (cube, non-group)","room_assignment":["green","pink","yellow","purple","blue","red","grey","brown"],"door_color_assignment":["black","white"],"door_generator_assignment":[1,0],"goal":0,"start":3,"action_noise":0.1,"location_history":"[3,4,0]","action_history":"[0,1]","door_history":"[1,0]","location_rts":"[1519,300]","trial_type":"two-door-navigation","trial_index":50,"time_elapsed":942154,"internal_node_id":"0.0-2.0-48.0"},{"group":"tri cycles (cube, non-group)","room_assignment":["green","pink","yellow","purple","blue","red","grey","brown"],"door_color_assignment":["black","white"],"door_generator_assignment":[1,0],"goal":2,"start":0,"action_noise":0.1,"location_history":"[0,2]","action_history":"[0]","door_history":"[1]","location_rts":"[1740]","trial_type":"two-door-navigation","trial_index":51,"time_elapsed":948420,"internal_node_id":"0.0-2.0-49.0"},{"view_history":"[{\"page_index\":0,\"viewing_time\":3533}]","rt":3534,"trial_type":"instructions","trial_index":52,"time_elapsed":952955,"internal_node_id":"0.0-3.0"},{"view_history":"[{\"page_index\":0,\"viewing_time\":9864},{\"page_index\":1,\"viewing_time\":7642}]","rt":17506,"trial_type":"instructions","trial_index":53,"time_elapsed":971462,"internal_node_id":"0.0-4.0"},{"group":"tri cycles (cube, non-group)","fractal_assignment":["../images/blu_wht.png","../images/ylw_slt.png","../images/cyn_red.png","../images/org_blu.png","../images/ylw_pnk.png","../images/pnk_blu.png","../images/grn_red.png","../images/gry_blk.png"],"mutagen_generator_assignment":[0,1],"goal":3,"start":0,"action_noise":0.1,"location_history":"[0,2,1,0,2,6,4,7,3]","action_history":"[0,0,0,0,1,1,0,1]","mutagen_history":"[0,0,0,0,1,1,0,1]","location_rts":"[43088,1235,23,1679,4154,272,156,5]","trial_type":"fractal-mutation","trial_index":54,"time_elapsed":1034365,"internal_node_id":"0.0-5.0-0.0"},{"group":"tri cycles (cube, non-group)","fractal_assignment":["../images/blu_wht.png","../images/ylw_slt.png","../images/cyn_red.png","../images/org_blu.png","../images/ylw_pnk.png","../images/pnk_blu.png","../images/grn_red.png","../images/gry_blk.png"],"mutagen_generator_assignment":[0,1],"goal":1,"start":3,"action_noise":0.1,"location_history":"[3,7,3,4,0,3,7,6,4,0,3,4,7,6,5,2,1]","action_history":"[0,1,1,1,1,0,0,0,1,1,1,0,0,1,1,0]","mutagen_history":"[0,1,1,1,1,0,0,0,1,1,1,0,0,1,1,0]","location_rts":"[63,134,189,5,45,401,39,551,14148,159,594,167,550,1780,1156,1059]","trial_type":"fractal-mutation","trial_index":55,"time_elapsed":1077283,"internal_node_id":"0.0-5.0-1.0"},{"group":"tri cycles (cube, non-group)","fractal_assignment":["../images/blu_wht.png","../images/ylw_slt.png","../images/cyn_red.png","../images/org_blu.png","../images/ylw_pnk.png","../images/pnk_blu.png","../images/grn_red.png","../images/gry_blk.png"],"mutagen_generator_assignment":[0,1],"goal":2,"start":1,"action_noise":0.1,"location_history":"[1,5,2]","action_history":"[1,1]","mutagen_history":"[1,1]","location_rts":"[250,175]","trial_type":"fractal-mutation","trial_index":56,"time_elapsed":1083549,"internal_node_id":"0.0-5.0-2.0"},{"group":"tri cycles (cube, non-group)","fractal_assignment":["../images/blu_wht.png","../images/ylw_slt.png","../images/cyn_red.png","../images/org_blu.png","../images/ylw_pnk.png","../images/pnk_blu.png","../images/grn_red.png","../images/gry_blk.png"],"mutagen_generator_assignment":[0,1],"goal":6,"start":2,"action_noise":0.1,"location_history":"[2,1,5,2,6]","action_history":"[0,1,1,1]","mutagen_history":"[0,1,1,1]","location_rts":"[279,967,135,120]","trial_type":"fractal-mutation","trial_index":57,"time_elapsed":1093120,"internal_node_id":"0.0-5.0-3.0"},{"group":"tri cycles (cube, non-group)","fractal_assignment":["../images/blu_wht.png","../images/ylw_slt.png","../images/cyn_red.png","../images/org_blu.png","../images/ylw_pnk.png","../images/pnk_blu.png","../images/grn_red.png","../images/gry_blk.png"],"mutagen_generator_assignment":[0,1],"goal":5,"start":6,"action_noise":0.1,"location_history":"[6,4,0,3,4,7,6,4,0,3,4,7,6,4,7,6,5]","action_history":"[0,1,1,1,0,0,0,1,1,1,0,0,0,0,1,1]","mutagen_history":"[0,1,1,1,0,0,0,1,1,1,0,0,0,0,1,1]","location_rts":"[420,175,246,171,7,27,30,155,26,309,11,1503,258,124,60,134]","trial_type":"fractal-mutation","trial_index":58,"time_elapsed":1118509,"internal_node_id":"0.0-5.0-4.0"},{"group":"tri cycles (cube, non-group)","fractal_assignment":["../images/blu_wht.png","../images/ylw_slt.png","../images/cyn_red.png","../images/org_blu.png","../images/ylw_pnk.png","../images/pnk_blu.png","../images/grn_red.png","../images/gry_blk.png"],"mutagen_generator_assignment":[0,1],"goal":4,"start":5,"action_noise":0.1,"location_history":"[5,2,6,4]","action_history":"[1,1,0]","mutagen_history":"[1,1,0]","location_rts":"[169,86,1025]","trial_type":"fractal-mutation","trial_index":59,"time_elapsed":1126740,"internal_node_id":"0.0-5.0-5.0"},{"group":"tri cycles (cube, non-group)","fractal_assignment":["../images/blu_wht.png","../images/ylw_slt.png","../images/cyn_red.png","../images/org_blu.png","../images/ylw_pnk.png","../images/pnk_blu.png","../images/grn_red.png","../images/gry_blk.png"],"mutagen_generator_assignment":[0,1],"goal":7,"start":4,"action_noise":0.1,"location_history":"[4,0,3,4,7]","action_history":"[1,1,0,0]","mutagen_history":"[1,1,0,0]","location_rts":"[209,115,8,275]","trial_type":"fractal-mutation","trial_index":60,"time_elapsed":1135421,"internal_node_id":"0.0-5.0-6.0"},{"group":"tri cycles (cube, non-group)","fractal_assignment":["../images/blu_wht.png","../images/ylw_slt.png","../images/cyn_red.png","../images/org_blu.png","../images/ylw_pnk.png","../images/pnk_blu.png","../images/grn_red.png","../images/gry_blk.png"],"mutagen_generator_assignment":[0,1],"goal":4,"start":7,"action_noise":0.1,"location_history":"[7,3,4]","action_history":"[1,1]","mutagen_history":"[1,1]","location_rts":"[2551,347]","trial_type":"fractal-mutation","trial_index":61,"time_elapsed":1144220,"internal_node_id":"0.0-5.0-7.0"},{"group":"tri cycles (cube, non-group)","fractal_assignment":["../images/blu_wht.png","../images/ylw_slt.png","../images/cyn_red.png","../images/org_blu.png","../images/ylw_pnk.png","../images/pnk_blu.png","../images/grn_red.png","../images/gry_blk.png"],"mutagen_generator_assignment":[0,1],"goal":6,"start":4,"action_noise":0.1,"location_history":"[4,7,6]","action_history":"[0,0]","mutagen_history":"[0,0]","location_rts":"[343,1230]","trial_type":"fractal-mutation","trial_index":62,"time_elapsed":1151351,"internal_node_id":"0.0-5.0-8.0"},{"group":"tri cycles (cube, non-group)","fractal_assignment":["../images/blu_wht.png","../images/ylw_slt.png","../images/cyn_red.png","../images/org_blu.png","../images/ylw_pnk.png","../images/pnk_blu.png","../images/grn_red.png","../images/gry_blk.png"],"mutagen_generator_assignment":[0,1],"goal":0,"start":6,"action_noise":0.1,"location_history":"[6,5,2,6,5,1,0]","action_history":"[1,1,1,1,0,0]","mutagen_history":"[1,1,1,1,0,0]","location_rts":"[502,6015,100,235,312,155]","trial_type":"fractal-mutation","trial_index":63,"time_elapsed":1169109,"internal_node_id":"0.0-5.0-9.0"},{"group":"tri cycles (cube, non-group)","fractal_assignment":["../images/blu_wht.png","../images/ylw_slt.png","../images/cyn_red.png","../images/org_blu.png","../images/ylw_pnk.png","../images/pnk_blu.png","../images/grn_red.png","../images/gry_blk.png"],"mutagen_generator_assignment":[0,1],"goal":1,"start":0,"action_noise":0.1,"location_history":"[0,3,4,7,6,5,2,6,4,7,6,5,2,6,5,1]","action_history":"[1,1,0,0,1,1,1,0,0,0,1,1,1,1,0]","mutagen_history":"[1,1,0,0,1,1,1,0,0,0,1,1,1,1,0]","location_rts":"[62,181,165,186,277,3036,1125,98,131,167,1312,111,19,119,3127]","trial_type":"fractal-mutation","trial_index":64,"time_elapsed":1200032,"internal_node_id":"0.0-5.0-10.0"},{"group":"tri cycles (cube, non-group)","fractal_assignment":["../images/blu_wht.png","../images/ylw_slt.png","../images/cyn_red.png","../images/org_blu.png","../images/ylw_pnk.png","../images/pnk_blu.png","../images/grn_red.png","../images/gry_blk.png"],"mutagen_generator_assignment":[0,1],"goal":3,"start":1,"action_noise":0.1,"location_history":"[1,0,3]","action_history":"[0,1]","mutagen_history":"[0,1]","location_rts":"[355185,941]","trial_type":"fractal-mutation","trial_index":65,"time_elapsed":1561878,"internal_node_id":"0.0-5.0-11.0"},{"group":"tri cycles (cube, non-group)","fractal_assignment":["../images/blu_wht.png","../images/ylw_slt.png","../images/cyn_red.png","../images/org_blu.png","../images/ylw_pnk.png","../images/pnk_blu.png","../images/grn_red.png","../images/gry_blk.png"],"mutagen_generator_assignment":[0,1],"goal":7,"start":3,"action_noise":0.1,"location_history":"[3,4,0,3,4,0,3,7]","action_history":"[0,1,1,0,1,1,0]","mutagen_history":"[0,1,1,0,1,1,0]","location_rts":"[443,283,522,77,177,253,949]","trial_type":"fractal-mutation","trial_index":66,"time_elapsed":1576045,"internal_node_id":"0.0-5.0-12.0"},{"group":"tri cycles (cube, non-group)","fractal_assignment":["../images/blu_wht.png","../images/ylw_slt.png","../images/cyn_red.png","../images/org_blu.png","../images/ylw_pnk.png","../images/pnk_blu.png","../images/grn_red.png","../images/gry_blk.png"],"mutagen_generator_assignment":[0,1],"goal":5,"start":7,"action_noise":0.1,"location_history":"[7,6,4,7,3,4,7,6,5]","action_history":"[0,0,1,1,1,0,0,1]","mutagen_history":"[0,0,1,1,1,0,0,1]","location_rts":"[189,111,249,117,172,33,10,47]","trial_type":"fractal-mutation","trial_index":67,"time_elapsed":1589448,"internal_node_id":"0.0-5.0-13.0"},{"group":"tri cycles (cube, non-group)","fractal_assignment":["../images/blu_wht.png","../images/ylw_slt.png","../images/cyn_red.png","../images/org_blu.png","../images/ylw_pnk.png","../images/pnk_blu.png","../images/grn_red.png","../images/gry_blk.png"],"mutagen_generator_assignment":[0,1],"goal":2,"start":5,"action_noise":0.1,"location_history":"[5,2]","action_history":"[0]","mutagen_history":"[0]","location_rts":"[481]","trial_type":"fractal-mutation","trial_index":68,"time_elapsed":1594462,"internal_node_id":"0.0-5.0-14.0"},{"group":"tri cycles (cube, non-group)","fractal_assignment":["../images/blu_wht.png","../images/ylw_slt.png","../images/cyn_red.png","../images/org_blu.png","../images/ylw_pnk.png","../images/pnk_blu.png","../images/grn_red.png","../images/gry_blk.png"],"mutagen_generator_assignment":[0,1],"goal":7,"start":2,"action_noise":0.1,"location_history":"[2,1,0,2,1,5,1,0,2,6,5,1,0,3,4,0,3,7]","action_history":"[0,1,0,0,1,1,0,0,1,1,0,0,1,1,1,0,0]","mutagen_history":"[0,1,0,0,1,1,0,0,1,1,0,0,1,1,1,0,0]","location_rts":"[165,316,209,18,405,172,916,836,546,219,14,751,592,84,374,391,227]","trial_type":"fractal-mutation","trial_index":69,"time_elapsed":1623611,"internal_node_id":"0.0-5.0-15.0"},{"group":"tri cycles (cube, non-group)","fractal_assignment":["../images/blu_wht.png","../images/ylw_slt.png","../images/cyn_red.png","../images/org_blu.png","../images/ylw_pnk.png","../images/pnk_blu.png","../images/grn_red.png","../images/gry_blk.png"],"mutagen_generator_assignment":[0,1],"goal":4,"start":7,"action_noise":0.1,"location_history":"[7,6,4]","action_history":"[1,0]","mutagen_history":"[1,0]","location_rts":"[782,62]","trial_type":"fractal-mutation","trial_index":70,"time_elapsed":1630235,"internal_node_id":"0.0-5.0-16.0"},{"group":"tri cycles (cube, non-group)","fractal_assignment":["../images/blu_wht.png","../images/ylw_slt.png","../images/cyn_red.png","../images/org_blu.png","../images/ylw_pnk.png","../images/pnk_blu.png","../images/grn_red.png","../images/gry_blk.png"],"mutagen_generator_assignment":[0,1],"goal":2,"start":4,"action_noise":0.1,"location_history":"[4,0,3,4,7,6,5,2]","action_history":"[1,1,1,0,0,1,1]","mutagen_history":"[1,1,1,0,0,1,1]","location_rts":"[72,4798,82,141,1057,1336,213]","trial_type":"fractal-mutation","trial_index":71,"time_elapsed":1649596,"internal_node_id":"0.0-5.0-17.0"},{"group":"tri cycles (cube, non-group)","fractal_assignment":["../images/blu_wht.png","../images/ylw_slt.png","../images/cyn_red.png","../images/org_blu.png","../images/ylw_pnk.png","../images/pnk_blu.png","../images/grn_red.png","../images/gry_blk.png"],"mutagen_generator_assignment":[0,1],"goal":3,"start":2,"action_noise":0.1,"location_history":"[2,1,0,3]","action_history":"[0,0,1]","mutagen_history":"[0,0,1]","location_rts":"[142,246,1409]","trial_type":"fractal-mutation","trial_index":72,"time_elapsed":1658109,"internal_node_id":"0.0-5.0-18.0"},{"group":"tri cycles (cube, non-group)","fractal_assignment":["../images/blu_wht.png","../images/ylw_slt.png","../images/cyn_red.png","../images/org_blu.png","../images/ylw_pnk.png","../images/pnk_blu.png","../images/grn_red.png","../images/gry_blk.png"],"mutagen_generator_assignment":[0,1],"goal":6,"start":3,"action_noise":0.1,"location_history":"[3,7,3,4,7,3,7,6]","action_history":"[0,1,0,0,1,0,0]","mutagen_history":"[0,1,0,0,1,0,0]","location_rts":"[366,711,211,825,30,331,315]","trial_type":"fractal-mutation","trial_index":73,"time_elapsed":1672204,"internal_node_id":"0.0-5.0-19.0"},{"group":"tri cycles (cube, non-group)","fractal_assignment":["../images/blu_wht.png","../images/ylw_slt.png","../images/cyn_red.png","../images/org_blu.png","../images/ylw_pnk.png","../images/pnk_blu.png","../images/grn_red.png","../images/gry_blk.png"],"mutagen_generator_assignment":[0,1],"goal":5,"start":6,"action_noise":0.1,"location_history":"[6,4,7,3,4,7,6,4,0,3,7,6,5]","action_history":"[0,0,1,1,0,0,0,1,1,0,0,1]","mutagen_history":"[0,0,1,1,0,0,0,1,1,0,0,1]","location_rts":"[397,277,640,302,145,23,337,350,249,316,359,274]","trial_type":"fractal-mutation","trial_index":74,"time_elapsed":1692929,"internal_node_id":"0.0-5.0-20.0"},{"group":"tri cycles (cube, non-group)","fractal_assignment":["../images/blu_wht.png","../images/ylw_slt.png","../images/cyn_red.png","../images/org_blu.png","../images/ylw_pnk.png","../images/pnk_blu.png","../images/grn_red.png","../images/gry_blk.png"],"mutagen_generator_assignment":[0,1],"goal":1,"start":5,"action_noise":0.1,"location_history":"[5,2,6,5,1]","action_history":"[1,1,1,0]","mutagen_history":"[1,1,1,0]","location_rts":"[103,2540,234,78]","trial_type":"fractal-mutation","trial_index":75,"time_elapsed":1704044,"internal_node_id":"0.0-5.0-21.0"},{"group":"tri cycles (cube, non-group)","fractal_assignment":["../images/blu_wht.png","../images/ylw_slt.png","../images/cyn_red.png","../images/org_blu.png","../images/ylw_pnk.png","../images/pnk_blu.png","../images/grn_red.png","../images/gry_blk.png"],"mutagen_generator_assignment":[0,1],"goal":0,"start":1,"action_noise":0.1,"location_history":"[1,5,1,0]","action_history":"[1,0,0]","mutagen_history":"[1,0,0]","location_rts":"[390,188,259]","trial_type":"fractal-mutation","trial_index":76,"time_elapsed":1711768,"internal_node_id":"0.0-5.0-22.0"},{"group":"tri cycles (cube, non-group)","fractal_assignment":["../images/blu_wht.png","../images/ylw_slt.png","../images/cyn_red.png","../images/org_blu.png","../images/ylw_pnk.png","../images/pnk_blu.png","../images/grn_red.png","../images/gry_blk.png"],"mutagen_generator_assignment":[0,1],"goal":2,"start":0,"action_noise":0.1,"location_history":"[0,3,7,6,5,2]","action_history":"[1,0,0,1,1]","mutagen_history":"[1,0,0,1,1]","location_rts":"[401,207,71,2008,234]","trial_type":"fractal-mutation","trial_index":77,"time_elapsed":1723965,"internal_node_id":"0.0-5.0-23.0"},{"group":"tri cycles (cube, non-group)","fractal_assignment":["../images/blu_wht.png","../images/ylw_slt.png","../images/cyn_red.png","../images/org_blu.png","../images/ylw_pnk.png","../images/pnk_blu.png","../images/grn_red.png","../images/gry_blk.png"],"mutagen_generator_assignment":[0,1],"goal":6,"start":2,"action_noise":0.1,"location_history":"[2,6]","action_history":"[1]","mutagen_history":"[1]","location_rts":"[5836]","trial_type":"fractal-mutation","trial_index":78,"time_elapsed":1734483,"internal_node_id":"0.0-5.0-24.0"},{"group":"tri cycles (cube, non-group)","fractal_assignment":["../images/blu_wht.png","../images/ylw_slt.png","../images/cyn_red.png","../images/org_blu.png","../images/ylw_pnk.png","../images/pnk_blu.png","../images/grn_red.png","../images/gry_blk.png"],"mutagen_generator_assignment":[0,1],"goal":1,"start":6,"action_noise":0.1,"location_history":"[6,5,1]","action_history":"[1,0]","mutagen_history":"[1,0]","location_rts":"[463,197]","trial_type":"fractal-mutation","trial_index":79,"time_elapsed":1740940,"internal_node_id":"0.0-5.0-25.0"},{"group":"tri cycles (cube, non-group)","fractal_assignment":["../images/blu_wht.png","../images/ylw_slt.png","../images/cyn_red.png","../images/org_blu.png","../images/ylw_pnk.png","../images/pnk_blu.png","../images/grn_red.png","../images/gry_blk.png"],"mutagen_generator_assignment":[0,1],"goal":3,"start":1,"action_noise":0.1,"location_history":"[1,5,1,5,1,0,2,6,5,1,0,3]","action_history":"[1,0,1,1,0,0,1,1,0,0,1]","mutagen_history":"[1,0,1,1,0,0,1,1,0,0,1]","location_rts":"[140,7648,765,4819,6421,9747,3311,35,95,4,410]","trial_type":"fractal-mutation","trial_index":80,"time_elapsed":1790624,"internal_node_id":"0.0-5.0-26.0"},{"group":"tri cycles (cube, non-group)","fractal_assignment":["../images/blu_wht.png","../images/ylw_slt.png","../images/cyn_red.png","../images/org_blu.png","../images/ylw_pnk.png","../images/pnk_blu.png","../images/grn_red.png","../images/gry_blk.png"],"mutagen_generator_assignment":[0,1],"goal":7,"start":3,"action_noise":0.1,"location_history":"[3,7]","action_history":"[1]","mutagen_history":"[1]","location_rts":"[16]","trial_type":"fractal-mutation","trial_index":81,"time_elapsed":1795318,"internal_node_id":"0.0-5.0-27.0"},{"group":"tri cycles (cube, non-group)","fractal_assignment":["../images/blu_wht.png","../images/ylw_slt.png","../images/cyn_red.png","../images/org_blu.png","../images/ylw_pnk.png","../images/pnk_blu.png","../images/grn_red.png","../images/gry_blk.png"],"mutagen_generator_assignment":[0,1],"goal":4,"start":7,"action_noise":0.1,"location_history":"[7,6,5,1,5,2,1,0,2,6,5,1,5,1,0,3,7,6,5,2,1,0,2,1,5,2,6,5,2,6,4]","action_history":"[1,1,0,1,1,0,0,0,1,1,0,1,0,0,0,0,1,1,1,0,0,0,0,1,1,1,1,1,1,0]","mutagen_history":"[1,1,0,1,1,0,0,0,1,1,0,1,0,0,0,0,1,1,1,0,0,0,0,1,1,1,1,1,1,0]","location_rts":"[43,53,84,1901,134,141,670,140,305,14,20,2260,213,360,215,661,333,76,0,245,91,709,168,341,42,360,2163,278,634,1461]","trial_type":"fractal-mutation","trial_index":82,"time_elapsed":1847866,"internal_node_id":"0.0-5.0-28.0"},{"group":"tri cycles (cube, non-group)","fractal_assignment":["../images/blu_wht.png","../images/ylw_slt.png","../images/cyn_red.png","../images/org_blu.png","../images/ylw_pnk.png","../images/pnk_blu.png","../images/grn_red.png","../images/gry_blk.png"],"mutagen_generator_assignment":[0,1],"goal":0,"start":4,"action_noise":0.1,"location_history":"[4,7,3,4,0]","action_history":"[0,1,1,1]","mutagen_history":"[0,1,1,1]","location_rts":"[519,351,178,188]","trial_type":"fractal-mutation","trial_index":83,"time_elapsed":1857175,"internal_node_id":"0.0-5.0-29.0"},{"group":"tri cycles (cube, non-group)","fractal_assignment":["../images/blu_wht.png","../images/ylw_slt.png","../images/cyn_red.png","../images/org_blu.png","../images/ylw_pnk.png","../images/pnk_blu.png","../images/grn_red.png","../images/gry_blk.png"],"mutagen_generator_assignment":[0,1],"goal":5,"start":0,"action_noise":0.1,"location_history":"[0,3,7,6,4,7,3,4,7,6,4,0,3,4,7,6,5]","action_history":"[1,0,0,0,0,1,1,0,0,0,1,1,1,0,0,1]","mutagen_history":"[1,0,0,0,0,1,1,0,0,0,1,1,1,0,0,1]","location_rts":"[439,151,148,224,223,228,416,519,167,162,981,39,163,50,63,3950]","trial_type":"fractal-mutation","trial_index":84,"time_elapsed":1886911,"internal_node_id":"0.0-5.0-30.0"},{"group":"tri cycles (cube, non-group)","fractal_assignment":["../images/blu_wht.png","../images/ylw_slt.png","../images/cyn_red.png","../images/org_blu.png","../images/ylw_pnk.png","../images/pnk_blu.png","../images/grn_red.png","../images/gry_blk.png"],"mutagen_generator_assignment":[0,1],"goal":3,"start":5,"action_noise":0.1,"location_history":"[5,2,1,0,2,6,5,1,0,2,6,5,2,1,0,3]","action_history":"[1,0,0,0,1,1,0,0,0,0,1,1,0,0,1]","mutagen_history":"[1,0,0,0,1,1,0,0,0,0,1,1,0,0,1]","location_rts":"[456,215,155,141,11,20,31,148,341,162,1084,248,103,339,130]","trial_type":"fractal-mutation","trial_index":85,"time_elapsed":1911175,"internal_node_id":"0.0-5.0-31.0"},{"group":"tri cycles (cube, non-group)","fractal_assignment":["../images/blu_wht.png","../images/ylw_slt.png","../images/cyn_red.png","../images/org_blu.png","../images/ylw_pnk.png","../images/pnk_blu.png","../images/grn_red.png","../images/gry_blk.png"],"mutagen_generator_assignment":[0,1],"goal":2,"start":3,"action_noise":0.1,"location_history":"[3,4,7,6,5,1,5,1,5,1,0,2]","action_history":"[1,0,0,1,0,1,0,1,1,0,0]","mutagen_history":"[1,0,0,1,0,1,0,1,1,0,0]","location_rts":"[768,273,455,1601,8736,2151,8324,1275,276,24122,653]","trial_type":"fractal-mutation","trial_index":86,"time_elapsed":1976018,"internal_node_id":"0.0-5.0-32.0"},{"group":"tri cycles (cube, non-group)","fractal_assignment":["../images/blu_wht.png","../images/ylw_slt.png","../images/cyn_red.png","../images/org_blu.png","../images/ylw_pnk.png","../images/pnk_blu.png","../images/grn_red.png","../images/gry_blk.png"],"mutagen_generator_assignment":[0,1],"goal":6,"start":2,"action_noise":0.1,"location_history":"[2,6]","action_history":"[1]","mutagen_history":"[1]","location_rts":"[173]","trial_type":"fractal-mutation","trial_index":87,"time_elapsed":1980887,"internal_node_id":"0.0-5.0-33.0"},{"group":"tri cycles (cube, non-group)","fractal_assignment":["../images/blu_wht.png","../images/ylw_slt.png","../images/cyn_red.png","../images/org_blu.png","../images/ylw_pnk.png","../images/pnk_blu.png","../images/grn_red.png","../images/gry_blk.png"],"mutagen_generator_assignment":[0,1],"goal":1,"start":6,"action_noise":0.1,"location_history":"[6,5,1]","action_history":"[1,0]","mutagen_history":"[1,0]","location_rts":"[104,130]","trial_type":"fractal-mutation","trial_index":88,"time_elapsed":1986963,"internal_node_id":"0.0-5.0-34.0"},{"group":"tri cycles (cube, non-group)","fractal_assignment":["../images/blu_wht.png","../images/ylw_slt.png","../images/cyn_red.png","../images/org_blu.png","../images/ylw_pnk.png","../images/pnk_blu.png","../images/grn_red.png","../images/gry_blk.png"],"mutagen_generator_assignment":[0,1],"goal":7,"start":1,"action_noise":0.1,"location_history":"[1,5,1,0,3,4,7]","action_history":"[1,0,0,1,1,0]","mutagen_history":"[1,0,0,1,1,0]","location_rts":"[108,74,295,303,778,265]","trial_type":"fractal-mutation","trial_index":89,"time_elapsed":1999176,"internal_node_id":"0.0-5.0-35.0"},{"group":"tri cycles (cube, non-group)","fractal_assignment":["../images/blu_wht.png","../images/ylw_slt.png","../images/cyn_red.png","../images/org_blu.png","../images/ylw_pnk.png","../images/pnk_blu.png","../images/grn_red.png","../images/gry_blk.png"],"mutagen_generator_assignment":[0,1],"goal":4,"start":7,"action_noise":0.1,"location_history":"[7,6,5,1,0,2,6,5,2,6,5,1,5,2,6,5,1,5,2,1,5,2,6,5,2,6,4]","action_history":"[1,1,0,0,0,1,1,1,1,0,0,0,1,1,1,0,0,0,0,1,1,1,1,1,1,0]","mutagen_history":"[1,1,0,0,0,1,1,1,1,0,0,0,1,1,1,0,0,0,0,1,1,1,1,1,1,0]","location_rts":"[806,291,147,227,607,7,254,172,510,1154,203,203,238,519,31,326,104,307,186,2011,27,512,194,552,332,1094]","trial_type":"fractal-mutation","trial_index":90,"time_elapsed":2043777,"internal_node_id":"0.0-5.0-36.0"},{"group":"tri cycles (cube, non-group)","fractal_assignment":["../images/blu_wht.png","../images/ylw_slt.png","../images/cyn_red.png","../images/org_blu.png","../images/ylw_pnk.png","../images/pnk_blu.png","../images/grn_red.png","../images/gry_blk.png"],"mutagen_generator_assignment":[0,1],"goal":5,"start":4,"action_noise":0.1,"location_history":"[4,7,6,4,7,3,7,6,4,7,6,4,7,3,4,7,3,7,6,5]","action_history":"[1,0,0,0,1,1,0,0,0,0,1,0,1,1,1,1,0,0,0]","mutagen_history":"[1,0,0,0,1,1,0,0,0,0,1,0,1,1,1,1,0,0,0]","location_rts":"[500,356,68,533,38,13,143,166,81,429,226,199,96,217,465,572,566,283,43]","trial_type":"fractal-mutation","trial_index":91,"time_elapsed":2074093,"internal_node_id":"0.0-5.0-37.0"},{"group":"tri cycles (cube, non-group)","fractal_assignment":["../images/blu_wht.png","../images/ylw_slt.png","../images/cyn_red.png","../images/org_blu.png","../images/ylw_pnk.png","../images/pnk_blu.png","../images/grn_red.png","../images/gry_blk.png"],"mutagen_generator_assignment":[0,1],"goal":0,"start":5,"action_noise":0.1,"location_history":"[5,2,6,4,7,3,7,6,5,1,5,2,1,0]","action_history":"[1,1,0,0,1,0,0,0,0,1,1,0,0]","mutagen_history":"[1,1,0,0,1,0,0,0,0,1,1,0,0]","location_rts":"[642,268,353,49,184,352,179,219,308,332,745,580,179]","trial_type":"fractal-mutation","trial_index":92,"time_elapsed":2097038,"internal_node_id":"0.0-5.0-38.0"},{"group":"tri cycles (cube, non-group)","fractal_assignment":["../images/blu_wht.png","../images/ylw_slt.png","../images/cyn_red.png","../images/org_blu.png","../images/ylw_pnk.png","../images/pnk_blu.png","../images/grn_red.png","../images/gry_blk.png"],"mutagen_generator_assignment":[0,1],"goal":4,"start":0,"action_noise":0.1,"location_history":"[0,3,7,6,5,2,1,5,1,5,2,6,4]","action_history":"[1,0,0,1,1,0,0,0,1,1,1,0]","mutagen_history":"[1,0,0,1,1,0,0,0,1,1,1,0]","location_rts":"[704,131,438,218,254,138,21,839,65,538,242,55]","trial_type":"fractal-mutation","trial_index":93,"time_elapsed":2118033,"internal_node_id":"0.0-5.0-39.0"},{"group":"tri cycles (cube, non-group)","fractal_assignment":["../images/blu_wht.png","../images/ylw_slt.png","../images/cyn_red.png","../images/org_blu.png","../images/ylw_pnk.png","../images/pnk_blu.png","../images/grn_red.png","../images/gry_blk.png"],"mutagen_generator_assignment":[0,1],"goal":0,"start":4,"action_noise":0.1,"location_history":"[4,7,3,7,6,5,2,6,5,1,5,1,0]","action_history":"[1,1,0,0,1,1,1,1,0,1,0,0]","mutagen_history":"[1,1,0,0,1,1,1,1,0,1,0,0]","location_rts":"[6757,2409,298,462,1242,555,195,3,655,855,317,377]","trial_type":"fractal-mutation","trial_index":94,"time_elapsed":2149579,"internal_node_id":"0.0-5.0-40.0"},{"group":"tri cycles (cube, non-group)","fractal_assignment":["../images/blu_wht.png","../images/ylw_slt.png","../images/cyn_red.png","../images/org_blu.png","../images/ylw_pnk.png","../images/pnk_blu.png","../images/grn_red.png","../images/gry_blk.png"],"mutagen_generator_assignment":[0,1],"goal":2,"start":0,"action_noise":0.1,"location_history":"[0,3,4,0,3,7,6,5,2]","action_history":"[1,1,1,1,0,0,1,1]","mutagen_history":"[1,1,1,1,0,0,1,1]","location_rts":"[491,135,169,286,472,261,180,112]","trial_type":"fractal-mutation","trial_index":95,"time_elapsed":2164573,"internal_node_id":"0.0-5.0-41.0"},{"group":"tri cycles (cube, non-group)","fractal_assignment":["../images/blu_wht.png","../images/ylw_slt.png","../images/cyn_red.png","../images/org_blu.png","../images/ylw_pnk.png","../images/pnk_blu.png","../images/grn_red.png","../images/gry_blk.png"],"mutagen_generator_assignment":[0,1],"goal":3,"start":2,"action_noise":0.1,"location_history":"[2,1,0,3]","action_history":"[0,0,1]","mutagen_history":"[0,0,1]","location_rts":"[11359,135,59]","trial_type":"fractal-mutation","trial_index":96,"time_elapsed":2182870,"internal_node_id":"0.0-5.0-42.0"},{"group":"tri cycles (cube, non-group)","fractal_assignment":["../images/blu_wht.png","../images/ylw_slt.png","../images/cyn_red.png","../images/org_blu.png","../images/ylw_pnk.png","../images/pnk_blu.png","../images/grn_red.png","../images/gry_blk.png"],"mutagen_generator_assignment":[0,1],"goal":5,"start":3,"action_noise":0.1,"location_history":"[3,4,0,2,1,0,2,6,5]","action_history":"[1,1,0,0,0,0,0,0]","mutagen_history":"[1,1,0,0,0,0,0,0]","location_rts":"[368,18,84,80,210,160,414,153]","trial_type":"fractal-mutation","trial_index":97,"time_elapsed":2196969,"internal_node_id":"0.0-5.0-43.0"},{"group":"tri cycles (cube, non-group)","fractal_assignment":["../images/blu_wht.png","../images/ylw_slt.png","../images/cyn_red.png","../images/org_blu.png","../images/ylw_pnk.png","../images/pnk_blu.png","../images/grn_red.png","../images/gry_blk.png"],"mutagen_generator_assignment":[0,1],"goal":1,"start":5,"action_noise":0.1,"location_history":"[5,2,6,5,2,6,4,7,6,4,0,2,6,5,1]","action_history":"[1,1,0,0,1,1,0,0,0,0,1,1,1,0]","mutagen_history":"[1,1,0,0,1,1,0,0,0,0,1,1,1,0]","location_rts":"[69,159,7,378,569,389,303,492,137,1,351,383,4,71]","trial_type":"fractal-mutation","trial_index":98,"time_elapsed":2219923,"internal_node_id":"0.0-5.0-44.0"},{"group":"tri cycles (cube, non-group)","fractal_assignment":["../images/blu_wht.png","../images/ylw_slt.png","../images/cyn_red.png","../images/org_blu.png","../images/ylw_pnk.png","../images/pnk_blu.png","../images/grn_red.png","../images/gry_blk.png"],"mutagen_generator_assignment":[0,1],"goal":7,"start":1,"action_noise":0.1,"location_history":"[1,0,2,6,5,1,0,3,7]","action_history":"[0,0,1,1,0,0,0,0]","mutagen_history":"[0,0,1,1,0,0,0,0]","location_rts":"[233,225,162,181,419,335,246,257]","trial_type":"fractal-mutation","trial_index":99,"time_elapsed":2234321,"internal_node_id":"0.0-5.0-45.0"},{"group":"tri cycles (cube, non-group)","fractal_assignment":["../images/blu_wht.png","../images/ylw_slt.png","../images/cyn_red.png","../images/org_blu.png","../images/ylw_pnk.png","../images/pnk_blu.png","../images/grn_red.png","../images/gry_blk.png"],"mutagen_generator_assignment":[0,1],"goal":6,"start":7,"action_noise":0.1,"location_history":"[7,3,7,6]","action_history":"[1,0,1]","mutagen_history":"[1,0,1]","location_rts":"[452,141,848]","trial_type":"fractal-mutation","trial_index":100,"time_elapsed":2242794,"internal_node_id":"0.0-5.0-46.0"},{"group":"tri cycles (cube, non-group)","fractal_assignment":["../images/blu_wht.png","../images/ylw_slt.png","../images/cyn_red.png","../images/org_blu.png","../images/ylw_pnk.png","../images/pnk_blu.png","../images/grn_red.png","../images/gry_blk.png"],"mutagen_generator_assignment":[0,1],"goal":3,"start":6,"action_noise":0.1,"location_history":"[6,5,1,0,3]","action_history":"[1,0,0,1]","mutagen_history":"[1,0,0,1]","location_rts":"[531,192,66,368]","trial_type":"fractal-mutation","trial_index":101,"time_elapsed":2252043,"internal_node_id":"0.0-5.0-47.0"},{"group":"tri cycles (cube, non-group)","fractal_assignment":["../images/blu_wht.png","../images/ylw_slt.png","../images/cyn_red.png","../images/org_blu.png","../images/ylw_pnk.png","../images/pnk_blu.png","../images/grn_red.png","../images/gry_blk.png"],"mutagen_generator_assignment":[0,1],"goal":0,"start":3,"action_noise":0.1,"location_history":"[3,4,0]","action_history":"[1,1]","mutagen_history":"[1,1]","location_rts":"[539,152]","trial_type":"fractal-mutation","trial_index":102,"time_elapsed":2258586,"internal_node_id":"0.0-5.0-48.0"},{"group":"tri cycles (cube, non-group)","fractal_assignment":["../images/blu_wht.png","../images/ylw_slt.png","../images/cyn_red.png","../images/org_blu.png","../images/ylw_pnk.png","../images/pnk_blu.png","../images/grn_red.png","../images/gry_blk.png"],"mutagen_generator_assignment":[0,1],"goal":2,"start":0,"action_noise":0.1,"location_history":"[0,3,7,6,4,0,3,4,7,6,4,0,3,7,6,5,1,0,3,4,7,6,5,2]","action_history":"[1,0,0,0,1,1,1,0,0,0,1,1,0,0,1,1,0,0,1,0,0,1,1]","mutagen_history":"[1,0,0,0,1,1,1,0,0,0,1,1,0,0,1,1,0,0,1,0,0,1,1]","location_rts":"[402,54,3,777,164,2,276,276,60,126,137,177,175,60,180,31,315,165,399,151,297,341,401]","trial_type":"fractal-mutation","trial_index":103,"time_elapsed":2293547,"internal_node_id":"0.0-5.0-49.0"},{"view_history":"[{\"page_index\":0,\"viewing_time\":2631}]","rt":2632,"trial_type":"instructions","trial_index":104,"time_elapsed":2297180,"internal_node_id":"0.0-6.0"},{"rt":1455,"responses":"{\"Q0\":\"\"}","trial_type":"survey-text","trial_index":105,"time_elapsed":2299644,"internal_node_id":"0.0-7.0"}]