[{"view_history":"[{\"page_index\":0,\"viewing_time\":11616},{\"page_index\":1,\"viewing_time\":18495},{\"page_index\":2,\"viewing_time\":29063},{\"page_index\":3,\"viewing_time\":10027}]","rt":69202,"trial_type":"instructions","trial_index":0,"time_elapsed":69203,"internal_node_id":"0.0-0.0"},{"view_history":"[{\"page_index\":0,\"viewing_time\":3380},{\"page_index\":1,\"viewing_time\":31969}]","rt":35349,"trial_type":"instructions","trial_index":1,"time_elapsed":105552,"internal_node_id":"0.0-1.0"},{"group":"tri cycles (cube, non-group)","room_assignment":["yellow","blue","red","pink","brown","grey","green","purple"],"door_color_assignment":["white","black"],"door_generator_assignment":[1,0],"goal":3,"start":0,"action_noise":0.1,"location_history":"[0,2,6,5,2,1,0,2,1,5,2,6,5,1,0,3]","action_history":"[0,1,1,1,0,0,0,0,1,1,1,1,0,0,1]","door_history":"[1,0,0,0,1,1,1,1,0,0,0,0,1,1,0]","location_rts":"[3525,6050,3310,3452,2721,2141,1878,2973,1956,1057,1465,819,1710,1145,2120]","trial_type":"two-door-navigation","trial_index":2,"time_elapsed":160471,"internal_node_id":"0.0-2.0-0.0"},{"group":"tri cycles (cube, non-group)","room_assignment":["yellow","blue","red","pink","brown","grey","green","purple"],"door_color_assignment":["white","black"],"door_generator_assignment":[1,0],"goal":1,"start":3,"action_noise":0.1,"location_history":"[3,7,6,4,7,3,4,0,3,4,7,3,7,3,7,6,5,1]","action_history":"[0,0,0,0,1,1,1,1,1,0,1,0,1,0,0,1,0]","door_history":"[1,1,1,1,0,0,0,0,0,1,0,1,0,1,1,0,1]","location_rts":"[28642,1891,1380,1202,2092,3225,1038,1264,3005,1104,1833,3725,1581,2363,1002,1090,1744]","trial_type":"two-door-navigation","trial_index":3,"time_elapsed":239390,"internal_node_id":"0.0-2.0-1.0"},{"group":"tri cycles (cube, non-group)","room_assignment":["yellow","blue","red","pink","brown","grey","green","purple"],"door_color_assignment":["white","black"],"door_generator_assignment":[1,0],"goal":2,"start":1,"action_noise":0.1,"location_history":"[1,0,3,4,7,3,4,0,2]","action_history":"[0,0,0,0,1,1,1,0]","door_history":"[1,1,1,1,0,0,0,1]","location_rts":"[10788,1854,1764,1172,1277,1092,889,1774]","trial_type":"two-door-navigation","trial_index":4,"time_elapsed":271586,"internal_node_id":"0.0-2.0-2.0"},{"group":"tri cycles (cube, non-group)","room_assignment":["yellow","blue","red","pink","brown","grey","green","purple"],"door_color_assignment":["white","black"],"door_generator_assignment":[1,0],"goal":6,"start":2,"action_noise":0.1,"location_history":"[2,1,5,2,6]","action_history":"[0,0,0,1]","door_history":"[1,1,1,0]","location_rts":"[10886,3163,1397,1389]","trial_type":"two-door-navigation","trial_index":5,"time_elapsed":295941,"internal_node_id":"0.0-2.0-3.0"},{"group":"tri cycles (cube, non-group)","room_assignment":["yellow","blue","red","pink","brown","grey","green","purple"],"door_color_assignment":["white","black"],"door_generator_assignment":[1,0],"goal":5,"start":6,"action_noise":0.1,"location_history":"[6,5]","action_history":"[1]","door_history":"[0]","location_rts":"[13819]","trial_type":"two-door-navigation","trial_index":6,"time_elapsed":314267,"internal_node_id":"0.0-2.0-4.0"},{"group":"tri cycles (cube, non-group)","room_assignment":["yellow","blue","red","pink","brown","grey","green","purple"],"door_color_assignment":["white","black"],"door_generator_assignment":[1,0],"goal":4,"start":5,"action_noise":0.1,"location_history":"[5,1,0,2,6,4]","action_history":"[0,0,0,0,0]","door_history":"[1,1,1,1,1]","location_rts":"[11173,880,842,1610,2067]","trial_type":"two-door-navigation","trial_index":7,"time_elapsed":339382,"internal_node_id":"0.0-2.0-5.0"},{"group":"tri cycles (cube, non-group)","room_assignment":["yellow","blue","red","pink","brown","grey","green","purple"],"door_color_assignment":["white","black"],"door_generator_assignment":[1,0],"goal":7,"start":4,"action_noise":0.1,"location_history":"[4,7]","action_history":"[1]","door_history":"[0]","location_rts":"[10210]","trial_type":"two-door-navigation","trial_index":8,"time_elapsed":354102,"internal_node_id":"0.0-2.0-6.0"},{"group":"tri cycles (cube, non-group)","room_assignment":["yellow","blue","red","pink","brown","grey","green","purple"],"door_color_assignment":["white","black"],"door_generator_assignment":[1,0],"goal":4,"start":7,"action_noise":0.1,"location_history":"[7,3,4]","action_history":"[1,0]","door_history":"[0,1]","location_rts":"[9811,9347]","trial_type":"two-door-navigation","trial_index":9,"time_elapsed":378778,"internal_node_id":"0.0-2.0-7.0"},{"group":"tri cycles (cube, non-group)","room_assignment":["yellow","blue","red","pink","brown","grey","green","purple"],"door_color_assignment":["white","black"],"door_generator_assignment":[1,0],"goal":6,"start":4,"action_noise":0.1,"location_history":"[4,0,3,4,7,3,4,0,3,4,0,2,6]","action_history":"[1,1,1,0,0,1,1,1,1,1,0,1]","door_history":"[0,0,0,1,1,0,0,0,0,0,1,0]","location_rts":"[18215,870,6299,3778,6543,15087,996,739,765,793,963,4692]","trial_type":"two-door-navigation","trial_index":10,"time_elapsed":454109,"internal_node_id":"0.0-2.0-8.0"},{"group":"tri cycles (cube, non-group)","room_assignment":["yellow","blue","red","pink","brown","grey","green","purple"],"door_color_assignment":["white","black"],"door_generator_assignment":[1,0],"goal":0,"start":6,"action_noise":0.1,"location_history":"[6,5,2,6,4,7,6,5,2,1,0]","action_history":"[1,1,1,0,0,0,1,1,0,0]","door_history":"[0,0,0,1,1,1,0,0,1,1]","location_rts":"[19915,1135,14948,13372,14554,3009,13743,12519,14559,10016]","trial_type":"two-door-navigation","trial_index":11,"time_elapsed":585453,"internal_node_id":"0.0-2.0-9.0"},{"group":"tri cycles (cube, non-group)","room_assignment":["yellow","blue","red","pink","brown","grey","green","purple"],"door_color_assignment":["white","black"],"door_generator_assignment":[1,0],"goal":1,"start":0,"action_noise":0.1,"location_history":"[0,2,1]","action_history":"[0,0]","door_history":"[1,1]","location_rts":"[41058,16189]","trial_type":"two-door-navigation","trial_index":12,"time_elapsed":648222,"internal_node_id":"0.0-2.0-10.0"},{"group":"tri cycles (cube, non-group)","room_assignment":["yellow","blue","red","pink","brown","grey","green","purple"],"door_color_assignment":["white","black"],"door_generator_assignment":[1,0],"goal":3,"start":1,"action_noise":0.1,"location_history":"[1,5,1,0,3]","action_history":"[1,0,0,1]","door_history":"[0,1,1,0]","location_rts":"[19219,42685,9473,9813]","trial_type":"two-door-navigation","trial_index":13,"time_elapsed":736934,"internal_node_id":"0.0-2.0-11.0"},{"group":"tri cycles (cube, non-group)","room_assignment":["yellow","blue","red","pink","brown","grey","green","purple"],"door_color_assignment":["white","black"],"door_generator_assignment":[1,0],"goal":7,"start":3,"action_noise":0.1,"location_history":"[3,7]","action_history":"[0]","door_history":"[1]","location_rts":"[13651]","trial_type":"two-door-navigation","trial_index":14,"time_elapsed":755090,"internal_node_id":"0.0-2.0-12.0"},{"group":"tri cycles (cube, non-group)","room_assignment":["yellow","blue","red","pink","brown","grey","green","purple"],"door_color_assignment":["white","black"],"door_generator_assignment":[1,0],"goal":5,"start":7,"action_noise":0.1,"location_history":"[7,6,5]","action_history":"[0,1]","door_history":"[1,0]","location_rts":"[28842,9679]","trial_type":"two-door-navigation","trial_index":15,"time_elapsed":799125,"internal_node_id":"0.0-2.0-13.0"},{"group":"tri cycles (cube, non-group)","room_assignment":["yellow","blue","red","pink","brown","grey","green","purple"],"door_color_assignment":["white","black"],"door_generator_assignment":[1,0],"goal":2,"start":5,"action_noise":0.1,"location_history":"[5,1,0,2]","action_history":"[1,0,0]","door_history":"[0,1,1]","location_rts":"[7211,16971,1223]","trial_type":"two-door-navigation","trial_index":16,"time_elapsed":831055,"internal_node_id":"0.0-2.0-14.0"},{"group":"tri cycles (cube, non-group)","room_assignment":["yellow","blue","red","pink","brown","grey","green","purple"],"door_color_assignment":["white","black"],"door_generator_assignment":[1,0],"goal":7,"start":2,"action_noise":0.1,"location_history":"[2,1,0,3,4,0,3,7]","action_history":"[1,0,1,0,1,1,0]","door_history":"[0,1,0,1,0,0,1]","location_rts":"[41516,29731,11683,3916,3095,10499,9217]","trial_type":"two-door-navigation","trial_index":17,"time_elapsed":951262,"internal_node_id":"0.0-2.0-15.0"},{"group":"tri cycles (cube, non-group)","room_assignment":["yellow","blue","red","pink","brown","grey","green","purple"],"door_color_assignment":["white","black"],"door_generator_assignment":[1,0],"goal":4,"start":7,"action_noise":0.1,"location_history":"[7,6,4]","action_history":"[0,0]","door_history":"[1,1]","location_rts":"[26074,1013]","trial_type":"two-door-navigation","trial_index":18,"time_elapsed":983868,"internal_node_id":"0.0-2.0-16.0"},{"group":"tri cycles (cube, non-group)","room_assignment":["yellow","blue","red","pink","brown","grey","green","purple"],"door_color_assignment":["white","black"],"door_generator_assignment":[1,0],"goal":2,"start":4,"action_noise":0.1,"location_history":"[4,7,3,4,7,6,5,2]","action_history":"[0,1,1,0,0,1,1]","door_history":"[1,0,0,1,1,0,0]","location_rts":"[36717,24561,14543,40522,5939,9933,961]","trial_type":"two-door-navigation","trial_index":19,"time_elapsed":1127601,"internal_node_id":"0.0-2.0-17.0"},{"group":"tri cycles (cube, non-group)","room_assignment":["yellow","blue","red","pink","brown","grey","green","purple"],"door_color_assignment":["white","black"],"door_generator_assignment":[1,0],"goal":3,"start":2,"action_noise":0.1,"location_history":"[2,6,5,2,1,5,2,6,5,2,1,0,2,6,4,7,6,4,0,3]","action_history":"[1,1,1,0,0,1,1,1,0,0,0,1,1,0,0,0,0,1,1]","door_history":"[0,0,0,1,1,0,0,0,1,1,1,0,0,1,1,1,1,0,0]","location_rts":"[26255,14175,1152,22515,3255,12109,12339,8625,21472,22778,3191,3019,45387,11972,10492,947,4507,1563,770]","trial_type":"two-door-navigation","trial_index":20,"time_elapsed":1376755,"internal_node_id":"0.0-2.0-18.0"},{"group":"tri cycles (cube, non-group)","room_assignment":["yellow","blue","red","pink","brown","grey","green","purple"],"door_color_assignment":["white","black"],"door_generator_assignment":[1,0],"goal":6,"start":3,"action_noise":0.1,"location_history":"[3,4,7,6]","action_history":"[1,0,0]","door_history":"[0,1,1]","location_rts":"[12053,3666,18813]","trial_type":"two-door-navigation","trial_index":21,"time_elapsed":1417805,"internal_node_id":"0.0-2.0-19.0"},{"group":"tri cycles (cube, non-group)","room_assignment":["yellow","blue","red","pink","brown","grey","green","purple"],"door_color_assignment":["white","black"],"door_generator_assignment":[1,0],"goal":5,"start":6,"action_noise":0.1,"location_history":"[6,5]","action_history":"[1]","door_history":"[0]","location_rts":"[3841]","trial_type":"two-door-navigation","trial_index":22,"time_elapsed":1426160,"internal_node_id":"0.0-2.0-20.0"},{"group":"tri cycles (cube, non-group)","room_assignment":["yellow","blue","red","pink","brown","grey","green","purple"],"door_color_assignment":["white","black"],"door_generator_assignment":[1,0],"goal":1,"start":5,"action_noise":0.1,"location_history":"[5,1]","action_history":"[0]","door_history":"[1]","location_rts":"[16090]","trial_type":"two-door-navigation","trial_index":23,"time_elapsed":1446756,"internal_node_id":"0.0-2.0-21.0"},{"group":"tri cycles (cube, non-group)","room_assignment":["yellow","blue","red","pink","brown","grey","green","purple"],"door_color_assignment":["white","black"],"door_generator_assignment":[1,0],"goal":0,"start":1,"action_noise":0.1,"location_history":"[1,0]","action_history":"[0]","door_history":"[1]","location_rts":"[7540]","trial_type":"two-door-navigation","trial_index":24,"time_elapsed":1458807,"internal_node_id":"0.0-2.0-22.0"},{"group":"tri cycles (cube, non-group)","room_assignment":["yellow","blue","red","pink","brown","grey","green","purple"],"door_color_assignment":["white","black"],"door_generator_assignment":[1,0],"goal":2,"start":0,"action_noise":0.1,"location_history":"[0,3,4,0,2]","action_history":"[1,1,1,0]","door_history":"[0,0,0,1]","location_rts":"[5417,12822,25443,8235]","trial_type":"two-door-navigation","trial_index":25,"time_elapsed":1518259,"internal_node_id":"0.0-2.0-23.0"},{"group":"tri cycles (cube, non-group)","room_assignment":["yellow","blue","red","pink","brown","grey","green","purple"],"door_color_assignment":["white","black"],"door_generator_assignment":[1,0],"goal":6,"start":2,"action_noise":0.1,"location_history":"[2,1,0,2,6]","action_history":"[0,0,0,1]","door_history":"[1,1,1,0]","location_rts":"[46839,5034,629,8897]","trial_type":"two-door-navigation","trial_index":26,"time_elapsed":1587182,"internal_node_id":"0.0-2.0-24.0"},{"group":"tri cycles (cube, non-group)","room_assignment":["yellow","blue","red","pink","brown","grey","green","purple"],"door_color_assignment":["white","black"],"door_generator_assignment":[1,0],"goal":1,"start":6,"action_noise":0.1,"location_history":"[6,5,1]","action_history":"[1,1]","door_history":"[0,0]","location_rts":"[32451,887]","trial_type":"two-door-navigation","trial_index":27,"time_elapsed":1626039,"internal_node_id":"0.0-2.0-25.0"},{"group":"tri cycles (cube, non-group)","room_assignment":["yellow","blue","red","pink","brown","grey","green","purple"],"door_color_assignment":["white","black"],"door_generator_assignment":[1,0],"goal":3,"start":1,"action_noise":0.1,"location_history":"[1,0,2,6,4,0,3]","action_history":"[0,1,0,0,1,1]","door_history":"[1,0,1,1,0,0]","location_rts":"[8954,919,28936,12977,9886,695]","trial_type":"two-door-navigation","trial_index":28,"time_elapsed":1697956,"internal_node_id":"0.0-2.0-26.0"},{"group":"tri cycles (cube, non-group)","room_assignment":["yellow","blue","red","pink","brown","grey","green","purple"],"door_color_assignment":["white","black"],"door_generator_assignment":[1,0],"goal":7,"start":3,"action_noise":0.1,"location_history":"[3,4,7]","action_history":"[1,0]","door_history":"[0,1]","location_rts":"[17315,5233]","trial_type":"two-door-navigation","trial_index":29,"time_elapsed":1726020,"internal_node_id":"0.0-2.0-27.0"},{"group":"tri cycles (cube, non-group)","room_assignment":["yellow","blue","red","pink","brown","grey","green","purple"],"door_color_assignment":["white","black"],"door_generator_assignment":[1,0],"goal":4,"start":7,"action_noise":0.1,"location_history":"[7,3,4]","action_history":"[1,0]","door_history":"[0,1]","location_rts":"[5990,15415]","trial_type":"two-door-navigation","trial_index":30,"time_elapsed":1752940,"internal_node_id":"0.0-2.0-28.0"},{"group":"tri cycles (cube, non-group)","room_assignment":["yellow","blue","red","pink","brown","grey","green","purple"],"door_color_assignment":["white","black"],"door_generator_assignment":[1,0],"goal":0,"start":4,"action_noise":0.1,"location_history":"[4,0]","action_history":"[1]","door_history":"[0]","location_rts":"[16069]","trial_type":"two-door-navigation","trial_index":31,"time_elapsed":1773519,"internal_node_id":"0.0-2.0-29.0"},{"group":"tri cycles (cube, non-group)","room_assignment":["yellow","blue","red","pink","brown","grey","green","purple"],"door_color_assignment":["white","black"],"door_generator_assignment":[1,0],"goal":5,"start":0,"action_noise":0.1,"location_history":"[0,2,6,5]","action_history":"[0,1,1]","door_history":"[1,0,0]","location_rts":"[63922,15005,1106]","trial_type":"two-door-navigation","trial_index":32,"time_elapsed":1860067,"internal_node_id":"0.0-2.0-30.0"},{"group":"tri cycles (cube, non-group)","room_assignment":["yellow","blue","red","pink","brown","grey","green","purple"],"door_color_assignment":["white","black"],"door_generator_assignment":[1,0],"goal":3,"start":5,"action_noise":0.1,"location_history":"[5,1,0,2,1,0,2,1,0,2,1,0,3]","action_history":"[1,0,1,0,0,0,0,0,0,1,0,1]","door_history":"[0,1,0,1,1,1,1,1,1,0,1,0]","location_rts":"[74974,6992,3130,17363,4422,1146,9019,5874,15093,1946,9662,3374]","trial_type":"two-door-navigation","trial_index":33,"time_elapsed":2028635,"internal_node_id":"0.0-2.0-31.0"},{"group":"tri cycles (cube, non-group)","room_assignment":["yellow","blue","red","pink","brown","grey","green","purple"],"door_color_assignment":["white","black"],"door_generator_assignment":[1,0],"goal":2,"start":3,"action_noise":0.1,"location_history":"[3,7,6,5,2]","action_history":"[0,0,1,1]","door_history":"[1,1,0,0]","location_rts":"[9115,120635,14596,10928]","trial_type":"two-door-navigation","trial_index":34,"time_elapsed":2191446,"internal_node_id":"0.0-2.0-32.0"},{"group":"tri cycles (cube, non-group)","room_assignment":["yellow","blue","red","pink","brown","grey","green","purple"],"door_color_assignment":["white","black"],"door_generator_assignment":[1,0],"goal":6,"start":2,"action_noise":0.1,"location_history":"[2,6]","action_history":"[1]","door_history":"[0]","location_rts":"[5979]","trial_type":"two-door-navigation","trial_index":35,"time_elapsed":2201933,"internal_node_id":"0.0-2.0-33.0"},{"group":"tri cycles (cube, non-group)","room_assignment":["yellow","blue","red","pink","brown","grey","green","purple"],"door_color_assignment":["white","black"],"door_generator_assignment":[1,0],"goal":1,"start":6,"action_noise":0.1,"location_history":"[6,5,1]","action_history":"[1,0]","door_history":"[0,1]","location_rts":"[11156,1315]","trial_type":"two-door-navigation","trial_index":36,"time_elapsed":2219933,"internal_node_id":"0.0-2.0-34.0"},{"group":"tri cycles (cube, non-group)","room_assignment":["yellow","blue","red","pink","brown","grey","green","purple"],"door_color_assignment":["white","black"],"door_generator_assignment":[1,0],"goal":7,"start":1,"action_noise":0.1,"location_history":"[1,0,3,7]","action_history":"[0,1,0]","door_history":"[1,0,1]","location_rts":"[37717,9554,989]","trial_type":"two-door-navigation","trial_index":37,"time_elapsed":2274706,"internal_node_id":"0.0-2.0-35.0"},{"group":"tri cycles (cube, non-group)","room_assignment":["yellow","blue","red","pink","brown","grey","green","purple"],"door_color_assignment":["white","black"],"door_generator_assignment":[1,0],"goal":4,"start":7,"action_noise":0.1,"location_history":"[7,6,4]","action_history":"[1,0]","door_history":"[0,1]","location_rts":"[4502,18663]","trial_type":"two-door-navigation","trial_index":38,"time_elapsed":2303388,"internal_node_id":"0.0-2.0-36.0"},{"group":"tri cycles (cube, non-group)","room_assignment":["yellow","blue","red","pink","brown","grey","green","purple"],"door_color_assignment":["white","black"],"door_generator_assignment":[1,0],"goal":5,"start":4,"action_noise":0.1,"location_history":"[4,7,6,4,7,6,5]","action_history":"[0,0,0,0,0,1]","door_history":"[1,1,1,1,1,0]","location_rts":"[14582,15428,8422,21730,11707,4954]","trial_type":"two-door-navigation","trial_index":39,"time_elapsed":2389744,"internal_node_id":"0.0-2.0-37.0"},{"group":"tri cycles (cube, non-group)","room_assignment":["yellow","blue","red","pink","brown","grey","green","purple"],"door_color_assignment":["white","black"],"door_generator_assignment":[1,0],"goal":0,"start":5,"action_noise":0.1,"location_history":"[5,2,6,5,2,6,5,1,0]","action_history":"[0,0,1,1,0,1,0,0]","door_history":"[1,1,0,0,1,0,1,1]","location_rts":"[9345,16307,27852,12207,17750,1542,14939,728]","trial_type":"two-door-navigation","trial_index":40,"time_elapsed":2501966,"internal_node_id":"0.0-2.0-38.0"},{"group":"tri cycles (cube, non-group)","room_assignment":["yellow","blue","red","pink","brown","grey","green","purple"],"door_color_assignment":["white","black"],"door_generator_assignment":[1,0],"goal":4,"start":0,"action_noise":0.1,"location_history":"[0,2,6,4]","action_history":"[0,1,0]","door_history":"[1,0,1]","location_rts":"[24744,17782,51858]","trial_type":"two-door-navigation","trial_index":41,"time_elapsed":2602871,"internal_node_id":"0.0-2.0-39.0"},{"group":"tri cycles (cube, non-group)","room_assignment":["yellow","blue","red","pink","brown","grey","green","purple"],"door_color_assignment":["white","black"],"door_generator_assignment":[1,0],"goal":0,"start":4,"action_noise":0.1,"location_history":"[4,0]","action_history":"[1]","door_history":"[0]","location_rts":"[6257]","trial_type":"two-door-navigation","trial_index":42,"time_elapsed":2613655,"internal_node_id":"0.0-2.0-40.0"},{"group":"tri cycles (cube, non-group)","room_assignment":["yellow","blue","red","pink","brown","grey","green","purple"],"door_color_assignment":["white","black"],"door_generator_assignment":[1,0],"goal":2,"start":0,"action_noise":0.1,"location_history":"[0,2]","action_history":"[0]","door_history":"[1]","location_rts":"[5801]","trial_type":"two-door-navigation","trial_index":43,"time_elapsed":2623965,"internal_node_id":"0.0-2.0-41.0"},{"group":"tri cycles (cube, non-group)","room_assignment":["yellow","blue","red","pink","brown","grey","green","purple"],"door_color_assignment":["white","black"],"door_generator_assignment":[1,0],"goal":3,"start":2,"action_noise":0.1,"location_history":"[2,6,4,0,3]","action_history":"[1,0,1,1]","door_history":"[0,1,0,0]","location_rts":"[23812,48674,14451,718]","trial_type":"two-door-navigation","trial_index":44,"time_elapsed":2719157,"internal_node_id":"0.0-2.0-42.0"},{"group":"tri cycles (cube, non-group)","room_assignment":["yellow","blue","red","pink","brown","grey","green","purple"],"door_color_assignment":["white","black"],"door_generator_assignment":[1,0],"goal":5,"start":3,"action_noise":0.1,"location_history":"[3,7,6,5]","action_history":"[0,0,1]","door_history":"[1,1,0]","location_rts":"[27533,23577,14436]","trial_type":"two-door-navigation","trial_index":45,"time_elapsed":2791225,"internal_node_id":"0.0-2.0-43.0"},{"group":"tri cycles (cube, non-group)","room_assignment":["yellow","blue","red","pink","brown","grey","green","purple"],"door_color_assignment":["white","black"],"door_generator_assignment":[1,0],"goal":1,"start":5,"action_noise":0.1,"location_history":"[5,2,1]","action_history":"[1,0]","door_history":"[0,1]","location_rts":"[8280,2595]","trial_type":"two-door-navigation","trial_index":46,"time_elapsed":2807616,"internal_node_id":"0.0-2.0-44.0"},{"group":"tri cycles (cube, non-group)","room_assignment":["yellow","blue","red","pink","brown","grey","green","purple"],"door_color_assignment":["white","black"],"door_generator_assignment":[1,0],"goal":7,"start":1,"action_noise":0.1,"location_history":"[1,5,2,6,5,1,0,2,1,0,2,1,0,3,4,7]","action_history":"[0,1,1,1,0,0,0,0,0,0,0,0,1,1,0]","door_history":"[1,0,0,0,1,1,1,1,1,1,1,1,0,0,1]","location_rts":"[33700,8878,28780,4988,10890,12849,478,444,511,578,442,487,884,504,7933]","trial_type":"two-door-navigation","trial_index":47,"time_elapsed":2938587,"internal_node_id":"0.0-2.0-45.0"},{"group":"tri cycles (cube, non-group)","room_assignment":["yellow","blue","red","pink","brown","grey","green","purple"],"door_color_assignment":["white","black"],"door_generator_assignment":[1,0],"goal":6,"start":7,"action_noise":0.1,"location_history":"[7,3,7,3,4,0,3,4,0,2,6]","action_history":"[1,0,1,1,1,0,0,1,0,1]","door_history":"[0,1,0,0,0,1,1,0,1,0]","location_rts":"[4595,23742,10629,6825,4515,19163,10593,922,813,6382]","trial_type":"two-door-navigation","trial_index":48,"time_elapsed":3040323,"internal_node_id":"0.0-2.0-46.0"},{"group":"tri cycles (cube, non-group)","room_assignment":["yellow","blue","red","pink","brown","grey","green","purple"],"door_color_assignment":["white","black"],"door_generator_assignment":[1,0],"goal":3,"start":6,"action_noise":0.1,"location_history":"[6,4,0,3]","action_history":"[0,1,1]","door_history":"[1,0,0]","location_rts":"[13620,11227,4015]","trial_type":"two-door-navigation","trial_index":49,"time_elapsed":3075708,"internal_node_id":"0.0-2.0-47.0"},{"group":"tri cycles (cube, non-group)","room_assignment":["yellow","blue","red","pink","brown","grey","green","purple"],"door_color_assignment":["white","black"],"door_generator_assignment":[1,0],"goal":0,"start":3,"action_noise":0.1,"location_history":"[3,4,7,3,4,7,3,4,0]","action_history":"[1,1,1,0,0,0,1,1]","door_history":"[0,0,0,1,1,1,0,0]","location_rts":"[11444,4479,7406,2232,2990,9704,8711,4915]","trial_type":"two-door-navigation","trial_index":50,"time_elapsed":3139142,"internal_node_id":"0.0-2.0-48.0"},{"group":"tri cycles (cube, non-group)","room_assignment":["yellow","blue","red","pink","brown","grey","green","purple"],"door_color_assignment":["white","black"],"door_generator_assignment":[1,0],"goal":2,"start":0,"action_noise":0.1,"location_history":"[0,3,7,3,4,0,2]","action_history":"[0,0,1,1,1,0]","door_history":"[1,1,0,0,0,1]","location_rts":"[7819,9567,5877,1908,5676,2856]","trial_type":"two-door-navigation","trial_index":51,"time_elapsed":3182399,"internal_node_id":"0.0-2.0-49.0"},{"view_history":"[{\"page_index\":0,\"viewing_time\":4786}]","rt":4786,"trial_type":"instructions","trial_index":52,"time_elapsed":3188185,"internal_node_id":"0.0-3.0"},{"view_history":"[{\"page_index\":0,\"viewing_time\":3526},{\"page_index\":1,\"viewing_time\":20545}]","rt":24071,"trial_type":"instructions","trial_index":53,"time_elapsed":3213256,"internal_node_id":"0.0-4.0"},{"group":"square cycles (cube, non-group)","fractal_assignment":["../images/org_blu.png","../images/gry_blk.png","../images/ylw_pnk.png","../images/grn_red.png","../images/blu_wht.png","../images/cyn_red.png","../images/pnk_blu.png","../images/ylw_slt.png"],"mutagen_generator_assignment":[0,1],"goal":3,"start":0,"action_noise":0.1,"location_history":"[0,1,0,4,5,1,0,1,2,3]","action_history":"[0,1,1,1,1,1,0,0,0]","mutagen_history":"[0,1,1,1,1,1,0,0,0]","location_rts":"[7223,4801,1099,839,724,833,973,741,871]","trial_type":"fractal-mutation","trial_index":54,"time_elapsed":3244782,"internal_node_id":"0.0-5.0-0.0"},{"group":"square cycles (cube, non-group)","fractal_assignment":["../images/org_blu.png","../images/gry_blk.png","../images/ylw_pnk.png","../images/grn_red.png","../images/blu_wht.png","../images/cyn_red.png","../images/pnk_blu.png","../images/ylw_slt.png"],"mutagen_generator_assignment":[0,1],"goal":1,"start":3,"action_noise":0.1,"location_history":"[3,0,1]","action_history":"[0,0]","mutagen_history":"[0,0]","location_rts":"[4525,924]","trial_type":"fractal-mutation","trial_index":55,"time_elapsed":3255855,"internal_node_id":"0.0-5.0-1.0"},{"group":"square cycles (cube, non-group)","fractal_assignment":["../images/org_blu.png","../images/gry_blk.png","../images/ylw_pnk.png","../images/grn_red.png","../images/blu_wht.png","../images/cyn_red.png","../images/pnk_blu.png","../images/ylw_slt.png"],"mutagen_generator_assignment":[0,1],"goal":2,"start":1,"action_noise":0.1,"location_history":"[1,0,1,0,1,0,4,5,1,0,1,2]","action_history":"[0,0,0,0,1,1,1,1,0,0,0]","mutagen_history":"[0,0,0,0,1,1,1,1,0,0,0]","location_rts":"[3039,799,589,736,815,570,692,696,826,560,470]","trial_type":"fractal-mutation","trial_index":56,"time_elapsed":3281164,"internal_node_id":"0.0-5.0-2.0"},{"group":"square cycles (cube, non-group)","fractal_assignment":["../images/org_blu.png","../images/gry_blk.png","../images/ylw_pnk.png","../images/grn_red.png","../images/blu_wht.png","../images/cyn_red.png","../images/pnk_blu.png","../images/ylw_slt.png"],"mutagen_generator_assignment":[0,1],"goal":6,"start":2,"action_noise":0.1,"location_history":"[2,6]","action_history":"[1]","mutagen_history":"[1]","location_rts":"[2075]","trial_type":"fractal-mutation","trial_index":57,"time_elapsed":3287884,"internal_node_id":"0.0-5.0-3.0"},{"group":"square cycles (cube, non-group)","fractal_assignment":["../images/org_blu.png","../images/gry_blk.png","../images/ylw_pnk.png","../images/grn_red.png","../images/blu_wht.png","../images/cyn_red.png","../images/pnk_blu.png","../images/ylw_slt.png"],"mutagen_generator_assignment":[0,1],"goal":5,"start":6,"action_noise":0.1,"location_history":"[6,7,6,7,3,2,6,7,3,0,4,5]","action_history":"[1,1,1,1,1,1,1,1,0,1,1]","mutagen_history":"[1,1,1,1,1,1,1,1,0,1,1]","location_rts":"[1458,826,543,585,983,721,749,668,796,787,727]","trial_type":"fractal-mutation","trial_index":58,"time_elapsed":3312526,"internal_node_id":"0.0-5.0-4.0"},{"group":"square cycles (cube, non-group)","fractal_assignment":["../images/org_blu.png","../images/gry_blk.png","../images/ylw_pnk.png","../images/grn_red.png","../images/blu_wht.png","../images/cyn_red.png","../images/pnk_blu.png","../images/ylw_slt.png"],"mutagen_generator_assignment":[0,1],"goal":4,"start":5,"action_noise":0.1,"location_history":"[5,4]","action_history":"[0]","mutagen_history":"[0]","location_rts":"[2425]","trial_type":"fractal-mutation","trial_index":59,"time_elapsed":3319515,"internal_node_id":"0.0-5.0-5.0"},{"group":"square cycles (cube, non-group)","fractal_assignment":["../images/org_blu.png","../images/gry_blk.png","../images/ylw_pnk.png","../images/grn_red.png","../images/blu_wht.png","../images/cyn_red.png","../images/pnk_blu.png","../images/ylw_slt.png"],"mutagen_generator_assignment":[0,1],"goal":7,"start":4,"action_noise":0.1,"location_history":"[4,5,4,7]","action_history":"[1,1,0]","mutagen_history":"[1,1,0]","location_rts":"[1333,846,1253]","trial_type":"fractal-mutation","trial_index":60,"time_elapsed":3329768,"internal_node_id":"0.0-5.0-6.0"},{"group":"square cycles (cube, non-group)","fractal_assignment":["../images/org_blu.png","../images/gry_blk.png","../images/ylw_pnk.png","../images/grn_red.png","../images/blu_wht.png","../images/cyn_red.png","../images/pnk_blu.png","../images/ylw_slt.png"],"mutagen_generator_assignment":[0,1],"goal":4,"start":7,"action_noise":0.1,"location_history":"[7,6,7,6,7,6,7,3,0,1,0,4]","action_history":"[0,0,0,1,0,1,1,0,0,1,1]","mutagen_history":"[0,0,0,1,0,1,1,0,0,1,1]","location_rts":"[2141,1110,930,745,877,813,767,766,969,868,769]","trial_type":"fractal-mutation","trial_index":61,"time_elapsed":3356074,"internal_node_id":"0.0-5.0-7.0"},{"group":"square cycles (cube, non-group)","fractal_assignment":["../images/org_blu.png","../images/gry_blk.png","../images/ylw_pnk.png","../images/grn_red.png","../images/blu_wht.png","../images/cyn_red.png","../images/pnk_blu.png","../images/ylw_slt.png"],"mutagen_generator_assignment":[0,1],"goal":6,"start":4,"action_noise":0.1,"location_history":"[4,5,4,5,1,2,6]","action_history":"[1,0,1,1,0,1]","mutagen_history":"[1,0,1,1,0,1]","location_rts":"[2717,1325,866,530,902,742]","trial_type":"fractal-mutation","trial_index":62,"time_elapsed":3373274,"internal_node_id":"0.0-5.0-8.0"},{"group":"square cycles (cube, non-group)","fractal_assignment":["../images/org_blu.png","../images/gry_blk.png","../images/ylw_pnk.png","../images/grn_red.png","../images/blu_wht.png","../images/cyn_red.png","../images/pnk_blu.png","../images/ylw_slt.png"],"mutagen_generator_assignment":[0,1],"goal":0,"start":6,"action_noise":0.1,"location_history":"[6,5,1,2,3,2,6,5,4,5,1,2,3,2,3,0]","action_history":"[0,0,0,0,1,1,0,0,1,1,0,0,1,1,1]","mutagen_history":"[0,0,0,0,1,1,0,0,1,1,0,0,1,1,1]","location_rts":"[3036,970,752,667,1026,791,801,693,641,717,699,881,548,602,480]","trial_type":"fractal-mutation","trial_index":63,"time_elapsed":3406507,"internal_node_id":"0.0-5.0-9.0"},{"group":"square cycles (cube, non-group)","fractal_assignment":["../images/org_blu.png","../images/gry_blk.png","../images/ylw_pnk.png","../images/grn_red.png","../images/blu_wht.png","../images/cyn_red.png","../images/pnk_blu.png","../images/ylw_slt.png"],"mutagen_generator_assignment":[0,1],"goal":1,"start":0,"action_noise":0.1,"location_history":"[0,1]","action_history":"[0]","mutagen_history":"[0]","location_rts":"[1394]","trial_type":"fractal-mutation","trial_index":64,"time_elapsed":3412460,"internal_node_id":"0.0-5.0-10.0"},{"group":"square cycles (cube, non-group)","fractal_assignment":["../images/org_blu.png","../images/gry_blk.png","../images/ylw_pnk.png","../images/grn_red.png","../images/blu_wht.png","../images/cyn_red.png","../images/pnk_blu.png","../images/ylw_slt.png"],"mutagen_generator_assignment":[0,1],"goal":3,"start":1,"action_noise":0.1,"location_history":"[1,2,3]","action_history":"[0,1]","mutagen_history":"[0,1]","location_rts":"[3875,845]","trial_type":"fractal-mutation","trial_index":65,"time_elapsed":3422898,"internal_node_id":"0.0-5.0-11.0"},{"group":"square cycles (cube, non-group)","fractal_assignment":["../images/org_blu.png","../images/gry_blk.png","../images/ylw_pnk.png","../images/grn_red.png","../images/blu_wht.png","../images/cyn_red.png","../images/pnk_blu.png","../images/ylw_slt.png"],"mutagen_generator_assignment":[0,1],"goal":7,"start":3,"action_noise":0.1,"location_history":"[3,0,4,5,4,7]","action_history":"[0,1,1,0,0]","mutagen_history":"[0,1,1,0,0]","location_rts":"[2533,1270,857,970,769]","trial_type":"fractal-mutation","trial_index":66,"time_elapsed":3438261,"internal_node_id":"0.0-5.0-12.0"},{"group":"square cycles (cube, non-group)","fractal_assignment":["../images/org_blu.png","../images/gry_blk.png","../images/ylw_pnk.png","../images/grn_red.png","../images/blu_wht.png","../images/cyn_red.png","../images/pnk_blu.png","../images/ylw_slt.png"],"mutagen_generator_assignment":[0,1],"goal":5,"start":7,"action_noise":0.1,"location_history":"[7,3,2,3,2,3,2,3,0,1,0,4,5]","action_history":"[1,1,0,1,1,1,0,0,1,1,1,1]","mutagen_history":"[1,1,0,1,1,1,0,0,1,1,1,1]","location_rts":"[1860,1478,822,747,558,694,540,1281,489,537,482,442]","trial_type":"fractal-mutation","trial_index":67,"time_elapsed":3465017,"internal_node_id":"0.0-5.0-13.0"},{"group":"square cycles (cube, non-group)","fractal_assignment":["../images/org_blu.png","../images/gry_blk.png","../images/ylw_pnk.png","../images/grn_red.png","../images/blu_wht.png","../images/cyn_red.png","../images/pnk_blu.png","../images/ylw_slt.png"],"mutagen_generator_assignment":[0,1],"goal":2,"start":5,"action_noise":0.1,"location_history":"[5,4,5,4,7,3,0,1,2]","action_history":"[0,0,0,0,1,1,0,0]","mutagen_history":"[0,0,0,0,1,1,0,0]","location_rts":"[1743,640,535,1019,618,512,847,630]","trial_type":"fractal-mutation","trial_index":68,"time_elapsed":3483715,"internal_node_id":"0.0-5.0-14.0"},{"group":"square cycles (cube, non-group)","fractal_assignment":["../images/org_blu.png","../images/gry_blk.png","../images/ylw_pnk.png","../images/grn_red.png","../images/blu_wht.png","../images/cyn_red.png","../images/pnk_blu.png","../images/ylw_slt.png"],"mutagen_generator_assignment":[0,1],"goal":7,"start":2,"action_noise":0.1,"location_history":"[2,6,5,1,2,6,7]","action_history":"[0,0,1,0,0,1]","mutagen_history":"[0,0,1,0,0,1]","location_rts":"[2580,1343,576,770,740,694]","trial_type":"fractal-mutation","trial_index":69,"time_elapsed":3500446,"internal_node_id":"0.0-5.0-15.0"},{"group":"square cycles (cube, non-group)","fractal_assignment":["../images/org_blu.png","../images/gry_blk.png","../images/ylw_pnk.png","../images/grn_red.png","../images/blu_wht.png","../images/cyn_red.png","../images/pnk_blu.png","../images/ylw_slt.png"],"mutagen_generator_assignment":[0,1],"goal":4,"start":7,"action_noise":0.1,"location_history":"[7,3,2,6,7,3,2,3,0,4]","action_history":"[1,1,1,1,0,1,1,0,1]","mutagen_history":"[1,1,1,1,0,1,1,0,1]","location_rts":"[1611,560,522,650,917,477,722,527,534]","trial_type":"fractal-mutation","trial_index":70,"time_elapsed":3520467,"internal_node_id":"0.0-5.0-16.0"},{"group":"square cycles (cube, non-group)","fractal_assignment":["../images/org_blu.png","../images/gry_blk.png","../images/ylw_pnk.png","../images/grn_red.png","../images/blu_wht.png","../images/cyn_red.png","../images/pnk_blu.png","../images/ylw_slt.png"],"mutagen_generator_assignment":[0,1],"goal":2,"start":4,"action_noise":0.1,"location_history":"[4,7,3,0,4,5,4,7,3,0,4,7,3,2]","action_history":"[0,1,0,1,1,0,0,1,0,1,0,1,1]","mutagen_history":"[0,1,0,1,1,0,0,1,0,1,0,1,1]","location_rts":"[1499,727,984,821,709,506,898,939,1299,854,543,398,719]","trial_type":"fractal-mutation","trial_index":71,"time_elapsed":3549228,"internal_node_id":"0.0-5.0-17.0"},{"group":"square cycles (cube, non-group)","fractal_assignment":["../images/org_blu.png","../images/gry_blk.png","../images/ylw_pnk.png","../images/grn_red.png","../images/blu_wht.png","../images/cyn_red.png","../images/pnk_blu.png","../images/ylw_slt.png"],"mutagen_generator_assignment":[0,1],"goal":3,"start":2,"action_noise":0.1,"location_history":"[2,6,5,1,2,6,7,6,7,6,5,1,2,6,7,3]","action_history":"[1,0,1,0,1,1,0,1,0,0,1,0,1,1,1]","mutagen_history":"[1,0,1,0,1,1,0,1,0,0,1,0,1,1,1]","location_rts":"[1981,1717,994,875,865,723,749,698,720,531,627,803,589,883,652]","trial_type":"fractal-mutation","trial_index":72,"time_elapsed":3582694,"internal_node_id":"0.0-5.0-18.0"},{"group":"square cycles (cube, non-group)","fractal_assignment":["../images/org_blu.png","../images/gry_blk.png","../images/ylw_pnk.png","../images/grn_red.png","../images/blu_wht.png","../images/cyn_red.png","../images/pnk_blu.png","../images/ylw_slt.png"],"mutagen_generator_assignment":[0,1],"goal":6,"start":3,"action_noise":0.1,"location_history":"[3,0,4,5,4,5,4,7,3,0,4,7,6]","action_history":"[0,1,1,0,1,1,0,1,0,1,1,0]","mutagen_history":"[0,1,1,0,1,1,0,1,0,1,1,0]","location_rts":"[2059,769,611,741,860,832,453,585,764,670,587,566]","trial_type":"fractal-mutation","trial_index":73,"time_elapsed":3608894,"internal_node_id":"0.0-5.0-19.0"},{"group":"square cycles (cube, non-group)","fractal_assignment":["../images/org_blu.png","../images/gry_blk.png","../images/ylw_pnk.png","../images/grn_red.png","../images/blu_wht.png","../images/cyn_red.png","../images/pnk_blu.png","../images/ylw_slt.png"],"mutagen_generator_assignment":[0,1],"goal":5,"start":6,"action_noise":0.1,"location_history":"[6,5]","action_history":"[0]","mutagen_history":"[0]","location_rts":"[2450]","trial_type":"fractal-mutation","trial_index":74,"time_elapsed":3615904,"internal_node_id":"0.0-5.0-20.0"},{"group":"square cycles (cube, non-group)","fractal_assignment":["../images/org_blu.png","../images/gry_blk.png","../images/ylw_pnk.png","../images/grn_red.png","../images/blu_wht.png","../images/cyn_red.png","../images/pnk_blu.png","../images/ylw_slt.png"],"mutagen_generator_assignment":[0,1],"goal":1,"start":5,"action_noise":0.1,"location_history":"[5,4,7,3,2,6,5,4,7,6,7,3,2,3,0,1]","action_history":"[0,0,0,0,0,1,0,0,0,1,1,0,1,0,0]","mutagen_history":"[0,0,0,0,0,1,0,0,0,1,1,0,1,0,0]","location_rts":"[1518,1003,1152,1112,755,990,618,995,1084,953,603,527,618,471,875]","trial_type":"fractal-mutation","trial_index":75,"time_elapsed":3648929,"internal_node_id":"0.0-5.0-21.0"},{"group":"square cycles (cube, non-group)","fractal_assignment":["../images/org_blu.png","../images/gry_blk.png","../images/ylw_pnk.png","../images/grn_red.png","../images/blu_wht.png","../images/cyn_red.png","../images/pnk_blu.png","../images/ylw_slt.png"],"mutagen_generator_assignment":[0,1],"goal":0,"start":1,"action_noise":0.1,"location_history":"[1,0]","action_history":"[1]","mutagen_history":"[1]","location_rts":"[2365]","trial_type":"fractal-mutation","trial_index":76,"time_elapsed":3655932,"internal_node_id":"0.0-5.0-22.0"},{"group":"square cycles (cube, non-group)","fractal_assignment":["../images/org_blu.png","../images/gry_blk.png","../images/ylw_pnk.png","../images/grn_red.png","../images/blu_wht.png","../images/cyn_red.png","../images/pnk_blu.png","../images/ylw_slt.png"],"mutagen_generator_assignment":[0,1],"goal":2,"start":0,"action_noise":0.1,"location_history":"[0,1,2]","action_history":"[0,0]","mutagen_history":"[0,0]","location_rts":"[6843,791]","trial_type":"fractal-mutation","trial_index":77,"time_elapsed":3669223,"internal_node_id":"0.0-5.0-23.0"},{"group":"square cycles (cube, non-group)","fractal_assignment":["../images/org_blu.png","../images/gry_blk.png","../images/ylw_pnk.png","../images/grn_red.png","../images/blu_wht.png","../images/cyn_red.png","../images/pnk_blu.png","../images/ylw_slt.png"],"mutagen_generator_assignment":[0,1],"goal":6,"start":2,"action_noise":0.1,"location_history":"[2,6]","action_history":"[1]","mutagen_history":"[1]","location_rts":"[1743]","trial_type":"fractal-mutation","trial_index":78,"time_elapsed":3675601,"internal_node_id":"0.0-5.0-24.0"},{"group":"square cycles (cube, non-group)","fractal_assignment":["../images/org_blu.png","../images/gry_blk.png","../images/ylw_pnk.png","../images/grn_red.png","../images/blu_wht.png","../images/cyn_red.png","../images/pnk_blu.png","../images/ylw_slt.png"],"mutagen_generator_assignment":[0,1],"goal":1,"start":6,"action_noise":0.1,"location_history":"[6,5,4,7,6,5,1]","action_history":"[0,0,0,0,0,1]","mutagen_history":"[0,0,0,0,0,1]","location_rts":"[1334,755,958,1111,1181,871]","trial_type":"fractal-mutation","trial_index":79,"time_elapsed":3691758,"internal_node_id":"0.0-5.0-25.0"},{"group":"square cycles (cube, non-group)","fractal_assignment":["../images/org_blu.png","../images/gry_blk.png","../images/ylw_pnk.png","../images/grn_red.png","../images/blu_wht.png","../images/cyn_red.png","../images/pnk_blu.png","../images/ylw_slt.png"],"mutagen_generator_assignment":[0,1],"goal":3,"start":1,"action_noise":0.1,"location_history":"[1,2,6,7,6,5,1,0,4,5,4,7,3]","action_history":"[0,1,1,0,0,1,1,1,1,0,0,1]","mutagen_history":"[0,1,1,0,0,1,1,1,1,0,0,1]","location_rts":"[1816,974,828,828,1941,1209,693,678,472,727,1035,472]","trial_type":"fractal-mutation","trial_index":80,"time_elapsed":3720069,"internal_node_id":"0.0-5.0-26.0"},{"group":"square cycles (cube, non-group)","fractal_assignment":["../images/org_blu.png","../images/gry_blk.png","../images/ylw_pnk.png","../images/grn_red.png","../images/blu_wht.png","../images/cyn_red.png","../images/pnk_blu.png","../images/ylw_slt.png"],"mutagen_generator_assignment":[0,1],"goal":7,"start":3,"action_noise":0.1,"location_history":"[3,0,1,2,3,0,4,5,4,5,1,0,4,5,1,2,3,0,4,7]","action_history":"[0,0,0,0,0,1,0,1,1,0,0,1,0,1,0,0,0,1,0]","mutagen_history":"[0,0,0,0,0,1,0,1,1,0,0,1,0,1,0,0,0,1,0]","location_rts":"[1442,1578,942,737,636,1023,1368,744,458,636,446,1539,1144,1045,781,530,626,663,880]","trial_type":"fractal-mutation","trial_index":81,"time_elapsed":3761389,"internal_node_id":"0.0-5.0-27.0"},{"group":"square cycles (cube, non-group)","fractal_assignment":["../images/org_blu.png","../images/gry_blk.png","../images/ylw_pnk.png","../images/grn_red.png","../images/blu_wht.png","../images/cyn_red.png","../images/pnk_blu.png","../images/ylw_slt.png"],"mutagen_generator_assignment":[0,1],"goal":4,"start":7,"action_noise":0.1,"location_history":"[7,3,2,6,5,1,2,6,5,1,0,4]","action_history":"[1,1,1,0,1,0,1,0,1,1,1]","mutagen_history":"[1,1,1,0,1,0,1,0,1,1,1]","location_rts":"[1680,495,481,599,501,641,527,602,363,879,463]","trial_type":"fractal-mutation","trial_index":82,"time_elapsed":3784287,"internal_node_id":"0.0-5.0-28.0"},{"group":"square cycles (cube, non-group)","fractal_assignment":["../images/org_blu.png","../images/gry_blk.png","../images/ylw_pnk.png","../images/grn_red.png","../images/blu_wht.png","../images/cyn_red.png","../images/pnk_blu.png","../images/ylw_slt.png"],"mutagen_generator_assignment":[0,1],"goal":0,"start":4,"action_noise":0.1,"location_history":"[4,7,3,0]","action_history":"[0,1,0]","mutagen_history":"[0,1,0]","location_rts":"[1423,1231,688]","trial_type":"fractal-mutation","trial_index":83,"time_elapsed":3794386,"internal_node_id":"0.0-5.0-29.0"},{"group":"square cycles (cube, non-group)","fractal_assignment":["../images/org_blu.png","../images/gry_blk.png","../images/ylw_pnk.png","../images/grn_red.png","../images/blu_wht.png","../images/cyn_red.png","../images/pnk_blu.png","../images/ylw_slt.png"],"mutagen_generator_assignment":[0,1],"goal":5,"start":0,"action_noise":0.1,"location_history":"[0,1,0,4,5]","action_history":"[1,1,1,1]","mutagen_history":"[1,1,1,1]","location_rts":"[1643,604,799,680]","trial_type":"fractal-mutation","trial_index":84,"time_elapsed":3806129,"internal_node_id":"0.0-5.0-30.0"},{"group":"square cycles (cube, non-group)","fractal_assignment":["../images/org_blu.png","../images/gry_blk.png","../images/ylw_pnk.png","../images/grn_red.png","../images/blu_wht.png","../images/cyn_red.png","../images/pnk_blu.png","../images/ylw_slt.png"],"mutagen_generator_assignment":[0,1],"goal":3,"start":5,"action_noise":0.1,"location_history":"[5,4,7,3]","action_history":"[0,0,0]","mutagen_history":"[0,0,0]","location_rts":"[1789,806,711]","trial_type":"fractal-mutation","trial_index":85,"time_elapsed":3816129,"internal_node_id":"0.0-5.0-31.0"},{"group":"square cycles (cube, non-group)","fractal_assignment":["../images/org_blu.png","../images/gry_blk.png","../images/ylw_pnk.png","../images/grn_red.png","../images/blu_wht.png","../images/cyn_red.png","../images/pnk_blu.png","../images/ylw_slt.png"],"mutagen_generator_assignment":[0,1],"goal":2,"start":3,"action_noise":0.1,"location_history":"[3,0,1,2]","action_history":"[0,1,1]","mutagen_history":"[0,1,1]","location_rts":"[1593,919,817]","trial_type":"fractal-mutation","trial_index":86,"time_elapsed":3826268,"internal_node_id":"0.0-5.0-32.0"},{"group":"square cycles (cube, non-group)","fractal_assignment":["../images/org_blu.png","../images/gry_blk.png","../images/ylw_pnk.png","../images/grn_red.png","../images/blu_wht.png","../images/cyn_red.png","../images/pnk_blu.png","../images/ylw_slt.png"],"mutagen_generator_assignment":[0,1],"goal":6,"start":2,"action_noise":0.1,"location_history":"[2,3,2,6]","action_history":"[0,1,1]","mutagen_history":"[0,1,1]","location_rts":"[1602,881,847]","trial_type":"fractal-mutation","trial_index":87,"time_elapsed":3836425,"internal_node_id":"0.0-5.0-33.0"},{"group":"square cycles (cube, non-group)","fractal_assignment":["../images/org_blu.png","../images/gry_blk.png","../images/ylw_pnk.png","../images/grn_red.png","../images/blu_wht.png","../images/cyn_red.png","../images/pnk_blu.png","../images/ylw_slt.png"],"mutagen_generator_assignment":[0,1],"goal":1,"start":6,"action_noise":0.1,"location_history":"[6,5,4,7,3,2,3,2,6,5,4,5,4,7,6,7,3,0,1]","action_history":"[0,0,0,0,1,0,1,1,0,0,1,0,0,0,1,1,0,0]","mutagen_history":"[0,0,0,0,1,0,1,1,0,0,1,0,0,0,1,1,0,0]","location_rts":"[1309,828,649,983,766,697,549,508,649,609,446,892,737,824,959,529,847,558]","trial_type":"fractal-mutation","trial_index":88,"time_elapsed":3872885,"internal_node_id":"0.0-5.0-34.0"},{"group":"square cycles (cube, non-group)","fractal_assignment":["../images/org_blu.png","../images/gry_blk.png","../images/ylw_pnk.png","../images/grn_red.png","../images/blu_wht.png","../images/cyn_red.png","../images/pnk_blu.png","../images/ylw_slt.png"],"mutagen_generator_assignment":[0,1],"goal":7,"start":1,"action_noise":0.1,"location_history":"[1,0,4,7]","action_history":"[1,0,1]","mutagen_history":"[1,0,1]","location_rts":"[1946,1117,1574]","trial_type":"fractal-mutation","trial_index":89,"time_elapsed":3884348,"internal_node_id":"0.0-5.0-35.0"},{"group":"square cycles (cube, non-group)","fractal_assignment":["../images/org_blu.png","../images/gry_blk.png","../images/ylw_pnk.png","../images/grn_red.png","../images/blu_wht.png","../images/cyn_red.png","../images/pnk_blu.png","../images/ylw_slt.png"],"mutagen_generator_assignment":[0,1],"goal":4,"start":7,"action_noise":0.1,"location_history":"[7,3,0,1,0,1,0,4]","action_history":"[1,0,0,1,1,0,1]","mutagen_history":"[1,0,0,1,1,0,1]","location_rts":"[1714,1084,579,548,557,1056,567]","trial_type":"fractal-mutation","trial_index":90,"time_elapsed":3901661,"internal_node_id":"0.0-5.0-36.0"},{"group":"square cycles (cube, non-group)","fractal_assignment":["../images/org_blu.png","../images/gry_blk.png","../images/ylw_pnk.png","../images/grn_red.png","../images/blu_wht.png","../images/cyn_red.png","../images/pnk_blu.png","../images/ylw_slt.png"],"mutagen_generator_assignment":[0,1],"goal":5,"start":4,"action_noise":0.1,"location_history":"[4,7,3,0,4,5]","action_history":"[0,1,0,1,1]","mutagen_history":"[0,1,0,1,1]","location_rts":"[2778,1359,1191,549,778]","trial_type":"fractal-mutation","trial_index":91,"time_elapsed":3917413,"internal_node_id":"0.0-5.0-37.0"},{"group":"square cycles (cube, non-group)","fractal_assignment":["../images/org_blu.png","../images/gry_blk.png","../images/ylw_pnk.png","../images/grn_red.png","../images/blu_wht.png","../images/cyn_red.png","../images/pnk_blu.png","../images/ylw_slt.png"],"mutagen_generator_assignment":[0,1],"goal":0,"start":5,"action_noise":0.1,"location_history":"[5,4,7,6,5,4,7,3,2,6,5,4,5,4,7,6,5,4,7,3,0]","action_history":"[0,0,1,0,0,0,1,1,1,1,0,0,0,0,0,0,0,0,1,0]","mutagen_history":"[0,0,1,0,0,0,1,1,1,1,0,0,0,0,0,0,0,0,1,0]","location_rts":"[1394,718,1501,676,657,593,2739,654,412,483,1083,510,389,434,741,793,476,447,939,504]","trial_type":"fractal-mutation","trial_index":92,"time_elapsed":3958703,"internal_node_id":"0.0-5.0-38.0"},{"group":"square cycles (cube, non-group)","fractal_assignment":["../images/org_blu.png","../images/gry_blk.png","../images/ylw_pnk.png","../images/grn_red.png","../images/blu_wht.png","../images/cyn_red.png","../images/pnk_blu.png","../images/ylw_slt.png"],"mutagen_generator_assignment":[0,1],"goal":4,"start":0,"action_noise":0.1,"location_history":"[0,4]","action_history":"[1]","mutagen_history":"[1]","location_rts":"[1558]","trial_type":"fractal-mutation","trial_index":93,"time_elapsed":3964880,"internal_node_id":"0.0-5.0-39.0"},{"group":"square cycles (cube, non-group)","fractal_assignment":["../images/org_blu.png","../images/gry_blk.png","../images/ylw_pnk.png","../images/grn_red.png","../images/blu_wht.png","../images/cyn_red.png","../images/pnk_blu.png","../images/ylw_slt.png"],"mutagen_generator_assignment":[0,1],"goal":0,"start":4,"action_noise":0.1,"location_history":"[4,7,3,2,3,0]","action_history":"[0,1,0,0,0]","mutagen_history":"[0,1,0,0,0]","location_rts":"[2638,2608,774,616,716]","trial_type":"fractal-mutation","trial_index":94,"time_elapsed":3981104,"internal_node_id":"0.0-5.0-40.0"},{"group":"square cycles (cube, non-group)","fractal_assignment":["../images/org_blu.png","../images/gry_blk.png","../images/ylw_pnk.png","../images/grn_red.png","../images/blu_wht.png","../images/cyn_red.png","../images/pnk_blu.png","../images/ylw_slt.png"],"mutagen_generator_assignment":[0,1],"goal":2,"start":0,"action_noise":0.1,"location_history":"[0,4,5,1,2]","action_history":"[1,1,1,0]","mutagen_history":"[1,1,1,0]","location_rts":"[1839,617,494,633]","trial_type":"fractal-mutation","trial_index":95,"time_elapsed":3992629,"internal_node_id":"0.0-5.0-41.0"},{"group":"square cycles (cube, non-group)","fractal_assignment":["../images/org_blu.png","../images/gry_blk.png","../images/ylw_pnk.png","../images/grn_red.png","../images/blu_wht.png","../images/cyn_red.png","../images/pnk_blu.png","../images/ylw_slt.png"],"mutagen_generator_assignment":[0,1],"goal":3,"start":2,"action_noise":0.1,"location_history":"[2,6,7,6,5,4,5,1,2,6,5,4,5,1,2,6,7,3]","action_history":"[1,1,1,1,0,1,1,0,1,0,0,1,1,0,0,1,1]","mutagen_history":"[1,1,1,1,0,1,1,0,1,0,0,1,1,0,0,1,1]","location_rts":"[1659,632,602,17220,1391,1164,913,705,1258,786,672,428,697,624,1561,970,437]","trial_type":"fractal-mutation","trial_index":96,"time_elapsed":4046623,"internal_node_id":"0.0-5.0-42.0"},{"group":"square cycles (cube, non-group)","fractal_assignment":["../images/org_blu.png","../images/gry_blk.png","../images/ylw_pnk.png","../images/grn_red.png","../images/blu_wht.png","../images/cyn_red.png","../images/pnk_blu.png","../images/ylw_slt.png"],"mutagen_generator_assignment":[0,1],"goal":5,"start":3,"action_noise":0.1,"location_history":"[3,2,6,7,6,7,3,0,4,5]","action_history":"[0,1,1,0,1,1,0,1,1]","mutagen_history":"[0,1,1,0,1,1,0,1,1]","location_rts":"[1503,713,709,500,491,444,1006,822,463]","trial_type":"fractal-mutation","trial_index":97,"time_elapsed":4066760,"internal_node_id":"0.0-5.0-43.0"},{"group":"square cycles (cube, non-group)","fractal_assignment":["../images/org_blu.png","../images/gry_blk.png","../images/ylw_pnk.png","../images/grn_red.png","../images/blu_wht.png","../images/cyn_red.png","../images/pnk_blu.png","../images/ylw_slt.png"],"mutagen_generator_assignment":[0,1],"goal":1,"start":5,"action_noise":0.1,"location_history":"[5,4,5,4,7,3,0,4,7,3,2,3,0,1]","action_history":"[0,1,0,0,1,0,0,0,1,1,0,0,0]","mutagen_history":"[0,1,0,0,1,0,0,0,1,1,0,0,0]","location_rts":"[1597,1056,660,467,513,538,609,780,691,788,467,543,657]","trial_type":"fractal-mutation","trial_index":98,"time_elapsed":4093733,"internal_node_id":"0.0-5.0-44.0"},{"group":"square cycles (cube, non-group)","fractal_assignment":["../images/org_blu.png","../images/gry_blk.png","../images/ylw_pnk.png","../images/grn_red.png","../images/blu_wht.png","../images/cyn_red.png","../images/pnk_blu.png","../images/ylw_slt.png"],"mutagen_generator_assignment":[0,1],"goal":7,"start":1,"action_noise":0.1,"location_history":"[1,2,3,0,4,7]","action_history":"[1,0,0,1,0]","mutagen_history":"[1,0,0,1,0]","location_rts":"[2042,927,690,509,474]","trial_type":"fractal-mutation","trial_index":99,"time_elapsed":4107297,"internal_node_id":"0.0-5.0-45.0"},{"group":"square cycles (cube, non-group)","fractal_assignment":["../images/org_blu.png","../images/gry_blk.png","../images/ylw_pnk.png","../images/grn_red.png","../images/blu_wht.png","../images/cyn_red.png","../images/pnk_blu.png","../images/ylw_slt.png"],"mutagen_generator_assignment":[0,1],"goal":6,"start":7,"action_noise":0.1,"location_history":"[7,3,2,3,2,6]","action_history":"[1,0,0,1,1]","mutagen_history":"[1,0,0,1,1]","location_rts":"[1462,806,937,616,596]","trial_type":"fractal-mutation","trial_index":100,"time_elapsed":4120685,"internal_node_id":"0.0-5.0-46.0"},{"group":"square cycles (cube, non-group)","fractal_assignment":["../images/org_blu.png","../images/gry_blk.png","../images/ylw_pnk.png","../images/grn_red.png","../images/blu_wht.png","../images/cyn_red.png","../images/pnk_blu.png","../images/ylw_slt.png"],"mutagen_generator_assignment":[0,1],"goal":3,"start":6,"action_noise":0.1,"location_history":"[6,7,3]","action_history":"[1,1]","mutagen_history":"[1,1]","location_rts":"[1576,622]","trial_type":"fractal-mutation","trial_index":101,"time_elapsed":4128603,"internal_node_id":"0.0-5.0-47.0"},{"group":"square cycles (cube, non-group)","fractal_assignment":["../images/org_blu.png","../images/gry_blk.png","../images/ylw_pnk.png","../images/grn_red.png","../images/blu_wht.png","../images/cyn_red.png","../images/pnk_blu.png","../images/ylw_slt.png"],"mutagen_generator_assignment":[0,1],"goal":0,"start":3,"action_noise":0.1,"location_history":"[3,0]","action_history":"[0]","mutagen_history":"[0]","location_rts":"[1402]","trial_type":"fractal-mutation","trial_index":102,"time_elapsed":4134570,"internal_node_id":"0.0-5.0-48.0"},{"group":"square cycles (cube, non-group)","fractal_assignment":["../images/org_blu.png","../images/gry_blk.png","../images/ylw_pnk.png","../images/grn_red.png","../images/blu_wht.png","../images/cyn_red.png","../images/pnk_blu.png","../images/ylw_slt.png"],"mutagen_generator_assignment":[0,1],"goal":2,"start":0,"action_noise":0.1,"location_history":"[0,4,5,4,7,3,0,4,5,1,0,1,0,1,0,1,2]","action_history":"[1,1,0,1,1,0,1,0,1,1,0,1,1,1,0,0]","mutagen_history":"[1,1,0,1,1,0,1,0,1,1,0,1,1,1,0,0]","location_rts":"[1564,756,737,549,548,771,898,565,737,689,838,520,929,496,375,824]","trial_type":"fractal-mutation","trial_index":103,"time_elapsed":4167483,"internal_node_id":"0.0-5.0-49.0"},{"view_history":"[{\"page_index\":0,\"viewing_time\":4062}]","rt":4062,"trial_type":"instructions","trial_index":104,"time_elapsed":4172545,"internal_node_id":"0.0-6.0"},{"rt":3366,"responses":"{\"Q0\":\"\"}","trial_type":"survey-text","trial_index":105,"time_elapsed":4176916,"internal_node_id":"0.0-7.0"}]