[{"view_history":"[{\"page_index\":0,\"viewing_time\":7889},{\"page_index\":1,\"viewing_time\":14771},{\"page_index\":2,\"viewing_time\":17583},{\"page_index\":3,\"viewing_time\":7208}]","rt":47453,"trial_type":"instructions","trial_index":0,"time_elapsed":47454,"internal_node_id":"0.0-0.0"},{"view_history":"[{\"page_index\":0,\"viewing_time\":3873},{\"page_index\":1,\"viewing_time\":31555}]","rt":35429,"trial_type":"instructions","trial_index":1,"time_elapsed":83885,"internal_node_id":"0.0-1.0"},{"group":"tri cycles (cube, non-group)","room_assignment":["brown","green","grey","pink","purple","yellow","red","blue"],"door_color_assignment":["white","black"],"door_generator_assignment":[0,1],"goal":3,"start":0,"action_noise":0.1,"location_history":"[0,3]","action_history":"[1]","door_history":"[1]","location_rts":"[43939]","trial_type":"two-door-navigation","trial_index":2,"time_elapsed":132374,"internal_node_id":"0.0-2.0-0.0"},{"group":"tri cycles (cube, non-group)","room_assignment":["brown","green","grey","pink","purple","yellow","red","blue"],"door_color_assignment":["white","black"],"door_generator_assignment":[0,1],"goal":1,"start":3,"action_noise":0.1,"location_history":"[3,7,6,4,7,3,4,0,3,4,0,3,7,3,7,6,4,0,3,4,7,6,5,2,6,4,7,6,4,7,6,5,1]","action_history":"[0,0,0,0,1,1,1,1,1,1,1,0,1,0,0,0,1,1,1,0,0,1,1,1,0,0,0,0,0,0,1,0]","door_history":"[0,0,0,0,1,1,1,1,1,1,1,0,1,0,0,0,1,1,1,0,0,1,1,1,0,0,0,0,0,0,1,0]","location_rts":"[3787,2719,1266,750,1146,1201,649,720,539,658,601,983,1041,992,776,624,1056,597,833,433,673,778,1688,1411,1066,498,496,554,763,472,951,1358]","trial_type":"two-door-navigation","trial_index":3,"time_elapsed":200714,"internal_node_id":"0.0-2.0-1.0"},{"group":"tri cycles (cube, non-group)","room_assignment":["brown","green","grey","pink","purple","yellow","red","blue"],"door_color_assignment":["white","black"],"door_generator_assignment":[0,1],"goal":2,"start":1,"action_noise":0.1,"location_history":"[1,5,2]","action_history":"[1,1]","door_history":"[1,1]","location_rts":"[9286,591]","trial_type":"two-door-navigation","trial_index":4,"time_elapsed":216143,"internal_node_id":"0.0-2.0-2.0"},{"group":"tri cycles (cube, non-group)","room_assignment":["brown","green","grey","pink","purple","yellow","red","blue"],"door_color_assignment":["white","black"],"door_generator_assignment":[0,1],"goal":6,"start":2,"action_noise":0.1,"location_history":"[2,6]","action_history":"[1]","door_history":"[1]","location_rts":"[1913]","trial_type":"two-door-navigation","trial_index":5,"time_elapsed":222582,"internal_node_id":"0.0-2.0-3.0"},{"group":"tri cycles (cube, non-group)","room_assignment":["brown","green","grey","pink","purple","yellow","red","blue"],"door_color_assignment":["white","black"],"door_generator_assignment":[0,1],"goal":5,"start":6,"action_noise":0.1,"location_history":"[6,4,0,2,6,4,7,6,4,7,3,4,7,6,4,0,2,1,0,2,6,5]","action_history":"[1,1,1,1,0,0,0,0,0,1,1,0,0,0,0,0,0,0,0,1,1]","door_history":"[1,1,1,1,0,0,0,0,0,1,1,0,0,0,0,0,0,0,0,1,1]","location_rts":"[2786,470,614,432,731,450,425,594,542,1234,584,861,411,484,12642,558,423,522,555,423,468]","trial_type":"two-door-navigation","trial_index":6,"time_elapsed":273784,"internal_node_id":"0.0-2.0-4.0"},{"group":"tri cycles (cube, non-group)","room_assignment":["brown","green","grey","pink","purple","yellow","red","blue"],"door_color_assignment":["white","black"],"door_generator_assignment":[0,1],"goal":4,"start":5,"action_noise":0.1,"location_history":"[5,2,6,5,2,6,5,1,0,3,7,6,4]","action_history":"[1,1,1,1,1,1,0,0,0,0,0,0]","door_history":"[1,1,1,1,1,1,0,0,0,0,0,0]","location_rts":"[1503,409,617,484,443,577,640,523,415,417,682,520]","trial_type":"two-door-navigation","trial_index":7,"time_elapsed":296792,"internal_node_id":"0.0-2.0-5.0"},{"group":"tri cycles (cube, non-group)","room_assignment":["brown","green","grey","pink","purple","yellow","red","blue"],"door_color_assignment":["white","black"],"door_generator_assignment":[0,1],"goal":7,"start":4,"action_noise":0.1,"location_history":"[4,0,3,4,0,3,4,7]","action_history":"[1,1,1,1,1,1,0]","door_history":"[1,1,1,1,1,1,0]","location_rts":"[4888,360,554,684,416,422,1024]","trial_type":"two-door-navigation","trial_index":8,"time_elapsed":315809,"internal_node_id":"0.0-2.0-6.0"},{"group":"tri cycles (cube, non-group)","room_assignment":["brown","green","grey","pink","purple","yellow","red","blue"],"door_color_assignment":["white","black"],"door_generator_assignment":[0,1],"goal":4,"start":7,"action_noise":0.1,"location_history":"[7,3,4]","action_history":"[1,1]","door_history":"[1,1]","location_rts":"[1470,393]","trial_type":"two-door-navigation","trial_index":9,"time_elapsed":323222,"internal_node_id":"0.0-2.0-7.0"},{"group":"tri cycles (cube, non-group)","room_assignment":["brown","green","grey","pink","purple","yellow","red","blue"],"door_color_assignment":["white","black"],"door_generator_assignment":[0,1],"goal":6,"start":4,"action_noise":0.1,"location_history":"[4,0,3,4,0,3,7,3,7,6]","action_history":"[1,1,1,1,1,0,0,0,0]","door_history":"[1,1,1,1,1,0,0,0,0]","location_rts":"[919,392,410,432,481,603,616,530,402]","trial_type":"two-door-navigation","trial_index":10,"time_elapsed":340718,"internal_node_id":"0.0-2.0-8.0"},{"group":"tri cycles (cube, non-group)","room_assignment":["brown","green","grey","pink","purple","yellow","red","blue"],"door_color_assignment":["white","black"],"door_generator_assignment":[0,1],"goal":0,"start":6,"action_noise":0.1,"location_history":"[6,4,7,3,4,0]","action_history":"[0,0,1,1,1]","door_history":"[0,0,1,1,1]","location_rts":"[1569,380,824,618,368]","trial_type":"two-door-navigation","trial_index":11,"time_elapsed":353106,"internal_node_id":"0.0-2.0-9.0"},{"group":"tri cycles (cube, non-group)","room_assignment":["brown","green","grey","pink","purple","yellow","red","blue"],"door_color_assignment":["white","black"],"door_generator_assignment":[0,1],"goal":1,"start":0,"action_noise":0.1,"location_history":"[0,2,6,5,1]","action_history":"[1,1,1,0]","door_history":"[1,1,1,0]","location_rts":"[1019,411,561,905]","trial_type":"two-door-navigation","trial_index":12,"time_elapsed":363600,"internal_node_id":"0.0-2.0-10.0"},{"group":"tri cycles (cube, non-group)","room_assignment":["brown","green","grey","pink","purple","yellow","red","blue"],"door_color_assignment":["white","black"],"door_generator_assignment":[0,1],"goal":3,"start":1,"action_noise":0.1,"location_history":"[1,0,2,1,0,2,6,5,2,6,5,2,1,0,2,6,5,2,6,4,7,3]","action_history":"[0,0,0,0,0,1,1,1,1,1,1,0,0,0,1,1,1,0,0,0,1]","door_history":"[0,0,0,0,0,1,1,1,1,1,1,0,0,0,1,1,1,0,0,0,1]","location_rts":"[1503,841,427,410,738,448,440,457,496,430,537,834,402,548,355,389,520,627,449,434,625]","trial_type":"two-door-navigation","trial_index":13,"time_elapsed":400510,"internal_node_id":"0.0-2.0-11.0"},{"group":"tri cycles (cube, non-group)","room_assignment":["brown","green","grey","pink","purple","yellow","red","blue"],"door_color_assignment":["white","black"],"door_generator_assignment":[0,1],"goal":7,"start":3,"action_noise":0.1,"location_history":"[3,7]","action_history":"[0]","door_history":"[0]","location_rts":"[7136]","trial_type":"two-door-navigation","trial_index":14,"time_elapsed":412175,"internal_node_id":"0.0-2.0-12.0"},{"group":"tri cycles (cube, non-group)","room_assignment":["brown","green","grey","pink","purple","yellow","red","blue"],"door_color_assignment":["white","black"],"door_generator_assignment":[0,1],"goal":5,"start":7,"action_noise":0.1,"location_history":"[7,3,4,0,3,7,6,5]","action_history":"[1,1,1,1,0,0,1]","door_history":"[1,1,1,1,0,0,1]","location_rts":"[2030,763,695,1248,1320,474,950]","trial_type":"two-door-navigation","trial_index":15,"time_elapsed":430326,"internal_node_id":"0.0-2.0-13.0"},{"group":"tri cycles (cube, non-group)","room_assignment":["brown","green","grey","pink","purple","yellow","red","blue"],"door_color_assignment":["white","black"],"door_generator_assignment":[0,1],"goal":2,"start":5,"action_noise":0.1,"location_history":"[5,2]","action_history":"[1]","door_history":"[1]","location_rts":"[6377]","trial_type":"two-door-navigation","trial_index":16,"time_elapsed":441232,"internal_node_id":"0.0-2.0-14.0"},{"group":"tri cycles (cube, non-group)","room_assignment":["brown","green","grey","pink","purple","yellow","red","blue"],"door_color_assignment":["white","black"],"door_generator_assignment":[0,1],"goal":7,"start":2,"action_noise":0.1,"location_history":"[2,1,0,2,1,5,2,6,5,2,6,4,7]","action_history":"[0,0,0,0,1,1,1,1,1,1,0,0]","door_history":"[0,0,0,0,1,1,1,1,1,1,0,0]","location_rts":"[3245,410,435,865,1059,384,401,375,394,634,362,620]","trial_type":"two-door-navigation","trial_index":17,"time_elapsed":466198,"internal_node_id":"0.0-2.0-15.0"},{"group":"tri cycles (cube, non-group)","room_assignment":["brown","green","grey","pink","purple","yellow","red","blue"],"door_color_assignment":["white","black"],"door_generator_assignment":[0,1],"goal":4,"start":7,"action_noise":0.1,"location_history":"[7,6,4]","action_history":"[0,0]","door_history":"[0,0]","location_rts":"[1551,394]","trial_type":"two-door-navigation","trial_index":18,"time_elapsed":473694,"internal_node_id":"0.0-2.0-16.0"},{"group":"tri cycles (cube, non-group)","room_assignment":["brown","green","grey","pink","purple","yellow","red","blue"],"door_color_assignment":["white","black"],"door_generator_assignment":[0,1],"goal":2,"start":4,"action_noise":0.1,"location_history":"[4,7,6,4,7,3,4,0,3,4,0,2]","action_history":"[0,0,0,0,1,1,1,1,1,1,0]","door_history":"[0,0,0,0,1,1,1,1,1,1,0]","location_rts":"[1447,376,403,470,345,696,409,434,666,370,631]","trial_type":"two-door-navigation","trial_index":19,"time_elapsed":494695,"internal_node_id":"0.0-2.0-17.0"},{"group":"tri cycles (cube, non-group)","room_assignment":["brown","green","grey","pink","purple","yellow","red","blue"],"door_color_assignment":["white","black"],"door_generator_assignment":[0,1],"goal":3,"start":2,"action_noise":0.1,"location_history":"[2,1,5,2,6,5,1,0,2,1,5,2,1,0,2,1,5,2,6,5,2,6,4,7,3]","action_history":"[0,1,1,1,1,1,0,0,0,1,1,0,0,0,0,1,1,1,1,1,1,0,0,0]","door_history":"[0,1,1,1,1,1,0,0,0,1,1,0,0,0,0,1,1,1,1,1,1,0,0,0]","location_rts":"[1871,760,419,362,466,442,897,457,415,306,434,917,353,676,467,354,443,616,362,459,450,738,415,528]","trial_type":"two-door-navigation","trial_index":20,"time_elapsed":536351,"internal_node_id":"0.0-2.0-18.0"},{"group":"tri cycles (cube, non-group)","room_assignment":["brown","green","grey","pink","purple","yellow","red","blue"],"door_color_assignment":["white","black"],"door_generator_assignment":[0,1],"goal":6,"start":3,"action_noise":0.1,"location_history":"[3,7,3,7,6]","action_history":"[0,0,0,0]","door_history":"[0,0,0,0]","location_rts":"[1623,425,378,442]","trial_type":"two-door-navigation","trial_index":21,"time_elapsed":546814,"internal_node_id":"0.0-2.0-19.0"},{"group":"tri cycles (cube, non-group)","room_assignment":["brown","green","grey","pink","purple","yellow","red","blue"],"door_color_assignment":["white","black"],"door_generator_assignment":[0,1],"goal":5,"start":6,"action_noise":0.1,"location_history":"[6,4,7,6,5]","action_history":"[0,0,1,1]","door_history":"[0,0,1,1]","location_rts":"[2049,699,487,450]","trial_type":"two-door-navigation","trial_index":22,"time_elapsed":558093,"internal_node_id":"0.0-2.0-20.0"},{"group":"tri cycles (cube, non-group)","room_assignment":["brown","green","grey","pink","purple","yellow","red","blue"],"door_color_assignment":["white","black"],"door_generator_assignment":[0,1],"goal":1,"start":5,"action_noise":0.1,"location_history":"[5,1]","action_history":"[1]","door_history":"[1]","location_rts":"[1586]","trial_type":"two-door-navigation","trial_index":23,"time_elapsed":564206,"internal_node_id":"0.0-2.0-21.0"},{"group":"tri cycles (cube, non-group)","room_assignment":["brown","green","grey","pink","purple","yellow","red","blue"],"door_color_assignment":["white","black"],"door_generator_assignment":[0,1],"goal":0,"start":1,"action_noise":0.1,"location_history":"[1,0]","action_history":"[0]","door_history":"[0]","location_rts":"[2429]","trial_type":"two-door-navigation","trial_index":24,"time_elapsed":571172,"internal_node_id":"0.0-2.0-22.0"},{"group":"tri cycles (cube, non-group)","room_assignment":["brown","green","grey","pink","purple","yellow","red","blue"],"door_color_assignment":["white","black"],"door_generator_assignment":[0,1],"goal":2,"start":0,"action_noise":0.1,"location_history":"[0,3,7,6,5,1,5,2]","action_history":"[0,0,0,1,1,1,1]","door_history":"[0,0,0,1,1,1,1]","location_rts":"[1152,647,662,898,433,304,426]","trial_type":"two-door-navigation","trial_index":25,"time_elapsed":586377,"internal_node_id":"0.0-2.0-23.0"},{"group":"tri cycles (cube, non-group)","room_assignment":["brown","green","grey","pink","purple","yellow","red","blue"],"door_color_assignment":["white","black"],"door_generator_assignment":[0,1],"goal":6,"start":2,"action_noise":0.1,"location_history":"[2,6]","action_history":"[1]","door_history":"[1]","location_rts":"[1184]","trial_type":"two-door-navigation","trial_index":26,"time_elapsed":592087,"internal_node_id":"0.0-2.0-24.0"},{"group":"tri cycles (cube, non-group)","room_assignment":["brown","green","grey","pink","purple","yellow","red","blue"],"door_color_assignment":["white","black"],"door_generator_assignment":[0,1],"goal":1,"start":6,"action_noise":0.1,"location_history":"[6,4,0,3,4,0,3,7,6,5,1]","action_history":"[1,1,1,1,1,1,0,0,0,0]","door_history":"[1,1,1,1,1,1,0,0,0,0]","location_rts":"[918,416,394,400,1139,858,10867,544,424,484]","trial_type":"two-door-navigation","trial_index":27,"time_elapsed":622268,"internal_node_id":"0.0-2.0-25.0"},{"group":"tri cycles (cube, non-group)","room_assignment":["brown","green","grey","pink","purple","yellow","red","blue"],"door_color_assignment":["white","black"],"door_generator_assignment":[0,1],"goal":3,"start":1,"action_noise":0.1,"location_history":"[1,0,2,1,5,2,6,4,7,6,4,7,6,5,2,6,5,1,0,2,1,5,2,1,5,1,0,2,6,5,2,6,4,7,6,4,7,6,4,7,3]","action_history":"[0,0,0,1,1,1,0,0,0,0,0,0,1,1,1,1,0,0,0,0,1,1,1,1,0,0,0,1,1,1,1,0,0,0,0,0,0,0,0,1]","door_history":"[0,0,0,1,1,1,0,0,0,0,0,0,1,1,1,1,0,0,0,0,1,1,1,1,0,0,0,1,1,1,1,0,0,0,0,0,0,0,0,1]","location_rts":"[1409,344,418,912,378,659,678,386,382,410,407,379,721,398,432,946,665,416,482,461,388,373,462,616,1099,433,758,1124,400,450,408,828,444,379,401,412,482,401,434,1105]","trial_type":"two-door-navigation","trial_index":28,"time_elapsed":689373,"internal_node_id":"0.0-2.0-26.0"},{"group":"tri cycles (cube, non-group)","room_assignment":["brown","green","grey","pink","purple","yellow","red","blue"],"door_color_assignment":["white","black"],"door_generator_assignment":[0,1],"goal":7,"start":3,"action_noise":0.1,"location_history":"[3,7]","action_history":"[0]","door_history":"[0]","location_rts":"[2569]","trial_type":"two-door-navigation","trial_index":29,"time_elapsed":696470,"internal_node_id":"0.0-2.0-27.0"},{"group":"tri cycles (cube, non-group)","room_assignment":["brown","green","grey","pink","purple","yellow","red","blue"],"door_color_assignment":["white","black"],"door_generator_assignment":[0,1],"goal":4,"start":7,"action_noise":0.1,"location_history":"[7,6,4]","action_history":"[0,0]","door_history":"[0,0]","location_rts":"[7479,481]","trial_type":"two-door-navigation","trial_index":30,"time_elapsed":709979,"internal_node_id":"0.0-2.0-28.0"},{"group":"tri cycles (cube, non-group)","room_assignment":["brown","green","grey","pink","purple","yellow","red","blue"],"door_color_assignment":["white","black"],"door_generator_assignment":[0,1],"goal":0,"start":4,"action_noise":0.1,"location_history":"[4,7,3,7,6,5,2,6,5,2,1,0]","action_history":"[0,0,0,0,1,1,1,1,1,0,0]","door_history":"[0,0,0,0,1,1,1,1,1,0,0]","location_rts":"[1053,511,843,411,367,315,311,363,399,481,378]","trial_type":"two-door-navigation","trial_index":31,"time_elapsed":730167,"internal_node_id":"0.0-2.0-29.0"},{"group":"tri cycles (cube, non-group)","room_assignment":["brown","green","grey","pink","purple","yellow","red","blue"],"door_color_assignment":["white","black"],"door_generator_assignment":[0,1],"goal":5,"start":0,"action_noise":0.1,"location_history":"[0,2,1,0,3,7,3,4,0,3,4,0,3,4,7,6,4,7,6,5]","action_history":"[0,0,0,0,0,1,1,1,1,1,1,1,1,0,0,0,0,0,1]","door_history":"[0,0,0,0,0,1,1,1,1,1,1,1,1,0,0,0,0,0,1]","location_rts":"[1269,431,395,1042,1432,386,515,377,17563,1120,427,489,483,1675,369,385,387,393,978]","trial_type":"two-door-navigation","trial_index":32,"time_elapsed":783213,"internal_node_id":"0.0-2.0-30.0"},{"group":"tri cycles (cube, non-group)","room_assignment":["brown","green","grey","pink","purple","yellow","red","blue"],"door_color_assignment":["white","black"],"door_generator_assignment":[0,1],"goal":3,"start":5,"action_noise":0.1,"location_history":"[5,1,0,2,1,5,2,1,5,2,1,0,2,1,0,2,1,5,2,6,4,7,6,4,7,3]","action_history":"[0,0,0,0,1,1,1,1,0,0,0,0,0,0,0,0,1,1,0,0,0,0,0,1,1]","door_history":"[0,0,0,0,1,1,1,1,0,0,0,0,0,0,0,0,1,1,0,0,0,0,0,1,1]","location_rts":"[2169,560,378,410,1266,529,399,386,832,401,394,299,442,451,889,817,778,527,846,410,305,300,360,755,384]","trial_type":"two-door-navigation","trial_index":33,"time_elapsed":827579,"internal_node_id":"0.0-2.0-31.0"},{"group":"tri cycles (cube, non-group)","room_assignment":["brown","green","grey","pink","purple","yellow","red","blue"],"door_color_assignment":["white","black"],"door_generator_assignment":[0,1],"goal":2,"start":3,"action_noise":0.1,"location_history":"[3,4,0,2]","action_history":"[1,1,1]","door_history":"[1,1,1]","location_rts":"[921,401,506]","trial_type":"two-door-navigation","trial_index":34,"time_elapsed":835978,"internal_node_id":"0.0-2.0-32.0"},{"group":"tri cycles (cube, non-group)","room_assignment":["brown","green","grey","pink","purple","yellow","red","blue"],"door_color_assignment":["white","black"],"door_generator_assignment":[0,1],"goal":6,"start":2,"action_noise":0.1,"location_history":"[2,6]","action_history":"[1]","door_history":"[1]","location_rts":"[891]","trial_type":"two-door-navigation","trial_index":35,"time_elapsed":841397,"internal_node_id":"0.0-2.0-33.0"},{"group":"tri cycles (cube, non-group)","room_assignment":["brown","green","grey","pink","purple","yellow","red","blue"],"door_color_assignment":["white","black"],"door_generator_assignment":[0,1],"goal":1,"start":6,"action_noise":0.1,"location_history":"[6,5,2,6,4,7,3,7,3,4,0,3,4,0,2,1]","action_history":"[1,1,1,0,0,0,0,1,1,1,1,1,1,0,0]","door_history":"[1,1,1,0,0,0,0,1,1,1,1,1,1,0,0]","location_rts":"[870,440,435,395,379,515,530,924,415,480,416,514,450,313,416]","trial_type":"two-door-navigation","trial_index":36,"time_elapsed":867733,"internal_node_id":"0.0-2.0-34.0"},{"group":"tri cycles (cube, non-group)","room_assignment":["brown","green","grey","pink","purple","yellow","red","blue"],"door_color_assignment":["white","black"],"door_generator_assignment":[0,1],"goal":7,"start":1,"action_noise":0.1,"location_history":"[1,0,2,1,5,2,6,5,2,6,4,7]","action_history":"[0,0,0,1,1,1,1,1,1,0,0]","door_history":"[0,0,0,1,1,1,1,1,1,0,0]","location_rts":"[910,448,503,1216,419,535,546,446,493,364,781]","trial_type":"two-door-navigation","trial_index":37,"time_elapsed":889156,"internal_node_id":"0.0-2.0-35.0"},{"group":"tri cycles (cube, non-group)","room_assignment":["brown","green","grey","pink","purple","yellow","red","blue"],"door_color_assignment":["white","black"],"door_generator_assignment":[0,1],"goal":4,"start":7,"action_noise":0.1,"location_history":"[7,6,4]","action_history":"[0,0]","door_history":"[0,0]","location_rts":"[903,346]","trial_type":"two-door-navigation","trial_index":38,"time_elapsed":895957,"internal_node_id":"0.0-2.0-36.0"},{"group":"tri cycles (cube, non-group)","room_assignment":["brown","green","grey","pink","purple","yellow","red","blue"],"door_color_assignment":["white","black"],"door_generator_assignment":[0,1],"goal":5,"start":4,"action_noise":0.1,"location_history":"[4,7,6,4,7,3,7,3,4,0,2,1,0,3,7,3,4,0,3,4,7,6,4,7,3,4,0,3,4,7,6,5]","action_history":"[0,0,0,0,1,1,1,1,1,0,0,0,0,0,1,1,1,1,1,0,0,0,0,1,1,1,1,1,0,0,1]","door_history":"[0,0,0,0,1,1,1,1,1,0,0,0,0,0,1,1,1,1,1,0,0,0,0,1,1,1,1,1,0,0,1]","location_rts":"[965,593,555,401,954,417,381,442,550,483,384,377,319,467,913,369,392,386,499,714,410,378,440,372,474,307,504,698,723,1121,330]","trial_type":"two-door-navigation","trial_index":39,"time_elapsed":947485,"internal_node_id":"0.0-2.0-37.0"},{"group":"tri cycles (cube, non-group)","room_assignment":["brown","green","grey","pink","purple","yellow","red","blue"],"door_color_assignment":["white","black"],"door_generator_assignment":[0,1],"goal":0,"start":5,"action_noise":0.1,"location_history":"[5,1,5,1,0]","action_history":"[0,0,0,0]","door_history":"[0,0,0,0]","location_rts":"[1500,419,489,363]","trial_type":"two-door-navigation","trial_index":40,"time_elapsed":957850,"internal_node_id":"0.0-2.0-38.0"},{"group":"tri cycles (cube, non-group)","room_assignment":["brown","green","grey","pink","purple","yellow","red","blue"],"door_color_assignment":["white","black"],"door_generator_assignment":[0,1],"goal":4,"start":0,"action_noise":0.1,"location_history":"[0,2,1,0,2,6,5,2,1,5,1,0,2,6,5,2,6,4]","action_history":"[0,0,0,0,1,1,1,1,1,0,0,0,1,1,1,1,0]","door_history":"[0,0,0,0,1,1,1,1,1,0,0,0,1,1,1,1,0]","location_rts":"[1065,448,418,865,483,370,378,352,339,587,426,313,610,385,370,546,379]","trial_type":"two-door-navigation","trial_index":41,"time_elapsed":987067,"internal_node_id":"0.0-2.0-39.0"},{"group":"tri cycles (cube, non-group)","room_assignment":["brown","green","grey","pink","purple","yellow","red","blue"],"door_color_assignment":["white","black"],"door_generator_assignment":[0,1],"goal":0,"start":4,"action_noise":0.1,"location_history":"[4,0]","action_history":"[0]","door_history":"[0]","location_rts":"[919]","trial_type":"two-door-navigation","trial_index":42,"time_elapsed":992515,"internal_node_id":"0.0-2.0-40.0"},{"group":"tri cycles (cube, non-group)","room_assignment":["brown","green","grey","pink","purple","yellow","red","blue"],"door_color_assignment":["white","black"],"door_generator_assignment":[0,1],"goal":2,"start":0,"action_noise":0.1,"location_history":"[0,2]","action_history":"[0]","door_history":"[0]","location_rts":"[1011]","trial_type":"two-door-navigation","trial_index":43,"time_elapsed":998054,"internal_node_id":"0.0-2.0-41.0"},{"group":"tri cycles (cube, non-group)","room_assignment":["brown","green","grey","pink","purple","yellow","red","blue"],"door_color_assignment":["white","black"],"door_generator_assignment":[0,1],"goal":3,"start":2,"action_noise":0.1,"location_history":"[2,1,0,2,1,5,2,6,5,2,6,4,7,6,4,0,3]","action_history":"[0,0,0,0,1,1,1,1,1,1,0,0,0,0,1,1]","door_history":"[0,0,0,0,1,1,1,1,1,1,0,0,0,0,1,1]","location_rts":"[977,440,330,634,522,354,361,345,723,786,578,5452,344,313,394,400]","trial_type":"two-door-navigation","trial_index":44,"time_elapsed":1030868,"internal_node_id":"0.0-2.0-42.0"},{"group":"tri cycles (cube, non-group)","room_assignment":["brown","green","grey","pink","purple","yellow","red","blue"],"door_color_assignment":["white","black"],"door_generator_assignment":[0,1],"goal":5,"start":3,"action_noise":0.1,"location_history":"[3,4,0,2,1,5]","action_history":"[1,0,0,0,1]","door_history":"[1,0,0,0,1]","location_rts":"[998,618,425,315,336]","trial_type":"two-door-navigation","trial_index":45,"time_elapsed":1042179,"internal_node_id":"0.0-2.0-43.0"},{"group":"tri cycles (cube, non-group)","room_assignment":["brown","green","grey","pink","purple","yellow","red","blue"],"door_color_assignment":["white","black"],"door_generator_assignment":[0,1],"goal":1,"start":5,"action_noise":0.1,"location_history":"[5,1]","action_history":"[0]","door_history":"[0]","location_rts":"[1528]","trial_type":"two-door-navigation","trial_index":46,"time_elapsed":1048235,"internal_node_id":"0.0-2.0-44.0"},{"group":"tri cycles (cube, non-group)","room_assignment":["brown","green","grey","pink","purple","yellow","red","blue"],"door_color_assignment":["white","black"],"door_generator_assignment":[0,1],"goal":7,"start":1,"action_noise":0.1,"location_history":"[1,0,2,6,5,1,5,2,6,5,1,0,3,7]","action_history":"[0,0,0,1,1,1,1,1,0,0,0,0,0]","door_history":"[0,0,0,1,1,1,1,1,0,0,0,0,0]","location_rts":"[2349,364,434,666,442,443,337,644,316,386,437,385,682]","trial_type":"two-door-navigation","trial_index":47,"time_elapsed":1072905,"internal_node_id":"0.0-2.0-45.0"},{"group":"tri cycles (cube, non-group)","room_assignment":["brown","green","grey","pink","purple","yellow","red","blue"],"door_color_assignment":["white","black"],"door_generator_assignment":[0,1],"goal":6,"start":7,"action_noise":0.1,"location_history":"[7,6]","action_history":"[1]","door_history":"[1]","location_rts":"[1688]","trial_type":"two-door-navigation","trial_index":48,"time_elapsed":1079121,"internal_node_id":"0.0-2.0-46.0"},{"group":"tri cycles (cube, non-group)","room_assignment":["brown","green","grey","pink","purple","yellow","red","blue"],"door_color_assignment":["white","black"],"door_generator_assignment":[0,1],"goal":3,"start":6,"action_noise":0.1,"location_history":"[6,5,2,6,4,7,6,5,2,6,5,1,0,2,6,5,2,6,5,1,0,2,1,0,2,1,0,3]","action_history":"[1,1,1,0,0,0,1,1,1,1,0,0,0,0,1,1,1,1,1,0,0,0,0,0,0,1,1]","door_history":"[1,1,1,0,0,0,1,1,1,1,0,0,0,0,1,1,1,1,1,0,0,0,0,0,0,1,1]","location_rts":"[1512,367,346,793,411,362,441,378,408,560,723,433,665,867,369,624,319,491,401,354,371,318,345,866,962,339,480]","trial_type":"two-door-navigation","trial_index":49,"time_elapsed":1124746,"internal_node_id":"0.0-2.0-47.0"},{"group":"tri cycles (cube, non-group)","room_assignment":["brown","green","grey","pink","purple","yellow","red","blue"],"door_color_assignment":["white","black"],"door_generator_assignment":[0,1],"goal":0,"start":3,"action_noise":0.1,"location_history":"[3,7,6,4,0]","action_history":"[0,0,0,0]","door_history":"[0,0,0,0]","location_rts":"[1664,353,358,401]","trial_type":"two-door-navigation","trial_index":50,"time_elapsed":1135120,"internal_node_id":"0.0-2.0-48.0"},{"group":"tri cycles (cube, non-group)","room_assignment":["brown","green","grey","pink","purple","yellow","red","blue"],"door_color_assignment":["white","black"],"door_generator_assignment":[0,1],"goal":2,"start":0,"action_noise":0.1,"location_history":"[0,2]","action_history":"[0]","door_history":"[0]","location_rts":"[1290]","trial_type":"two-door-navigation","trial_index":51,"time_elapsed":1140939,"internal_node_id":"0.0-2.0-49.0"},{"view_history":"[{\"page_index\":0,\"viewing_time\":5025}]","rt":5026,"trial_type":"instructions","trial_index":52,"time_elapsed":1146966,"internal_node_id":"0.0-3.0"},{"view_history":"[{\"page_index\":0,\"viewing_time\":4709},{\"page_index\":1,\"viewing_time\":27247}]","rt":31956,"trial_type":"instructions","trial_index":53,"time_elapsed":1179923,"internal_node_id":"0.0-4.0"},{"group":"tri cycles (cube, non-group)","fractal_assignment":["../images/ylw_slt.png","../images/gry_blk.png","../images/grn_red.png","../images/blu_wht.png","../images/ylw_pnk.png","../images/cyn_red.png","../images/org_blu.png","../images/pnk_blu.png"],"mutagen_generator_assignment":[0,1],"goal":3,"start":0,"action_noise":0.1,"location_history":"[0,2,1,0,2,6,5,2,6,4,0,3]","action_history":"[0,0,0,0,1,1,1,1,1,1,1]","mutagen_history":"[0,0,0,0,1,1,1,1,1,1,1]","location_rts":"[12733,3867,2653,1409,1071,2090,8714,771,765,793,709]","trial_type":"fractal-mutation","trial_index":54,"time_elapsed":1230539,"internal_node_id":"0.0-5.0-0.0"},{"group":"tri cycles (cube, non-group)","fractal_assignment":["../images/ylw_slt.png","../images/gry_blk.png","../images/grn_red.png","../images/blu_wht.png","../images/ylw_pnk.png","../images/cyn_red.png","../images/org_blu.png","../images/pnk_blu.png"],"mutagen_generator_assignment":[0,1],"goal":1,"start":3,"action_noise":0.1,"location_history":"[3,4,0,3,4,0,2,1]","action_history":"[1,1,1,1,1,0,0]","mutagen_history":"[1,1,1,1,1,0,0]","location_rts":"[2938,552,188,2688,561,518,604]","trial_type":"fractal-mutation","trial_index":55,"time_elapsed":1249427,"internal_node_id":"0.0-5.0-1.0"},{"group":"tri cycles (cube, non-group)","fractal_assignment":["../images/ylw_slt.png","../images/gry_blk.png","../images/grn_red.png","../images/blu_wht.png","../images/ylw_pnk.png","../images/cyn_red.png","../images/org_blu.png","../images/pnk_blu.png"],"mutagen_generator_assignment":[0,1],"goal":2,"start":1,"action_noise":0.1,"location_history":"[1,5,2]","action_history":"[1,1]","mutagen_history":"[1,1]","location_rts":"[2121,480]","trial_type":"fractal-mutation","trial_index":56,"time_elapsed":1257629,"internal_node_id":"0.0-5.0-2.0"},{"group":"tri cycles (cube, non-group)","fractal_assignment":["../images/ylw_slt.png","../images/gry_blk.png","../images/grn_red.png","../images/blu_wht.png","../images/ylw_pnk.png","../images/cyn_red.png","../images/org_blu.png","../images/pnk_blu.png"],"mutagen_generator_assignment":[0,1],"goal":6,"start":2,"action_noise":0.1,"location_history":"[2,1,0,2,1,5,1,5,2,6]","action_history":"[0,0,0,0,0,0,0,1,1]","mutagen_history":"[0,0,0,0,0,0,0,1,1]","location_rts":"[1522,824,833,621,1135,770,1012,663,474]","trial_type":"fractal-mutation","trial_index":57,"time_elapsed":1278318,"internal_node_id":"0.0-5.0-3.0"},{"group":"tri cycles (cube, non-group)","fractal_assignment":["../images/ylw_slt.png","../images/gry_blk.png","../images/grn_red.png","../images/blu_wht.png","../images/ylw_pnk.png","../images/cyn_red.png","../images/org_blu.png","../images/pnk_blu.png"],"mutagen_generator_assignment":[0,1],"goal":5,"start":6,"action_noise":0.1,"location_history":"[6,5]","action_history":"[0]","mutagen_history":"[0]","location_rts":"[7964]","trial_type":"fractal-mutation","trial_index":58,"time_elapsed":1290824,"internal_node_id":"0.0-5.0-4.0"},{"group":"tri cycles (cube, non-group)","fractal_assignment":["../images/ylw_slt.png","../images/gry_blk.png","../images/grn_red.png","../images/blu_wht.png","../images/ylw_pnk.png","../images/cyn_red.png","../images/org_blu.png","../images/pnk_blu.png"],"mutagen_generator_assignment":[0,1],"goal":4,"start":5,"action_noise":0.1,"location_history":"[5,1,0,3,7,6,4]","action_history":"[0,0,0,0,0,0]","mutagen_history":"[0,0,0,0,0,0]","location_rts":"[1572,486,473,446,614,664]","trial_type":"fractal-mutation","trial_index":59,"time_elapsed":1304789,"internal_node_id":"0.0-5.0-5.0"},{"group":"tri cycles (cube, non-group)","fractal_assignment":["../images/ylw_slt.png","../images/gry_blk.png","../images/grn_red.png","../images/blu_wht.png","../images/ylw_pnk.png","../images/cyn_red.png","../images/org_blu.png","../images/pnk_blu.png"],"mutagen_generator_assignment":[0,1],"goal":7,"start":4,"action_noise":0.1,"location_history":"[4,7]","action_history":"[0]","mutagen_history":"[0]","location_rts":"[988]","trial_type":"fractal-mutation","trial_index":60,"time_elapsed":1310311,"internal_node_id":"0.0-5.0-6.0"},{"group":"tri cycles (cube, non-group)","fractal_assignment":["../images/ylw_slt.png","../images/gry_blk.png","../images/grn_red.png","../images/blu_wht.png","../images/ylw_pnk.png","../images/cyn_red.png","../images/org_blu.png","../images/pnk_blu.png"],"mutagen_generator_assignment":[0,1],"goal":4,"start":7,"action_noise":0.1,"location_history":"[7,6,4]","action_history":"[0,0]","mutagen_history":"[0,0]","location_rts":"[1096,461]","trial_type":"fractal-mutation","trial_index":61,"time_elapsed":1317448,"internal_node_id":"0.0-5.0-7.0"},{"group":"tri cycles (cube, non-group)","fractal_assignment":["../images/ylw_slt.png","../images/gry_blk.png","../images/grn_red.png","../images/blu_wht.png","../images/ylw_pnk.png","../images/cyn_red.png","../images/org_blu.png","../images/pnk_blu.png"],"mutagen_generator_assignment":[0,1],"goal":6,"start":4,"action_noise":0.1,"location_history":"[4,7,6]","action_history":"[0,0]","mutagen_history":"[0,0]","location_rts":"[1540,438]","trial_type":"fractal-mutation","trial_index":62,"time_elapsed":1324994,"internal_node_id":"0.0-5.0-8.0"},{"group":"tri cycles (cube, non-group)","fractal_assignment":["../images/ylw_slt.png","../images/gry_blk.png","../images/grn_red.png","../images/blu_wht.png","../images/ylw_pnk.png","../images/cyn_red.png","../images/org_blu.png","../images/pnk_blu.png"],"mutagen_generator_assignment":[0,1],"goal":0,"start":6,"action_noise":0.1,"location_history":"[6,5,2,1,5,2,6,5,2,6,5,2,6,5,1,0]","action_history":"[1,1,1,1,1,1,1,1,1,1,1,1,1,0,0]","mutagen_history":"[1,1,1,1,1,1,1,1,1,1,1,1,1,0,0]","location_rts":"[1197,398,459,479,500,442,562,398,419,464,396,387,555,416,467]","trial_type":"fractal-mutation","trial_index":63,"time_elapsed":1351745,"internal_node_id":"0.0-5.0-9.0"},{"group":"tri cycles (cube, non-group)","fractal_assignment":["../images/ylw_slt.png","../images/gry_blk.png","../images/grn_red.png","../images/blu_wht.png","../images/ylw_pnk.png","../images/cyn_red.png","../images/org_blu.png","../images/pnk_blu.png"],"mutagen_generator_assignment":[0,1],"goal":1,"start":0,"action_noise":0.1,"location_history":"[0,2,1]","action_history":"[0,0]","mutagen_history":"[0,0]","location_rts":"[1112,413]","trial_type":"fractal-mutation","trial_index":64,"time_elapsed":1358845,"internal_node_id":"0.0-5.0-10.0"},{"group":"tri cycles (cube, non-group)","fractal_assignment":["../images/ylw_slt.png","../images/gry_blk.png","../images/grn_red.png","../images/blu_wht.png","../images/ylw_pnk.png","../images/cyn_red.png","../images/org_blu.png","../images/pnk_blu.png"],"mutagen_generator_assignment":[0,1],"goal":3,"start":1,"action_noise":0.1,"location_history":"[1,0,2,1,0,2,1,0,2,6,5,2,6,5,2,6,5,2,1,0,2,1,0,3]","action_history":"[0,0,0,0,0,0,0,0,1,1,1,1,1,1,1,1,1,0,0,0,0,0,0]","mutagen_history":"[0,0,0,0,0,0,0,0,1,1,1,1,1,1,1,1,1,0,0,0,0,0,0]","location_rts":"[1408,446,468,889,488,621,967,548,404,803,389,425,736,444,420,623,496,459,612,643,1751,693,430]","trial_type":"fractal-mutation","trial_index":65,"time_elapsed":1401396,"internal_node_id":"0.0-5.0-11.0"},{"group":"tri cycles (cube, non-group)","fractal_assignment":["../images/ylw_slt.png","../images/gry_blk.png","../images/grn_red.png","../images/blu_wht.png","../images/ylw_pnk.png","../images/cyn_red.png","../images/org_blu.png","../images/pnk_blu.png"],"mutagen_generator_assignment":[0,1],"goal":7,"start":3,"action_noise":0.1,"location_history":"[3,7]","action_history":"[0]","mutagen_history":"[0]","location_rts":"[1507]","trial_type":"fractal-mutation","trial_index":66,"time_elapsed":1407444,"internal_node_id":"0.0-5.0-12.0"},{"group":"tri cycles (cube, non-group)","fractal_assignment":["../images/ylw_slt.png","../images/gry_blk.png","../images/grn_red.png","../images/blu_wht.png","../images/ylw_pnk.png","../images/cyn_red.png","../images/org_blu.png","../images/pnk_blu.png"],"mutagen_generator_assignment":[0,1],"goal":5,"start":7,"action_noise":0.1,"location_history":"[7,6,4,7,3,7,6,4,7,6,4,7,6,4,7,6,4,0,2,6,5]","action_history":"[0,0,0,0,0,0,0,0,0,0,0,0,0,0,0,0,0,0,1,1]","mutagen_history":"[0,0,0,0,0,0,0,0,0,0,0,0,0,0,0,0,0,0,1,1]","location_rts":"[1254,391,541,2182,795,461,394,542,429,359,384,390,367,369,561,421,146,202,382,390]","trial_type":"fractal-mutation","trial_index":67,"time_elapsed":1442571,"internal_node_id":"0.0-5.0-13.0"},{"group":"tri cycles (cube, non-group)","fractal_assignment":["../images/ylw_slt.png","../images/gry_blk.png","../images/grn_red.png","../images/blu_wht.png","../images/ylw_pnk.png","../images/cyn_red.png","../images/org_blu.png","../images/pnk_blu.png"],"mutagen_generator_assignment":[0,1],"goal":2,"start":5,"action_noise":0.1,"location_history":"[5,2]","action_history":"[0]","mutagen_history":"[0]","location_rts":"[1746]","trial_type":"fractal-mutation","trial_index":68,"time_elapsed":1448854,"internal_node_id":"0.0-5.0-14.0"},{"group":"tri cycles (cube, non-group)","fractal_assignment":["../images/ylw_slt.png","../images/gry_blk.png","../images/grn_red.png","../images/blu_wht.png","../images/ylw_pnk.png","../images/cyn_red.png","../images/org_blu.png","../images/pnk_blu.png"],"mutagen_generator_assignment":[0,1],"goal":7,"start":2,"action_noise":0.1,"location_history":"[2,1,0,2,1,0,2,6,4,0,3,4,0,2,1,0,2,1,0,2,1,0,2,1,0,2,6,5,2,1,5,2,1,0,2,1,0,2,6,5,2,6,5,2,6,5,1,5,1,0,2,1,0,2,1,0,3,4,0,3,4,0,3,4,7]","action_history":"[0,0,0,0,0,0,1,1,1,1,1,1,0,0,0,0,0,0,0,0,0,0,0,0,0,1,1,1,1,1,1,0,0,0,0,0,0,0,1,1,1,1,1,1,1,1,1,0,0,0,0,0,0,0,0,1,1,1,1,1,1,1,0,0]","mutagen_history":"[0,0,0,0,0,0,1,1,1,1,1,1,0,0,0,0,0,0,0,0,0,0,0,0,0,1,1,1,1,1,1,0,0,0,0,0,0,0,1,1,1,1,1,1,1,1,1,0,0,0,0,0,0,0,0,1,1,1,1,1,1,1,0,0]","location_rts":"[900,456,406,367,394,1293,697,429,486,42,384,390,520,655,452,521,371,371,439,434,478,423,525,456,543,468,11556,471,398,311,351,556,445,1450,444,281,482,583,483,762,374,363,299,356,322,329,244,871,425,463,592,425,361,386,426,479,661,696,519,575,363,460,847,457]","trial_type":"fractal-mutation","trial_index":69,"time_elapsed":1561662,"internal_node_id":"0.0-5.0-15.0"},{"group":"tri cycles (cube, non-group)","fractal_assignment":["../images/ylw_slt.png","../images/gry_blk.png","../images/grn_red.png","../images/blu_wht.png","../images/ylw_pnk.png","../images/cyn_red.png","../images/org_blu.png","../images/pnk_blu.png"],"mutagen_generator_assignment":[0,1],"goal":4,"start":7,"action_noise":0.1,"location_history":"[7,6,4]","action_history":"[0,0]","mutagen_history":"[0,0]","location_rts":"[1914,581]","trial_type":"fractal-mutation","trial_index":70,"time_elapsed":1569731,"internal_node_id":"0.0-5.0-16.0"},{"group":"tri cycles (cube, non-group)","fractal_assignment":["../images/ylw_slt.png","../images/gry_blk.png","../images/grn_red.png","../images/blu_wht.png","../images/ylw_pnk.png","../images/cyn_red.png","../images/org_blu.png","../images/pnk_blu.png"],"mutagen_generator_assignment":[0,1],"goal":2,"start":4,"action_noise":0.1,"location_history":"[4,7,6,4,7,6,4,7,6,5,2]","action_history":"[0,0,0,0,0,0,0,0,1,1]","mutagen_history":"[0,0,0,0,0,0,0,0,1,1]","location_rts":"[1037,462,463,411,533,523,418,1205,378,1024]","trial_type":"fractal-mutation","trial_index":71,"time_elapsed":1590083,"internal_node_id":"0.0-5.0-17.0"},{"group":"tri cycles (cube, non-group)","fractal_assignment":["../images/ylw_slt.png","../images/gry_blk.png","../images/grn_red.png","../images/blu_wht.png","../images/ylw_pnk.png","../images/cyn_red.png","../images/org_blu.png","../images/pnk_blu.png"],"mutagen_generator_assignment":[0,1],"goal":3,"start":2,"action_noise":0.1,"location_history":"[2,1,0,2,1,5,2,6,5,2,6,5,2,6,4,7,3]","action_history":"[0,0,0,0,1,1,1,1,1,1,1,1,1,0,0,0]","mutagen_history":"[0,0,0,0,1,1,1,1,1,1,1,1,1,0,0,0]","location_rts":"[1863,774,357,648,562,519,441,354,483,392,564,754,468,455,438,434]","trial_type":"fractal-mutation","trial_index":72,"time_elapsed":1619747,"internal_node_id":"0.0-5.0-18.0"},{"group":"tri cycles (cube, non-group)","fractal_assignment":["../images/ylw_slt.png","../images/gry_blk.png","../images/grn_red.png","../images/blu_wht.png","../images/ylw_pnk.png","../images/cyn_red.png","../images/org_blu.png","../images/pnk_blu.png"],"mutagen_generator_assignment":[0,1],"goal":6,"start":3,"action_noise":0.1,"location_history":"[3,4,7,6]","action_history":"[0,0,0]","mutagen_history":"[0,0,0]","location_rts":"[975,377,299]","trial_type":"fractal-mutation","trial_index":73,"time_elapsed":1628010,"internal_node_id":"0.0-5.0-19.0"},{"group":"tri cycles (cube, non-group)","fractal_assignment":["../images/ylw_slt.png","../images/gry_blk.png","../images/grn_red.png","../images/blu_wht.png","../images/ylw_pnk.png","../images/cyn_red.png","../images/org_blu.png","../images/pnk_blu.png"],"mutagen_generator_assignment":[0,1],"goal":5,"start":6,"action_noise":0.1,"location_history":"[6,4,7,6,4,7,6,4,0,3,4,0,3,7,6,4,7,6,5]","action_history":"[0,0,0,0,0,0,1,1,1,1,1,1,0,0,0,0,0,1]","mutagen_history":"[0,0,0,0,0,0,1,1,1,1,1,1,0,0,0,0,0,1]","location_rts":"[1475,333,293,303,371,456,295,741,3124,542,426,703,550,458,382,387,430,523]","trial_type":"fractal-mutation","trial_index":74,"time_elapsed":1662023,"internal_node_id":"0.0-5.0-20.0"},{"group":"tri cycles (cube, non-group)","fractal_assignment":["../images/ylw_slt.png","../images/gry_blk.png","../images/grn_red.png","../images/blu_wht.png","../images/ylw_pnk.png","../images/cyn_red.png","../images/org_blu.png","../images/pnk_blu.png"],"mutagen_generator_assignment":[0,1],"goal":1,"start":5,"action_noise":0.1,"location_history":"[5,1]","action_history":"[0]","mutagen_history":"[0]","location_rts":"[1780]","trial_type":"fractal-mutation","trial_index":75,"time_elapsed":1668341,"internal_node_id":"0.0-5.0-21.0"},{"group":"tri cycles (cube, non-group)","fractal_assignment":["../images/ylw_slt.png","../images/gry_blk.png","../images/grn_red.png","../images/blu_wht.png","../images/ylw_pnk.png","../images/cyn_red.png","../images/org_blu.png","../images/pnk_blu.png"],"mutagen_generator_assignment":[0,1],"goal":0,"start":1,"action_noise":0.1,"location_history":"[1,0]","action_history":"[0]","mutagen_history":"[0]","location_rts":"[1923]","trial_type":"fractal-mutation","trial_index":76,"time_elapsed":1674810,"internal_node_id":"0.0-5.0-22.0"},{"group":"tri cycles (cube, non-group)","fractal_assignment":["../images/ylw_slt.png","../images/gry_blk.png","../images/grn_red.png","../images/blu_wht.png","../images/ylw_pnk.png","../images/cyn_red.png","../images/org_blu.png","../images/pnk_blu.png"],"mutagen_generator_assignment":[0,1],"goal":2,"start":0,"action_noise":0.1,"location_history":"[0,2]","action_history":"[0]","mutagen_history":"[0]","location_rts":"[1911]","trial_type":"fractal-mutation","trial_index":77,"time_elapsed":1681263,"internal_node_id":"0.0-5.0-23.0"},{"group":"tri cycles (cube, non-group)","fractal_assignment":["../images/ylw_slt.png","../images/gry_blk.png","../images/grn_red.png","../images/blu_wht.png","../images/ylw_pnk.png","../images/cyn_red.png","../images/org_blu.png","../images/pnk_blu.png"],"mutagen_generator_assignment":[0,1],"goal":6,"start":2,"action_noise":0.1,"location_history":"[2,1,0,2,1,5,2,1,5,1,5,1,0,2,1,5,1,0,2,1,5,2,6]","action_history":"[0,0,0,0,1,1,1,1,1,1,0,0,0,0,1,1,0,0,0,1,1,1]","mutagen_history":"[0,0,0,0,1,1,1,1,1,1,0,0,0,0,1,1,0,0,0,1,1,1]","location_rts":"[944,358,399,425,735,369,376,295,558,476,447,398,416,372,454,697,447,488,606,772,282,499]","trial_type":"fractal-mutation","trial_index":78,"time_elapsed":1718478,"internal_node_id":"0.0-5.0-24.0"},{"group":"tri cycles (cube, non-group)","fractal_assignment":["../images/ylw_slt.png","../images/gry_blk.png","../images/grn_red.png","../images/blu_wht.png","../images/ylw_pnk.png","../images/cyn_red.png","../images/org_blu.png","../images/pnk_blu.png"],"mutagen_generator_assignment":[0,1],"goal":1,"start":6,"action_noise":0.1,"location_history":"[6,4,7,6,4,0,3,7,3,4,0,2,6,4,7,6,4,7,6,5,1]","action_history":"[0,0,0,0,0,0,0,1,1,1,1,1,0,0,0,0,0,0,1,1]","mutagen_history":"[0,0,0,0,0,0,0,1,1,1,1,1,0,0,0,0,0,0,1,1]","location_rts":"[1378,448,332,378,751,939,1229,458,1110,406,499,650,612,431,450,499,485,690,336,494]","trial_type":"fractal-mutation","trial_index":79,"time_elapsed":1755349,"internal_node_id":"0.0-5.0-25.0"},{"group":"tri cycles (cube, non-group)","fractal_assignment":["../images/ylw_slt.png","../images/gry_blk.png","../images/grn_red.png","../images/blu_wht.png","../images/ylw_pnk.png","../images/cyn_red.png","../images/org_blu.png","../images/pnk_blu.png"],"mutagen_generator_assignment":[0,1],"goal":3,"start":1,"action_noise":0.1,"location_history":"[1,0,3]","action_history":"[0,0]","mutagen_history":"[0,0]","location_rts":"[1241,352]","trial_type":"fractal-mutation","trial_index":80,"time_elapsed":1762518,"internal_node_id":"0.0-5.0-26.0"},{"group":"tri cycles (cube, non-group)","fractal_assignment":["../images/ylw_slt.png","../images/gry_blk.png","../images/grn_red.png","../images/blu_wht.png","../images/ylw_pnk.png","../images/cyn_red.png","../images/org_blu.png","../images/pnk_blu.png"],"mutagen_generator_assignment":[0,1],"goal":7,"start":3,"action_noise":0.1,"location_history":"[3,7]","action_history":"[0]","mutagen_history":"[0]","location_rts":"[1644]","trial_type":"fractal-mutation","trial_index":81,"time_elapsed":1768699,"internal_node_id":"0.0-5.0-27.0"},{"group":"tri cycles (cube, non-group)","fractal_assignment":["../images/ylw_slt.png","../images/gry_blk.png","../images/grn_red.png","../images/blu_wht.png","../images/ylw_pnk.png","../images/cyn_red.png","../images/org_blu.png","../images/pnk_blu.png"],"mutagen_generator_assignment":[0,1],"goal":4,"start":7,"action_noise":0.1,"location_history":"[7,6,4]","action_history":"[0,0]","mutagen_history":"[0,0]","location_rts":"[1362,520]","trial_type":"fractal-mutation","trial_index":82,"time_elapsed":1776156,"internal_node_id":"0.0-5.0-28.0"},{"group":"tri cycles (cube, non-group)","fractal_assignment":["../images/ylw_slt.png","../images/gry_blk.png","../images/grn_red.png","../images/blu_wht.png","../images/ylw_pnk.png","../images/cyn_red.png","../images/org_blu.png","../images/pnk_blu.png"],"mutagen_generator_assignment":[0,1],"goal":0,"start":4,"action_noise":0.1,"location_history":"[4,7,6,4,7,6,4,0]","action_history":"[0,0,0,0,0,1,1]","mutagen_history":"[0,0,0,0,0,1,1]","location_rts":"[1094,15915,486,441,449,437,354]","trial_type":"fractal-mutation","trial_index":83,"time_elapsed":1806100,"internal_node_id":"0.0-5.0-29.0"},{"group":"tri cycles (cube, non-group)","fractal_assignment":["../images/ylw_slt.png","../images/gry_blk.png","../images/grn_red.png","../images/blu_wht.png","../images/ylw_pnk.png","../images/cyn_red.png","../images/org_blu.png","../images/pnk_blu.png"],"mutagen_generator_assignment":[0,1],"goal":5,"start":0,"action_noise":0.1,"location_history":"[0,2,1,0,2,6,5]","action_history":"[0,0,0,0,1,1]","mutagen_history":"[0,0,0,0,1,1]","location_rts":"[2080,427,494,735,442,553]","trial_type":"fractal-mutation","trial_index":84,"time_elapsed":1820540,"internal_node_id":"0.0-5.0-30.0"},{"group":"tri cycles (cube, non-group)","fractal_assignment":["../images/ylw_slt.png","../images/gry_blk.png","../images/grn_red.png","../images/blu_wht.png","../images/ylw_pnk.png","../images/cyn_red.png","../images/org_blu.png","../images/pnk_blu.png"],"mutagen_generator_assignment":[0,1],"goal":3,"start":5,"action_noise":0.1,"location_history":"[5,2,6,5,2,6,4,7,6,5,1,0,3]","action_history":"[1,1,1,1,1,0,0,0,0,0,1,1]","mutagen_history":"[1,1,1,1,1,0,0,0,0,0,1,1]","location_rts":"[1400,364,491,534,530,439,364,474,381,512,513,401]","trial_type":"fractal-mutation","trial_index":85,"time_elapsed":1842970,"internal_node_id":"0.0-5.0-31.0"},{"group":"tri cycles (cube, non-group)","fractal_assignment":["../images/ylw_slt.png","../images/gry_blk.png","../images/grn_red.png","../images/blu_wht.png","../images/ylw_pnk.png","../images/cyn_red.png","../images/org_blu.png","../images/pnk_blu.png"],"mutagen_generator_assignment":[0,1],"goal":2,"start":3,"action_noise":0.1,"location_history":"[3,4,0,3,4,7,6,4,7,6,5,2]","action_history":"[1,1,1,1,0,0,0,0,0,1,1]","mutagen_history":"[1,1,1,1,0,0,0,0,0,1,1]","location_rts":"[1387,344,342,343,467,386,407,526,386,389,357]","trial_type":"fractal-mutation","trial_index":86,"time_elapsed":1863242,"internal_node_id":"0.0-5.0-32.0"},{"group":"tri cycles (cube, non-group)","fractal_assignment":["../images/ylw_slt.png","../images/gry_blk.png","../images/grn_red.png","../images/blu_wht.png","../images/ylw_pnk.png","../images/cyn_red.png","../images/org_blu.png","../images/pnk_blu.png"],"mutagen_generator_assignment":[0,1],"goal":6,"start":2,"action_noise":0.1,"location_history":"[2,6]","action_history":"[1]","mutagen_history":"[1]","location_rts":"[1406]","trial_type":"fractal-mutation","trial_index":87,"time_elapsed":1869199,"internal_node_id":"0.0-5.0-33.0"},{"group":"tri cycles (cube, non-group)","fractal_assignment":["../images/ylw_slt.png","../images/gry_blk.png","../images/grn_red.png","../images/blu_wht.png","../images/ylw_pnk.png","../images/cyn_red.png","../images/org_blu.png","../images/pnk_blu.png"],"mutagen_generator_assignment":[0,1],"goal":1,"start":6,"action_noise":0.1,"location_history":"[6,4,7,6,4,7,6,5,2,6,5,2,6,4,7,6,4,7,6,5,2,1]","action_history":"[0,0,0,0,0,0,1,1,1,1,1,1,0,0,0,0,0,0,1,1,0]","mutagen_history":"[0,0,0,0,0,0,1,1,1,1,1,1,0,0,0,0,0,0,1,1,0]","location_rts":"[1156,430,393,404,372,433,422,508,377,332,417,416,431,412,378,330,301,344,391,395,424]","trial_type":"fractal-mutation","trial_index":88,"time_elapsed":1903574,"internal_node_id":"0.0-5.0-34.0"},{"group":"tri cycles (cube, non-group)","fractal_assignment":["../images/ylw_slt.png","../images/gry_blk.png","../images/grn_red.png","../images/blu_wht.png","../images/ylw_pnk.png","../images/cyn_red.png","../images/org_blu.png","../images/pnk_blu.png"],"mutagen_generator_assignment":[0,1],"goal":7,"start":1,"action_noise":0.1,"location_history":"[1,0,2,1,0,2,6,4,7]","action_history":"[0,0,0,0,0,1,0,0]","mutagen_history":"[0,0,0,0,0,1,0,0]","location_rts":"[1408,460,408,391,497,501,509,676]","trial_type":"fractal-mutation","trial_index":89,"time_elapsed":1920181,"internal_node_id":"0.0-5.0-35.0"},{"group":"tri cycles (cube, non-group)","fractal_assignment":["../images/ylw_slt.png","../images/gry_blk.png","../images/grn_red.png","../images/blu_wht.png","../images/ylw_pnk.png","../images/cyn_red.png","../images/org_blu.png","../images/pnk_blu.png"],"mutagen_generator_assignment":[0,1],"goal":4,"start":7,"action_noise":0.1,"location_history":"[7,6,4]","action_history":"[0,0]","mutagen_history":"[0,0]","location_rts":"[1376,484]","trial_type":"fractal-mutation","trial_index":90,"time_elapsed":1927600,"internal_node_id":"0.0-5.0-36.0"},{"group":"tri cycles (cube, non-group)","fractal_assignment":["../images/ylw_slt.png","../images/gry_blk.png","../images/grn_red.png","../images/blu_wht.png","../images/ylw_pnk.png","../images/cyn_red.png","../images/org_blu.png","../images/pnk_blu.png"],"mutagen_generator_assignment":[0,1],"goal":5,"start":4,"action_noise":0.1,"location_history":"[4,7,6,4,7,6,4,0,3,4,7,3,4,0,3,4,7,6,4,7,3,4,0,3,7,6,4,7,6,5]","action_history":"[0,0,0,0,0,0,1,1,1,1,1,1,1,0,0,0,0,0,0,1,1,1,1,0,0,0,0,0,1]","mutagen_history":"[0,0,0,0,0,0,1,1,1,1,1,1,1,0,0,0,0,0,0,1,1,1,1,0,0,0,0,0,1]","location_rts":"[941,403,344,281,322,393,310,369,317,357,329,354,366,403,381,422,315,372,426,299,432,307,280,731,503,364,331,328,525]","trial_type":"fractal-mutation","trial_index":91,"time_elapsed":1972737,"internal_node_id":"0.0-5.0-37.0"},{"group":"tri cycles (cube, non-group)","fractal_assignment":["../images/ylw_slt.png","../images/gry_blk.png","../images/grn_red.png","../images/blu_wht.png","../images/ylw_pnk.png","../images/cyn_red.png","../images/org_blu.png","../images/pnk_blu.png"],"mutagen_generator_assignment":[0,1],"goal":0,"start":5,"action_noise":0.1,"location_history":"[5,1,0]","action_history":"[0,0]","mutagen_history":"[0,0]","location_rts":"[1209,443]","trial_type":"fractal-mutation","trial_index":92,"time_elapsed":1979950,"internal_node_id":"0.0-5.0-38.0"},{"group":"tri cycles (cube, non-group)","fractal_assignment":["../images/ylw_slt.png","../images/gry_blk.png","../images/grn_red.png","../images/blu_wht.png","../images/ylw_pnk.png","../images/cyn_red.png","../images/org_blu.png","../images/pnk_blu.png"],"mutagen_generator_assignment":[0,1],"goal":4,"start":0,"action_noise":0.1,"location_history":"[0,2,6,4]","action_history":"[0,0,0]","mutagen_history":"[0,0,0]","location_rts":"[699,368,382]","trial_type":"fractal-mutation","trial_index":93,"time_elapsed":1987993,"internal_node_id":"0.0-5.0-39.0"},{"group":"tri cycles (cube, non-group)","fractal_assignment":["../images/ylw_slt.png","../images/gry_blk.png","../images/grn_red.png","../images/blu_wht.png","../images/ylw_pnk.png","../images/cyn_red.png","../images/org_blu.png","../images/pnk_blu.png"],"mutagen_generator_assignment":[0,1],"goal":0,"start":4,"action_noise":0.1,"location_history":"[4,7,6,4,7,6,4,7,3,4,0]","action_history":"[0,0,0,0,0,0,0,1,1,1]","mutagen_history":"[0,0,0,0,0,0,0,1,1,1]","location_rts":"[1310,349,407,436,447,393,344,470,350,354]","trial_type":"fractal-mutation","trial_index":94,"time_elapsed":2006735,"internal_node_id":"0.0-5.0-40.0"},{"group":"tri cycles (cube, non-group)","fractal_assignment":["../images/ylw_slt.png","../images/gry_blk.png","../images/grn_red.png","../images/blu_wht.png","../images/ylw_pnk.png","../images/cyn_red.png","../images/org_blu.png","../images/pnk_blu.png"],"mutagen_generator_assignment":[0,1],"goal":2,"start":0,"action_noise":0.1,"location_history":"[0,2]","action_history":"[0]","mutagen_history":"[0]","location_rts":"[1336]","trial_type":"fractal-mutation","trial_index":95,"time_elapsed":2012605,"internal_node_id":"0.0-5.0-41.0"},{"group":"tri cycles (cube, non-group)","fractal_assignment":["../images/ylw_slt.png","../images/gry_blk.png","../images/grn_red.png","../images/blu_wht.png","../images/ylw_pnk.png","../images/cyn_red.png","../images/org_blu.png","../images/pnk_blu.png"],"mutagen_generator_assignment":[0,1],"goal":3,"start":2,"action_noise":0.1,"location_history":"[2,1,0,2,6,5,2,6,5,1,5,2,1,0,2,1,5,2,1,5,1,0,2,1,5,1,5,2,1,0,3]","action_history":"[0,0,0,1,1,1,1,1,1,1,1,0,0,0,0,1,1,1,1,0,0,0,0,1,1,1,0,0,0,1]","mutagen_history":"[0,0,0,1,1,1,1,1,1,1,1,0,0,0,0,1,1,1,1,0,0,0,0,1,1,1,0,0,0,1]","location_rts":"[755,845,639,478,370,340,390,329,295,333,301,500,481,355,239,425,377,418,309,366,525,518,410,473,484,91,351,472,313,358]","trial_type":"fractal-mutation","trial_index":96,"time_elapsed":2059852,"internal_node_id":"0.0-5.0-42.0"},{"group":"tri cycles (cube, non-group)","fractal_assignment":["../images/ylw_slt.png","../images/gry_blk.png","../images/grn_red.png","../images/blu_wht.png","../images/ylw_pnk.png","../images/cyn_red.png","../images/org_blu.png","../images/pnk_blu.png"],"mutagen_generator_assignment":[0,1],"goal":5,"start":3,"action_noise":0.1,"location_history":"[3,7,6,4,7,3,4,0,3,4,7,6,4,0,2,6,5]","action_history":"[0,0,0,0,1,1,1,1,1,0,0,0,0,0,1,1]","mutagen_history":"[0,0,0,0,1,1,1,1,1,0,0,0,0,0,1,1]","location_rts":"[1808,484,299,339,439,340,330,288,474,471,376,432,286,348,602,363]","trial_type":"fractal-mutation","trial_index":97,"time_elapsed":2087664,"internal_node_id":"0.0-5.0-43.0"},{"group":"tri cycles (cube, non-group)","fractal_assignment":["../images/ylw_slt.png","../images/gry_blk.png","../images/grn_red.png","../images/blu_wht.png","../images/ylw_pnk.png","../images/cyn_red.png","../images/org_blu.png","../images/pnk_blu.png"],"mutagen_generator_assignment":[0,1],"goal":1,"start":5,"action_noise":0.1,"location_history":"[5,1]","action_history":"[0]","mutagen_history":"[0]","location_rts":"[1248]","trial_type":"fractal-mutation","trial_index":98,"time_elapsed":2093454,"internal_node_id":"0.0-5.0-44.0"},{"group":"tri cycles (cube, non-group)","fractal_assignment":["../images/ylw_slt.png","../images/gry_blk.png","../images/grn_red.png","../images/blu_wht.png","../images/ylw_pnk.png","../images/cyn_red.png","../images/org_blu.png","../images/pnk_blu.png"],"mutagen_generator_assignment":[0,1],"goal":7,"start":1,"action_noise":0.1,"location_history":"[1,0,2,6,4,0,3,4,0,3,4,0,2,1,0,2,1,0,3,4,0,3,4,0,2,6,4,7]","action_history":"[0,0,0,0,1,1,1,1,1,1,0,0,0,0,0,0,1,1,1,1,1,1,1,0,0,0,0]","mutagen_history":"[0,0,0,0,1,1,1,1,1,1,0,0,0,0,0,0,1,1,1,1,1,1,1,0,0,0,0]","location_rts":"[950,363,375,371,444,506,499,350,288,304,409,394,448,441,432,445,417,402,509,348,288,275,276,296,401,295,351]","trial_type":"fractal-mutation","trial_index":99,"time_elapsed":2135845,"internal_node_id":"0.0-5.0-45.0"},{"group":"tri cycles (cube, non-group)","fractal_assignment":["../images/ylw_slt.png","../images/gry_blk.png","../images/grn_red.png","../images/blu_wht.png","../images/ylw_pnk.png","../images/cyn_red.png","../images/org_blu.png","../images/pnk_blu.png"],"mutagen_generator_assignment":[0,1],"goal":6,"start":7,"action_noise":0.1,"location_history":"[7,3,7,6]","action_history":"[0,0,0]","mutagen_history":"[0,0,0]","location_rts":"[1507,371,110]","trial_type":"fractal-mutation","trial_index":100,"time_elapsed":2144424,"internal_node_id":"0.0-5.0-46.0"},{"group":"tri cycles (cube, non-group)","fractal_assignment":["../images/ylw_slt.png","../images/gry_blk.png","../images/grn_red.png","../images/blu_wht.png","../images/ylw_pnk.png","../images/cyn_red.png","../images/org_blu.png","../images/pnk_blu.png"],"mutagen_generator_assignment":[0,1],"goal":3,"start":6,"action_noise":0.1,"location_history":"[6,4,7,6,4,7,6,5,2,6,5,2,6,4,7,6,4,7,6,5,2,6,4,0,3]","action_history":"[0,0,0,0,0,0,1,1,1,1,1,1,0,0,0,0,0,1,1,1,1,0,1,1]","mutagen_history":"[0,0,0,0,0,0,1,1,1,1,1,1,0,0,0,0,0,1,1,1,1,0,1,1]","location_rts":"[1139,435,408,281,267,494,337,342,267,294,265,431,590,302,298,438,336,437,310,294,356,280,13052,479]","trial_type":"fractal-mutation","trial_index":101,"time_elapsed":2195024,"internal_node_id":"0.0-5.0-47.0"},{"group":"tri cycles (cube, non-group)","fractal_assignment":["../images/ylw_slt.png","../images/gry_blk.png","../images/grn_red.png","../images/blu_wht.png","../images/ylw_pnk.png","../images/cyn_red.png","../images/org_blu.png","../images/pnk_blu.png"],"mutagen_generator_assignment":[0,1],"goal":0,"start":3,"action_noise":0.1,"location_history":"[3,4,0]","action_history":"[1,1]","mutagen_history":"[1,1]","location_rts":"[958,370]","trial_type":"fractal-mutation","trial_index":102,"time_elapsed":2201941,"internal_node_id":"0.0-5.0-48.0"},{"group":"tri cycles (cube, non-group)","fractal_assignment":["../images/ylw_slt.png","../images/gry_blk.png","../images/grn_red.png","../images/blu_wht.png","../images/ylw_pnk.png","../images/cyn_red.png","../images/org_blu.png","../images/pnk_blu.png"],"mutagen_generator_assignment":[0,1],"goal":2,"start":0,"action_noise":0.1,"location_history":"[0,3,7,6,4,7,6,4,0,3,4,0,3,4,7,6,4,7,6,5,2]","action_history":"[1,0,0,0,0,0,0,1,1,1,1,1,1,0,0,0,0,0,1,1]","mutagen_history":"[1,0,0,0,0,0,0,1,1,1,1,1,1,0,0,0,0,0,1,1]","location_rts":"[979,427,365,397,495,390,440,1110,383,362,616,413,368,694,389,405,334,439,359,636]","trial_type":"fractal-mutation","trial_index":103,"time_elapsed":2236211,"internal_node_id":"0.0-5.0-49.0"},{"view_history":"[{\"page_index\":0,\"viewing_time\":12265}]","rt":12266,"trial_type":"instructions","trial_index":104,"time_elapsed":2249478,"internal_node_id":"0.0-6.0"},{"rt":7872,"responses":"{\"Q0\":\"Very hard.  Thank you\"}","trial_type":"survey-text","trial_index":105,"time_elapsed":2258366,"internal_node_id":"0.0-7.0"}]