[{"view_history":"[{\"page_index\":0,\"viewing_time\":7166},{\"page_index\":1,\"viewing_time\":9959},{\"page_index\":2,\"viewing_time\":20445},{\"page_index\":3,\"viewing_time\":6872}]","rt":44444,"trial_type":"instructions","trial_index":0,"time_elapsed":44449,"internal_node_id":"0.0-0.0"},{"view_history":"[{\"page_index\":0,\"viewing_time\":2730},{\"page_index\":1,\"viewing_time\":22402}]","rt":25133,"trial_type":"instructions","trial_index":1,"time_elapsed":70584,"internal_node_id":"0.0-1.0"},{"group":"square cycles (cube, non-group)","room_assignment":["brown","green","pink","grey","blue","purple","red","yellow"],"door_color_assignment":["black","white"],"door_generator_assignment":[0,1],"goal":3,"start":0,"action_noise":0.1,"location_history":"[0,1,2,3]","action_history":"[0,0,0]","door_history":"[0,0,0]","location_rts":"[2216,1107,512]","trial_type":"two-door-navigation","trial_index":2,"time_elapsed":81027,"internal_node_id":"0.0-2.0-0.0"},{"group":"square cycles (cube, non-group)","room_assignment":["brown","green","pink","grey","blue","purple","red","yellow"],"door_color_assignment":["black","white"],"door_generator_assignment":[0,1],"goal":1,"start":3,"action_noise":0.1,"location_history":"[3,0,1]","action_history":"[0,0]","door_history":"[0,0]","location_rts":"[2290,426]","trial_type":"two-door-navigation","trial_index":3,"time_elapsed":89309,"internal_node_id":"0.0-2.0-1.0"},{"group":"square cycles (cube, non-group)","room_assignment":["brown","green","pink","grey","blue","purple","red","yellow"],"door_color_assignment":["black","white"],"door_generator_assignment":[0,1],"goal":2,"start":1,"action_noise":0.1,"location_history":"[1,0,1,2]","action_history":"[0,0,0]","door_history":"[0,0,0]","location_rts":"[1906,633,374]","trial_type":"two-door-navigation","trial_index":4,"time_elapsed":98816,"internal_node_id":"0.0-2.0-2.0"},{"group":"square cycles (cube, non-group)","room_assignment":["brown","green","pink","grey","blue","purple","red","yellow"],"door_color_assignment":["black","white"],"door_generator_assignment":[0,1],"goal":6,"start":2,"action_noise":0.1,"location_history":"[2,6]","action_history":"[1]","door_history":"[1]","location_rts":"[2761]","trial_type":"two-door-navigation","trial_index":5,"time_elapsed":106137,"internal_node_id":"0.0-2.0-3.0"},{"group":"square cycles (cube, non-group)","room_assignment":["brown","green","pink","grey","blue","purple","red","yellow"],"door_color_assignment":["black","white"],"door_generator_assignment":[0,1],"goal":5,"start":6,"action_noise":0.1,"location_history":"[6,7,3,0,4,5]","action_history":"[1,1,1,1,1]","door_history":"[1,1,1,1,1]","location_rts":"[1453,369,404,446,415]","trial_type":"two-door-navigation","trial_index":6,"time_elapsed":117914,"internal_node_id":"0.0-2.0-4.0"},{"group":"square cycles (cube, non-group)","room_assignment":["brown","green","pink","grey","blue","purple","red","yellow"],"door_color_assignment":["black","white"],"door_generator_assignment":[0,1],"goal":4,"start":5,"action_noise":0.1,"location_history":"[5,1,0,1,2,3,0,1,2,6,7,3,2,6,7,6,7,3,2,6,7,3,2,3,0,1,2,3,0,1,2,6,5,4]","action_history":"[0,0,0,0,0,0,0,0,1,1,1,1,1,1,1,1,1,1,1,1,1,1,0,0,0,0,0,0,0,0,0,0,0]","door_history":"[0,0,0,0,0,0,0,0,1,1,1,1,1,1,1,1,1,1,1,1,1,1,0,0,0,0,0,0,0,0,0,0,0]","location_rts":"[3599,395,305,296,401,296,321,445,737,308,336,383,320,379,412,324,374,385,313,295,275,925,1086,328,303,263,300,308,421,253,291,304,412]","trial_type":"two-door-navigation","trial_index":7,"time_elapsed":171780,"internal_node_id":"0.0-2.0-5.0"},{"group":"square cycles (cube, non-group)","room_assignment":["brown","green","pink","grey","blue","purple","red","yellow"],"door_color_assignment":["black","white"],"door_generator_assignment":[0,1],"goal":7,"start":4,"action_noise":0.1,"location_history":"[4,7]","action_history":"[0]","door_history":"[0]","location_rts":"[33460]","trial_type":"two-door-navigation","trial_index":8,"time_elapsed":210745,"internal_node_id":"0.0-2.0-6.0"},{"group":"square cycles (cube, non-group)","room_assignment":["brown","green","pink","grey","blue","purple","red","yellow"],"door_color_assignment":["black","white"],"door_generator_assignment":[0,1],"goal":4,"start":7,"action_noise":0.1,"location_history":"[7,6,7,6,5,4]","action_history":"[0,0,0,0,0]","door_history":"[0,0,0,0,0]","location_rts":"[1409,275,286,220,253]","trial_type":"two-door-navigation","trial_index":9,"time_elapsed":221847,"internal_node_id":"0.0-2.0-7.0"},{"group":"square cycles (cube, non-group)","room_assignment":["brown","green","pink","grey","blue","purple","red","yellow"],"door_color_assignment":["black","white"],"door_generator_assignment":[0,1],"goal":6,"start":4,"action_noise":0.1,"location_history":"[4,7,6]","action_history":"[0,0]","door_history":"[0,0]","location_rts":"[775,301]","trial_type":"two-door-navigation","trial_index":10,"time_elapsed":228487,"internal_node_id":"0.0-2.0-8.0"},{"group":"square cycles (cube, non-group)","room_assignment":["brown","green","pink","grey","blue","purple","red","yellow"],"door_color_assignment":["black","white"],"door_generator_assignment":[0,1],"goal":0,"start":6,"action_noise":0.1,"location_history":"[6,5,4,7,6,7,6,7,3,2,6,5,1,0]","action_history":"[0,0,0,0,0,0,1,1,1,1,1,1,1]","door_history":"[0,0,0,0,0,0,1,1,1,1,1,1,1]","location_rts":"[2949,278,316,245,293,270,428,273,322,280,377,303,333]","trial_type":"two-door-navigation","trial_index":11,"time_elapsed":252099,"internal_node_id":"0.0-2.0-9.0"},{"group":"square cycles (cube, non-group)","room_assignment":["brown","green","pink","grey","blue","purple","red","yellow"],"door_color_assignment":["black","white"],"door_generator_assignment":[0,1],"goal":1,"start":0,"action_noise":0.1,"location_history":"[0,1]","action_history":"[0]","door_history":"[0]","location_rts":"[3373]","trial_type":"two-door-navigation","trial_index":12,"time_elapsed":260003,"internal_node_id":"0.0-2.0-10.0"},{"group":"square cycles (cube, non-group)","room_assignment":["brown","green","pink","grey","blue","purple","red","yellow"],"door_color_assignment":["black","white"],"door_generator_assignment":[0,1],"goal":3,"start":1,"action_noise":0.1,"location_history":"[1,2,3]","action_history":"[0,0]","door_history":"[0,0]","location_rts":"[1282,456]","trial_type":"two-door-navigation","trial_index":13,"time_elapsed":267344,"internal_node_id":"0.0-2.0-11.0"},{"group":"square cycles (cube, non-group)","room_assignment":["brown","green","pink","grey","blue","purple","red","yellow"],"door_color_assignment":["black","white"],"door_generator_assignment":[0,1],"goal":7,"start":3,"action_noise":0.1,"location_history":"[3,0,4,5,4,7]","action_history":"[0,0,0,0,0]","door_history":"[0,0,0,0,0]","location_rts":"[1103,335,360,308,309]","trial_type":"two-door-navigation","trial_index":14,"time_elapsed":278431,"internal_node_id":"0.0-2.0-12.0"},{"group":"square cycles (cube, non-group)","room_assignment":["brown","green","pink","grey","blue","purple","red","yellow"],"door_color_assignment":["black","white"],"door_generator_assignment":[0,1],"goal":5,"start":7,"action_noise":0.1,"location_history":"[7,6,5]","action_history":"[0,0]","door_history":"[0,0]","location_rts":"[1417,350]","trial_type":"two-door-navigation","trial_index":15,"time_elapsed":285767,"internal_node_id":"0.0-2.0-13.0"},{"group":"square cycles (cube, non-group)","room_assignment":["brown","green","pink","grey","blue","purple","red","yellow"],"door_color_assignment":["black","white"],"door_generator_assignment":[0,1],"goal":2,"start":5,"action_noise":0.1,"location_history":"[5,4,7,6,5,4,7,6,7,6,5,4,7,3,2]","action_history":"[0,0,0,0,0,0,0,0,0,0,0,1,1,1]","door_history":"[0,0,0,0,0,0,0,0,0,0,0,1,1,1]","location_rts":"[1175,378,484,17781,291,296,306,294,354,316,935,323,302,284]","trial_type":"two-door-navigation","trial_index":16,"time_elapsed":327313,"internal_node_id":"0.0-2.0-14.0"},{"group":"square cycles (cube, non-group)","room_assignment":["brown","green","pink","grey","blue","purple","red","yellow"],"door_color_assignment":["black","white"],"door_generator_assignment":[0,1],"goal":7,"start":2,"action_noise":0.1,"location_history":"[2,3,0,1,2,3,2,6,7]","action_history":"[0,0,0,0,0,0,0,1]","door_history":"[0,0,0,0,0,0,0,1]","location_rts":"[1250,388,339,326,384,491,723,482]","trial_type":"two-door-navigation","trial_index":17,"time_elapsed":343493,"internal_node_id":"0.0-2.0-15.0"},{"group":"square cycles (cube, non-group)","room_assignment":["brown","green","pink","grey","blue","purple","red","yellow"],"door_color_assignment":["black","white"],"door_generator_assignment":[0,1],"goal":4,"start":7,"action_noise":0.1,"location_history":"[7,3,2,3,2,3,2,3,2,6,7,3,2,6,7,3,2,6,5,1,2,3,0,1,2,3,0,1,2,3,0,1,2,3,0,4]","action_history":"[0,0,0,1,1,1,1,1,1,1,1,1,1,1,1,1,1,0,0,0,0,0,0,0,0,0,0,0,0,0,0,0,0,0,0]","door_history":"[0,0,0,1,1,1,1,1,1,1,1,1,1,1,1,1,1,0,0,0,0,0,0,0,0,0,0,0,0,0,0,0,0,0,0]","location_rts":"[5288,364,275,615,290,321,291,288,272,533,328,449,402,500,343,461,362,742,404,309,334,298,296,226,284,266,256,141,238,243,287,375,378,326,291]","trial_type":"two-door-navigation","trial_index":18,"time_elapsed":400779,"internal_node_id":"0.0-2.0-16.0"},{"group":"square cycles (cube, non-group)","room_assignment":["brown","green","pink","grey","blue","purple","red","yellow"],"door_color_assignment":["black","white"],"door_generator_assignment":[0,1],"goal":2,"start":4,"action_noise":0.1,"location_history":"[4,7,6,5,4,5,1,0,4,5,1,0,1,0,4,7,3,2]","action_history":"[0,0,0,0,1,1,1,1,1,1,1,1,1,1,1,1,1]","door_history":"[0,0,0,0,1,1,1,1,1,1,1,1,1,1,1,1,1]","location_rts":"[5439,351,367,335,742,405,296,343,288,241,302,326,245,383,278,227,380]","trial_type":"two-door-navigation","trial_index":19,"time_elapsed":433770,"internal_node_id":"0.0-2.0-17.0"},{"group":"square cycles (cube, non-group)","room_assignment":["brown","green","pink","grey","blue","purple","red","yellow"],"door_color_assignment":["black","white"],"door_generator_assignment":[0,1],"goal":3,"start":2,"action_noise":0.1,"location_history":"[2,6,7,6,7,6,5,4,7,6,7,3]","action_history":"[1,1,0,0,0,0,0,0,0,1,1]","door_history":"[1,1,0,0,0,0,0,0,0,1,1]","location_rts":"[4736,462,377,297,267,282,365,272,364,825,272]","trial_type":"two-door-navigation","trial_index":20,"time_elapsed":457127,"internal_node_id":"0.0-2.0-18.0"},{"group":"square cycles (cube, non-group)","room_assignment":["brown","green","pink","grey","blue","purple","red","yellow"],"door_color_assignment":["black","white"],"door_generator_assignment":[0,1],"goal":6,"start":3,"action_noise":0.1,"location_history":"[3,2,3,0,1,2,3,0,1,2,6]","action_history":"[0,0,0,0,0,0,0,0,1,1]","door_history":"[0,0,0,0,0,0,0,0,1,1]","location_rts":"[1642,372,324,842,893,333,307,335,749,365]","trial_type":"two-door-navigation","trial_index":21,"time_elapsed":477111,"internal_node_id":"0.0-2.0-19.0"},{"group":"square cycles (cube, non-group)","room_assignment":["brown","green","pink","grey","blue","purple","red","yellow"],"door_color_assignment":["black","white"],"door_generator_assignment":[0,1],"goal":5,"start":6,"action_noise":0.1,"location_history":"[6,7,3,2,6,7,3,2,6,5]","action_history":"[1,1,1,1,1,1,1,1,0]","door_history":"[1,1,1,1,1,1,1,1,0]","location_rts":"[1465,280,284,344,301,287,308,255,350]","trial_type":"two-door-navigation","trial_index":22,"time_elapsed":493789,"internal_node_id":"0.0-2.0-20.0"},{"group":"square cycles (cube, non-group)","room_assignment":["brown","green","pink","grey","blue","purple","red","yellow"],"door_color_assignment":["black","white"],"door_generator_assignment":[0,1],"goal":1,"start":5,"action_noise":0.1,"location_history":"[5,4,7,6,5,4,5,4,7,6,5,4,5,4,5,4,5,1]","action_history":"[0,0,0,0,0,0,0,0,0,0,0,1,1,1,1,1,1]","door_history":"[0,0,0,0,0,0,0,0,0,0,0,1,1,1,1,1,1]","location_rts":"[1318,423,333,363,344,322,307,325,299,401,555,1388,331,429,537,364,318]","trial_type":"two-door-navigation","trial_index":23,"time_elapsed":523251,"internal_node_id":"0.0-2.0-21.0"},{"group":"square cycles (cube, non-group)","room_assignment":["brown","green","pink","grey","blue","purple","red","yellow"],"door_color_assignment":["black","white"],"door_generator_assignment":[0,1],"goal":0,"start":1,"action_noise":0.1,"location_history":"[1,2,3,0]","action_history":"[0,0,0]","door_history":"[0,0,0]","location_rts":"[2348,317,407]","trial_type":"two-door-navigation","trial_index":24,"time_elapsed":533755,"internal_node_id":"0.0-2.0-22.0"},{"group":"square cycles (cube, non-group)","room_assignment":["brown","green","pink","grey","blue","purple","red","yellow"],"door_color_assignment":["black","white"],"door_generator_assignment":[0,1],"goal":2,"start":0,"action_noise":0.1,"location_history":"[0,4,5,1,0,4,7,3,0,1,2]","action_history":"[1,1,1,1,1,0,0,0,0,0]","door_history":"[1,1,1,1,1,0,0,0,0,0]","location_rts":"[2051,364,408,726,485,222,333,299,302,324]","trial_type":"two-door-navigation","trial_index":25,"time_elapsed":553110,"internal_node_id":"0.0-2.0-23.0"},{"group":"square cycles (cube, non-group)","room_assignment":["brown","green","pink","grey","blue","purple","red","yellow"],"door_color_assignment":["black","white"],"door_generator_assignment":[0,1],"goal":6,"start":2,"action_noise":0.1,"location_history":"[2,6]","action_history":"[1]","door_history":"[1]","location_rts":"[1746]","trial_type":"two-door-navigation","trial_index":26,"time_elapsed":559411,"internal_node_id":"0.0-2.0-24.0"},{"group":"square cycles (cube, non-group)","room_assignment":["brown","green","pink","grey","blue","purple","red","yellow"],"door_color_assignment":["black","white"],"door_generator_assignment":[0,1],"goal":1,"start":6,"action_noise":0.1,"location_history":"[6,7,6,7,3,2,6,7,6,5,4,7,6,5,4,7,6,5,4,7,6,5,1]","action_history":"[1,1,1,1,1,1,1,0,0,0,0,0,0,0,0,0,0,0,0,0,0,1]","door_history":"[1,1,1,1,1,1,1,0,0,0,0,0,0,0,0,0,0,0,0,0,0,1]","location_rts":"[1689,436,415,365,313,444,293,284,325,358,327,330,346,348,334,337,313,357,638,524,559,627]","trial_type":"two-door-navigation","trial_index":27,"time_elapsed":595589,"internal_node_id":"0.0-2.0-25.0"},{"group":"square cycles (cube, non-group)","room_assignment":["brown","green","pink","grey","blue","purple","red","yellow"],"door_color_assignment":["black","white"],"door_generator_assignment":[0,1],"goal":3,"start":1,"action_noise":0.1,"location_history":"[1,0,4,7,6,5,4,7,6,5,4,7,6,5,4,7,3]","action_history":"[0,0,0,0,0,0,0,0,0,0,0,0,0,0,0,0]","door_history":"[0,0,0,0,0,0,0,0,0,0,0,0,0,0,0,0]","location_rts":"[3700,461,342,350,239,269,271,339,316,364,342,334,324,400,406,462]","trial_type":"two-door-navigation","trial_index":28,"time_elapsed":624501,"internal_node_id":"0.0-2.0-26.0"},{"group":"square cycles (cube, non-group)","room_assignment":["brown","green","pink","grey","blue","purple","red","yellow"],"door_color_assignment":["black","white"],"door_generator_assignment":[0,1],"goal":7,"start":3,"action_noise":0.1,"location_history":"[3,0,1,2,3,0,1,2,6,7]","action_history":"[0,0,0,0,0,0,0,1,1]","door_history":"[0,0,0,0,0,0,0,1,1]","location_rts":"[1646,297,377,307,327,536,340,1041,333]","trial_type":"two-door-navigation","trial_index":29,"time_elapsed":642484,"internal_node_id":"0.0-2.0-27.0"},{"group":"square cycles (cube, non-group)","room_assignment":["brown","green","pink","grey","blue","purple","red","yellow"],"door_color_assignment":["black","white"],"door_generator_assignment":[0,1],"goal":4,"start":7,"action_noise":0.1,"location_history":"[7,6,7,3,2,6,7,6,5,4]","action_history":"[1,1,1,1,1,1,0,0,0]","door_history":"[1,1,1,1,1,1,0,0,0]","location_rts":"[1409,351,331,390,278,344,253,300,304]","trial_type":"two-door-navigation","trial_index":30,"time_elapsed":659260,"internal_node_id":"0.0-2.0-28.0"},{"group":"square cycles (cube, non-group)","room_assignment":["brown","green","pink","grey","blue","purple","red","yellow"],"door_color_assignment":["black","white"],"door_generator_assignment":[0,1],"goal":0,"start":4,"action_noise":0.1,"location_history":"[4,5,1,0]","action_history":"[1,1,1]","door_history":"[1,1,1]","location_rts":"[1560,387,360]","trial_type":"two-door-navigation","trial_index":31,"time_elapsed":668185,"internal_node_id":"0.0-2.0-29.0"},{"group":"square cycles (cube, non-group)","room_assignment":["brown","green","pink","grey","blue","purple","red","yellow"],"door_color_assignment":["black","white"],"door_generator_assignment":[0,1],"goal":5,"start":0,"action_noise":0.1,"location_history":"[0,1,2,3,0,1,0,4,5]","action_history":"[0,0,0,0,0,0,1,1]","door_history":"[0,0,0,0,0,0,1,1]","location_rts":"[1906,273,405,360,350,422,271,362]","trial_type":"two-door-navigation","trial_index":32,"time_elapsed":684283,"internal_node_id":"0.0-2.0-30.0"},{"group":"square cycles (cube, non-group)","room_assignment":["brown","green","pink","grey","blue","purple","red","yellow"],"door_color_assignment":["black","white"],"door_generator_assignment":[0,1],"goal":3,"start":5,"action_noise":0.1,"location_history":"[5,1,0,4,5,1,0,1,2,3]","action_history":"[1,1,1,1,1,1,1,1,0]","door_history":"[1,1,1,1,1,1,1,1,0]","location_rts":"[1851,366,390,299,273,299,323,391,722]","trial_type":"two-door-navigation","trial_index":33,"time_elapsed":701966,"internal_node_id":"0.0-2.0-31.0"},{"group":"square cycles (cube, non-group)","room_assignment":["brown","green","pink","grey","blue","purple","red","yellow"],"door_color_assignment":["black","white"],"door_generator_assignment":[0,1],"goal":2,"start":3,"action_noise":0.1,"location_history":"[3,0,1,2]","action_history":"[0,0,0]","door_history":"[0,0,0]","location_rts":"[37411,358,312]","trial_type":"two-door-navigation","trial_index":34,"time_elapsed":746634,"internal_node_id":"0.0-2.0-32.0"},{"group":"square cycles (cube, non-group)","room_assignment":["brown","green","pink","grey","blue","purple","red","yellow"],"door_color_assignment":["black","white"],"door_generator_assignment":[0,1],"goal":6,"start":2,"action_noise":0.1,"location_history":"[2,6]","action_history":"[1]","door_history":"[1]","location_rts":"[2078]","trial_type":"two-door-navigation","trial_index":35,"time_elapsed":753277,"internal_node_id":"0.0-2.0-33.0"},{"group":"square cycles (cube, non-group)","room_assignment":["brown","green","pink","grey","blue","purple","red","yellow"],"door_color_assignment":["black","white"],"door_generator_assignment":[0,1],"goal":1,"start":6,"action_noise":0.1,"location_history":"[6,7,3,2,6,5,4,7,6,5,4,7,6,5,1]","action_history":"[1,1,1,1,0,0,0,0,0,0,0,0,1,1]","door_history":"[1,1,1,1,0,0,0,0,0,0,0,0,1,1]","location_rts":"[2071,405,333,309,335,338,274,342,257,284,254,290,22207,520]","trial_type":"two-door-navigation","trial_index":36,"time_elapsed":799526,"internal_node_id":"0.0-2.0-34.0"},{"group":"square cycles (cube, non-group)","room_assignment":["brown","green","pink","grey","blue","purple","red","yellow"],"door_color_assignment":["black","white"],"door_generator_assignment":[0,1],"goal":7,"start":1,"action_noise":0.1,"location_history":"[1,2,6,7]","action_history":"[1,1,1]","door_history":"[1,1,1]","location_rts":"[1270,339,330]","trial_type":"two-door-navigation","trial_index":37,"time_elapsed":808060,"internal_node_id":"0.0-2.0-35.0"},{"group":"square cycles (cube, non-group)","room_assignment":["brown","green","pink","grey","blue","purple","red","yellow"],"door_color_assignment":["black","white"],"door_generator_assignment":[0,1],"goal":4,"start":7,"action_noise":0.1,"location_history":"[7,3,2,6,7,6,5,4]","action_history":"[1,1,1,1,0,0,0]","door_history":"[1,1,1,1,0,0,0]","location_rts":"[2871,389,337,332,830,289,350]","trial_type":"two-door-navigation","trial_index":38,"time_elapsed":824178,"internal_node_id":"0.0-2.0-36.0"},{"group":"square cycles (cube, non-group)","room_assignment":["brown","green","pink","grey","blue","purple","red","yellow"],"door_color_assignment":["black","white"],"door_generator_assignment":[0,1],"goal":5,"start":4,"action_noise":0.1,"location_history":"[4,7,6,5]","action_history":"[0,0,0]","door_history":"[0,0,0]","location_rts":"[1732,849,559]","trial_type":"two-door-navigation","trial_index":39,"time_elapsed":833940,"internal_node_id":"0.0-2.0-37.0"},{"group":"square cycles (cube, non-group)","room_assignment":["brown","green","pink","grey","blue","purple","red","yellow"],"door_color_assignment":["black","white"],"door_generator_assignment":[0,1],"goal":0,"start":5,"action_noise":0.1,"location_history":"[5,1,2,6,7,3,2,3,2,3,0]","action_history":"[1,1,1,1,1,1,1,1,0,0]","door_history":"[1,1,1,1,1,1,1,1,0,0]","location_rts":"[1361,458,293,295,400,563,328,511,907,437]","trial_type":"two-door-navigation","trial_index":40,"time_elapsed":853346,"internal_node_id":"0.0-2.0-38.0"},{"group":"square cycles (cube, non-group)","room_assignment":["brown","green","pink","grey","blue","purple","red","yellow"],"door_color_assignment":["black","white"],"door_generator_assignment":[0,1],"goal":4,"start":0,"action_noise":0.1,"location_history":"[0,1,2,3,0,1,2,6,5,1,0,4]","action_history":"[0,0,0,0,0,0,1,1,1,1,1]","door_history":"[0,0,0,0,0,0,1,1,1,1,1]","location_rts":"[957,325,279,303,276,403,621,332,440,430,484]","trial_type":"two-door-navigation","trial_index":41,"time_elapsed":873055,"internal_node_id":"0.0-2.0-39.0"},{"group":"square cycles (cube, non-group)","room_assignment":["brown","green","pink","grey","blue","purple","red","yellow"],"door_color_assignment":["black","white"],"door_generator_assignment":[0,1],"goal":0,"start":4,"action_noise":0.1,"location_history":"[4,7,6,5,1,2,6,7,3,2,6,7,3,2,3,0]","action_history":"[0,0,0,0,0,1,1,1,1,1,1,1,1,0,0]","door_history":"[0,0,0,0,0,1,1,1,1,1,1,1,1,0,0]","location_rts":"[10753,335,363,394,306,231,466,227,275,355,366,297,841,347,536]","trial_type":"two-door-navigation","trial_index":42,"time_elapsed":908105,"internal_node_id":"0.0-2.0-40.0"},{"group":"square cycles (cube, non-group)","room_assignment":["brown","green","pink","grey","blue","purple","red","yellow"],"door_color_assignment":["black","white"],"door_generator_assignment":[0,1],"goal":2,"start":0,"action_noise":0.1,"location_history":"[0,1,2]","action_history":"[0,0]","door_history":"[0,0]","location_rts":"[4267,324]","trial_type":"two-door-navigation","trial_index":43,"time_elapsed":918260,"internal_node_id":"0.0-2.0-41.0"},{"group":"square cycles (cube, non-group)","room_assignment":["brown","green","pink","grey","blue","purple","red","yellow"],"door_color_assignment":["black","white"],"door_generator_assignment":[0,1],"goal":3,"start":2,"action_noise":0.1,"location_history":"[2,6,5,4,5,4,7,3]","action_history":"[0,0,0,0,0,0,1]","door_history":"[0,0,0,0,0,0,1]","location_rts":"[1190,462,394,289,493,343,299]","trial_type":"two-door-navigation","trial_index":44,"time_elapsed":932526,"internal_node_id":"0.0-2.0-42.0"},{"group":"square cycles (cube, non-group)","room_assignment":["brown","green","pink","grey","blue","purple","red","yellow"],"door_color_assignment":["black","white"],"door_generator_assignment":[0,1],"goal":5,"start":3,"action_noise":0.1,"location_history":"[3,0,1,2,3,0,1,0,4,5]","action_history":"[0,0,0,0,0,0,1,1,1]","door_history":"[0,0,0,0,0,0,1,1,1]","location_rts":"[1102,290,341,385,327,401,545,342,669]","trial_type":"two-door-navigation","trial_index":45,"time_elapsed":949716,"internal_node_id":"0.0-2.0-43.0"},{"group":"square cycles (cube, non-group)","room_assignment":["brown","green","pink","grey","blue","purple","red","yellow"],"door_color_assignment":["black","white"],"door_generator_assignment":[0,1],"goal":1,"start":5,"action_noise":0.1,"location_history":"[5,1]","action_history":"[1]","door_history":"[1]","location_rts":"[16266]","trial_type":"two-door-navigation","trial_index":46,"time_elapsed":970516,"internal_node_id":"0.0-2.0-44.0"},{"group":"square cycles (cube, non-group)","room_assignment":["brown","green","pink","grey","blue","purple","red","yellow"],"door_color_assignment":["black","white"],"door_generator_assignment":[0,1],"goal":7,"start":1,"action_noise":0.1,"location_history":"[1,2,3,2,3,2,3,2,6,5,1,0,4,7]","action_history":"[0,0,0,0,1,1,1,1,1,1,1,1,0]","door_history":"[0,0,0,0,1,1,1,1,1,1,1,1,0]","location_rts":"[9872,7918,987,401,615,448,387,442,457,409,351,340,4351]","trial_type":"two-door-navigation","trial_index":47,"time_elapsed":1015066,"internal_node_id":"0.0-2.0-45.0"},{"group":"square cycles (cube, non-group)","room_assignment":["brown","green","pink","grey","blue","purple","red","yellow"],"door_color_assignment":["black","white"],"door_generator_assignment":[0,1],"goal":6,"start":7,"action_noise":0.1,"location_history":"[7,6]","action_history":"[0]","door_history":"[0]","location_rts":"[5775]","trial_type":"two-door-navigation","trial_index":48,"time_elapsed":1026093,"internal_node_id":"0.0-2.0-46.0"},{"group":"square cycles (cube, non-group)","room_assignment":["brown","green","pink","grey","blue","purple","red","yellow"],"door_color_assignment":["black","white"],"door_generator_assignment":[0,1],"goal":3,"start":6,"action_noise":0.1,"location_history":"[6,7,3]","action_history":"[1,1]","door_history":"[1,1]","location_rts":"[1385,297]","trial_type":"two-door-navigation","trial_index":49,"time_elapsed":1033364,"internal_node_id":"0.0-2.0-47.0"},{"group":"square cycles (cube, non-group)","room_assignment":["brown","green","pink","grey","blue","purple","red","yellow"],"door_color_assignment":["black","white"],"door_generator_assignment":[0,1],"goal":0,"start":3,"action_noise":0.1,"location_history":"[3,2,6,7,3,0]","action_history":"[1,1,1,1,0]","door_history":"[1,1,1,1,0]","location_rts":"[804,413,356,360,965]","trial_type":"two-door-navigation","trial_index":50,"time_elapsed":1045777,"internal_node_id":"0.0-2.0-48.0"},{"group":"square cycles (cube, non-group)","room_assignment":["brown","green","pink","grey","blue","purple","red","yellow"],"door_color_assignment":["black","white"],"door_generator_assignment":[0,1],"goal":2,"start":0,"action_noise":0.1,"location_history":"[0,1,2]","action_history":"[0,0]","door_history":"[0,0]","location_rts":"[1054,394]","trial_type":"two-door-navigation","trial_index":51,"time_elapsed":1053815,"internal_node_id":"0.0-2.0-49.0"},{"view_history":"[{\"page_index\":0,\"viewing_time\":68143}]","rt":68143,"trial_type":"instructions","trial_index":52,"time_elapsed":1123472,"internal_node_id":"0.0-3.0"},{"view_history":"[{\"page_index\":0,\"viewing_time\":465230},{\"page_index\":1,\"viewing_time\":1342458}]","rt":1807689,"trial_type":"instructions","trial_index":53,"time_elapsed":2932163,"internal_node_id":"0.0-4.0"},{"group":"tri cycles (cube, non-group)","fractal_assignment":["../images/org_blu.png","../images/ylw_pnk.png","../images/pnk_blu.png","../images/ylw_slt.png","../images/blu_wht.png","../images/grn_red.png","../images/gry_blk.png","../images/cyn_red.png"],"mutagen_generator_assignment":[1,0],"goal":3,"start":0,"action_noise":0.1,"location_history":"[0,3]","action_history":"[1]","mutagen_history":"[0]","location_rts":"[7449]","trial_type":"fractal-mutation","trial_index":54,"time_elapsed":2944203,"internal_node_id":"0.0-5.0-0.0"},{"group":"tri cycles (cube, non-group)","fractal_assignment":["../images/org_blu.png","../images/ylw_pnk.png","../images/pnk_blu.png","../images/ylw_slt.png","../images/blu_wht.png","../images/grn_red.png","../images/gry_blk.png","../images/cyn_red.png"],"mutagen_generator_assignment":[1,0],"goal":1,"start":3,"action_noise":0.1,"location_history":"[3,7,6,5,2,6,5,1]","action_history":"[0,1,1,1,1,1,0]","mutagen_history":"[1,0,0,0,0,0,1]","location_rts":"[1243,1793,1263,186,699,493,617]","trial_type":"fractal-mutation","trial_index":55,"time_elapsed":2961770,"internal_node_id":"0.0-5.0-1.0"},{"group":"tri cycles (cube, non-group)","fractal_assignment":["../images/org_blu.png","../images/ylw_pnk.png","../images/pnk_blu.png","../images/ylw_slt.png","../images/blu_wht.png","../images/grn_red.png","../images/gry_blk.png","../images/cyn_red.png"],"mutagen_generator_assignment":[1,0],"goal":2,"start":1,"action_noise":0.1,"location_history":"[1,5,2]","action_history":"[1,1]","mutagen_history":"[0,0]","location_rts":"[1864,64]","trial_type":"fractal-mutation","trial_index":56,"time_elapsed":2969556,"internal_node_id":"0.0-5.0-2.0"},{"group":"tri cycles (cube, non-group)","fractal_assignment":["../images/org_blu.png","../images/ylw_pnk.png","../images/pnk_blu.png","../images/ylw_slt.png","../images/blu_wht.png","../images/grn_red.png","../images/gry_blk.png","../images/cyn_red.png"],"mutagen_generator_assignment":[1,0],"goal":6,"start":2,"action_noise":0.1,"location_history":"[2,1,0,2,6]","action_history":"[0,0,0,1]","mutagen_history":"[1,1,1,0]","location_rts":"[3571,481,547,668]","trial_type":"fractal-mutation","trial_index":57,"time_elapsed":2982620,"internal_node_id":"0.0-5.0-3.0"},{"group":"tri cycles (cube, non-group)","fractal_assignment":["../images/org_blu.png","../images/ylw_pnk.png","../images/pnk_blu.png","../images/ylw_slt.png","../images/blu_wht.png","../images/grn_red.png","../images/gry_blk.png","../images/cyn_red.png"],"mutagen_generator_assignment":[1,0],"goal":5,"start":6,"action_noise":0.1,"location_history":"[6,4,7,3,4,0,3,7,6,4,7,6,5]","action_history":"[0,0,1,1,1,1,0,0,0,0,0,0]","mutagen_history":"[1,1,0,0,0,0,1,1,1,1,1,1]","location_rts":"[9441,813,974,900,446,835,468,306,359,497,402,400]","trial_type":"fractal-mutation","trial_index":58,"time_elapsed":3014749,"internal_node_id":"0.0-5.0-4.0"},{"group":"tri cycles (cube, non-group)","fractal_assignment":["../images/org_blu.png","../images/ylw_pnk.png","../images/pnk_blu.png","../images/ylw_slt.png","../images/blu_wht.png","../images/grn_red.png","../images/gry_blk.png","../images/cyn_red.png"],"mutagen_generator_assignment":[1,0],"goal":4,"start":5,"action_noise":0.1,"location_history":"[5,1,0,2,1,0,3,4]","action_history":"[0,0,0,0,0,1,1]","mutagen_history":"[1,1,1,1,1,0,0]","location_rts":"[1017,359,337,346,470,294,550]","trial_type":"fractal-mutation","trial_index":59,"time_elapsed":3029125,"internal_node_id":"0.0-5.0-5.0"},{"group":"tri cycles (cube, non-group)","fractal_assignment":["../images/org_blu.png","../images/ylw_pnk.png","../images/pnk_blu.png","../images/ylw_slt.png","../images/blu_wht.png","../images/grn_red.png","../images/gry_blk.png","../images/cyn_red.png"],"mutagen_generator_assignment":[1,0],"goal":7,"start":4,"action_noise":0.1,"location_history":"[4,7]","action_history":"[0]","mutagen_history":"[1]","location_rts":"[847]","trial_type":"fractal-mutation","trial_index":60,"time_elapsed":3034565,"internal_node_id":"0.0-5.0-6.0"},{"group":"tri cycles (cube, non-group)","fractal_assignment":["../images/org_blu.png","../images/ylw_pnk.png","../images/pnk_blu.png","../images/ylw_slt.png","../images/blu_wht.png","../images/grn_red.png","../images/gry_blk.png","../images/cyn_red.png"],"mutagen_generator_assignment":[1,0],"goal":4,"start":7,"action_noise":0.1,"location_history":"[7,6,5,2,6,5,2,6,5,1,0,2,1,0,2,1,0,2,1,0,3,4]","action_history":"[0,1,1,1,1,1,1,1,1,0,0,0,0,0,0,0,0,0,0,0,1]","mutagen_history":"[1,0,0,0,0,0,0,0,0,1,1,1,1,1,1,1,1,1,1,1,0]","location_rts":"[795,835,369,1436,379,346,412,474,374,474,329,423,316,357,560,324,366,550,451,360,2335]","trial_type":"fractal-mutation","trial_index":61,"time_elapsed":3077557,"internal_node_id":"0.0-5.0-7.0"},{"group":"tri cycles (cube, non-group)","fractal_assignment":["../images/org_blu.png","../images/ylw_pnk.png","../images/pnk_blu.png","../images/ylw_slt.png","../images/blu_wht.png","../images/grn_red.png","../images/gry_blk.png","../images/cyn_red.png"],"mutagen_generator_assignment":[1,0],"goal":6,"start":4,"action_noise":0.1,"location_history":"[4,7,6]","action_history":"[0,0]","mutagen_history":"[1,1]","location_rts":"[1075,391]","trial_type":"fractal-mutation","trial_index":62,"time_elapsed":3084658,"internal_node_id":"0.0-5.0-8.0"},{"group":"tri cycles (cube, non-group)","fractal_assignment":["../images/org_blu.png","../images/ylw_pnk.png","../images/pnk_blu.png","../images/ylw_slt.png","../images/blu_wht.png","../images/grn_red.png","../images/gry_blk.png","../images/cyn_red.png"],"mutagen_generator_assignment":[1,0],"goal":0,"start":6,"action_noise":0.1,"location_history":"[6,5,1,5,1,0]","action_history":"[1,1,1,0,0]","mutagen_history":"[0,0,0,1,1]","location_rts":"[964,393,444,468,444]","trial_type":"fractal-mutation","trial_index":63,"time_elapsed":3096174,"internal_node_id":"0.0-5.0-9.0"},{"group":"tri cycles (cube, non-group)","fractal_assignment":["../images/org_blu.png","../images/ylw_pnk.png","../images/pnk_blu.png","../images/ylw_slt.png","../images/blu_wht.png","../images/grn_red.png","../images/gry_blk.png","../images/cyn_red.png"],"mutagen_generator_assignment":[1,0],"goal":1,"start":0,"action_noise":0.1,"location_history":"[0,2,1]","action_history":"[0,0]","mutagen_history":"[1,1]","location_rts":"[585,422]","trial_type":"fractal-mutation","trial_index":64,"time_elapsed":3102811,"internal_node_id":"0.0-5.0-10.0"},{"group":"tri cycles (cube, non-group)","fractal_assignment":["../images/org_blu.png","../images/ylw_pnk.png","../images/pnk_blu.png","../images/ylw_slt.png","../images/blu_wht.png","../images/grn_red.png","../images/gry_blk.png","../images/cyn_red.png"],"mutagen_generator_assignment":[1,0],"goal":3,"start":1,"action_noise":0.1,"location_history":"[1,5,1,5,2,6,5,2,1,0,2,1,0,2,1,0,2,6,5,2,6,5,2,6,5,2,1,0,2,1,0,3]","action_history":"[1,1,1,1,1,1,1,0,0,0,0,0,0,0,0,0,1,1,1,1,1,1,1,1,1,0,0,0,0,0,1]","mutagen_history":"[0,0,0,0,0,0,0,1,1,1,1,1,1,1,1,1,0,0,0,0,0,0,0,0,0,1,1,1,1,1,0]","location_rts":"[885,348,354,314,570,476,384,395,377,500,450,348,367,414,397,301,395,381,328,386,357,293,545,397,322,708,395,405,330,383,656]","trial_type":"fractal-mutation","trial_index":65,"time_elapsed":3152597,"internal_node_id":"0.0-5.0-11.0"},{"group":"tri cycles (cube, non-group)","fractal_assignment":["../images/org_blu.png","../images/ylw_pnk.png","../images/pnk_blu.png","../images/ylw_slt.png","../images/blu_wht.png","../images/grn_red.png","../images/gry_blk.png","../images/cyn_red.png"],"mutagen_generator_assignment":[1,0],"goal":7,"start":3,"action_noise":0.1,"location_history":"[3,7]","action_history":"[0]","mutagen_history":"[1]","location_rts":"[36624]","trial_type":"fractal-mutation","trial_index":66,"time_elapsed":3193797,"internal_node_id":"0.0-5.0-12.0"},{"group":"tri cycles (cube, non-group)","fractal_assignment":["../images/org_blu.png","../images/ylw_pnk.png","../images/pnk_blu.png","../images/ylw_slt.png","../images/blu_wht.png","../images/grn_red.png","../images/gry_blk.png","../images/cyn_red.png"],"mutagen_generator_assignment":[1,0],"goal":5,"start":7,"action_noise":0.1,"location_history":"[7,6,4,7,6,5]","action_history":"[0,0,0,0,1]","mutagen_history":"[1,1,1,1,0]","location_rts":"[2049,390,302,400,323]","trial_type":"fractal-mutation","trial_index":67,"time_elapsed":3206105,"internal_node_id":"0.0-5.0-13.0"},{"group":"tri cycles (cube, non-group)","fractal_assignment":["../images/org_blu.png","../images/ylw_pnk.png","../images/pnk_blu.png","../images/ylw_slt.png","../images/blu_wht.png","../images/grn_red.png","../images/gry_blk.png","../images/cyn_red.png"],"mutagen_generator_assignment":[1,0],"goal":2,"start":5,"action_noise":0.1,"location_history":"[5,1,5,1,0,2]","action_history":"[0,0,0,0,0]","mutagen_history":"[1,1,1,1,1]","location_rts":"[871,427,336,338,534]","trial_type":"fractal-mutation","trial_index":68,"time_elapsed":3217534,"internal_node_id":"0.0-5.0-14.0"},{"group":"tri cycles (cube, non-group)","fractal_assignment":["../images/org_blu.png","../images/ylw_pnk.png","../images/pnk_blu.png","../images/ylw_slt.png","../images/blu_wht.png","../images/grn_red.png","../images/gry_blk.png","../images/cyn_red.png"],"mutagen_generator_assignment":[1,0],"goal":7,"start":2,"action_noise":0.1,"location_history":"[2,1,0,2,1,0,2,6,5,2,6,5,2,6,4,7]","action_history":"[0,0,0,0,0,0,1,1,1,1,1,1,1,0,0]","mutagen_history":"[1,1,1,1,1,1,0,0,0,0,0,0,0,1,1]","location_rts":"[2601,371,340,406,297,430,372,320,509,378,337,485,377,300,399]","trial_type":"fractal-mutation","trial_index":69,"time_elapsed":3244891,"internal_node_id":"0.0-5.0-15.0"},{"group":"tri cycles (cube, non-group)","fractal_assignment":["../images/org_blu.png","../images/ylw_pnk.png","../images/pnk_blu.png","../images/ylw_slt.png","../images/blu_wht.png","../images/grn_red.png","../images/gry_blk.png","../images/cyn_red.png"],"mutagen_generator_assignment":[1,0],"goal":4,"start":7,"action_noise":0.1,"location_history":"[7,3,4]","action_history":"[1,1]","mutagen_history":"[0,0]","location_rts":"[12962,443]","trial_type":"fractal-mutation","trial_index":70,"time_elapsed":3263911,"internal_node_id":"0.0-5.0-16.0"},{"group":"tri cycles (cube, non-group)","fractal_assignment":["../images/org_blu.png","../images/ylw_pnk.png","../images/pnk_blu.png","../images/ylw_slt.png","../images/blu_wht.png","../images/grn_red.png","../images/gry_blk.png","../images/cyn_red.png"],"mutagen_generator_assignment":[1,0],"goal":2,"start":4,"action_noise":0.1,"location_history":"[4,7,6,4,7,6,4,7,3,4,7,3,4,0,3,4,0,3,4,7,6,4,7,6,4,0,3,4,0,3,7,6,4,7,6,4,7,3,4,0,2]","action_history":"[0,0,0,0,0,0,0,1,1,1,1,1,1,1,1,1,0,0,0,0,0,0,0,0,1,1,1,1,1,0,0,0,0,0,0,0,1,1,1,1]","mutagen_history":"[1,1,1,1,1,1,1,0,0,0,0,0,0,0,0,0,1,1,1,1,1,1,1,1,0,0,0,0,0,1,1,1,1,1,1,1,0,0,0,0]","location_rts":"[8539,790,462,453,1867,503,1180,408,587,1109,447,1804,412,499,681,553,571,629,422,376,440,352,584,375,901,551,547,484,558,679,411,429,325,402,452,385,413,406,419,353]","trial_type":"fractal-mutation","trial_index":71,"time_elapsed":3341737,"internal_node_id":"0.0-5.0-17.0"},{"group":"tri cycles (cube, non-group)","fractal_assignment":["../images/org_blu.png","../images/ylw_pnk.png","../images/pnk_blu.png","../images/ylw_slt.png","../images/blu_wht.png","../images/grn_red.png","../images/gry_blk.png","../images/cyn_red.png"],"mutagen_generator_assignment":[1,0],"goal":3,"start":2,"action_noise":0.1,"location_history":"[2,1,0,2,1,0,3]","action_history":"[0,0,0,0,0,1]","mutagen_history":"[1,1,1,1,1,0]","location_rts":"[1097,359,318,688,485,263]","trial_type":"fractal-mutation","trial_index":72,"time_elapsed":3354858,"internal_node_id":"0.0-5.0-18.0"},{"group":"tri cycles (cube, non-group)","fractal_assignment":["../images/org_blu.png","../images/ylw_pnk.png","../images/pnk_blu.png","../images/ylw_slt.png","../images/blu_wht.png","../images/grn_red.png","../images/gry_blk.png","../images/cyn_red.png"],"mutagen_generator_assignment":[1,0],"goal":6,"start":3,"action_noise":0.1,"location_history":"[3,7,6]","action_history":"[0,0]","mutagen_history":"[1,1]","location_rts":"[12472,400]","trial_type":"fractal-mutation","trial_index":73,"time_elapsed":3373379,"internal_node_id":"0.0-5.0-19.0"},{"group":"tri cycles (cube, non-group)","fractal_assignment":["../images/org_blu.png","../images/ylw_pnk.png","../images/pnk_blu.png","../images/ylw_slt.png","../images/blu_wht.png","../images/grn_red.png","../images/gry_blk.png","../images/cyn_red.png"],"mutagen_generator_assignment":[1,0],"goal":5,"start":6,"action_noise":0.1,"location_history":"[6,4,7,6,5]","action_history":"[0,0,0,1]","mutagen_history":"[1,1,1,0]","location_rts":"[1032,383,457,361]","trial_type":"fractal-mutation","trial_index":74,"time_elapsed":3383426,"internal_node_id":"0.0-5.0-20.0"},{"group":"tri cycles (cube, non-group)","fractal_assignment":["../images/org_blu.png","../images/ylw_pnk.png","../images/pnk_blu.png","../images/ylw_slt.png","../images/blu_wht.png","../images/grn_red.png","../images/gry_blk.png","../images/cyn_red.png"],"mutagen_generator_assignment":[1,0],"goal":1,"start":5,"action_noise":0.1,"location_history":"[5,2,1]","action_history":"[0,0]","mutagen_history":"[1,1]","location_rts":"[898,494]","trial_type":"fractal-mutation","trial_index":75,"time_elapsed":3390481,"internal_node_id":"0.0-5.0-21.0"},{"group":"tri cycles (cube, non-group)","fractal_assignment":["../images/org_blu.png","../images/ylw_pnk.png","../images/pnk_blu.png","../images/ylw_slt.png","../images/blu_wht.png","../images/grn_red.png","../images/gry_blk.png","../images/cyn_red.png"],"mutagen_generator_assignment":[1,0],"goal":0,"start":1,"action_noise":0.1,"location_history":"[1,0]","action_history":"[0]","mutagen_history":"[1]","location_rts":"[1023]","trial_type":"fractal-mutation","trial_index":76,"time_elapsed":3396081,"internal_node_id":"0.0-5.0-22.0"},{"group":"tri cycles (cube, non-group)","fractal_assignment":["../images/org_blu.png","../images/ylw_pnk.png","../images/pnk_blu.png","../images/ylw_slt.png","../images/blu_wht.png","../images/grn_red.png","../images/gry_blk.png","../images/cyn_red.png"],"mutagen_generator_assignment":[1,0],"goal":2,"start":0,"action_noise":0.1,"location_history":"[0,3,7,3,7,6,5,2]","action_history":"[1,1,1,0,0,0,0]","mutagen_history":"[0,0,0,1,1,1,1]","location_rts":"[772,574,327,798,351,409,458]","trial_type":"fractal-mutation","trial_index":77,"time_elapsed":3410683,"internal_node_id":"0.0-5.0-23.0"},{"group":"tri cycles (cube, non-group)","fractal_assignment":["../images/org_blu.png","../images/ylw_pnk.png","../images/pnk_blu.png","../images/ylw_slt.png","../images/blu_wht.png","../images/grn_red.png","../images/gry_blk.png","../images/cyn_red.png"],"mutagen_generator_assignment":[1,0],"goal":6,"start":2,"action_noise":0.1,"location_history":"[2,1,0,2,1,0,3,4,0,3,7,3,7,6]","action_history":"[0,0,0,0,0,1,1,1,1,1,1,0,0]","mutagen_history":"[1,1,1,1,1,0,0,0,0,0,0,1,1]","location_rts":"[529,332,345,344,350,598,501,414,366,466,378,461,384]","trial_type":"fractal-mutation","trial_index":78,"time_elapsed":3433484,"internal_node_id":"0.0-5.0-24.0"},{"group":"tri cycles (cube, non-group)","fractal_assignment":["../images/org_blu.png","../images/ylw_pnk.png","../images/pnk_blu.png","../images/ylw_slt.png","../images/blu_wht.png","../images/grn_red.png","../images/gry_blk.png","../images/cyn_red.png"],"mutagen_generator_assignment":[1,0],"goal":1,"start":6,"action_noise":0.1,"location_history":"[6,4,7,6,5,2,6,4,0,3,4,0,2,1]","action_history":"[0,0,0,1,1,1,1,1,1,1,1,0,0]","mutagen_history":"[1,1,1,0,0,0,0,0,0,0,0,1,1]","location_rts":"[674,440,498,915,704,410,448,407,477,584,638,611,479]","trial_type":"fractal-mutation","trial_index":79,"time_elapsed":3458041,"internal_node_id":"0.0-5.0-25.0"},{"group":"tri cycles (cube, non-group)","fractal_assignment":["../images/org_blu.png","../images/ylw_pnk.png","../images/pnk_blu.png","../images/ylw_slt.png","../images/blu_wht.png","../images/grn_red.png","../images/gry_blk.png","../images/cyn_red.png"],"mutagen_generator_assignment":[1,0],"goal":3,"start":1,"action_noise":0.1,"location_history":"[1,0,3]","action_history":"[0,1]","mutagen_history":"[1,0]","location_rts":"[1315,511]","trial_type":"fractal-mutation","trial_index":80,"time_elapsed":3465492,"internal_node_id":"0.0-5.0-26.0"},{"group":"tri cycles (cube, non-group)","fractal_assignment":["../images/org_blu.png","../images/ylw_pnk.png","../images/pnk_blu.png","../images/ylw_slt.png","../images/blu_wht.png","../images/grn_red.png","../images/gry_blk.png","../images/cyn_red.png"],"mutagen_generator_assignment":[1,0],"goal":7,"start":3,"action_noise":0.1,"location_history":"[3,4,7]","action_history":"[0,0]","mutagen_history":"[1,1]","location_rts":"[1013,457]","trial_type":"fractal-mutation","trial_index":81,"time_elapsed":3472607,"internal_node_id":"0.0-5.0-27.0"},{"group":"tri cycles (cube, non-group)","fractal_assignment":["../images/org_blu.png","../images/ylw_pnk.png","../images/pnk_blu.png","../images/ylw_slt.png","../images/blu_wht.png","../images/grn_red.png","../images/gry_blk.png","../images/cyn_red.png"],"mutagen_generator_assignment":[1,0],"goal":4,"start":7,"action_noise":0.1,"location_history":"[7,3,4]","action_history":"[0,1]","mutagen_history":"[1,0]","location_rts":"[1229,604]","trial_type":"fractal-mutation","trial_index":82,"time_elapsed":3480078,"internal_node_id":"0.0-5.0-28.0"},{"group":"tri cycles (cube, non-group)","fractal_assignment":["../images/org_blu.png","../images/ylw_pnk.png","../images/pnk_blu.png","../images/ylw_slt.png","../images/blu_wht.png","../images/grn_red.png","../images/gry_blk.png","../images/cyn_red.png"],"mutagen_generator_assignment":[1,0],"goal":0,"start":4,"action_noise":0.1,"location_history":"[4,7,6,4,7,3,4,0]","action_history":"[0,0,0,0,1,1,1]","mutagen_history":"[1,1,1,1,0,0,0]","location_rts":"[799,678,683,461,534,538,1277]","trial_type":"fractal-mutation","trial_index":83,"time_elapsed":3495979,"internal_node_id":"0.0-5.0-29.0"},{"group":"tri cycles (cube, non-group)","fractal_assignment":["../images/org_blu.png","../images/ylw_pnk.png","../images/pnk_blu.png","../images/ylw_slt.png","../images/blu_wht.png","../images/grn_red.png","../images/gry_blk.png","../images/cyn_red.png"],"mutagen_generator_assignment":[1,0],"goal":5,"start":0,"action_noise":0.1,"location_history":"[0,2,1,5]","action_history":"[0,0,1]","mutagen_history":"[1,1,0]","location_rts":"[892,572,935]","trial_type":"fractal-mutation","trial_index":84,"time_elapsed":3505075,"internal_node_id":"0.0-5.0-30.0"},{"group":"tri cycles (cube, non-group)","fractal_assignment":["../images/org_blu.png","../images/ylw_pnk.png","../images/pnk_blu.png","../images/ylw_slt.png","../images/blu_wht.png","../images/grn_red.png","../images/gry_blk.png","../images/cyn_red.png"],"mutagen_generator_assignment":[1,0],"goal":3,"start":5,"action_noise":0.1,"location_history":"[5,1,5,1,0,3]","action_history":"[1,1,0,0,1]","mutagen_history":"[0,0,1,1,0]","location_rts":"[999,826,647,419,702]","trial_type":"fractal-mutation","trial_index":85,"time_elapsed":3517483,"internal_node_id":"0.0-5.0-31.0"},{"group":"tri cycles (cube, non-group)","fractal_assignment":["../images/org_blu.png","../images/ylw_pnk.png","../images/pnk_blu.png","../images/ylw_slt.png","../images/blu_wht.png","../images/grn_red.png","../images/gry_blk.png","../images/cyn_red.png"],"mutagen_generator_assignment":[1,0],"goal":2,"start":3,"action_noise":0.1,"location_history":"[3,7,6,4,0,3,7,6,4,0,3,4,0,2]","action_history":"[0,0,0,1,1,0,0,0,1,1,1,1,0]","mutagen_history":"[1,1,1,0,0,1,1,1,0,0,0,0,1]","location_rts":"[602,462,472,669,440,864,658,449,637,330,399,1023,532]","trial_type":"fractal-mutation","trial_index":86,"time_elapsed":3542347,"internal_node_id":"0.0-5.0-32.0"},{"group":"tri cycles (cube, non-group)","fractal_assignment":["../images/org_blu.png","../images/ylw_pnk.png","../images/pnk_blu.png","../images/ylw_slt.png","../images/blu_wht.png","../images/grn_red.png","../images/gry_blk.png","../images/cyn_red.png"],"mutagen_generator_assignment":[1,0],"goal":6,"start":2,"action_noise":0.1,"location_history":"[2,1,0,3,4,0,3,4,0,2,1,0,2,6]","action_history":"[0,0,1,1,1,1,1,1,0,0,0,0,1]","mutagen_history":"[1,1,0,0,0,0,0,0,1,1,1,1,0]","location_rts":"[823,409,395,769,485,411,507,543,402,521,441,780,644]","trial_type":"fractal-mutation","trial_index":87,"time_elapsed":3566775,"internal_node_id":"0.0-5.0-33.0"},{"group":"tri cycles (cube, non-group)","fractal_assignment":["../images/org_blu.png","../images/ylw_pnk.png","../images/pnk_blu.png","../images/ylw_slt.png","../images/blu_wht.png","../images/grn_red.png","../images/gry_blk.png","../images/cyn_red.png"],"mutagen_generator_assignment":[1,0],"goal":1,"start":6,"action_noise":0.1,"location_history":"[6,4,7,6,5,2,6,5,1]","action_history":"[0,0,0,1,1,1,1,0]","mutagen_history":"[1,1,1,0,0,0,0,1]","location_rts":"[51178,416,644,462,921,371,309,559]","trial_type":"fractal-mutation","trial_index":88,"time_elapsed":3633663,"internal_node_id":"0.0-5.0-34.0"},{"group":"tri cycles (cube, non-group)","fractal_assignment":["../images/org_blu.png","../images/ylw_pnk.png","../images/pnk_blu.png","../images/ylw_slt.png","../images/blu_wht.png","../images/grn_red.png","../images/gry_blk.png","../images/cyn_red.png"],"mutagen_generator_assignment":[1,0],"goal":7,"start":1,"action_noise":0.1,"location_history":"[1,5,1,0,3,7]","action_history":"[1,0,0,0,0]","mutagen_history":"[0,1,1,1,1]","location_rts":"[915,744,405,535,350]","trial_type":"fractal-mutation","trial_index":89,"time_elapsed":3645484,"internal_node_id":"0.0-5.0-35.0"},{"group":"tri cycles (cube, non-group)","fractal_assignment":["../images/org_blu.png","../images/ylw_pnk.png","../images/pnk_blu.png","../images/ylw_slt.png","../images/blu_wht.png","../images/grn_red.png","../images/gry_blk.png","../images/cyn_red.png"],"mutagen_generator_assignment":[1,0],"goal":4,"start":7,"action_noise":0.1,"location_history":"[7,6,4]","action_history":"[0,0]","mutagen_history":"[1,1]","location_rts":"[1018,547]","trial_type":"fractal-mutation","trial_index":90,"time_elapsed":3652705,"internal_node_id":"0.0-5.0-36.0"},{"group":"tri cycles (cube, non-group)","fractal_assignment":["../images/org_blu.png","../images/ylw_pnk.png","../images/pnk_blu.png","../images/ylw_slt.png","../images/blu_wht.png","../images/grn_red.png","../images/gry_blk.png","../images/cyn_red.png"],"mutagen_generator_assignment":[1,0],"goal":5,"start":4,"action_noise":0.1,"location_history":"[4,7,6,4,7,3,4,0,3,4,0,2,1,0,2,1,0,2,1,5]","action_history":"[0,0,0,0,1,1,1,1,1,1,0,0,0,0,0,0,0,0,1]","mutagen_history":"[1,1,1,1,0,0,0,0,0,0,1,1,1,1,1,1,1,1,0]","location_rts":"[884,368,385,384,693,389,325,475,379,335,639,308,303,413,348,564,382,398,372]","trial_type":"fractal-mutation","trial_index":91,"time_elapsed":3684910,"internal_node_id":"0.0-5.0-37.0"},{"group":"tri cycles (cube, non-group)","fractal_assignment":["../images/org_blu.png","../images/ylw_pnk.png","../images/pnk_blu.png","../images/ylw_slt.png","../images/blu_wht.png","../images/grn_red.png","../images/gry_blk.png","../images/cyn_red.png"],"mutagen_generator_assignment":[1,0],"goal":0,"start":5,"action_noise":0.1,"location_history":"[5,1,5,2,6,5,2,1,5,1,5,1,5,2,1,0]","action_history":"[0,1,1,1,1,1,1,1,0,0,0,1,1,0,0]","mutagen_history":"[1,0,0,0,0,0,0,0,1,1,1,0,0,1,1]","location_rts":"[636,1005,729,547,377,469,638,551,254,706,359,516,687,629,390]","trial_type":"fractal-mutation","trial_index":92,"time_elapsed":3712896,"internal_node_id":"0.0-5.0-38.0"},{"group":"tri cycles (cube, non-group)","fractal_assignment":["../images/org_blu.png","../images/ylw_pnk.png","../images/pnk_blu.png","../images/ylw_slt.png","../images/blu_wht.png","../images/grn_red.png","../images/gry_blk.png","../images/cyn_red.png"],"mutagen_generator_assignment":[1,0],"goal":4,"start":0,"action_noise":0.1,"location_history":"[0,3,7,6,4]","action_history":"[1,0,0,0]","mutagen_history":"[0,1,1,1]","location_rts":"[11866,1799,348,454]","trial_type":"fractal-mutation","trial_index":93,"time_elapsed":3735157,"internal_node_id":"0.0-5.0-39.0"},{"group":"tri cycles (cube, non-group)","fractal_assignment":["../images/org_blu.png","../images/ylw_pnk.png","../images/pnk_blu.png","../images/ylw_slt.png","../images/blu_wht.png","../images/grn_red.png","../images/gry_blk.png","../images/cyn_red.png"],"mutagen_generator_assignment":[1,0],"goal":0,"start":4,"action_noise":0.1,"location_history":"[4,7,6,5,2,1,0]","action_history":"[0,0,1,1,1,0]","mutagen_history":"[1,1,0,0,0,1]","location_rts":"[824,420,530,373,411,659]","trial_type":"fractal-mutation","trial_index":94,"time_elapsed":3748293,"internal_node_id":"0.0-5.0-40.0"},{"group":"tri cycles (cube, non-group)","fractal_assignment":["../images/org_blu.png","../images/ylw_pnk.png","../images/pnk_blu.png","../images/ylw_slt.png","../images/blu_wht.png","../images/grn_red.png","../images/gry_blk.png","../images/cyn_red.png"],"mutagen_generator_assignment":[1,0],"goal":2,"start":0,"action_noise":0.1,"location_history":"[0,2]","action_history":"[0]","mutagen_history":"[1]","location_rts":"[4925]","trial_type":"fractal-mutation","trial_index":95,"time_elapsed":3757795,"internal_node_id":"0.0-5.0-41.0"},{"group":"tri cycles (cube, non-group)","fractal_assignment":["../images/org_blu.png","../images/ylw_pnk.png","../images/pnk_blu.png","../images/ylw_slt.png","../images/blu_wht.png","../images/grn_red.png","../images/gry_blk.png","../images/cyn_red.png"],"mutagen_generator_assignment":[1,0],"goal":3,"start":2,"action_noise":0.1,"location_history":"[2,1,0,3]","action_history":"[0,0,1]","mutagen_history":"[1,1,0]","location_rts":"[778,868,408]","trial_type":"fractal-mutation","trial_index":96,"time_elapsed":3766566,"internal_node_id":"0.0-5.0-42.0"},{"group":"tri cycles (cube, non-group)","fractal_assignment":["../images/org_blu.png","../images/ylw_pnk.png","../images/pnk_blu.png","../images/ylw_slt.png","../images/blu_wht.png","../images/grn_red.png","../images/gry_blk.png","../images/cyn_red.png"],"mutagen_generator_assignment":[1,0],"goal":5,"start":3,"action_noise":0.1,"location_history":"[3,7,3,4,0,2,1,0,3,7,6,4,7,6,4,7,3,4,0,3,4,7,6,4,7,6,4,7,6,5]","action_history":"[0,1,1,1,0,0,0,0,0,0,0,0,0,0,0,1,1,1,1,1,0,0,0,0,0,0,0,0,1]","mutagen_history":"[1,0,0,0,1,1,1,1,1,1,1,1,1,1,1,0,0,0,0,0,1,1,1,1,1,1,1,1,0]","location_rts":"[692,935,464,354,571,410,806,443,361,374,362,367,959,478,386,494,569,361,429,425,484,490,316,293,394,332,351,362,2308]","trial_type":"fractal-mutation","trial_index":97,"time_elapsed":3816550,"internal_node_id":"0.0-5.0-43.0"},{"group":"tri cycles (cube, non-group)","fractal_assignment":["../images/org_blu.png","../images/ylw_pnk.png","../images/pnk_blu.png","../images/ylw_slt.png","../images/blu_wht.png","../images/grn_red.png","../images/gry_blk.png","../images/cyn_red.png"],"mutagen_generator_assignment":[1,0],"goal":1,"start":5,"action_noise":0.1,"location_history":"[5,1]","action_history":"[0]","mutagen_history":"[1]","location_rts":"[627]","trial_type":"fractal-mutation","trial_index":98,"time_elapsed":3821756,"internal_node_id":"0.0-5.0-44.0"},{"group":"tri cycles (cube, non-group)","fractal_assignment":["../images/org_blu.png","../images/ylw_pnk.png","../images/pnk_blu.png","../images/ylw_slt.png","../images/blu_wht.png","../images/grn_red.png","../images/gry_blk.png","../images/cyn_red.png"],"mutagen_generator_assignment":[1,0],"goal":7,"start":1,"action_noise":0.1,"location_history":"[1,0,2,1,0,3,4,0,2,1,5,2,6,5,1,5,1,0,3,7]","action_history":"[0,0,0,1,1,1,1,0,0,1,1,1,1,1,1,0,0,0,0]","mutagen_history":"[1,1,1,0,0,0,0,1,1,0,0,0,0,0,0,1,1,1,1]","location_rts":"[1002,852,531,502,874,401,352,592,617,700,910,574,600,670,381,398,429,462,453]","trial_type":"fractal-mutation","trial_index":99,"time_elapsed":3856798,"internal_node_id":"0.0-5.0-45.0"},{"group":"tri cycles (cube, non-group)","fractal_assignment":["../images/org_blu.png","../images/ylw_pnk.png","../images/pnk_blu.png","../images/ylw_slt.png","../images/blu_wht.png","../images/grn_red.png","../images/gry_blk.png","../images/cyn_red.png"],"mutagen_generator_assignment":[1,0],"goal":6,"start":7,"action_noise":0.1,"location_history":"[7,3,7,6]","action_history":"[1,0,0]","mutagen_history":"[0,1,1]","location_rts":"[1472,1337,508]","trial_type":"fractal-mutation","trial_index":100,"time_elapsed":3866826,"internal_node_id":"0.0-5.0-46.0"},{"group":"tri cycles (cube, non-group)","fractal_assignment":["../images/org_blu.png","../images/ylw_pnk.png","../images/pnk_blu.png","../images/ylw_slt.png","../images/blu_wht.png","../images/grn_red.png","../images/gry_blk.png","../images/cyn_red.png"],"mutagen_generator_assignment":[1,0],"goal":3,"start":6,"action_noise":0.1,"location_history":"[6,4,7,6,5,2,6,5,2,1,0,2,1,0,2,6,5,2,1,0,2,1,0,3]","action_history":"[0,0,0,1,1,1,1,1,0,0,0,0,0,0,1,1,1,0,0,0,0,0,1]","mutagen_history":"[1,1,1,0,0,0,0,0,1,1,1,1,1,1,0,0,0,1,1,1,1,1,0]","location_rts":"[790,845,456,586,508,380,432,439,263,379,312,346,322,337,589,5711,2390,3076,519,329,824,537,604]","trial_type":"fractal-mutation","trial_index":101,"time_elapsed":3915948,"internal_node_id":"0.0-5.0-47.0"},{"group":"tri cycles (cube, non-group)","fractal_assignment":["../images/org_blu.png","../images/ylw_pnk.png","../images/pnk_blu.png","../images/ylw_slt.png","../images/blu_wht.png","../images/grn_red.png","../images/gry_blk.png","../images/cyn_red.png"],"mutagen_generator_assignment":[1,0],"goal":0,"start":3,"action_noise":0.1,"location_history":"[3,7,6,4,0]","action_history":"[0,0,0,0]","mutagen_history":"[1,1,1,1]","location_rts":"[1384,747,401,453]","trial_type":"fractal-mutation","trial_index":102,"time_elapsed":3926740,"internal_node_id":"0.0-5.0-48.0"},{"group":"tri cycles (cube, non-group)","fractal_assignment":["../images/org_blu.png","../images/ylw_pnk.png","../images/pnk_blu.png","../images/ylw_slt.png","../images/blu_wht.png","../images/grn_red.png","../images/gry_blk.png","../images/cyn_red.png"],"mutagen_generator_assignment":[1,0],"goal":2,"start":0,"action_noise":0.1,"location_history":"[0,2]","action_history":"[0]","mutagen_history":"[1]","location_rts":"[657]","trial_type":"fractal-mutation","trial_index":103,"time_elapsed":3931975,"internal_node_id":"0.0-5.0-49.0"},{"view_history":"[{\"page_index\":0,\"viewing_time\":10097}]","rt":10098,"trial_type":"instructions","trial_index":104,"time_elapsed":3943074,"internal_node_id":"0.0-6.0"},{"rt":15929,"responses":"{\"Q0\":\"it was interesting a lot better than so of the others I do on here\"}","trial_type":"survey-text","trial_index":105,"time_elapsed":3960017,"internal_node_id":"0.0-7.0"}]