[{"view_history":"[{\"page_index\":0,\"viewing_time\":14054},{\"page_index\":1,\"viewing_time\":11573},{\"page_index\":2,\"viewing_time\":12868},{\"page_index\":3,\"viewing_time\":122788}]","rt":161284,"trial_type":"instructions","trial_index":0,"time_elapsed":161285,"internal_node_id":"0.0-0.0"},{"view_history":"[{\"page_index\":0,\"viewing_time\":2077},{\"page_index\":1,\"viewing_time\":12635}]","rt":14712,"trial_type":"instructions","trial_index":1,"time_elapsed":176999,"internal_node_id":"0.0-1.0"},{"group":"tri cycles (cube, non-group)","room_assignment":["grey","pink","brown","blue","yellow","red","purple","green"],"door_color_assignment":["white","black"],"door_generator_assignment":[0,1],"goal":3,"start":0,"action_noise":0.1,"location_history":"[0,2,6,4,7,3]","action_history":"[0,1,1,0,1]","door_history":"[0,1,1,0,1]","location_rts":"[2312,969,682,412,83]","trial_type":"two-door-navigation","trial_index":2,"time_elapsed":190425,"internal_node_id":"0.0-2.0-0.0"},{"group":"tri cycles (cube, non-group)","room_assignment":["grey","pink","brown","blue","yellow","red","purple","green"],"door_color_assignment":["white","black"],"door_generator_assignment":[0,1],"goal":1,"start":3,"action_noise":0.1,"location_history":"[3,7,3,4,0,2,1]","action_history":"[0,1,1,0,0,0]","door_history":"[0,1,1,0,0,0]","location_rts":"[954,139,197,233,204,268]","trial_type":"two-door-navigation","trial_index":3,"time_elapsed":203353,"internal_node_id":"0.0-2.0-1.0"},{"group":"tri cycles (cube, non-group)","room_assignment":["grey","pink","brown","blue","yellow","red","purple","green"],"door_color_assignment":["white","black"],"door_generator_assignment":[0,1],"goal":2,"start":1,"action_noise":0.1,"location_history":"[1,5,1,0,2]","action_history":"[1,0,0,0]","door_history":"[1,0,0,0]","location_rts":"[4400,230,9,9]","trial_type":"two-door-navigation","trial_index":4,"time_elapsed":217125,"internal_node_id":"0.0-2.0-2.0"},{"group":"tri cycles (cube, non-group)","room_assignment":["grey","pink","brown","blue","yellow","red","purple","green"],"door_color_assignment":["white","black"],"door_generator_assignment":[0,1],"goal":6,"start":2,"action_noise":0.1,"location_history":"[2,6]","action_history":"[1]","door_history":"[1]","location_rts":"[761]","trial_type":"two-door-navigation","trial_index":5,"time_elapsed":222954,"internal_node_id":"0.0-2.0-3.0"},{"group":"tri cycles (cube, non-group)","room_assignment":["grey","pink","brown","blue","yellow","red","purple","green"],"door_color_assignment":["white","black"],"door_generator_assignment":[0,1],"goal":5,"start":6,"action_noise":0.1,"location_history":"[6,5]","action_history":"[1]","door_history":"[1]","location_rts":"[631]","trial_type":"two-door-navigation","trial_index":6,"time_elapsed":228183,"internal_node_id":"0.0-2.0-4.0"},{"group":"tri cycles (cube, non-group)","room_assignment":["grey","pink","brown","blue","yellow","red","purple","green"],"door_color_assignment":["white","black"],"door_generator_assignment":[0,1],"goal":4,"start":5,"action_noise":0.1,"location_history":"[5,2,1,5,2,6,4]","action_history":"[1,0,1,1,1,0]","door_history":"[1,0,1,1,1,0]","location_rts":"[565,932,58,177,200,282]","trial_type":"two-door-navigation","trial_index":7,"time_elapsed":240020,"internal_node_id":"0.0-2.0-5.0"},{"group":"tri cycles (cube, non-group)","room_assignment":["grey","pink","brown","blue","yellow","red","purple","green"],"door_color_assignment":["white","black"],"door_generator_assignment":[0,1],"goal":7,"start":4,"action_noise":0.1,"location_history":"[4,0,3,4,0,3,7]","action_history":"[1,0,1,1,1,0]","door_history":"[1,0,1,1,1,0]","location_rts":"[7696,419,170,170,201,184]","trial_type":"two-door-navigation","trial_index":8,"time_elapsed":259351,"internal_node_id":"0.0-2.0-6.0"},{"group":"tri cycles (cube, non-group)","room_assignment":["grey","pink","brown","blue","yellow","red","purple","green"],"door_color_assignment":["white","black"],"door_generator_assignment":[0,1],"goal":4,"start":7,"action_noise":0.1,"location_history":"[7,3,7,3,4]","action_history":"[1,0,1,1]","door_history":"[1,0,1,1]","location_rts":"[128696,446,135,168]","trial_type":"two-door-navigation","trial_index":9,"time_elapsed":397371,"internal_node_id":"0.0-2.0-7.0"},{"group":"tri cycles (cube, non-group)","room_assignment":["grey","pink","brown","blue","yellow","red","purple","green"],"door_color_assignment":["white","black"],"door_generator_assignment":[0,1],"goal":6,"start":4,"action_noise":0.1,"location_history":"[4,7,3,7,6]","action_history":"[0,1,0,0]","door_history":"[0,1,0,0]","location_rts":"[295,164,110,61]","trial_type":"two-door-navigation","trial_index":10,"time_elapsed":406352,"internal_node_id":"0.0-2.0-8.0"},{"group":"tri cycles (cube, non-group)","room_assignment":["grey","pink","brown","blue","yellow","red","purple","green"],"door_color_assignment":["white","black"],"door_generator_assignment":[0,1],"goal":0,"start":6,"action_noise":0.1,"location_history":"[6,5,2,6,4,0]","action_history":"[0,1,1,0,1]","door_history":"[0,1,1,0,1]","location_rts":"[509,36,60,58,176]","trial_type":"two-door-navigation","trial_index":11,"time_elapsed":416351,"internal_node_id":"0.0-2.0-9.0"},{"group":"tri cycles (cube, non-group)","room_assignment":["grey","pink","brown","blue","yellow","red","purple","green"],"door_color_assignment":["white","black"],"door_generator_assignment":[0,1],"goal":1,"start":0,"action_noise":0.1,"location_history":"[0,2,6,5,2,1]","action_history":"[0,1,1,1,0]","door_history":"[0,1,1,1,0]","location_rts":"[547,57,116,121,42]","trial_type":"two-door-navigation","trial_index":12,"time_elapsed":426351,"internal_node_id":"0.0-2.0-10.0"},{"group":"tri cycles (cube, non-group)","room_assignment":["grey","pink","brown","blue","yellow","red","purple","green"],"door_color_assignment":["white","black"],"door_generator_assignment":[0,1],"goal":3,"start":1,"action_noise":0.1,"location_history":"[1,5,1,5,2,1,5,1,5,2,1,0,2,6,5,1,0,2,6,5,2,1,5,1,0,3]","action_history":"[1,0,1,1,0,0,0,1,1,1,0,0,1,1,0,0,0,1,1,1,1,1,0,0,1]","door_history":"[1,0,1,1,0,0,0,1,1,1,0,0,1,1,0,0,0,1,1,1,1,1,0,0,1]","location_rts":"[40935,30,33,85,56,202,173,146,86,166,88,171,108,156,187,0,1,63,36,16,151,25,397,7,62]","trial_type":"two-door-navigation","trial_index":13,"time_elapsed":500352,"internal_node_id":"0.0-2.0-11.0"},{"group":"tri cycles (cube, non-group)","room_assignment":["grey","pink","brown","blue","yellow","red","purple","green"],"door_color_assignment":["white","black"],"door_generator_assignment":[0,1],"goal":7,"start":3,"action_noise":0.1,"location_history":"[3,4,7]","action_history":"[1,0]","door_history":"[1,0]","location_rts":"[11314,141]","trial_type":"two-door-navigation","trial_index":14,"time_elapsed":519352,"internal_node_id":"0.0-2.0-12.0"},{"group":"tri cycles (cube, non-group)","room_assignment":["grey","pink","brown","blue","yellow","red","purple","green"],"door_color_assignment":["white","black"],"door_generator_assignment":[0,1],"goal":5,"start":7,"action_noise":0.1,"location_history":"[7,3,7,6,5]","action_history":"[1,0,0,1]","door_history":"[1,0,0,1]","location_rts":"[1181,98,109,77]","trial_type":"two-door-navigation","trial_index":15,"time_elapsed":530069,"internal_node_id":"0.0-2.0-13.0"},{"group":"tri cycles (cube, non-group)","room_assignment":["grey","pink","brown","blue","yellow","red","purple","green"],"door_color_assignment":["white","black"],"door_generator_assignment":[0,1],"goal":2,"start":5,"action_noise":0.1,"location_history":"[5,2]","action_history":"[0]","door_history":"[0]","location_rts":"[628]","trial_type":"two-door-navigation","trial_index":16,"time_elapsed":535351,"internal_node_id":"0.0-2.0-14.0"},{"group":"tri cycles (cube, non-group)","room_assignment":["grey","pink","brown","blue","yellow","red","purple","green"],"door_color_assignment":["white","black"],"door_generator_assignment":[0,1],"goal":7,"start":2,"action_noise":0.1,"location_history":"[2,6,4,0,3,4,7]","action_history":"[1,0,1,1,0,0]","door_history":"[1,0,1,1,0,0]","location_rts":"[63161,5,5,149,122,161]","trial_type":"two-door-navigation","trial_index":17,"time_elapsed":608582,"internal_node_id":"0.0-2.0-15.0"},{"group":"tri cycles (cube, non-group)","room_assignment":["grey","pink","brown","blue","yellow","red","purple","green"],"door_color_assignment":["white","black"],"door_generator_assignment":[0,1],"goal":4,"start":7,"action_noise":0.1,"location_history":"[7,3,4]","action_history":"[1,1]","door_history":"[1,1]","location_rts":"[94,162]","trial_type":"two-door-navigation","trial_index":18,"time_elapsed":614381,"internal_node_id":"0.0-2.0-16.0"},{"group":"tri cycles (cube, non-group)","room_assignment":["grey","pink","brown","blue","yellow","red","purple","green"],"door_color_assignment":["white","black"],"door_generator_assignment":[0,1],"goal":2,"start":4,"action_noise":0.1,"location_history":"[4,7,6,4,7,6,5,2]","action_history":"[0,0,0,0,0,1,1]","door_history":"[0,0,0,0,0,1,1]","location_rts":"[84,161,51,38,37,78,14]","trial_type":"two-door-navigation","trial_index":19,"time_elapsed":625485,"internal_node_id":"0.0-2.0-17.0"},{"group":"tri cycles (cube, non-group)","room_assignment":["grey","pink","brown","blue","yellow","red","purple","green"],"door_color_assignment":["white","black"],"door_generator_assignment":[0,1],"goal":3,"start":2,"action_noise":0.1,"location_history":"[2,6,5,2,1,0,2,1,5,2,6,5,2,6,5,1,0,2,1,0,2,6,5,2,6,5,1,5,1,0,2,6,4,0,3]","action_history":"[1,1,1,1,0,0,0,1,1,1,1,1,1,1,0,0,0,0,0,0,1,1,1,1,1,1,0,0,0,0,0,0,1,1]","door_history":"[1,1,1,1,0,0,0,1,1,1,1,1,1,1,0,0,0,0,0,0,1,1,1,1,1,1,0,0,0,0,0,0,1,1]","location_rts":"[2642,144,109,114,32,56,68,25,21,119,158,4,71,123,61,62,116,142,202,38,59,23,21,44,17,21,117,30,51,54,65,119,136,132]","trial_type":"two-door-navigation","trial_index":20,"time_elapsed":670352,"internal_node_id":"0.0-2.0-18.0"},{"group":"tri cycles (cube, non-group)","room_assignment":["grey","pink","brown","blue","yellow","red","purple","green"],"door_color_assignment":["white","black"],"door_generator_assignment":[0,1],"goal":6,"start":3,"action_noise":0.1,"location_history":"[3,4,7,6]","action_history":"[1,0,1]","door_history":"[1,0,1]","location_rts":"[143632,111,26]","trial_type":"two-door-navigation","trial_index":21,"time_elapsed":821679,"internal_node_id":"0.0-2.0-19.0"},{"group":"tri cycles (cube, non-group)","room_assignment":["grey","pink","brown","blue","yellow","red","purple","green"],"door_color_assignment":["white","black"],"door_generator_assignment":[0,1],"goal":5,"start":6,"action_noise":0.1,"location_history":"[6,5]","action_history":"[1]","door_history":"[1]","location_rts":"[820]","trial_type":"two-door-navigation","trial_index":22,"time_elapsed":827018,"internal_node_id":"0.0-2.0-20.0"},{"group":"tri cycles (cube, non-group)","room_assignment":["grey","pink","brown","blue","yellow","red","purple","green"],"door_color_assignment":["white","black"],"door_generator_assignment":[0,1],"goal":1,"start":5,"action_noise":0.1,"location_history":"[5,2,1]","action_history":"[1,0]","door_history":"[1,0]","location_rts":"[104,141]","trial_type":"two-door-navigation","trial_index":23,"time_elapsed":832811,"internal_node_id":"0.0-2.0-21.0"},{"group":"tri cycles (cube, non-group)","room_assignment":["grey","pink","brown","blue","yellow","red","purple","green"],"door_color_assignment":["white","black"],"door_generator_assignment":[0,1],"goal":0,"start":1,"action_noise":0.1,"location_history":"[1,5,1,0]","action_history":"[1,0,0]","door_history":"[1,0,0]","location_rts":"[320,146,145]","trial_type":"two-door-navigation","trial_index":24,"time_elapsed":840351,"internal_node_id":"0.0-2.0-22.0"},{"group":"tri cycles (cube, non-group)","room_assignment":["grey","pink","brown","blue","yellow","red","purple","green"],"door_color_assignment":["white","black"],"door_generator_assignment":[0,1],"goal":2,"start":0,"action_noise":0.1,"location_history":"[0,3,4,0,2]","action_history":"[1,0,1,0]","door_history":"[1,0,1,0]","location_rts":"[1020,515,47,156]","trial_type":"two-door-navigation","trial_index":25,"time_elapsed":851353,"internal_node_id":"0.0-2.0-23.0"},{"group":"tri cycles (cube, non-group)","room_assignment":["grey","pink","brown","blue","yellow","red","purple","green"],"door_color_assignment":["white","black"],"door_generator_assignment":[0,1],"goal":6,"start":2,"action_noise":0.1,"location_history":"[2,6]","action_history":"[1]","door_history":"[1]","location_rts":"[361]","trial_type":"two-door-navigation","trial_index":26,"time_elapsed":856231,"internal_node_id":"0.0-2.0-24.0"},{"group":"tri cycles (cube, non-group)","room_assignment":["grey","pink","brown","blue","yellow","red","purple","green"],"door_color_assignment":["white","black"],"door_generator_assignment":[0,1],"goal":1,"start":6,"action_noise":0.1,"location_history":"[6,5,1]","action_history":"[1,0]","door_history":"[1,0]","location_rts":"[228,148]","trial_type":"two-door-navigation","trial_index":27,"time_elapsed":862148,"internal_node_id":"0.0-2.0-25.0"},{"group":"tri cycles (cube, non-group)","room_assignment":["grey","pink","brown","blue","yellow","red","purple","green"],"door_color_assignment":["white","black"],"door_generator_assignment":[0,1],"goal":3,"start":1,"action_noise":0.1,"location_history":"[1,5,1,5,2,6,5,1,0,2,6,4,7,3]","action_history":"[1,0,1,0,1,1,1,0,0,1,0,0,1]","door_history":"[1,0,1,0,1,1,1,0,0,1,0,0,1]","location_rts":"[292,188,20,45,9,44,125,302,137,111,20,174,138]","trial_type":"two-door-navigation","trial_index":28,"time_elapsed":881350,"internal_node_id":"0.0-2.0-26.0"},{"group":"tri cycles (cube, non-group)","room_assignment":["grey","pink","brown","blue","yellow","red","purple","green"],"door_color_assignment":["white","black"],"door_generator_assignment":[0,1],"goal":7,"start":3,"action_noise":0.1,"location_history":"[3,7]","action_history":"[1]","door_history":"[1]","location_rts":"[5450]","trial_type":"two-door-navigation","trial_index":29,"time_elapsed":891351,"internal_node_id":"0.0-2.0-27.0"},{"group":"tri cycles (cube, non-group)","room_assignment":["grey","pink","brown","blue","yellow","red","purple","green"],"door_color_assignment":["white","black"],"door_generator_assignment":[0,1],"goal":4,"start":7,"action_noise":0.1,"location_history":"[7,3,4]","action_history":"[1,1]","door_history":"[1,1]","location_rts":"[56704,253]","trial_type":"two-door-navigation","trial_index":30,"time_elapsed":953857,"internal_node_id":"0.0-2.0-28.0"},{"group":"tri cycles (cube, non-group)","room_assignment":["grey","pink","brown","blue","yellow","red","purple","green"],"door_color_assignment":["white","black"],"door_generator_assignment":[0,1],"goal":0,"start":4,"action_noise":0.1,"location_history":"[4,7,3,4,7,6,4,0]","action_history":"[0,1,1,0,0,0,1]","door_history":"[0,1,1,0,0,0,1]","location_rts":"[187,109,109,174,166,151,179]","trial_type":"two-door-navigation","trial_index":31,"time_elapsed":965584,"internal_node_id":"0.0-2.0-29.0"},{"group":"tri cycles (cube, non-group)","room_assignment":["grey","pink","brown","blue","yellow","red","purple","green"],"door_color_assignment":["white","black"],"door_generator_assignment":[0,1],"goal":5,"start":0,"action_noise":0.1,"location_history":"[0,2,1,0,3,4,0,2,1,5]","action_history":"[1,0,0,1,1,0,0,0,1]","door_history":"[1,0,0,1,1,0,0,0,1]","location_rts":"[55,118,125,32,212,45,7,173,12]","trial_type":"two-door-navigation","trial_index":32,"time_elapsed":979056,"internal_node_id":"0.0-2.0-30.0"},{"group":"tri cycles (cube, non-group)","room_assignment":["grey","pink","brown","blue","yellow","red","purple","green"],"door_color_assignment":["white","black"],"door_generator_assignment":[0,1],"goal":3,"start":5,"action_noise":0.1,"location_history":"[5,2,6,5,2,1,0,2,1,5,1,0,3]","action_history":"[1,1,1,1,0,0,0,0,1,0,0,1]","door_history":"[1,1,1,1,0,0,0,0,1,0,0,1]","location_rts":"[381,155,4,201,4,25,5,23,39,178,38,136]","trial_type":"two-door-navigation","trial_index":33,"time_elapsed":995981,"internal_node_id":"0.0-2.0-31.0"},{"group":"tri cycles (cube, non-group)","room_assignment":["grey","pink","brown","blue","yellow","red","purple","green"],"door_color_assignment":["white","black"],"door_generator_assignment":[0,1],"goal":2,"start":3,"action_noise":0.1,"location_history":"[3,4,0,2]","action_history":"[1,1,0]","door_history":"[1,1,0]","location_rts":"[96,146,5]","trial_type":"two-door-navigation","trial_index":34,"time_elapsed":1002788,"internal_node_id":"0.0-2.0-32.0"},{"group":"tri cycles (cube, non-group)","room_assignment":["grey","pink","brown","blue","yellow","red","purple","green"],"door_color_assignment":["white","black"],"door_generator_assignment":[0,1],"goal":6,"start":2,"action_noise":0.1,"location_history":"[2,1,5,2,6]","action_history":"[0,1,1,1]","door_history":"[0,1,1,1]","location_rts":"[42,158,150,167]","trial_type":"two-door-navigation","trial_index":35,"time_elapsed":1010884,"internal_node_id":"0.0-2.0-33.0"},{"group":"tri cycles (cube, non-group)","room_assignment":["grey","pink","brown","blue","yellow","red","purple","green"],"door_color_assignment":["white","black"],"door_generator_assignment":[0,1],"goal":1,"start":6,"action_noise":0.1,"location_history":"[6,4,7,3,4,7,6,4,7,6,4,0,3,4,7,6,5,1]","action_history":"[0,0,1,1,1,0,0,0,0,1,1,1,1,0,0,0,0]","door_history":"[0,0,1,1,1,0,0,0,0,1,1,1,1,0,0,0,0]","location_rts":"[310,124,156,155,189,47,26,176,7,178,44,195,59,50,201,41,80]","trial_type":"two-door-navigation","trial_index":36,"time_elapsed":1033742,"internal_node_id":"0.0-2.0-34.0"},{"group":"tri cycles (cube, non-group)","room_assignment":["grey","pink","brown","blue","yellow","red","purple","green"],"door_color_assignment":["white","black"],"door_generator_assignment":[0,1],"goal":7,"start":1,"action_noise":0.1,"location_history":"[1,5,2,6,5,2,1,0,2,1,0,2,1,0,2,6,5,2,6,5,1,0,3,4,0,3,4,0,3,7]","action_history":"[1,1,1,1,1,0,0,0,0,0,0,0,0,0,1,1,1,1,1,1,1,1,1,1,1,1,1,1,0]","door_history":"[1,1,1,1,1,0,0,0,0,0,0,0,0,0,1,1,1,1,1,1,1,1,1,1,1,1,1,1,0]","location_rts":"[1334,185,6,135,110,88,44,25,219,197,31,197,3,40,251,13,35,66,213,112,26,41,41,100,30,94,112,80,125]","trial_type":"two-door-navigation","trial_index":37,"time_elapsed":1070782,"internal_node_id":"0.0-2.0-35.0"},{"group":"tri cycles (cube, non-group)","room_assignment":["grey","pink","brown","blue","yellow","red","purple","green"],"door_color_assignment":["white","black"],"door_generator_assignment":[0,1],"goal":4,"start":7,"action_noise":0.1,"location_history":"[7,6,4]","action_history":"[0,0]","door_history":"[0,0]","location_rts":"[491,115]","trial_type":"two-door-navigation","trial_index":38,"time_elapsed":1076922,"internal_node_id":"0.0-2.0-36.0"},{"group":"tri cycles (cube, non-group)","room_assignment":["grey","pink","brown","blue","yellow","red","purple","green"],"door_color_assignment":["white","black"],"door_generator_assignment":[0,1],"goal":5,"start":4,"action_noise":0.1,"location_history":"[4,7,6,4,0,2,1,5]","action_history":"[0,0,0,0,1,0,1]","door_history":"[0,0,0,0,1,0,1]","location_rts":"[579,49,426,76,80,112,58]","trial_type":"two-door-navigation","trial_index":39,"time_elapsed":1088953,"internal_node_id":"0.0-2.0-37.0"},{"group":"tri cycles (cube, non-group)","room_assignment":["grey","pink","brown","blue","yellow","red","purple","green"],"door_color_assignment":["white","black"],"door_generator_assignment":[0,1],"goal":0,"start":5,"action_noise":0.1,"location_history":"[5,1,5,2,6,5,1,5,2,1,5,2,6,4,7,6,5,2,6,5,1,0]","action_history":"[0,0,1,1,1,0,1,1,0,0,1,1,0,0,0,1,1,1,1,0,0]","door_history":"[0,0,1,1,1,0,1,1,0,0,1,1,0,0,0,1,1,1,1,0,0]","location_rts":"[366,178,4,188,21,186,45,37,49,44,49,23,59,32,58,70,79,60,80,59,80]","trial_type":"two-door-navigation","trial_index":40,"time_elapsed":1115650,"internal_node_id":"0.0-2.0-38.0"},{"group":"tri cycles (cube, non-group)","room_assignment":["grey","pink","brown","blue","yellow","red","purple","green"],"door_color_assignment":["white","black"],"door_generator_assignment":[0,1],"goal":4,"start":0,"action_noise":0.1,"location_history":"[0,2,1,5,2,6,5,2,6,4]","action_history":"[0,0,1,1,1,1,1,1,0]","door_history":"[0,0,1,1,1,1,1,1,0]","location_rts":"[523,19,210,23,60,63,65,57,49]","trial_type":"two-door-navigation","trial_index":41,"time_elapsed":1129405,"internal_node_id":"0.0-2.0-39.0"},{"group":"tri cycles (cube, non-group)","room_assignment":["grey","pink","brown","blue","yellow","red","purple","green"],"door_color_assignment":["white","black"],"door_generator_assignment":[0,1],"goal":0,"start":4,"action_noise":0.1,"location_history":"[4,0]","action_history":"[1]","door_history":"[1]","location_rts":"[412]","trial_type":"two-door-navigation","trial_index":42,"time_elapsed":1134341,"internal_node_id":"0.0-2.0-40.0"},{"group":"tri cycles (cube, non-group)","room_assignment":["grey","pink","brown","blue","yellow","red","purple","green"],"door_color_assignment":["white","black"],"door_generator_assignment":[0,1],"goal":2,"start":0,"action_noise":0.1,"location_history":"[0,3,4,0,3,4,0,2]","action_history":"[1,1,1,1,1,1,0]","door_history":"[1,1,1,1,1,1,0]","location_rts":"[246,74,83,88,82,77,33]","trial_type":"two-door-navigation","trial_index":43,"time_elapsed":1145666,"internal_node_id":"0.0-2.0-41.0"},{"group":"tri cycles (cube, non-group)","room_assignment":["grey","pink","brown","blue","yellow","red","purple","green"],"door_color_assignment":["white","black"],"door_generator_assignment":[0,1],"goal":3,"start":2,"action_noise":0.1,"location_history":"[2,6,4,0,2,1,0,2,6,4,0,3]","action_history":"[0,0,0,0,0,0,0,1,1,1,1]","door_history":"[0,0,0,0,0,0,0,1,1,1,1]","location_rts":"[366,14,55,85,72,68,98,106,81,104,143]","trial_type":"two-door-navigation","trial_index":44,"time_elapsed":1161591,"internal_node_id":"0.0-2.0-42.0"},{"group":"tri cycles (cube, non-group)","room_assignment":["grey","pink","brown","blue","yellow","red","purple","green"],"door_color_assignment":["white","black"],"door_generator_assignment":[0,1],"goal":5,"start":3,"action_noise":0.1,"location_history":"[3,4,0,2,6,4,7,6,4,0,2,6,5]","action_history":"[1,1,1,1,0,0,0,0,1,1,1,1]","door_history":"[1,1,1,1,0,0,0,0,1,1,1,1]","location_rts":"[253,17,148,162,184,13,3,70,209,48,56,90]","trial_type":"two-door-navigation","trial_index":45,"time_elapsed":1178600,"internal_node_id":"0.0-2.0-43.0"},{"group":"tri cycles (cube, non-group)","room_assignment":["grey","pink","brown","blue","yellow","red","purple","green"],"door_color_assignment":["white","black"],"door_generator_assignment":[0,1],"goal":1,"start":5,"action_noise":0.1,"location_history":"[5,2,6,5,2,6,5,2,6,4,7,6,4,7,6,4,0,3,7,3,4,0,2,1]","action_history":"[1,1,1,1,1,1,1,0,0,0,0,0,0,0,0,1,1,0,0,1,1,0,0]","door_history":"[1,1,1,1,1,1,1,0,0,0,0,0,0,0,0,1,1,0,0,1,1,0,0]","location_rts":"[46,60,72,49,27,27,41,76,79,101,71,108,90,79,92,66,114,74,90,107,78,37,26]","trial_type":"two-door-navigation","trial_index":46,"time_elapsed":1207187,"internal_node_id":"0.0-2.0-44.0"},{"group":"tri cycles (cube, non-group)","room_assignment":["grey","pink","brown","blue","yellow","red","purple","green"],"door_color_assignment":["white","black"],"door_generator_assignment":[0,1],"goal":7,"start":1,"action_noise":0.1,"location_history":"[1,0,2,1,5,1,0,2,6,5,2,1,5,1,0,3,4,0,3,7]","action_history":"[1,0,0,1,0,0,0,1,1,1,1,0,0,0,1,1,1,0,0]","door_history":"[1,0,0,1,0,0,0,1,1,1,1,0,0,0,1,1,1,0,0]","location_rts":"[393,117,18,117,197,126,57,188,206,24,38,41,128,115,179,26,45,146,9]","trial_type":"two-door-navigation","trial_index":47,"time_elapsed":1232203,"internal_node_id":"0.0-2.0-45.0"},{"group":"tri cycles (cube, non-group)","room_assignment":["grey","pink","brown","blue","yellow","red","purple","green"],"door_color_assignment":["white","black"],"door_generator_assignment":[0,1],"goal":6,"start":7,"action_noise":0.1,"location_history":"[7,3,4,7,3,4,0,3,4,7,3,4,0,2,1,0,3,7,6]","action_history":"[1,1,0,1,1,1,1,0,0,1,1,1,0,0,0,0,0,0]","door_history":"[1,1,0,1,1,1,1,0,0,1,1,1,0,0,0,0,0,0]","location_rts":"[344,142,128,57,132,13,22,112,22,50,49,73,88,104,116,103,80,99]","trial_type":"two-door-navigation","trial_index":48,"time_elapsed":1255797,"internal_node_id":"0.0-2.0-46.0"},{"group":"tri cycles (cube, non-group)","room_assignment":["grey","pink","brown","blue","yellow","red","purple","green"],"door_color_assignment":["white","black"],"door_generator_assignment":[0,1],"goal":3,"start":6,"action_noise":0.1,"location_history":"[6,5,2,6,5,1,5,1,0,2,1,0,2,1,0,2,6,4,0,2,6,4,7,6,5,2,6,4,7,6,4,7,6,4,0,3]","action_history":"[1,1,1,1,1,0,0,0,0,0,0,0,0,0,0,0,0,1,1,1,0,0,0,1,1,1,0,0,0,0,0,0,0,0,1]","door_history":"[1,1,1,1,1,0,0,0,0,0,0,0,0,0,0,0,0,1,1,1,0,0,0,1,1,1,0,0,0,0,0,0,0,0,1]","location_rts":"[501,88,69,159,137,114,172,176,168,2,16,148,201,27,16,7,49,36,159,200,221,74,103,103,107,61,79,97,112,118,105,90,102,91,63]","trial_type":"two-door-navigation","trial_index":49,"time_elapsed":1298948,"internal_node_id":"0.0-2.0-47.0"},{"group":"tri cycles (cube, non-group)","room_assignment":["grey","pink","brown","blue","yellow","red","purple","green"],"door_color_assignment":["white","black"],"door_generator_assignment":[0,1],"goal":0,"start":3,"action_noise":0.1,"location_history":"[3,4,0]","action_history":"[1,1]","door_history":"[1,1]","location_rts":"[530,3]","trial_type":"two-door-navigation","trial_index":50,"time_elapsed":1305027,"internal_node_id":"0.0-2.0-48.0"},{"group":"tri cycles (cube, non-group)","room_assignment":["grey","pink","brown","blue","yellow","red","purple","green"],"door_color_assignment":["white","black"],"door_generator_assignment":[0,1],"goal":2,"start":0,"action_noise":0.1,"location_history":"[0,3,4,0,3,4,0,3,4,0,2]","action_history":"[1,1,1,1,1,1,1,1,1,1]","door_history":"[1,1,1,1,1,1,1,1,1,1]","location_rts":"[569,178,192,30,41,35,87,211,99,327]","trial_type":"two-door-navigation","trial_index":51,"time_elapsed":1320496,"internal_node_id":"0.0-2.0-49.0"},{"view_history":"[{\"page_index\":0,\"viewing_time\":2164}]","rt":2164,"trial_type":"instructions","trial_index":52,"time_elapsed":1323661,"internal_node_id":"0.0-3.0"},{"view_history":"[{\"page_index\":0,\"viewing_time\":11819},{\"page_index\":1,\"viewing_time\":19842}]","rt":31662,"trial_type":"instructions","trial_index":53,"time_elapsed":1356325,"internal_node_id":"0.0-4.0"},{"group":"square cycles (cube, non-group)","fractal_assignment":["../images/org_blu.png","../images/cyn_red.png","../images/blu_wht.png","../images/pnk_blu.png","../images/gry_blk.png","../images/ylw_slt.png","../images/ylw_pnk.png","../images/grn_red.png"],"mutagen_generator_assignment":[0,1],"goal":3,"start":0,"action_noise":0.1,"location_history":"[0,4,5,1,0,1,2,3]","action_history":"[0,1,1,1,0,0,0]","mutagen_history":"[0,1,1,1,0,0,0]","location_rts":"[8913,3328,1392,1080,1622,317,637]","trial_type":"fractal-mutation","trial_index":54,"time_elapsed":1384329,"internal_node_id":"0.0-5.0-0.0"},{"group":"square cycles (cube, non-group)","fractal_assignment":["../images/org_blu.png","../images/cyn_red.png","../images/blu_wht.png","../images/pnk_blu.png","../images/gry_blk.png","../images/ylw_slt.png","../images/ylw_pnk.png","../images/grn_red.png"],"mutagen_generator_assignment":[0,1],"goal":1,"start":3,"action_noise":0.1,"location_history":"[3,2,3,0,4,5,1]","action_history":"[0,0,0,1,1,1]","mutagen_history":"[0,0,0,1,1,1]","location_rts":"[692,868,714,1189,50,890]","trial_type":"fractal-mutation","trial_index":55,"time_elapsed":1398406,"internal_node_id":"0.0-5.0-1.0"},{"group":"square cycles (cube, non-group)","fractal_assignment":["../images/org_blu.png","../images/cyn_red.png","../images/blu_wht.png","../images/pnk_blu.png","../images/gry_blk.png","../images/ylw_slt.png","../images/ylw_pnk.png","../images/grn_red.png"],"mutagen_generator_assignment":[0,1],"goal":2,"start":1,"action_noise":0.1,"location_history":"[1,0,4,7,6,7,3,0,1,2]","action_history":"[1,1,0,0,1,1,0,0,0]","mutagen_history":"[1,1,0,0,1,1,0,0,0]","location_rts":"[440,700,782,637,863,600,600,680,586]","trial_type":"fractal-mutation","trial_index":56,"time_elapsed":1417063,"internal_node_id":"0.0-5.0-2.0"},{"group":"square cycles (cube, non-group)","fractal_assignment":["../images/org_blu.png","../images/cyn_red.png","../images/blu_wht.png","../images/pnk_blu.png","../images/gry_blk.png","../images/ylw_slt.png","../images/ylw_pnk.png","../images/grn_red.png"],"mutagen_generator_assignment":[0,1],"goal":6,"start":2,"action_noise":0.1,"location_history":"[2,3,0,1,0,1,0,4,5,1,0,1,0,4,5,4,7,3,0,1,2,3,2,6]","action_history":"[0,0,0,1,0,1,0,0,1,1,0,1,1,1,0,0,1,0,0,0,0,1,1]","mutagen_history":"[0,0,0,1,0,1,0,0,1,1,0,1,1,1,0,0,1,0,0,0,0,1,1]","location_rts":"[1401,946,4,62,117,179,138,7,84,94,154,98,130,67,128,83,157,131,90,79,73,57,156]","trial_type":"fractal-mutation","trial_index":57,"time_elapsed":1448649,"internal_node_id":"0.0-5.0-3.0"},{"group":"square cycles (cube, non-group)","fractal_assignment":["../images/org_blu.png","../images/cyn_red.png","../images/blu_wht.png","../images/pnk_blu.png","../images/gry_blk.png","../images/ylw_slt.png","../images/ylw_pnk.png","../images/grn_red.png"],"mutagen_generator_assignment":[0,1],"goal":5,"start":6,"action_noise":0.1,"location_history":"[6,7,3,2,6,5]","action_history":"[1,1,1,1,0]","mutagen_history":"[1,1,1,1,0]","location_rts":"[209,64,84,90,94]","trial_type":"fractal-mutation","trial_index":58,"time_elapsed":1457839,"internal_node_id":"0.0-5.0-4.0"},{"group":"square cycles (cube, non-group)","fractal_assignment":["../images/org_blu.png","../images/cyn_red.png","../images/blu_wht.png","../images/pnk_blu.png","../images/gry_blk.png","../images/ylw_slt.png","../images/ylw_pnk.png","../images/grn_red.png"],"mutagen_generator_assignment":[0,1],"goal":4,"start":5,"action_noise":0.1,"location_history":"[5,4]","action_history":"[0]","mutagen_history":"[0]","location_rts":"[272]","trial_type":"fractal-mutation","trial_index":59,"time_elapsed":1462642,"internal_node_id":"0.0-5.0-5.0"},{"group":"square cycles (cube, non-group)","fractal_assignment":["../images/org_blu.png","../images/cyn_red.png","../images/blu_wht.png","../images/pnk_blu.png","../images/gry_blk.png","../images/ylw_slt.png","../images/ylw_pnk.png","../images/grn_red.png"],"mutagen_generator_assignment":[0,1],"goal":7,"start":4,"action_noise":0.1,"location_history":"[4,7]","action_history":"[0]","mutagen_history":"[0]","location_rts":"[97]","trial_type":"fractal-mutation","trial_index":60,"time_elapsed":1467271,"internal_node_id":"0.0-5.0-6.0"},{"group":"square cycles (cube, non-group)","fractal_assignment":["../images/org_blu.png","../images/cyn_red.png","../images/blu_wht.png","../images/pnk_blu.png","../images/gry_blk.png","../images/ylw_slt.png","../images/ylw_pnk.png","../images/grn_red.png"],"mutagen_generator_assignment":[0,1],"goal":4,"start":7,"action_noise":0.1,"location_history":"[7,3,2,6,5,4]","action_history":"[1,1,1,0,0]","mutagen_history":"[1,1,1,0,0]","location_rts":"[49,76,120,124,169]","trial_type":"fractal-mutation","trial_index":61,"time_elapsed":1476449,"internal_node_id":"0.0-5.0-7.0"},{"group":"square cycles (cube, non-group)","fractal_assignment":["../images/org_blu.png","../images/cyn_red.png","../images/blu_wht.png","../images/pnk_blu.png","../images/gry_blk.png","../images/ylw_slt.png","../images/ylw_pnk.png","../images/grn_red.png"],"mutagen_generator_assignment":[0,1],"goal":6,"start":4,"action_noise":0.1,"location_history":"[4,5,4,7,3,0,1,0,1,2,3,0,4,5,1,2,6]","action_history":"[1,0,0,1,0,0,1,0,0,0,0,1,1,1,1,1]","mutagen_history":"[1,0,0,1,0,0,1,0,0,0,0,1,1,1,1,1]","location_rts":"[464,128,116,20,151,9,41,97,66,9,26,137,191,20,4,1]","trial_type":"fractal-mutation","trial_index":62,"time_elapsed":1497861,"internal_node_id":"0.0-5.0-8.0"},{"group":"square cycles (cube, non-group)","fractal_assignment":["../images/org_blu.png","../images/cyn_red.png","../images/blu_wht.png","../images/pnk_blu.png","../images/gry_blk.png","../images/ylw_slt.png","../images/ylw_pnk.png","../images/grn_red.png"],"mutagen_generator_assignment":[0,1],"goal":0,"start":6,"action_noise":0.1,"location_history":"[6,7,6,5,4,5,1,0]","action_history":"[0,0,0,1,1,1,1]","mutagen_history":"[0,0,0,1,1,1,1]","location_rts":"[80,168,226,136,10,193,191]","trial_type":"fractal-mutation","trial_index":63,"time_elapsed":1509563,"internal_node_id":"0.0-5.0-9.0"},{"group":"square cycles (cube, non-group)","fractal_assignment":["../images/org_blu.png","../images/cyn_red.png","../images/blu_wht.png","../images/pnk_blu.png","../images/gry_blk.png","../images/ylw_slt.png","../images/ylw_pnk.png","../images/grn_red.png"],"mutagen_generator_assignment":[0,1],"goal":1,"start":0,"action_noise":0.1,"location_history":"[0,1]","action_history":"[0]","mutagen_history":"[0]","location_rts":"[62]","trial_type":"fractal-mutation","trial_index":64,"time_elapsed":1514156,"internal_node_id":"0.0-5.0-10.0"},{"group":"square cycles (cube, non-group)","fractal_assignment":["../images/org_blu.png","../images/cyn_red.png","../images/blu_wht.png","../images/pnk_blu.png","../images/gry_blk.png","../images/ylw_slt.png","../images/ylw_pnk.png","../images/grn_red.png"],"mutagen_generator_assignment":[0,1],"goal":3,"start":1,"action_noise":0.1,"location_history":"[1,0,1,2,3]","action_history":"[0,0,0,0]","mutagen_history":"[0,0,0,0]","location_rts":"[131,94,121,141]","trial_type":"fractal-mutation","trial_index":65,"time_elapsed":1522246,"internal_node_id":"0.0-5.0-11.0"},{"group":"square cycles (cube, non-group)","fractal_assignment":["../images/org_blu.png","../images/cyn_red.png","../images/blu_wht.png","../images/pnk_blu.png","../images/gry_blk.png","../images/ylw_slt.png","../images/ylw_pnk.png","../images/grn_red.png"],"mutagen_generator_assignment":[0,1],"goal":7,"start":3,"action_noise":0.1,"location_history":"[3,0,1,2,3,2,6,7]","action_history":"[0,0,0,0,1,1,1]","mutagen_history":"[0,0,0,0,1,1,1]","location_rts":"[123,128,126,180,17,173,235]","trial_type":"fractal-mutation","trial_index":66,"time_elapsed":1533932,"internal_node_id":"0.0-5.0-12.0"},{"group":"square cycles (cube, non-group)","fractal_assignment":["../images/org_blu.png","../images/cyn_red.png","../images/blu_wht.png","../images/pnk_blu.png","../images/gry_blk.png","../images/ylw_slt.png","../images/ylw_pnk.png","../images/grn_red.png"],"mutagen_generator_assignment":[0,1],"goal":5,"start":7,"action_noise":0.1,"location_history":"[7,6,7,6,5]","action_history":"[0,0,0,0]","mutagen_history":"[0,0,0,0]","location_rts":"[160,68,107,103]","trial_type":"fractal-mutation","trial_index":67,"time_elapsed":1541987,"internal_node_id":"0.0-5.0-13.0"},{"group":"square cycles (cube, non-group)","fractal_assignment":["../images/org_blu.png","../images/cyn_red.png","../images/blu_wht.png","../images/pnk_blu.png","../images/gry_blk.png","../images/ylw_slt.png","../images/ylw_pnk.png","../images/grn_red.png"],"mutagen_generator_assignment":[0,1],"goal":2,"start":5,"action_noise":0.1,"location_history":"[5,4,7,6,7,3,2]","action_history":"[0,0,0,1,1,1]","mutagen_history":"[0,0,0,1,1,1]","location_rts":"[385,12,142,77,99,104]","trial_type":"fractal-mutation","trial_index":68,"time_elapsed":1552485,"internal_node_id":"0.0-5.0-14.0"},{"group":"square cycles (cube, non-group)","fractal_assignment":["../images/org_blu.png","../images/cyn_red.png","../images/blu_wht.png","../images/pnk_blu.png","../images/gry_blk.png","../images/ylw_slt.png","../images/ylw_pnk.png","../images/grn_red.png"],"mutagen_generator_assignment":[0,1],"goal":7,"start":2,"action_noise":0.1,"location_history":"[2,3,0,1,0,1,2,6,5,4,7]","action_history":"[0,0,1,1,0,0,1,1,1,0]","mutagen_history":"[0,0,1,1,0,0,1,1,1,0]","location_rts":"[247,204,38,24,78,91,2256,7,82,22]","trial_type":"fractal-mutation","trial_index":69,"time_elapsed":1569320,"internal_node_id":"0.0-5.0-15.0"},{"group":"square cycles (cube, non-group)","fractal_assignment":["../images/org_blu.png","../images/cyn_red.png","../images/blu_wht.png","../images/pnk_blu.png","../images/gry_blk.png","../images/ylw_slt.png","../images/ylw_pnk.png","../images/grn_red.png"],"mutagen_generator_assignment":[0,1],"goal":4,"start":7,"action_noise":0.1,"location_history":"[7,3,0,1,2,6,7,3,2,3,0,1,2,3,2,6,7,3,2,3,0,1,2,6,7,6,7,3,2,6,7,3,2,6,7,3,0,1,2,3,0,4]","action_history":"[0,0,0,0,1,1,1,1,0,0,0,0,0,1,1,1,1,1,0,0,0,0,0,0,0,1,1,1,1,1,1,1,1,1,1,0,0,0,0,0,1]","mutagen_history":"[0,0,0,0,1,1,1,1,0,0,0,0,0,1,1,1,1,1,0,0,0,0,0,0,0,1,1,1,1,1,1,1,1,1,1,0,0,0,0,0,1]","location_rts":"[378,195,48,50,27,31,41,49,120,38,100,61,96,270,90,24,310,109,133,67,141,111,83,141,88,115,58,60,119,127,170,132,176,110,155,161,350,108,196,219,181]","trial_type":"fractal-mutation","trial_index":70,"time_elapsed":1620190,"internal_node_id":"0.0-5.0-16.0"},{"group":"square cycles (cube, non-group)","fractal_assignment":["../images/org_blu.png","../images/cyn_red.png","../images/blu_wht.png","../images/pnk_blu.png","../images/gry_blk.png","../images/ylw_slt.png","../images/ylw_pnk.png","../images/grn_red.png"],"mutagen_generator_assignment":[0,1],"goal":2,"start":4,"action_noise":0.1,"location_history":"[4,5,4,7,6,7,3,2]","action_history":"[0,0,0,0,1,1,1]","mutagen_history":"[0,0,0,0,1,1,1]","location_rts":"[210,66,82,115,115,95,125]","trial_type":"fractal-mutation","trial_index":71,"time_elapsed":1631710,"internal_node_id":"0.0-5.0-17.0"},{"group":"square cycles (cube, non-group)","fractal_assignment":["../images/org_blu.png","../images/cyn_red.png","../images/blu_wht.png","../images/pnk_blu.png","../images/gry_blk.png","../images/ylw_slt.png","../images/ylw_pnk.png","../images/grn_red.png"],"mutagen_generator_assignment":[0,1],"goal":3,"start":2,"action_noise":0.1,"location_history":"[2,3]","action_history":"[0]","mutagen_history":"[0]","location_rts":"[296]","trial_type":"fractal-mutation","trial_index":72,"time_elapsed":1636535,"internal_node_id":"0.0-5.0-18.0"},{"group":"square cycles (cube, non-group)","fractal_assignment":["../images/org_blu.png","../images/cyn_red.png","../images/blu_wht.png","../images/pnk_blu.png","../images/gry_blk.png","../images/ylw_slt.png","../images/ylw_pnk.png","../images/grn_red.png"],"mutagen_generator_assignment":[0,1],"goal":6,"start":3,"action_noise":0.1,"location_history":"[3,2,3,2,6]","action_history":"[1,1,1,1]","mutagen_history":"[1,1,1,1]","location_rts":"[121,187,15,47]","trial_type":"fractal-mutation","trial_index":73,"time_elapsed":1644531,"internal_node_id":"0.0-5.0-19.0"},{"group":"square cycles (cube, non-group)","fractal_assignment":["../images/org_blu.png","../images/cyn_red.png","../images/blu_wht.png","../images/pnk_blu.png","../images/gry_blk.png","../images/ylw_slt.png","../images/ylw_pnk.png","../images/grn_red.png"],"mutagen_generator_assignment":[0,1],"goal":5,"start":6,"action_noise":0.1,"location_history":"[6,5]","action_history":"[0]","mutagen_history":"[0]","location_rts":"[73]","trial_type":"fractal-mutation","trial_index":74,"time_elapsed":1649131,"internal_node_id":"0.0-5.0-20.0"},{"group":"square cycles (cube, non-group)","fractal_assignment":["../images/org_blu.png","../images/cyn_red.png","../images/blu_wht.png","../images/pnk_blu.png","../images/gry_blk.png","../images/ylw_slt.png","../images/ylw_pnk.png","../images/grn_red.png"],"mutagen_generator_assignment":[0,1],"goal":1,"start":5,"action_noise":0.1,"location_history":"[5,4,7,6,5,4,5,1]","action_history":"[0,0,0,0,0,1,1]","mutagen_history":"[0,0,0,0,0,1,1]","location_rts":"[267,34,106,116,106,36,25]","trial_type":"fractal-mutation","trial_index":75,"time_elapsed":1660494,"internal_node_id":"0.0-5.0-21.0"},{"group":"square cycles (cube, non-group)","fractal_assignment":["../images/org_blu.png","../images/cyn_red.png","../images/blu_wht.png","../images/pnk_blu.png","../images/gry_blk.png","../images/ylw_slt.png","../images/ylw_pnk.png","../images/grn_red.png"],"mutagen_generator_assignment":[0,1],"goal":0,"start":1,"action_noise":0.1,"location_history":"[1,0]","action_history":"[1]","mutagen_history":"[1]","location_rts":"[24]","trial_type":"fractal-mutation","trial_index":76,"time_elapsed":1665055,"internal_node_id":"0.0-5.0-22.0"},{"group":"square cycles (cube, non-group)","fractal_assignment":["../images/org_blu.png","../images/cyn_red.png","../images/blu_wht.png","../images/pnk_blu.png","../images/gry_blk.png","../images/ylw_slt.png","../images/ylw_pnk.png","../images/grn_red.png"],"mutagen_generator_assignment":[0,1],"goal":2,"start":0,"action_noise":0.1,"location_history":"[0,1,2]","action_history":"[0,0]","mutagen_history":"[0,0]","location_rts":"[68835,91]","trial_type":"fractal-mutation","trial_index":77,"time_elapsed":1739540,"internal_node_id":"0.0-5.0-23.0"},{"group":"square cycles (cube, non-group)","fractal_assignment":["../images/org_blu.png","../images/cyn_red.png","../images/blu_wht.png","../images/pnk_blu.png","../images/gry_blk.png","../images/ylw_slt.png","../images/ylw_pnk.png","../images/grn_red.png"],"mutagen_generator_assignment":[0,1],"goal":6,"start":2,"action_noise":0.1,"location_history":"[2,3,0,1,0,4,5,1,2,3,0,1,0,1,2,3,0,4,5,1,2,3,0,1,2,6]","action_history":"[0,0,0,1,1,1,1,0,0,0,0,0,0,0,0,0,1,1,1,0,0,0,0,0,1]","mutagen_history":"[0,0,0,1,1,1,1,0,0,0,0,0,0,0,0,0,1,1,1,0,0,0,0,0,1]","location_rts":"[193,143,75,76,80,72,492,53,34,63,69,36,105,109,122,105,108,39,17,142,114,109,132,194,143]","trial_type":"fractal-mutation","trial_index":78,"time_elapsed":1772348,"internal_node_id":"0.0-5.0-24.0"},{"group":"square cycles (cube, non-group)","fractal_assignment":["../images/org_blu.png","../images/cyn_red.png","../images/blu_wht.png","../images/pnk_blu.png","../images/gry_blk.png","../images/ylw_slt.png","../images/ylw_pnk.png","../images/grn_red.png"],"mutagen_generator_assignment":[0,1],"goal":1,"start":6,"action_noise":0.1,"location_history":"[6,7,3,0,4,5,1]","action_history":"[0,0,0,1,1,1]","mutagen_history":"[0,0,0,1,1,1]","location_rts":"[384,145,17,41,139,197]","trial_type":"fractal-mutation","trial_index":79,"time_elapsed":1783149,"internal_node_id":"0.0-5.0-25.0"},{"group":"square cycles (cube, non-group)","fractal_assignment":["../images/org_blu.png","../images/cyn_red.png","../images/blu_wht.png","../images/pnk_blu.png","../images/gry_blk.png","../images/ylw_slt.png","../images/ylw_pnk.png","../images/grn_red.png"],"mutagen_generator_assignment":[0,1],"goal":3,"start":1,"action_noise":0.1,"location_history":"[1,2,3]","action_history":"[0,0]","mutagen_history":"[0,0]","location_rts":"[30,11]","trial_type":"fractal-mutation","trial_index":80,"time_elapsed":1788819,"internal_node_id":"0.0-5.0-26.0"},{"group":"square cycles (cube, non-group)","fractal_assignment":["../images/org_blu.png","../images/cyn_red.png","../images/blu_wht.png","../images/pnk_blu.png","../images/gry_blk.png","../images/ylw_slt.png","../images/ylw_pnk.png","../images/grn_red.png"],"mutagen_generator_assignment":[0,1],"goal":7,"start":3,"action_noise":0.1,"location_history":"[3,2,3,2,3,0,4,5,4,5,1,0,4,5,4,5,4,7]","action_history":"[1,1,1,0,0,0,0,0,1,1,1,1,1,1,1,0,0]","mutagen_history":"[1,1,1,0,0,0,0,0,1,1,1,1,1,1,1,0,0]","location_rts":"[345,138,188,175,55,126,125,104,26,87,128,183,64,85,105,123,195]","trial_type":"fractal-mutation","trial_index":81,"time_elapsed":1812421,"internal_node_id":"0.0-5.0-27.0"},{"group":"square cycles (cube, non-group)","fractal_assignment":["../images/org_blu.png","../images/cyn_red.png","../images/blu_wht.png","../images/pnk_blu.png","../images/gry_blk.png","../images/ylw_slt.png","../images/ylw_pnk.png","../images/grn_red.png"],"mutagen_generator_assignment":[0,1],"goal":4,"start":7,"action_noise":0.1,"location_history":"[7,3,2,6,7,3,0,1,2,3,2,3,2,6,5,4]","action_history":"[1,1,1,1,1,0,0,0,0,0,0,1,1,0,0]","mutagen_history":"[1,1,1,1,1,0,0,0,0,0,0,1,1,0,0]","location_rts":"[403,179,53,68,100,32,49,135,353,117,138,120,49,43,75]","trial_type":"fractal-mutation","trial_index":82,"time_elapsed":1833626,"internal_node_id":"0.0-5.0-28.0"},{"group":"square cycles (cube, non-group)","fractal_assignment":["../images/org_blu.png","../images/cyn_red.png","../images/blu_wht.png","../images/pnk_blu.png","../images/gry_blk.png","../images/ylw_slt.png","../images/ylw_pnk.png","../images/grn_red.png"],"mutagen_generator_assignment":[0,1],"goal":0,"start":4,"action_noise":0.1,"location_history":"[4,7,6,5,4,5,1,2,3,0]","action_history":"[0,0,0,0,1,1,1,0,0]","mutagen_history":"[0,0,0,0,1,1,1,0,0]","location_rts":"[437,47,126,61,78,141,133,44,43]","trial_type":"fractal-mutation","trial_index":83,"time_elapsed":1847804,"internal_node_id":"0.0-5.0-29.0"},{"group":"square cycles (cube, non-group)","fractal_assignment":["../images/org_blu.png","../images/cyn_red.png","../images/blu_wht.png","../images/pnk_blu.png","../images/gry_blk.png","../images/ylw_slt.png","../images/ylw_pnk.png","../images/grn_red.png"],"mutagen_generator_assignment":[0,1],"goal":5,"start":0,"action_noise":0.1,"location_history":"[0,4,5]","action_history":"[1,1]","mutagen_history":"[1,1]","location_rts":"[37,38]","trial_type":"fractal-mutation","trial_index":84,"time_elapsed":1853520,"internal_node_id":"0.0-5.0-30.0"},{"group":"square cycles (cube, non-group)","fractal_assignment":["../images/org_blu.png","../images/cyn_red.png","../images/blu_wht.png","../images/pnk_blu.png","../images/gry_blk.png","../images/ylw_slt.png","../images/ylw_pnk.png","../images/grn_red.png"],"mutagen_generator_assignment":[0,1],"goal":3,"start":5,"action_noise":0.1,"location_history":"[5,4,7,6,7,3]","action_history":"[0,0,0,0,1]","mutagen_history":"[0,0,0,0,1]","location_rts":"[323,19,141,87,76]","trial_type":"fractal-mutation","trial_index":85,"time_elapsed":1862889,"internal_node_id":"0.0-5.0-31.0"},{"group":"square cycles (cube, non-group)","fractal_assignment":["../images/org_blu.png","../images/cyn_red.png","../images/blu_wht.png","../images/pnk_blu.png","../images/gry_blk.png","../images/ylw_slt.png","../images/ylw_pnk.png","../images/grn_red.png"],"mutagen_generator_assignment":[0,1],"goal":2,"start":3,"action_noise":0.1,"location_history":"[3,2]","action_history":"[1]","mutagen_history":"[1]","location_rts":"[329]","trial_type":"fractal-mutation","trial_index":86,"time_elapsed":1867794,"internal_node_id":"0.0-5.0-32.0"},{"group":"square cycles (cube, non-group)","fractal_assignment":["../images/org_blu.png","../images/cyn_red.png","../images/blu_wht.png","../images/pnk_blu.png","../images/gry_blk.png","../images/ylw_slt.png","../images/ylw_pnk.png","../images/grn_red.png"],"mutagen_generator_assignment":[0,1],"goal":6,"start":2,"action_noise":0.1,"location_history":"[2,6]","action_history":"[1]","mutagen_history":"[1]","location_rts":"[478]","trial_type":"fractal-mutation","trial_index":87,"time_elapsed":1872834,"internal_node_id":"0.0-5.0-33.0"},{"group":"square cycles (cube, non-group)","fractal_assignment":["../images/org_blu.png","../images/cyn_red.png","../images/blu_wht.png","../images/pnk_blu.png","../images/gry_blk.png","../images/ylw_slt.png","../images/ylw_pnk.png","../images/grn_red.png"],"mutagen_generator_assignment":[0,1],"goal":1,"start":6,"action_noise":0.1,"location_history":"[6,7,3,0,4,7,3,0,1]","action_history":"[1,1,1,1,0,0,0,0]","mutagen_history":"[1,1,1,1,0,0,0,0]","location_rts":"[494,266,146,258,48,126,161,157]","trial_type":"fractal-mutation","trial_index":88,"time_elapsed":1886377,"internal_node_id":"0.0-5.0-34.0"},{"group":"square cycles (cube, non-group)","fractal_assignment":["../images/org_blu.png","../images/cyn_red.png","../images/blu_wht.png","../images/pnk_blu.png","../images/gry_blk.png","../images/ylw_slt.png","../images/ylw_pnk.png","../images/grn_red.png"],"mutagen_generator_assignment":[0,1],"goal":7,"start":1,"action_noise":0.1,"location_history":"[1,2,3,0,1,0,4,5,1,2,3,0,4,5,4,7]","action_history":"[0,0,0,0,1,1,1,1,0,0,0,1,1,0,0]","mutagen_history":"[0,0,0,0,1,1,1,1,0,0,0,1,1,0,0]","location_rts":"[240,156,214,237,307,151,126,244,200,216,239,177,98,60,231]","trial_type":"fractal-mutation","trial_index":89,"time_elapsed":1908690,"internal_node_id":"0.0-5.0-35.0"},{"group":"square cycles (cube, non-group)","fractal_assignment":["../images/org_blu.png","../images/cyn_red.png","../images/blu_wht.png","../images/pnk_blu.png","../images/gry_blk.png","../images/ylw_slt.png","../images/ylw_pnk.png","../images/grn_red.png"],"mutagen_generator_assignment":[0,1],"goal":4,"start":7,"action_noise":0.1,"location_history":"[7,6,5,4]","action_history":"[0,0,0]","mutagen_history":"[0,0,0]","location_rts":"[14982,61,7]","trial_type":"fractal-mutation","trial_index":90,"time_elapsed":1930432,"internal_node_id":"0.0-5.0-36.0"},{"group":"square cycles (cube, non-group)","fractal_assignment":["../images/org_blu.png","../images/cyn_red.png","../images/blu_wht.png","../images/pnk_blu.png","../images/gry_blk.png","../images/ylw_slt.png","../images/ylw_pnk.png","../images/grn_red.png"],"mutagen_generator_assignment":[0,1],"goal":5,"start":4,"action_noise":0.1,"location_history":"[4,7,6,7,6,7,3,2,6,5]","action_history":"[0,0,0,0,1,1,1,1,0]","mutagen_history":"[0,0,0,0,1,1,1,1,0]","location_rts":"[228,38,75,63,7,41,77,116,31]","trial_type":"fractal-mutation","trial_index":91,"time_elapsed":1944197,"internal_node_id":"0.0-5.0-37.0"},{"group":"square cycles (cube, non-group)","fractal_assignment":["../images/org_blu.png","../images/cyn_red.png","../images/blu_wht.png","../images/pnk_blu.png","../images/gry_blk.png","../images/ylw_slt.png","../images/ylw_pnk.png","../images/grn_red.png"],"mutagen_generator_assignment":[0,1],"goal":0,"start":5,"action_noise":0.1,"location_history":"[5,4,7,6,7,3,0]","action_history":"[0,0,0,1,1,1]","mutagen_history":"[0,0,0,1,1,1]","location_rts":"[309,87,8,48,93,132]","trial_type":"fractal-mutation","trial_index":92,"time_elapsed":1954756,"internal_node_id":"0.0-5.0-38.0"},{"group":"square cycles (cube, non-group)","fractal_assignment":["../images/org_blu.png","../images/cyn_red.png","../images/blu_wht.png","../images/pnk_blu.png","../images/gry_blk.png","../images/ylw_slt.png","../images/ylw_pnk.png","../images/grn_red.png"],"mutagen_generator_assignment":[0,1],"goal":4,"start":0,"action_noise":0.1,"location_history":"[0,1,2,3,0,1,2,3,2,6,7,3,2,6,7,6,5,1,2,3,0,4]","action_history":"[0,0,0,0,0,0,1,1,1,1,1,1,1,1,0,0,1,0,0,0,1]","mutagen_history":"[0,0,0,0,0,0,1,1,1,1,1,1,1,1,0,0,1,0,0,0,1]","location_rts":"[45,64,78,28,112,69,127,12,91,254,57,66,34,79,60,79,13,17,30,36,41]","trial_type":"fractal-mutation","trial_index":93,"time_elapsed":1981927,"internal_node_id":"0.0-5.0-39.0"},{"group":"square cycles (cube, non-group)","fractal_assignment":["../images/org_blu.png","../images/cyn_red.png","../images/blu_wht.png","../images/pnk_blu.png","../images/gry_blk.png","../images/ylw_slt.png","../images/ylw_pnk.png","../images/grn_red.png"],"mutagen_generator_assignment":[0,1],"goal":0,"start":4,"action_noise":0.1,"location_history":"[4,5,4,5,1,0]","action_history":"[0,0,1,1,1]","mutagen_history":"[0,0,1,1,1]","location_rts":"[287,223,98,221,39]","trial_type":"fractal-mutation","trial_index":94,"time_elapsed":1991617,"internal_node_id":"0.0-5.0-40.0"},{"group":"square cycles (cube, non-group)","fractal_assignment":["../images/org_blu.png","../images/cyn_red.png","../images/blu_wht.png","../images/pnk_blu.png","../images/gry_blk.png","../images/ylw_slt.png","../images/ylw_pnk.png","../images/grn_red.png"],"mutagen_generator_assignment":[0,1],"goal":2,"start":0,"action_noise":0.1,"location_history":"[0,1,2]","action_history":"[0,0]","mutagen_history":"[0,0]","location_rts":"[280,20]","trial_type":"fractal-mutation","trial_index":95,"time_elapsed":1997543,"internal_node_id":"0.0-5.0-41.0"},{"group":"square cycles (cube, non-group)","fractal_assignment":["../images/org_blu.png","../images/cyn_red.png","../images/blu_wht.png","../images/pnk_blu.png","../images/gry_blk.png","../images/ylw_slt.png","../images/ylw_pnk.png","../images/grn_red.png"],"mutagen_generator_assignment":[0,1],"goal":3,"start":2,"action_noise":0.1,"location_history":"[2,3]","action_history":"[0]","mutagen_history":"[0]","location_rts":"[413]","trial_type":"fractal-mutation","trial_index":96,"time_elapsed":2002529,"internal_node_id":"0.0-5.0-42.0"},{"group":"square cycles (cube, non-group)","fractal_assignment":["../images/org_blu.png","../images/cyn_red.png","../images/blu_wht.png","../images/pnk_blu.png","../images/gry_blk.png","../images/ylw_slt.png","../images/ylw_pnk.png","../images/grn_red.png"],"mutagen_generator_assignment":[0,1],"goal":5,"start":3,"action_noise":0.1,"location_history":"[3,0,1,2,6,7,3,0,4,5]","action_history":"[0,0,0,1,1,1,0,1,1]","mutagen_history":"[0,0,0,1,1,1,0,1,1]","location_rts":"[330,32,36,200,10,74,40,21,213]","trial_type":"fractal-mutation","trial_index":97,"time_elapsed":2016531,"internal_node_id":"0.0-5.0-43.0"},{"group":"square cycles (cube, non-group)","fractal_assignment":["../images/org_blu.png","../images/cyn_red.png","../images/blu_wht.png","../images/pnk_blu.png","../images/gry_blk.png","../images/ylw_slt.png","../images/ylw_pnk.png","../images/grn_red.png"],"mutagen_generator_assignment":[0,1],"goal":1,"start":5,"action_noise":0.1,"location_history":"[5,1]","action_history":"[0]","mutagen_history":"[0]","location_rts":"[210]","trial_type":"fractal-mutation","trial_index":98,"time_elapsed":2021312,"internal_node_id":"0.0-5.0-44.0"},{"group":"square cycles (cube, non-group)","fractal_assignment":["../images/org_blu.png","../images/cyn_red.png","../images/blu_wht.png","../images/pnk_blu.png","../images/gry_blk.png","../images/ylw_slt.png","../images/ylw_pnk.png","../images/grn_red.png"],"mutagen_generator_assignment":[0,1],"goal":7,"start":1,"action_noise":0.1,"location_history":"[1,2,3,0,4,5,1,2,3,2,3,2,3,2,3,0,4,5,4,7]","action_history":"[0,0,0,1,1,1,0,0,1,0,1,0,1,0,0,1,1,0,0]","mutagen_history":"[0,0,0,1,1,1,0,0,1,0,1,0,1,0,0,1,1,0,0]","location_rts":"[485,4,77,63,34,145,371,87,184,146,117,110,149,148,151,160,217,29,222]","trial_type":"fractal-mutation","trial_index":99,"time_elapsed":2047921,"internal_node_id":"0.0-5.0-45.0"},{"group":"square cycles (cube, non-group)","fractal_assignment":["../images/org_blu.png","../images/cyn_red.png","../images/blu_wht.png","../images/pnk_blu.png","../images/gry_blk.png","../images/ylw_slt.png","../images/ylw_pnk.png","../images/grn_red.png"],"mutagen_generator_assignment":[0,1],"goal":6,"start":7,"action_noise":0.1,"location_history":"[7,3,0,1,2,3,0,4,5,1,0,4,5,1,0,4,5,4,5,1,2,6]","action_history":"[0,0,0,0,0,0,1,1,1,1,1,1,1,1,1,0,0,1,1,0,1]","mutagen_history":"[0,0,0,0,0,0,1,1,1,1,1,1,1,1,1,0,0,1,1,0,1]","location_rts":"[139,193,136,222,172,208,332,85,136,109,125,140,114,67,200,23,169,189,176,66,171]","trial_type":"fractal-mutation","trial_index":100,"time_elapsed":2076901,"internal_node_id":"0.0-5.0-46.0"},{"group":"square cycles (cube, non-group)","fractal_assignment":["../images/org_blu.png","../images/cyn_red.png","../images/blu_wht.png","../images/pnk_blu.png","../images/gry_blk.png","../images/ylw_slt.png","../images/ylw_pnk.png","../images/grn_red.png"],"mutagen_generator_assignment":[0,1],"goal":3,"start":6,"action_noise":0.1,"location_history":"[6,5,4,7,6,7,3]","action_history":"[0,0,0,0,1,1]","mutagen_history":"[0,0,0,0,1,1]","location_rts":"[597,95,140,136,133,191]","trial_type":"fractal-mutation","trial_index":101,"time_elapsed":2087938,"internal_node_id":"0.0-5.0-47.0"},{"group":"square cycles (cube, non-group)","fractal_assignment":["../images/org_blu.png","../images/cyn_red.png","../images/blu_wht.png","../images/pnk_blu.png","../images/gry_blk.png","../images/ylw_slt.png","../images/ylw_pnk.png","../images/grn_red.png"],"mutagen_generator_assignment":[0,1],"goal":0,"start":3,"action_noise":0.1,"location_history":"[3,0]","action_history":"[0]","mutagen_history":"[0]","location_rts":"[168]","trial_type":"fractal-mutation","trial_index":102,"time_elapsed":2092661,"internal_node_id":"0.0-5.0-48.0"},{"group":"square cycles (cube, non-group)","fractal_assignment":["../images/org_blu.png","../images/cyn_red.png","../images/blu_wht.png","../images/pnk_blu.png","../images/gry_blk.png","../images/ylw_slt.png","../images/ylw_pnk.png","../images/grn_red.png"],"mutagen_generator_assignment":[0,1],"goal":2,"start":0,"action_noise":0.1,"location_history":"[0,1,0,4,5,1,0,1,2]","action_history":"[0,0,1,1,1,1,0,0]","mutagen_history":"[0,0,1,1,1,1,0,0]","location_rts":"[139,124,140,66,109,256,17,150]","trial_type":"fractal-mutation","trial_index":103,"time_elapsed":2105652,"internal_node_id":"0.0-5.0-49.0"},{"view_history":"[{\"page_index\":0,\"viewing_time\":15334}]","rt":15335,"trial_type":"instructions","trial_index":104,"time_elapsed":2121991,"internal_node_id":"0.0-6.0"},{"rt":6817,"responses":"{\"Q0\":\"Great study.\"}","trial_type":"survey-text","trial_index":105,"time_elapsed":2129813,"internal_node_id":"0.0-7.0"}]