[{"view_history":"[{\"page_index\":0,\"viewing_time\":145342},{\"page_index\":1,\"viewing_time\":14186},{\"page_index\":2,\"viewing_time\":30096},{\"page_index\":3,\"viewing_time\":12084}]","rt":201711,"trial_type":"instructions","trial_index":0,"time_elapsed":201714,"internal_node_id":"0.0-0.0"},{"view_history":"[{\"page_index\":0,\"viewing_time\":8759},{\"page_index\":1,\"viewing_time\":55013}]","rt":63773,"trial_type":"instructions","trial_index":1,"time_elapsed":266492,"internal_node_id":"0.0-1.0"},{"group":"tri cycles (cube, non-group)","room_assignment":["yellow","pink","brown","green","purple","grey","red","blue"],"door_color_assignment":["white","black"],"door_generator_assignment":[1,0],"goal":3,"start":0,"action_noise":0.1,"location_history":"[0,2,6,4,7,6,5,2,6,5,2,1,0,2,1,5,2,1,5,1,0,3]","action_history":"[0,1,0,0,0,1,1,1,1,1,0,1,0,0,1,1,0,1,0,1,1]","door_history":"[1,0,1,1,1,0,0,0,0,0,1,0,1,1,0,0,1,0,1,0,0]","location_rts":"[3388,3460,1679,1080,2184,2364,1753,675,1467,818,1227,1252,1744,3423,2576,1390,1391,1417,899,1472,357]","trial_type":"two-door-navigation","trial_index":2,"time_elapsed":327897,"internal_node_id":"0.0-2.0-0.0"},{"group":"tri cycles (cube, non-group)","room_assignment":["yellow","pink","brown","green","purple","grey","red","blue"],"door_color_assignment":["white","black"],"door_generator_assignment":[1,0],"goal":1,"start":3,"action_noise":0.1,"location_history":"[3,7,6,4,7,6,4,0,3,4,0,2,6,4,0,2,6,5,1]","action_history":"[0,0,0,0,0,0,1,1,1,1,0,1,0,1,0,1,1,0]","door_history":"[1,1,1,1,1,1,0,0,0,0,1,0,1,0,1,0,0,1]","location_rts":"[2170,1666,971,742,801,1263,1678,2184,1262,1257,1236,762,1957,1042,1262,930,763,1147]","trial_type":"two-door-navigation","trial_index":3,"time_elapsed":373667,"internal_node_id":"0.0-2.0-1.0"},{"group":"tri cycles (cube, non-group)","room_assignment":["yellow","pink","brown","green","purple","grey","red","blue"],"door_color_assignment":["white","black"],"door_generator_assignment":[1,0],"goal":2,"start":1,"action_noise":0.1,"location_history":"[1,5,1,0,3,4,7,3,7,3,4,7,3,4,0,3,7,6,4,0,3,7,6,5,2]","action_history":"[1,1,0,1,1,0,1,0,1,1,0,1,1,1,1,0,0,0,0,1,0,0,1,1]","door_history":"[0,0,1,0,0,1,0,1,0,0,1,0,0,0,0,1,1,1,1,0,1,1,0,0]","location_rts":"[1732,2217,1264,1530,1494,938,1807,1144,886,489,1166,971,801,511,607,1007,754,526,926,1000,814,996,1156,959]","trial_type":"two-door-navigation","trial_index":4,"time_elapsed":428293,"internal_node_id":"0.0-2.0-2.0"},{"group":"tri cycles (cube, non-group)","room_assignment":["yellow","pink","brown","green","purple","grey","red","blue"],"door_color_assignment":["white","black"],"door_generator_assignment":[1,0],"goal":6,"start":2,"action_noise":0.1,"location_history":"[2,1,0,3,7,6]","action_history":"[0,0,1,0,0]","door_history":"[1,1,0,1,1]","location_rts":"[2440,985,1576,1343,858]","trial_type":"two-door-navigation","trial_index":5,"time_elapsed":444434,"internal_node_id":"0.0-2.0-3.0"},{"group":"tri cycles (cube, non-group)","room_assignment":["yellow","pink","brown","green","purple","grey","red","blue"],"door_color_assignment":["white","black"],"door_generator_assignment":[1,0],"goal":5,"start":6,"action_noise":0.1,"location_history":"[6,5]","action_history":"[1]","door_history":"[0]","location_rts":"[3755]","trial_type":"two-door-navigation","trial_index":6,"time_elapsed":452724,"internal_node_id":"0.0-2.0-4.0"},{"group":"tri cycles (cube, non-group)","room_assignment":["yellow","pink","brown","green","purple","grey","red","blue"],"door_color_assignment":["white","black"],"door_generator_assignment":[1,0],"goal":4,"start":5,"action_noise":0.1,"location_history":"[5,2,6,5,1,0,2,6,4]","action_history":"[1,1,1,0,0,0,1,0]","door_history":"[0,0,0,1,1,1,0,1]","location_rts":"[1788,558,1398,1451,3191,2296,1100,1537]","trial_type":"two-door-navigation","trial_index":7,"time_elapsed":477989,"internal_node_id":"0.0-2.0-5.0"},{"group":"tri cycles (cube, non-group)","room_assignment":["yellow","pink","brown","green","purple","grey","red","blue"],"door_color_assignment":["white","black"],"door_generator_assignment":[1,0],"goal":7,"start":4,"action_noise":0.1,"location_history":"[4,0,2,1,0,2,1,0,2,6,4,0,3,4,0,3,7]","action_history":"[1,0,0,0,0,0,0,0,1,1,1,1,1,1,1,0]","door_history":"[0,1,1,1,1,1,1,1,0,0,0,0,0,0,0,1]","location_rts":"[5083,1314,1368,593,560,1168,1434,1038,1062,2076,941,892,650,939,663,1050]","trial_type":"two-door-navigation","trial_index":8,"time_elapsed":519475,"internal_node_id":"0.0-2.0-6.0"},{"group":"tri cycles (cube, non-group)","room_assignment":["yellow","pink","brown","green","purple","grey","red","blue"],"door_color_assignment":["white","black"],"door_generator_assignment":[1,0],"goal":4,"start":7,"action_noise":0.1,"location_history":"[7,6,4]","action_history":"[0,0]","door_history":"[1,1]","location_rts":"[2016,412]","trial_type":"two-door-navigation","trial_index":9,"time_elapsed":527475,"internal_node_id":"0.0-2.0-7.0"},{"group":"tri cycles (cube, non-group)","room_assignment":["yellow","pink","brown","green","purple","grey","red","blue"],"door_color_assignment":["white","black"],"door_generator_assignment":[1,0],"goal":6,"start":4,"action_noise":0.1,"location_history":"[4,7,6]","action_history":"[0,0]","door_history":"[1,1]","location_rts":"[1594,567]","trial_type":"two-door-navigation","trial_index":10,"time_elapsed":535394,"internal_node_id":"0.0-2.0-8.0"},{"group":"tri cycles (cube, non-group)","room_assignment":["yellow","pink","brown","green","purple","grey","red","blue"],"door_color_assignment":["white","black"],"door_generator_assignment":[1,0],"goal":0,"start":6,"action_noise":0.1,"location_history":"[6,5,2,6,4,0]","action_history":"[1,1,1,1,1]","door_history":"[0,0,0,0,0]","location_rts":"[1432,392,331,360,652]","trial_type":"two-door-navigation","trial_index":11,"time_elapsed":547404,"internal_node_id":"0.0-2.0-9.0"},{"group":"tri cycles (cube, non-group)","room_assignment":["yellow","pink","brown","green","purple","grey","red","blue"],"door_color_assignment":["white","black"],"door_generator_assignment":[1,0],"goal":1,"start":0,"action_noise":0.1,"location_history":"[0,2,1]","action_history":"[0,0]","door_history":"[1,1]","location_rts":"[3570,484]","trial_type":"two-door-navigation","trial_index":12,"time_elapsed":557084,"internal_node_id":"0.0-2.0-10.0"},{"group":"tri cycles (cube, non-group)","room_assignment":["yellow","pink","brown","green","purple","grey","red","blue"],"door_color_assignment":["white","black"],"door_generator_assignment":[1,0],"goal":3,"start":1,"action_noise":0.1,"location_history":"[1,5,1,5,1,0,2,1,0,3]","action_history":"[1,1,1,0,0,0,0,0,1]","door_history":"[0,0,0,1,1,1,1,1,0]","location_rts":"[2184,411,306,1086,388,603,395,444,717]","trial_type":"two-door-navigation","trial_index":13,"time_elapsed":576662,"internal_node_id":"0.0-2.0-11.0"},{"group":"tri cycles (cube, non-group)","room_assignment":["yellow","pink","brown","green","purple","grey","red","blue"],"door_color_assignment":["white","black"],"door_generator_assignment":[1,0],"goal":7,"start":3,"action_noise":0.1,"location_history":"[3,4,0,3,7]","action_history":"[1,1,1,0]","door_history":"[0,0,0,1]","location_rts":"[1799,459,436,3237]","trial_type":"two-door-navigation","trial_index":14,"time_elapsed":590317,"internal_node_id":"0.0-2.0-12.0"},{"group":"tri cycles (cube, non-group)","room_assignment":["yellow","pink","brown","green","purple","grey","red","blue"],"door_color_assignment":["white","black"],"door_generator_assignment":[1,0],"goal":5,"start":7,"action_noise":0.1,"location_history":"[7,6,4,7,3,4,0,3,4,7,3,7,6,4,7,3,7,3,4,7,6,5]","action_history":"[0,0,0,1,1,1,1,1,0,1,0,0,0,0,1,0,1,1,0,0,1]","door_history":"[1,1,1,0,0,0,0,0,1,0,1,1,1,1,0,1,0,0,1,1,0]","location_rts":"[2052,487,724,1375,506,504,557,897,779,2824,2060,827,658,837,1282,1073,445,1130,2291,801,1380]","trial_type":"two-door-navigation","trial_index":15,"time_elapsed":639794,"internal_node_id":"0.0-2.0-13.0"},{"group":"tri cycles (cube, non-group)","room_assignment":["yellow","pink","brown","green","purple","grey","red","blue"],"door_color_assignment":["white","black"],"door_generator_assignment":[1,0],"goal":2,"start":5,"action_noise":0.1,"location_history":"[5,2]","action_history":"[1]","door_history":"[0]","location_rts":"[1422]","trial_type":"two-door-navigation","trial_index":16,"time_elapsed":645912,"internal_node_id":"0.0-2.0-14.0"},{"group":"tri cycles (cube, non-group)","room_assignment":["yellow","pink","brown","green","purple","grey","red","blue"],"door_color_assignment":["white","black"],"door_generator_assignment":[1,0],"goal":7,"start":2,"action_noise":0.1,"location_history":"[2,6,5,2,6,4,7]","action_history":"[1,1,1,1,0,0]","door_history":"[0,0,0,0,1,1]","location_rts":"[1756,703,591,654,980,734]","trial_type":"two-door-navigation","trial_index":17,"time_elapsed":661256,"internal_node_id":"0.0-2.0-15.0"},{"group":"tri cycles (cube, non-group)","room_assignment":["yellow","pink","brown","green","purple","grey","red","blue"],"door_color_assignment":["white","black"],"door_generator_assignment":[1,0],"goal":4,"start":7,"action_noise":0.1,"location_history":"[7,6,4]","action_history":"[0,0]","door_history":"[1,1]","location_rts":"[1192,455]","trial_type":"two-door-navigation","trial_index":18,"time_elapsed":668650,"internal_node_id":"0.0-2.0-16.0"},{"group":"tri cycles (cube, non-group)","room_assignment":["yellow","pink","brown","green","purple","grey","red","blue"],"door_color_assignment":["white","black"],"door_generator_assignment":[1,0],"goal":2,"start":4,"action_noise":0.1,"location_history":"[4,7,6,4,7,6,5,2]","action_history":"[0,0,0,0,0,1,1]","door_history":"[1,1,1,1,1,0,0]","location_rts":"[1069,538,486,1141,1167,1145,571]","trial_type":"two-door-navigation","trial_index":19,"time_elapsed":685786,"internal_node_id":"0.0-2.0-17.0"},{"group":"tri cycles (cube, non-group)","room_assignment":["yellow","pink","brown","green","purple","grey","red","blue"],"door_color_assignment":["white","black"],"door_generator_assignment":[1,0],"goal":3,"start":2,"action_noise":0.1,"location_history":"[2,6,5,2,6,5,1,5,1,5,1,5,1,0,3]","action_history":"[1,1,1,1,0,0,0,0,1,0,1,0,0,1]","door_history":"[0,0,0,0,1,1,1,1,0,1,0,1,1,0]","location_rts":"[1064,379,486,919,938,652,562,574,995,1077,1108,1151,758,727]","trial_type":"two-door-navigation","trial_index":20,"time_elapsed":715807,"internal_node_id":"0.0-2.0-18.0"},{"group":"tri cycles (cube, non-group)","room_assignment":["yellow","pink","brown","green","purple","grey","red","blue"],"door_color_assignment":["white","black"],"door_generator_assignment":[1,0],"goal":6,"start":3,"action_noise":0.1,"location_history":"[3,4,7,3,7,6]","action_history":"[1,0,1,0,0]","door_history":"[0,1,0,1,1]","location_rts":"[1572,1806,1178,1138,981]","trial_type":"two-door-navigation","trial_index":21,"time_elapsed":731163,"internal_node_id":"0.0-2.0-19.0"},{"group":"tri cycles (cube, non-group)","room_assignment":["yellow","pink","brown","green","purple","grey","red","blue"],"door_color_assignment":["white","black"],"door_generator_assignment":[1,0],"goal":5,"start":6,"action_noise":0.1,"location_history":"[6,5]","action_history":"[0]","door_history":"[1]","location_rts":"[1220]","trial_type":"two-door-navigation","trial_index":22,"time_elapsed":737010,"internal_node_id":"0.0-2.0-20.0"},{"group":"tri cycles (cube, non-group)","room_assignment":["yellow","pink","brown","green","purple","grey","red","blue"],"door_color_assignment":["white","black"],"door_generator_assignment":[1,0],"goal":1,"start":5,"action_noise":0.1,"location_history":"[5,1]","action_history":"[0]","door_history":"[1]","location_rts":"[1236]","trial_type":"two-door-navigation","trial_index":23,"time_elapsed":742772,"internal_node_id":"0.0-2.0-21.0"},{"group":"tri cycles (cube, non-group)","room_assignment":["yellow","pink","brown","green","purple","grey","red","blue"],"door_color_assignment":["white","black"],"door_generator_assignment":[1,0],"goal":0,"start":1,"action_noise":0.1,"location_history":"[1,0]","action_history":"[0]","door_history":"[1]","location_rts":"[1606]","trial_type":"two-door-navigation","trial_index":24,"time_elapsed":748906,"internal_node_id":"0.0-2.0-22.0"},{"group":"tri cycles (cube, non-group)","room_assignment":["yellow","pink","brown","green","purple","grey","red","blue"],"door_color_assignment":["white","black"],"door_generator_assignment":[1,0],"goal":2,"start":0,"action_noise":0.1,"location_history":"[0,2]","action_history":"[0]","door_history":"[1]","location_rts":"[1068]","trial_type":"two-door-navigation","trial_index":25,"time_elapsed":754505,"internal_node_id":"0.0-2.0-23.0"},{"group":"tri cycles (cube, non-group)","room_assignment":["yellow","pink","brown","green","purple","grey","red","blue"],"door_color_assignment":["white","black"],"door_generator_assignment":[1,0],"goal":6,"start":2,"action_noise":0.1,"location_history":"[2,6]","action_history":"[1]","door_history":"[0]","location_rts":"[1053]","trial_type":"two-door-navigation","trial_index":26,"time_elapsed":760177,"internal_node_id":"0.0-2.0-24.0"},{"group":"tri cycles (cube, non-group)","room_assignment":["yellow","pink","brown","green","purple","grey","red","blue"],"door_color_assignment":["white","black"],"door_generator_assignment":[1,0],"goal":1,"start":6,"action_noise":0.1,"location_history":"[6,5,2,1]","action_history":"[1,1,0]","door_history":"[0,0,1]","location_rts":"[996,508,611]","trial_type":"two-door-navigation","trial_index":27,"time_elapsed":768988,"internal_node_id":"0.0-2.0-25.0"},{"group":"tri cycles (cube, non-group)","room_assignment":["yellow","pink","brown","green","purple","grey","red","blue"],"door_color_assignment":["white","black"],"door_generator_assignment":[1,0],"goal":3,"start":1,"action_noise":0.1,"location_history":"[1,5,1,0,3]","action_history":"[0,0,0,1]","door_history":"[1,1,1,0]","location_rts":"[880,451,346,408]","trial_type":"two-door-navigation","trial_index":28,"time_elapsed":778875,"internal_node_id":"0.0-2.0-26.0"},{"group":"tri cycles (cube, non-group)","room_assignment":["yellow","pink","brown","green","purple","grey","red","blue"],"door_color_assignment":["white","black"],"door_generator_assignment":[1,0],"goal":7,"start":3,"action_noise":0.1,"location_history":"[3,4,7]","action_history":"[1,0]","door_history":"[0,1]","location_rts":"[530,2234]","trial_type":"two-door-navigation","trial_index":29,"time_elapsed":787214,"internal_node_id":"0.0-2.0-27.0"},{"group":"tri cycles (cube, non-group)","room_assignment":["yellow","pink","brown","green","purple","grey","red","blue"],"door_color_assignment":["white","black"],"door_generator_assignment":[1,0],"goal":4,"start":7,"action_noise":0.1,"location_history":"[7,6,4]","action_history":"[0,0]","door_history":"[1,1]","location_rts":"[625,433]","trial_type":"two-door-navigation","trial_index":30,"time_elapsed":793868,"internal_node_id":"0.0-2.0-28.0"},{"group":"tri cycles (cube, non-group)","room_assignment":["yellow","pink","brown","green","purple","grey","red","blue"],"door_color_assignment":["white","black"],"door_generator_assignment":[1,0],"goal":0,"start":4,"action_noise":0.1,"location_history":"[4,0]","action_history":"[0]","door_history":"[1]","location_rts":"[1783]","trial_type":"two-door-navigation","trial_index":31,"time_elapsed":800238,"internal_node_id":"0.0-2.0-29.0"},{"group":"tri cycles (cube, non-group)","room_assignment":["yellow","pink","brown","green","purple","grey","red","blue"],"door_color_assignment":["white","black"],"door_generator_assignment":[1,0],"goal":5,"start":0,"action_noise":0.1,"location_history":"[0,2,1,0,3,4,0,3,7,6,4,0,3,4,7,3,4,7,3,4,7,6,5]","action_history":"[0,0,0,1,1,1,1,0,0,0,1,1,1,0,1,1,0,0,1,1,0,1]","door_history":"[1,1,1,0,0,0,0,1,1,1,0,0,0,1,0,0,1,1,0,0,1,0]","location_rts":"[727,1600,773,1511,435,669,757,1327,408,509,1078,598,476,1151,968,754,640,1101,371,355,745,1309]","trial_type":"two-door-navigation","trial_index":32,"time_elapsed":845801,"internal_node_id":"0.0-2.0-30.0"},{"group":"tri cycles (cube, non-group)","room_assignment":["yellow","pink","brown","green","purple","grey","red","blue"],"door_color_assignment":["white","black"],"door_generator_assignment":[1,0],"goal":3,"start":5,"action_noise":0.1,"location_history":"[5,2,6,5,1,0,3]","action_history":"[1,1,1,0,0,1]","door_history":"[0,0,0,1,1,0]","location_rts":"[1858,820,405,829,475,1265]","trial_type":"two-door-navigation","trial_index":33,"time_elapsed":861200,"internal_node_id":"0.0-2.0-31.0"},{"group":"tri cycles (cube, non-group)","room_assignment":["yellow","pink","brown","green","purple","grey","red","blue"],"door_color_assignment":["white","black"],"door_generator_assignment":[1,0],"goal":2,"start":3,"action_noise":0.1,"location_history":"[3,4,7,3,4,0,2]","action_history":"[0,0,0,1,1,1]","door_history":"[1,1,1,0,0,0]","location_rts":"[1642,1034,624,684,418,595]","trial_type":"two-door-navigation","trial_index":34,"time_elapsed":876069,"internal_node_id":"0.0-2.0-32.0"},{"group":"tri cycles (cube, non-group)","room_assignment":["yellow","pink","brown","green","purple","grey","red","blue"],"door_color_assignment":["white","black"],"door_generator_assignment":[1,0],"goal":6,"start":2,"action_noise":0.1,"location_history":"[2,1,0,3,4,0,2,1,5,1,5,2,1,0,3,7,3,4,7,6]","action_history":"[0,0,1,1,1,0,0,1,0,1,1,0,0,1,0,1,1,0,0]","door_history":"[1,1,0,0,0,1,1,0,1,0,0,1,1,0,1,0,0,1,1]","location_rts":"[1645,594,565,451,597,854,865,759,837,1087,966,408,781,1007,955,1242,860,1192,693]","trial_type":"two-door-navigation","trial_index":35,"time_elapsed":915866,"internal_node_id":"0.0-2.0-33.0"},{"group":"tri cycles (cube, non-group)","room_assignment":["yellow","pink","brown","green","purple","grey","red","blue"],"door_color_assignment":["white","black"],"door_generator_assignment":[1,0],"goal":1,"start":6,"action_noise":0.1,"location_history":"[6,4,7,6,5,2,6,4,7,6,4,0,3,7,6,5,2,1]","action_history":"[0,0,1,1,1,1,0,0,0,0,1,1,0,0,1,0,0]","door_history":"[1,1,0,0,0,0,1,1,1,1,0,0,1,1,0,1,1]","location_rts":"[1556,635,753,437,403,418,1031,910,1782,423,953,768,807,475,489,1131,617]","trial_type":"two-door-navigation","trial_index":36,"time_elapsed":951022,"internal_node_id":"0.0-2.0-34.0"},{"group":"tri cycles (cube, non-group)","room_assignment":["yellow","pink","brown","green","purple","grey","red","blue"],"door_color_assignment":["white","black"],"door_generator_assignment":[1,0],"goal":7,"start":1,"action_noise":0.1,"location_history":"[1,5,2,1,0,2,6,5,1,0,3,7]","action_history":"[1,1,0,0,0,1,1,0,0,1,0]","door_history":"[0,0,1,1,1,0,0,1,1,0,1]","location_rts":"[1022,612,657,496,397,947,751,752,717,1043,1737]","trial_type":"two-door-navigation","trial_index":37,"time_elapsed":975748,"internal_node_id":"0.0-2.0-35.0"},{"group":"tri cycles (cube, non-group)","room_assignment":["yellow","pink","brown","green","purple","grey","red","blue"],"door_color_assignment":["white","black"],"door_generator_assignment":[1,0],"goal":4,"start":7,"action_noise":0.1,"location_history":"[7,3,7,6,4]","action_history":"[1,0,0,0]","door_history":"[0,1,1,1]","location_rts":"[2212,878,748,1251]","trial_type":"two-door-navigation","trial_index":38,"time_elapsed":988770,"internal_node_id":"0.0-2.0-36.0"},{"group":"tri cycles (cube, non-group)","room_assignment":["yellow","pink","brown","green","purple","grey","red","blue"],"door_color_assignment":["white","black"],"door_generator_assignment":[1,0],"goal":5,"start":4,"action_noise":0.1,"location_history":"[4,7,6,5]","action_history":"[0,0,0]","door_history":"[1,1,1]","location_rts":"[1042,534,460]","trial_type":"two-door-navigation","trial_index":39,"time_elapsed":997419,"internal_node_id":"0.0-2.0-37.0"},{"group":"tri cycles (cube, non-group)","room_assignment":["yellow","pink","brown","green","purple","grey","red","blue"],"door_color_assignment":["white","black"],"door_generator_assignment":[1,0],"goal":0,"start":5,"action_noise":0.1,"location_history":"[5,1,0]","action_history":"[0,0]","door_history":"[1,1]","location_rts":"[1195,1895]","trial_type":"two-door-navigation","trial_index":40,"time_elapsed":1006183,"internal_node_id":"0.0-2.0-38.0"},{"group":"tri cycles (cube, non-group)","room_assignment":["yellow","pink","brown","green","purple","grey","red","blue"],"door_color_assignment":["white","black"],"door_generator_assignment":[1,0],"goal":4,"start":0,"action_noise":0.1,"location_history":"[0,2,1,0,2,1,5,1,5,2,6,4]","action_history":"[0,0,0,0,0,1,1,1,1,1,0]","door_history":"[1,1,1,1,1,0,0,0,0,0,1]","location_rts":"[4274,489,471,460,701,1322,474,398,498,1786,1023]","trial_type":"two-door-navigation","trial_index":41,"time_elapsed":1033225,"internal_node_id":"0.0-2.0-39.0"},{"group":"tri cycles (cube, non-group)","room_assignment":["yellow","pink","brown","green","purple","grey","red","blue"],"door_color_assignment":["white","black"],"door_generator_assignment":[1,0],"goal":0,"start":4,"action_noise":0.1,"location_history":"[4,7,6,5,2,1,0]","action_history":"[0,0,1,1,1,0]","door_history":"[1,1,0,0,0,1]","location_rts":"[474,422,739,361,334,1078]","trial_type":"two-door-navigation","trial_index":42,"time_elapsed":1046469,"internal_node_id":"0.0-2.0-40.0"},{"group":"tri cycles (cube, non-group)","room_assignment":["yellow","pink","brown","green","purple","grey","red","blue"],"door_color_assignment":["white","black"],"door_generator_assignment":[1,0],"goal":2,"start":0,"action_noise":0.1,"location_history":"[0,2]","action_history":"[0]","door_history":"[1]","location_rts":"[980]","trial_type":"two-door-navigation","trial_index":43,"time_elapsed":1051979,"internal_node_id":"0.0-2.0-41.0"},{"group":"tri cycles (cube, non-group)","room_assignment":["yellow","pink","brown","green","purple","grey","red","blue"],"door_color_assignment":["white","black"],"door_generator_assignment":[1,0],"goal":3,"start":2,"action_noise":0.1,"location_history":"[2,1,0,3]","action_history":"[0,0,1]","door_history":"[1,1,0]","location_rts":"[1240,431,1318]","trial_type":"two-door-navigation","trial_index":44,"time_elapsed":1061801,"internal_node_id":"0.0-2.0-42.0"},{"group":"tri cycles (cube, non-group)","room_assignment":["yellow","pink","brown","green","purple","grey","red","blue"],"door_color_assignment":["white","black"],"door_generator_assignment":[1,0],"goal":5,"start":3,"action_noise":0.1,"location_history":"[3,4,0,2,1,0,2,1,5]","action_history":"[1,1,0,0,0,0,0,1]","door_history":"[0,0,1,1,1,1,1,0]","location_rts":"[1080,563,789,830,574,509,356,577]","trial_type":"two-door-navigation","trial_index":45,"time_elapsed":1078867,"internal_node_id":"0.0-2.0-43.0"},{"group":"tri cycles (cube, non-group)","room_assignment":["yellow","pink","brown","green","purple","grey","red","blue"],"door_color_assignment":["white","black"],"door_generator_assignment":[1,0],"goal":1,"start":5,"action_noise":0.1,"location_history":"[5,2,6,5,1]","action_history":"[1,1,1,1]","door_history":"[0,0,0,0]","location_rts":"[1028,733,296,289]","trial_type":"two-door-navigation","trial_index":46,"time_elapsed":1088916,"internal_node_id":"0.0-2.0-44.0"},{"group":"tri cycles (cube, non-group)","room_assignment":["yellow","pink","brown","green","purple","grey","red","blue"],"door_color_assignment":["white","black"],"door_generator_assignment":[1,0],"goal":7,"start":1,"action_noise":0.1,"location_history":"[1,5,2,1,0,3,7]","action_history":"[1,1,0,0,1,0]","door_history":"[0,0,1,1,0,1]","location_rts":"[1088,912,1014,1430,1150,973]","trial_type":"two-door-navigation","trial_index":47,"time_elapsed":1105355,"internal_node_id":"0.0-2.0-45.0"},{"group":"tri cycles (cube, non-group)","room_assignment":["yellow","pink","brown","green","purple","grey","red","blue"],"door_color_assignment":["white","black"],"door_generator_assignment":[1,0],"goal":6,"start":7,"action_noise":0.1,"location_history":"[7,6]","action_history":"[0]","door_history":"[1]","location_rts":"[1338]","trial_type":"two-door-navigation","trial_index":48,"time_elapsed":1111222,"internal_node_id":"0.0-2.0-46.0"},{"group":"tri cycles (cube, non-group)","room_assignment":["yellow","pink","brown","green","purple","grey","red","blue"],"door_color_assignment":["white","black"],"door_generator_assignment":[1,0],"goal":3,"start":6,"action_noise":0.1,"location_history":"[6,5,2,1,0,2,1,5,1,5,2,1,5,2,6,4,0,3]","action_history":"[1,1,1,0,0,0,1,0,1,1,0,1,1,1,0,1,1]","door_history":"[0,0,0,1,1,1,0,1,0,0,1,0,0,0,1,0,0]","location_rts":"[1669,396,994,891,908,612,956,1281,908,397,934,1015,248,236,956,1186,1699]","trial_type":"two-door-navigation","trial_index":49,"time_elapsed":1147708,"internal_node_id":"0.0-2.0-47.0"},{"group":"tri cycles (cube, non-group)","room_assignment":["yellow","pink","brown","green","purple","grey","red","blue"],"door_color_assignment":["white","black"],"door_generator_assignment":[1,0],"goal":0,"start":3,"action_noise":0.1,"location_history":"[3,4,0]","action_history":"[1,0]","door_history":"[0,1]","location_rts":"[2116,1034]","trial_type":"two-door-navigation","trial_index":50,"time_elapsed":1156466,"internal_node_id":"0.0-2.0-48.0"},{"group":"tri cycles (cube, non-group)","room_assignment":["yellow","pink","brown","green","purple","grey","red","blue"],"door_color_assignment":["white","black"],"door_generator_assignment":[1,0],"goal":2,"start":0,"action_noise":0.1,"location_history":"[0,3,4,7,6,5,2]","action_history":"[1,1,0,0,0,1]","door_history":"[0,0,1,1,1,0]","location_rts":"[1635,387,832,666,405,1582]","trial_type":"two-door-navigation","trial_index":51,"time_elapsed":1171830,"internal_node_id":"0.0-2.0-49.0"},{"view_history":"[{\"page_index\":0,\"viewing_time\":6167}]","rt":6168,"trial_type":"instructions","trial_index":52,"time_elapsed":1179002,"internal_node_id":"0.0-3.0"},{"view_history":"[{\"page_index\":0,\"viewing_time\":7172},{\"page_index\":1,\"viewing_time\":41741}]","rt":48915,"trial_type":"instructions","trial_index":53,"time_elapsed":1228917,"internal_node_id":"0.0-4.0"},{"group":"square cycles (cube, non-group)","fractal_assignment":["../images/grn_red.png","../images/ylw_slt.png","../images/org_blu.png","../images/gry_blk.png","../images/pnk_blu.png","../images/blu_wht.png","../images/ylw_pnk.png","../images/cyn_red.png"],"mutagen_generator_assignment":[1,0],"goal":3,"start":0,"action_noise":0.1,"location_history":"[0,1,2,6,5,4,5,1,2,6,5,4,7,6,5,4,7,3]","action_history":"[0,1,1,0,0,1,1,0,1,0,0,0,0,0,0,0,1]","mutagen_history":"[1,0,0,1,1,0,0,1,0,1,1,1,1,1,1,1,0]","location_rts":"[8975,6032,4223,1112,790,826,1063,3634,2334,585,579,642,652,638,4261,731,976]","trial_type":"fractal-mutation","trial_index":54,"time_elapsed":1288835,"internal_node_id":"0.0-5.0-0.0"},{"group":"square cycles (cube, non-group)","fractal_assignment":["../images/grn_red.png","../images/ylw_slt.png","../images/org_blu.png","../images/gry_blk.png","../images/pnk_blu.png","../images/blu_wht.png","../images/ylw_pnk.png","../images/cyn_red.png"],"mutagen_generator_assignment":[1,0],"goal":1,"start":3,"action_noise":0.1,"location_history":"[3,2,6,7,3,2,3,0,1]","action_history":"[1,1,1,1,1,0,0,0]","mutagen_history":"[0,0,0,0,0,1,1,1]","location_rts":"[618,985,645,1152,2058,730,1570,787]","trial_type":"fractal-mutation","trial_index":55,"time_elapsed":1309783,"internal_node_id":"0.0-5.0-1.0"},{"group":"square cycles (cube, non-group)","fractal_assignment":["../images/grn_red.png","../images/ylw_slt.png","../images/org_blu.png","../images/gry_blk.png","../images/pnk_blu.png","../images/blu_wht.png","../images/ylw_pnk.png","../images/cyn_red.png"],"mutagen_generator_assignment":[1,0],"goal":2,"start":1,"action_noise":0.1,"location_history":"[1,0,4,5,4,7,6,7,6,5,1,2]","action_history":"[1,1,1,0,0,0,0,0,0,1,0]","mutagen_history":"[0,0,0,1,1,1,1,1,1,0,1]","location_rts":"[1479,803,735,1241,678,1017,3918,1932,631,405,738]","trial_type":"fractal-mutation","trial_index":56,"time_elapsed":1338951,"internal_node_id":"0.0-5.0-2.0"},{"group":"square cycles (cube, non-group)","fractal_assignment":["../images/grn_red.png","../images/ylw_slt.png","../images/org_blu.png","../images/gry_blk.png","../images/pnk_blu.png","../images/blu_wht.png","../images/ylw_pnk.png","../images/cyn_red.png"],"mutagen_generator_assignment":[1,0],"goal":6,"start":2,"action_noise":0.1,"location_history":"[2,6]","action_history":"[1]","mutagen_history":"[0]","location_rts":"[668]","trial_type":"fractal-mutation","trial_index":57,"time_elapsed":1344207,"internal_node_id":"0.0-5.0-3.0"},{"group":"square cycles (cube, non-group)","fractal_assignment":["../images/grn_red.png","../images/ylw_slt.png","../images/org_blu.png","../images/gry_blk.png","../images/pnk_blu.png","../images/blu_wht.png","../images/ylw_pnk.png","../images/cyn_red.png"],"mutagen_generator_assignment":[1,0],"goal":5,"start":6,"action_noise":0.1,"location_history":"[6,7,3,0,4,5]","action_history":"[1,1,0,0,1]","mutagen_history":"[0,0,1,1,0]","location_rts":"[1221,2008,754,1090,2525]","trial_type":"fractal-mutation","trial_index":58,"time_elapsed":1360817,"internal_node_id":"0.0-5.0-4.0"},{"group":"square cycles (cube, non-group)","fractal_assignment":["../images/grn_red.png","../images/ylw_slt.png","../images/org_blu.png","../images/gry_blk.png","../images/pnk_blu.png","../images/blu_wht.png","../images/ylw_pnk.png","../images/cyn_red.png"],"mutagen_generator_assignment":[1,0],"goal":4,"start":5,"action_noise":0.1,"location_history":"[5,4]","action_history":"[0]","mutagen_history":"[1]","location_rts":"[851]","trial_type":"fractal-mutation","trial_index":59,"time_elapsed":1366260,"internal_node_id":"0.0-5.0-5.0"},{"group":"square cycles (cube, non-group)","fractal_assignment":["../images/grn_red.png","../images/ylw_slt.png","../images/org_blu.png","../images/gry_blk.png","../images/pnk_blu.png","../images/blu_wht.png","../images/ylw_pnk.png","../images/cyn_red.png"],"mutagen_generator_assignment":[1,0],"goal":7,"start":4,"action_noise":0.1,"location_history":"[4,5,1,2,3,0,4,5,1,2,3,2,3,2,6,7]","action_history":"[1,1,0,0,0,1,1,0,0,1,1,0,1,1,1]","mutagen_history":"[0,0,1,1,1,0,0,1,1,0,0,1,0,0,0]","location_rts":"[630,1112,624,574,759,1023,832,734,934,986,2004,1136,1739,825,975]","trial_type":"fractal-mutation","trial_index":60,"time_elapsed":1400845,"internal_node_id":"0.0-5.0-6.0"},{"group":"square cycles (cube, non-group)","fractal_assignment":["../images/grn_red.png","../images/ylw_slt.png","../images/org_blu.png","../images/gry_blk.png","../images/pnk_blu.png","../images/blu_wht.png","../images/ylw_pnk.png","../images/cyn_red.png"],"mutagen_generator_assignment":[1,0],"goal":4,"start":7,"action_noise":0.1,"location_history":"[7,3,2,6,7,6,7,6,5,1,2,3,0,4]","action_history":"[0,1,1,1,0,0,0,0,0,0,0,0,1]","mutagen_history":"[1,0,0,0,1,1,1,1,1,1,1,1,0]","location_rts":"[1009,688,808,1067,1136,726,531,925,765,841,867,868,620]","trial_type":"fractal-mutation","trial_index":61,"time_elapsed":1429675,"internal_node_id":"0.0-5.0-7.0"},{"group":"square cycles (cube, non-group)","fractal_assignment":["../images/grn_red.png","../images/ylw_slt.png","../images/org_blu.png","../images/gry_blk.png","../images/pnk_blu.png","../images/blu_wht.png","../images/ylw_pnk.png","../images/cyn_red.png"],"mutagen_generator_assignment":[1,0],"goal":6,"start":4,"action_noise":0.1,"location_history":"[4,5,1,0,4,7,6]","action_history":"[1,1,1,0,0,0]","mutagen_history":"[0,0,0,1,1,1]","location_rts":"[2202,528,597,942,549,629]","trial_type":"fractal-mutation","trial_index":62,"time_elapsed":1445203,"internal_node_id":"0.0-5.0-8.0"},{"group":"square cycles (cube, non-group)","fractal_assignment":["../images/grn_red.png","../images/ylw_slt.png","../images/org_blu.png","../images/gry_blk.png","../images/pnk_blu.png","../images/blu_wht.png","../images/ylw_pnk.png","../images/cyn_red.png"],"mutagen_generator_assignment":[1,0],"goal":0,"start":6,"action_noise":0.1,"location_history":"[6,5,4,5,1,0]","action_history":"[0,0,1,1,0]","mutagen_history":"[1,1,0,0,1]","location_rts":"[562,671,405,580,586]","trial_type":"fractal-mutation","trial_index":63,"time_elapsed":1456951,"internal_node_id":"0.0-5.0-9.0"},{"group":"square cycles (cube, non-group)","fractal_assignment":["../images/grn_red.png","../images/ylw_slt.png","../images/org_blu.png","../images/gry_blk.png","../images/pnk_blu.png","../images/blu_wht.png","../images/ylw_pnk.png","../images/cyn_red.png"],"mutagen_generator_assignment":[1,0],"goal":1,"start":0,"action_noise":0.1,"location_history":"[0,1]","action_history":"[0]","mutagen_history":"[1]","location_rts":"[562]","trial_type":"fractal-mutation","trial_index":64,"time_elapsed":1462176,"internal_node_id":"0.0-5.0-10.0"},{"group":"square cycles (cube, non-group)","fractal_assignment":["../images/grn_red.png","../images/ylw_slt.png","../images/org_blu.png","../images/gry_blk.png","../images/pnk_blu.png","../images/blu_wht.png","../images/ylw_pnk.png","../images/cyn_red.png"],"mutagen_generator_assignment":[1,0],"goal":3,"start":1,"action_noise":0.1,"location_history":"[1,0,4,5,4,7,6,5,1,0,1,2,3]","action_history":"[1,1,1,0,0,0,0,1,1,0,0,0]","mutagen_history":"[0,0,0,1,1,1,1,0,0,1,1,1]","location_rts":"[833,695,599,350,735,811,512,651,972,524,702,834]","trial_type":"fractal-mutation","trial_index":65,"time_elapsed":1487060,"internal_node_id":"0.0-5.0-11.0"},{"group":"square cycles (cube, non-group)","fractal_assignment":["../images/grn_red.png","../images/ylw_slt.png","../images/org_blu.png","../images/gry_blk.png","../images/pnk_blu.png","../images/blu_wht.png","../images/ylw_pnk.png","../images/cyn_red.png"],"mutagen_generator_assignment":[1,0],"goal":7,"start":3,"action_noise":0.1,"location_history":"[3,2,6,5,4,7]","action_history":"[1,1,0,0,0]","mutagen_history":"[0,0,1,1,1]","location_rts":"[906,857,845,732,780]","trial_type":"fractal-mutation","trial_index":66,"time_elapsed":1500089,"internal_node_id":"0.0-5.0-12.0"},{"group":"square cycles (cube, non-group)","fractal_assignment":["../images/grn_red.png","../images/ylw_slt.png","../images/org_blu.png","../images/gry_blk.png","../images/pnk_blu.png","../images/blu_wht.png","../images/ylw_pnk.png","../images/cyn_red.png"],"mutagen_generator_assignment":[1,0],"goal":5,"start":7,"action_noise":0.1,"location_history":"[7,6,7,6,5]","action_history":"[0,1,0,1]","mutagen_history":"[1,0,1,0]","location_rts":"[761,1787,1182,1924]","trial_type":"fractal-mutation","trial_index":67,"time_elapsed":1513514,"internal_node_id":"0.0-5.0-13.0"},{"group":"square cycles (cube, non-group)","fractal_assignment":["../images/grn_red.png","../images/ylw_slt.png","../images/org_blu.png","../images/gry_blk.png","../images/pnk_blu.png","../images/blu_wht.png","../images/ylw_pnk.png","../images/cyn_red.png"],"mutagen_generator_assignment":[1,0],"goal":2,"start":5,"action_noise":0.1,"location_history":"[5,1,2]","action_history":"[0,0]","mutagen_history":"[1,1]","location_rts":"[728,658]","trial_type":"fractal-mutation","trial_index":68,"time_elapsed":1520551,"internal_node_id":"0.0-5.0-14.0"},{"group":"square cycles (cube, non-group)","fractal_assignment":["../images/grn_red.png","../images/ylw_slt.png","../images/org_blu.png","../images/gry_blk.png","../images/pnk_blu.png","../images/blu_wht.png","../images/ylw_pnk.png","../images/cyn_red.png"],"mutagen_generator_assignment":[1,0],"goal":7,"start":2,"action_noise":0.1,"location_history":"[2,6,7]","action_history":"[1,1]","mutagen_history":"[0,0]","location_rts":"[734,759]","trial_type":"fractal-mutation","trial_index":69,"time_elapsed":1527723,"internal_node_id":"0.0-5.0-15.0"},{"group":"square cycles (cube, non-group)","fractal_assignment":["../images/grn_red.png","../images/ylw_slt.png","../images/org_blu.png","../images/gry_blk.png","../images/pnk_blu.png","../images/blu_wht.png","../images/ylw_pnk.png","../images/cyn_red.png"],"mutagen_generator_assignment":[1,0],"goal":4,"start":7,"action_noise":0.1,"location_history":"[7,3,2,6,7,6,5,4]","action_history":"[1,1,1,1,0,0,0]","mutagen_history":"[0,0,0,0,1,1,1]","location_rts":"[855,509,515,458,583,453,445]","trial_type":"fractal-mutation","trial_index":70,"time_elapsed":1542690,"internal_node_id":"0.0-5.0-16.0"},{"group":"square cycles (cube, non-group)","fractal_assignment":["../images/grn_red.png","../images/ylw_slt.png","../images/org_blu.png","../images/gry_blk.png","../images/pnk_blu.png","../images/blu_wht.png","../images/ylw_pnk.png","../images/cyn_red.png"],"mutagen_generator_assignment":[1,0],"goal":2,"start":4,"action_noise":0.1,"location_history":"[4,5,4,7,6,5,4,5,1,0,4,5,4,7,3,2]","action_history":"[1,0,0,0,0,0,1,1,1,1,1,0,0,0,0]","mutagen_history":"[0,1,1,1,1,1,0,0,0,0,0,1,1,1,1]","location_rts":"[817,753,733,394,513,437,492,425,462,445,396,458,459,530,460]","trial_type":"fractal-mutation","trial_index":71,"time_elapsed":1570094,"internal_node_id":"0.0-5.0-17.0"},{"group":"square cycles (cube, non-group)","fractal_assignment":["../images/grn_red.png","../images/ylw_slt.png","../images/org_blu.png","../images/gry_blk.png","../images/pnk_blu.png","../images/blu_wht.png","../images/ylw_pnk.png","../images/cyn_red.png"],"mutagen_generator_assignment":[1,0],"goal":3,"start":2,"action_noise":0.1,"location_history":"[2,3]","action_history":"[0]","mutagen_history":"[1]","location_rts":"[1313]","trial_type":"fractal-mutation","trial_index":72,"time_elapsed":1575957,"internal_node_id":"0.0-5.0-18.0"},{"group":"square cycles (cube, non-group)","fractal_assignment":["../images/grn_red.png","../images/ylw_slt.png","../images/org_blu.png","../images/gry_blk.png","../images/pnk_blu.png","../images/blu_wht.png","../images/ylw_pnk.png","../images/cyn_red.png"],"mutagen_generator_assignment":[1,0],"goal":6,"start":3,"action_noise":0.1,"location_history":"[3,0,1,0,4,5,1,0,1,2,3,0,4,7,6]","action_history":"[0,1,1,1,1,1,1,0,0,0,0,0,0,0]","mutagen_history":"[1,0,0,0,0,0,0,1,1,1,1,1,1,1]","location_rts":"[1251,882,700,388,591,391,460,561,406,327,459,801,461,530]","trial_type":"fractal-mutation","trial_index":73,"time_elapsed":1602925,"internal_node_id":"0.0-5.0-19.0"},{"group":"square cycles (cube, non-group)","fractal_assignment":["../images/grn_red.png","../images/ylw_slt.png","../images/org_blu.png","../images/gry_blk.png","../images/pnk_blu.png","../images/blu_wht.png","../images/ylw_pnk.png","../images/cyn_red.png"],"mutagen_generator_assignment":[1,0],"goal":5,"start":6,"action_noise":0.1,"location_history":"[6,5]","action_history":"[0]","mutagen_history":"[1]","location_rts":"[766]","trial_type":"fractal-mutation","trial_index":74,"time_elapsed":1608276,"internal_node_id":"0.0-5.0-20.0"},{"group":"square cycles (cube, non-group)","fractal_assignment":["../images/grn_red.png","../images/ylw_slt.png","../images/org_blu.png","../images/gry_blk.png","../images/pnk_blu.png","../images/blu_wht.png","../images/ylw_pnk.png","../images/cyn_red.png"],"mutagen_generator_assignment":[1,0],"goal":1,"start":5,"action_noise":0.1,"location_history":"[5,4,5,1]","action_history":"[0,1,0]","mutagen_history":"[1,0,1]","location_rts":"[1150,396,515]","trial_type":"fractal-mutation","trial_index":75,"time_elapsed":1617098,"internal_node_id":"0.0-5.0-21.0"},{"group":"square cycles (cube, non-group)","fractal_assignment":["../images/grn_red.png","../images/ylw_slt.png","../images/org_blu.png","../images/gry_blk.png","../images/pnk_blu.png","../images/blu_wht.png","../images/ylw_pnk.png","../images/cyn_red.png"],"mutagen_generator_assignment":[1,0],"goal":0,"start":1,"action_noise":0.1,"location_history":"[1,2,6,5,4,7,6,5,4,5,1,0]","action_history":"[0,1,0,0,0,0,0,0,1,1,1]","mutagen_history":"[1,0,1,1,1,1,1,1,0,0,0]","location_rts":"[525,482,470,425,453,407,401,325,434,474,356]","trial_type":"fractal-mutation","trial_index":76,"time_elapsed":1637243,"internal_node_id":"0.0-5.0-22.0"},{"group":"square cycles (cube, non-group)","fractal_assignment":["../images/grn_red.png","../images/ylw_slt.png","../images/org_blu.png","../images/gry_blk.png","../images/pnk_blu.png","../images/blu_wht.png","../images/ylw_pnk.png","../images/cyn_red.png"],"mutagen_generator_assignment":[1,0],"goal":2,"start":0,"action_noise":0.1,"location_history":"[0,1,2]","action_history":"[0,0]","mutagen_history":"[1,1]","location_rts":"[569,432]","trial_type":"fractal-mutation","trial_index":77,"time_elapsed":1643971,"internal_node_id":"0.0-5.0-23.0"},{"group":"square cycles (cube, non-group)","fractal_assignment":["../images/grn_red.png","../images/ylw_slt.png","../images/org_blu.png","../images/gry_blk.png","../images/pnk_blu.png","../images/blu_wht.png","../images/ylw_pnk.png","../images/cyn_red.png"],"mutagen_generator_assignment":[1,0],"goal":6,"start":2,"action_noise":0.1,"location_history":"[2,3,2,6]","action_history":"[0,1,1]","mutagen_history":"[1,0,0]","location_rts":"[515,624,740]","trial_type":"fractal-mutation","trial_index":78,"time_elapsed":1652735,"internal_node_id":"0.0-5.0-24.0"},{"group":"square cycles (cube, non-group)","fractal_assignment":["../images/grn_red.png","../images/ylw_slt.png","../images/org_blu.png","../images/gry_blk.png","../images/pnk_blu.png","../images/blu_wht.png","../images/ylw_pnk.png","../images/cyn_red.png"],"mutagen_generator_assignment":[1,0],"goal":1,"start":6,"action_noise":0.1,"location_history":"[6,7,3,2,3,0,1]","action_history":"[1,1,1,0,0,0]","mutagen_history":"[0,0,0,1,1,1]","location_rts":"[1149,704,518,535,426,358]","trial_type":"fractal-mutation","trial_index":79,"time_elapsed":1666339,"internal_node_id":"0.0-5.0-25.0"},{"group":"square cycles (cube, non-group)","fractal_assignment":["../images/grn_red.png","../images/ylw_slt.png","../images/org_blu.png","../images/gry_blk.png","../images/pnk_blu.png","../images/blu_wht.png","../images/ylw_pnk.png","../images/cyn_red.png"],"mutagen_generator_assignment":[1,0],"goal":3,"start":1,"action_noise":0.1,"location_history":"[1,2,3]","action_history":"[0,0]","mutagen_history":"[1,1]","location_rts":"[665,568]","trial_type":"fractal-mutation","trial_index":80,"time_elapsed":1673386,"internal_node_id":"0.0-5.0-26.0"},{"group":"square cycles (cube, non-group)","fractal_assignment":["../images/grn_red.png","../images/ylw_slt.png","../images/org_blu.png","../images/gry_blk.png","../images/pnk_blu.png","../images/blu_wht.png","../images/ylw_pnk.png","../images/cyn_red.png"],"mutagen_generator_assignment":[1,0],"goal":7,"start":3,"action_noise":0.1,"location_history":"[3,2,6,7]","action_history":"[0,1,1]","mutagen_history":"[1,0,0]","location_rts":"[632,631,10464]","trial_type":"fractal-mutation","trial_index":81,"time_elapsed":1692190,"internal_node_id":"0.0-5.0-27.0"},{"group":"square cycles (cube, non-group)","fractal_assignment":["../images/grn_red.png","../images/ylw_slt.png","../images/org_blu.png","../images/gry_blk.png","../images/pnk_blu.png","../images/blu_wht.png","../images/ylw_pnk.png","../images/cyn_red.png"],"mutagen_generator_assignment":[1,0],"goal":4,"start":7,"action_noise":0.1,"location_history":"[7,6,5,1,0,4]","action_history":"[0,0,1,1,1]","mutagen_history":"[1,1,0,0,0]","location_rts":"[5063,522,613,800,384]","trial_type":"fractal-mutation","trial_index":82,"time_elapsed":1709619,"internal_node_id":"0.0-5.0-28.0"},{"group":"square cycles (cube, non-group)","fractal_assignment":["../images/grn_red.png","../images/ylw_slt.png","../images/org_blu.png","../images/gry_blk.png","../images/pnk_blu.png","../images/blu_wht.png","../images/ylw_pnk.png","../images/cyn_red.png"],"mutagen_generator_assignment":[1,0],"goal":0,"start":4,"action_noise":0.1,"location_history":"[4,7,3,0]","action_history":"[0,0,0]","mutagen_history":"[1,1,1]","location_rts":"[3180,548,716]","trial_type":"fractal-mutation","trial_index":83,"time_elapsed":1721542,"internal_node_id":"0.0-5.0-29.0"},{"group":"square cycles (cube, non-group)","fractal_assignment":["../images/grn_red.png","../images/ylw_slt.png","../images/org_blu.png","../images/gry_blk.png","../images/pnk_blu.png","../images/blu_wht.png","../images/ylw_pnk.png","../images/cyn_red.png"],"mutagen_generator_assignment":[1,0],"goal":5,"start":0,"action_noise":0.1,"location_history":"[0,4,5]","action_history":"[1,1]","mutagen_history":"[0,0]","location_rts":"[4410,2298]","trial_type":"fractal-mutation","trial_index":84,"time_elapsed":1734400,"internal_node_id":"0.0-5.0-30.0"},{"group":"square cycles (cube, non-group)","fractal_assignment":["../images/grn_red.png","../images/ylw_slt.png","../images/org_blu.png","../images/gry_blk.png","../images/pnk_blu.png","../images/blu_wht.png","../images/ylw_pnk.png","../images/cyn_red.png"],"mutagen_generator_assignment":[1,0],"goal":3,"start":5,"action_noise":0.1,"location_history":"[5,4,7,3]","action_history":"[0,0,1]","mutagen_history":"[1,1,0]","location_rts":"[11799,661,1284]","trial_type":"fractal-mutation","trial_index":85,"time_elapsed":1755419,"internal_node_id":"0.0-5.0-31.0"},{"group":"square cycles (cube, non-group)","fractal_assignment":["../images/grn_red.png","../images/ylw_slt.png","../images/org_blu.png","../images/gry_blk.png","../images/pnk_blu.png","../images/blu_wht.png","../images/ylw_pnk.png","../images/cyn_red.png"],"mutagen_generator_assignment":[1,0],"goal":2,"start":3,"action_noise":0.1,"location_history":"[3,2]","action_history":"[1]","mutagen_history":"[0]","location_rts":"[5295]","trial_type":"fractal-mutation","trial_index":86,"time_elapsed":1765529,"internal_node_id":"0.0-5.0-32.0"},{"group":"square cycles (cube, non-group)","fractal_assignment":["../images/grn_red.png","../images/ylw_slt.png","../images/org_blu.png","../images/gry_blk.png","../images/pnk_blu.png","../images/blu_wht.png","../images/ylw_pnk.png","../images/cyn_red.png"],"mutagen_generator_assignment":[1,0],"goal":6,"start":2,"action_noise":0.1,"location_history":"[2,3,0,1,0,1,0,4,5,4,7,6]","action_history":"[0,0,0,1,1,1,1,1,0,0,0]","mutagen_history":"[1,1,1,0,0,0,0,0,1,1,1]","location_rts":"[6892,842,584,1109,478,593,721,591,1375,523,296]","trial_type":"fractal-mutation","trial_index":87,"time_elapsed":1797504,"internal_node_id":"0.0-5.0-33.0"},{"group":"square cycles (cube, non-group)","fractal_assignment":["../images/grn_red.png","../images/ylw_slt.png","../images/org_blu.png","../images/gry_blk.png","../images/pnk_blu.png","../images/blu_wht.png","../images/ylw_pnk.png","../images/cyn_red.png"],"mutagen_generator_assignment":[1,0],"goal":1,"start":6,"action_noise":0.1,"location_history":"[6,7,3,2,3,0,1]","action_history":"[1,1,1,0,0,0]","mutagen_history":"[0,0,0,1,1,1]","location_rts":"[3657,793,519,1928,595,617]","trial_type":"fractal-mutation","trial_index":88,"time_elapsed":1816343,"internal_node_id":"0.0-5.0-34.0"},{"group":"square cycles (cube, non-group)","fractal_assignment":["../images/grn_red.png","../images/ylw_slt.png","../images/org_blu.png","../images/gry_blk.png","../images/pnk_blu.png","../images/blu_wht.png","../images/ylw_pnk.png","../images/cyn_red.png"],"mutagen_generator_assignment":[1,0],"goal":7,"start":1,"action_noise":0.1,"location_history":"[1,0,4,7]","action_history":"[1,1,1]","mutagen_history":"[0,0,0]","location_rts":"[800,805,897]","trial_type":"fractal-mutation","trial_index":89,"time_elapsed":1825943,"internal_node_id":"0.0-5.0-35.0"},{"group":"square cycles (cube, non-group)","fractal_assignment":["../images/grn_red.png","../images/ylw_slt.png","../images/org_blu.png","../images/gry_blk.png","../images/pnk_blu.png","../images/blu_wht.png","../images/ylw_pnk.png","../images/cyn_red.png"],"mutagen_generator_assignment":[1,0],"goal":4,"start":7,"action_noise":0.1,"location_history":"[7,6,5,4]","action_history":"[0,0,0]","mutagen_history":"[1,1,1]","location_rts":"[493,721,1128]","trial_type":"fractal-mutation","trial_index":90,"time_elapsed":1835104,"internal_node_id":"0.0-5.0-36.0"},{"group":"square cycles (cube, non-group)","fractal_assignment":["../images/grn_red.png","../images/ylw_slt.png","../images/org_blu.png","../images/gry_blk.png","../images/pnk_blu.png","../images/blu_wht.png","../images/ylw_pnk.png","../images/cyn_red.png"],"mutagen_generator_assignment":[1,0],"goal":5,"start":4,"action_noise":0.1,"location_history":"[4,5]","action_history":"[1]","mutagen_history":"[0]","location_rts":"[2107]","trial_type":"fractal-mutation","trial_index":91,"time_elapsed":1841802,"internal_node_id":"0.0-5.0-37.0"},{"group":"square cycles (cube, non-group)","fractal_assignment":["../images/grn_red.png","../images/ylw_slt.png","../images/org_blu.png","../images/gry_blk.png","../images/pnk_blu.png","../images/blu_wht.png","../images/ylw_pnk.png","../images/cyn_red.png"],"mutagen_generator_assignment":[1,0],"goal":0,"start":5,"action_noise":0.1,"location_history":"[5,1,2,6,5,4,7,6,5,1,0]","action_history":"[1,1,1,0,0,0,0,0,1,1]","mutagen_history":"[0,0,0,1,1,1,1,1,0,0]","location_rts":"[3284,592,417,1066,389,484,685,916,1204,432]","trial_type":"fractal-mutation","trial_index":92,"time_elapsed":1866835,"internal_node_id":"0.0-5.0-38.0"},{"group":"square cycles (cube, non-group)","fractal_assignment":["../images/grn_red.png","../images/ylw_slt.png","../images/org_blu.png","../images/gry_blk.png","../images/pnk_blu.png","../images/blu_wht.png","../images/ylw_pnk.png","../images/cyn_red.png"],"mutagen_generator_assignment":[1,0],"goal":4,"start":0,"action_noise":0.1,"location_history":"[0,1,2,3,0,1,2,6,7,6,7,6,7,3,2,6,5,4]","action_history":"[0,0,0,0,0,0,1,1,1,1,1,1,1,1,0,0,0]","mutagen_history":"[1,1,1,1,1,1,0,0,0,0,0,0,0,0,1,1,1]","location_rts":"[4044,405,505,600,382,402,1148,548,558,437,486,610,751,1729,363,385,471]","trial_type":"fractal-mutation","trial_index":93,"time_elapsed":1905971,"internal_node_id":"0.0-5.0-39.0"},{"group":"square cycles (cube, non-group)","fractal_assignment":["../images/grn_red.png","../images/ylw_slt.png","../images/org_blu.png","../images/gry_blk.png","../images/pnk_blu.png","../images/blu_wht.png","../images/ylw_pnk.png","../images/cyn_red.png"],"mutagen_generator_assignment":[1,0],"goal":0,"start":4,"action_noise":0.1,"location_history":"[4,7,6,5,4,7,6,5,1,0]","action_history":"[0,0,0,0,0,0,0,1,1]","mutagen_history":"[1,1,1,1,1,1,1,0,0]","location_rts":"[1140,753,293,272,375,497,337,367,470]","trial_type":"fractal-mutation","trial_index":94,"time_elapsed":1925911,"internal_node_id":"0.0-5.0-40.0"},{"group":"square cycles (cube, non-group)","fractal_assignment":["../images/grn_red.png","../images/ylw_slt.png","../images/org_blu.png","../images/gry_blk.png","../images/pnk_blu.png","../images/blu_wht.png","../images/ylw_pnk.png","../images/cyn_red.png"],"mutagen_generator_assignment":[1,0],"goal":2,"start":0,"action_noise":0.1,"location_history":"[0,4,5,1,0,4,5,1,0,1,0,1,2]","action_history":"[1,1,1,1,1,1,1,1,0,0,0,0]","mutagen_history":"[0,0,0,0,0,0,0,0,1,1,1,1]","location_rts":"[925,403,316,321,314,416,436,471,568,336,300,417]","trial_type":"fractal-mutation","trial_index":95,"time_elapsed":1950081,"internal_node_id":"0.0-5.0-41.0"},{"group":"square cycles (cube, non-group)","fractal_assignment":["../images/grn_red.png","../images/ylw_slt.png","../images/org_blu.png","../images/gry_blk.png","../images/pnk_blu.png","../images/blu_wht.png","../images/ylw_pnk.png","../images/cyn_red.png"],"mutagen_generator_assignment":[1,0],"goal":3,"start":2,"action_noise":0.1,"location_history":"[2,6,7,3]","action_history":"[1,1,1]","mutagen_history":"[0,0,0]","location_rts":"[16027,391,1977]","trial_type":"fractal-mutation","trial_index":96,"time_elapsed":1975775,"internal_node_id":"0.0-5.0-42.0"},{"group":"square cycles (cube, non-group)","fractal_assignment":["../images/grn_red.png","../images/ylw_slt.png","../images/org_blu.png","../images/gry_blk.png","../images/pnk_blu.png","../images/blu_wht.png","../images/ylw_pnk.png","../images/cyn_red.png"],"mutagen_generator_assignment":[1,0],"goal":5,"start":3,"action_noise":0.1,"location_history":"[3,2,6,5]","action_history":"[1,1,0]","mutagen_history":"[0,0,1]","location_rts":"[1728,2406,2174]","trial_type":"fractal-mutation","trial_index":97,"time_elapsed":1990009,"internal_node_id":"0.0-5.0-43.0"},{"group":"square cycles (cube, non-group)","fractal_assignment":["../images/grn_red.png","../images/ylw_slt.png","../images/org_blu.png","../images/gry_blk.png","../images/pnk_blu.png","../images/blu_wht.png","../images/ylw_pnk.png","../images/cyn_red.png"],"mutagen_generator_assignment":[1,0],"goal":1,"start":5,"action_noise":0.1,"location_history":"[5,4,7,6,5,4,7,3,2,3,2,3,2,6,7,6,7,6,5,4,7,6,7,3,0,1]","action_history":"[0,0,0,0,0,0,1,1,1,1,1,1,1,1,0,0,0,0,0,0,0,1,1,0,0]","mutagen_history":"[1,1,1,1,1,1,0,0,0,0,0,0,0,0,1,1,1,1,1,1,1,0,0,1,1]","location_rts":"[1478,1087,912,2079,1179,915,692,488,2725,1092,978,869,1047,1252,206,438,316,359,517,763,756,603,1175,905,1076]","trial_type":"fractal-mutation","trial_index":98,"time_elapsed":2051097,"internal_node_id":"0.0-5.0-44.0"},{"group":"square cycles (cube, non-group)","fractal_assignment":["../images/grn_red.png","../images/ylw_slt.png","../images/org_blu.png","../images/gry_blk.png","../images/pnk_blu.png","../images/blu_wht.png","../images/ylw_pnk.png","../images/cyn_red.png"],"mutagen_generator_assignment":[1,0],"goal":7,"start":1,"action_noise":0.1,"location_history":"[1,2,6,7]","action_history":"[0,1,1]","mutagen_history":"[1,0,0]","location_rts":"[1285,1665,500]","trial_type":"fractal-mutation","trial_index":99,"time_elapsed":2062477,"internal_node_id":"0.0-5.0-45.0"},{"group":"square cycles (cube, non-group)","fractal_assignment":["../images/grn_red.png","../images/ylw_slt.png","../images/org_blu.png","../images/gry_blk.png","../images/pnk_blu.png","../images/blu_wht.png","../images/ylw_pnk.png","../images/cyn_red.png"],"mutagen_generator_assignment":[1,0],"goal":6,"start":7,"action_noise":0.1,"location_history":"[7,3,2,3,0,1,2,6]","action_history":"[1,1,0,0,0,0,1]","mutagen_history":"[0,0,1,1,1,1,0]","location_rts":"[1134,734,896,633,513,535,873]","trial_type":"fractal-mutation","trial_index":100,"time_elapsed":2081054,"internal_node_id":"0.0-5.0-46.0"},{"group":"square cycles (cube, non-group)","fractal_assignment":["../images/grn_red.png","../images/ylw_slt.png","../images/org_blu.png","../images/gry_blk.png","../images/pnk_blu.png","../images/blu_wht.png","../images/ylw_pnk.png","../images/cyn_red.png"],"mutagen_generator_assignment":[1,0],"goal":3,"start":6,"action_noise":0.1,"location_history":"[6,5,4,5,4,5,4,5,1,0,4,7,6,5,4,5,1,0,4,5,4,7,3]","action_history":"[0,1,1,0,0,0,1,1,1,1,0,0,0,0,1,1,1,1,0,0,0,1]","mutagen_history":"[1,0,0,1,1,1,0,0,0,0,1,1,1,1,0,0,0,0,1,1,1,0]","location_rts":"[1053,1563,595,1160,431,967,425,678,479,433,417,617,560,1086,633,741,619,851,576,485,402,813]","trial_type":"fractal-mutation","trial_index":101,"time_elapsed":2128486,"internal_node_id":"0.0-5.0-47.0"},{"group":"square cycles (cube, non-group)","fractal_assignment":["../images/grn_red.png","../images/ylw_slt.png","../images/org_blu.png","../images/gry_blk.png","../images/pnk_blu.png","../images/blu_wht.png","../images/ylw_pnk.png","../images/cyn_red.png"],"mutagen_generator_assignment":[1,0],"goal":0,"start":3,"action_noise":0.1,"location_history":"[3,0]","action_history":"[0]","mutagen_history":"[1]","location_rts":"[1114]","trial_type":"fractal-mutation","trial_index":102,"time_elapsed":2134472,"internal_node_id":"0.0-5.0-48.0"},{"group":"square cycles (cube, non-group)","fractal_assignment":["../images/grn_red.png","../images/ylw_slt.png","../images/org_blu.png","../images/gry_blk.png","../images/pnk_blu.png","../images/blu_wht.png","../images/ylw_pnk.png","../images/cyn_red.png"],"mutagen_generator_assignment":[1,0],"goal":2,"start":0,"action_noise":0.1,"location_history":"[0,4,5,1,2]","action_history":"[1,1,1,0]","mutagen_history":"[0,0,0,1]","location_rts":"[801,566,544,927]","trial_type":"fractal-mutation","trial_index":103,"time_elapsed":2146439,"internal_node_id":"0.0-5.0-49.0"},{"view_history":"[{\"page_index\":0,\"viewing_time\":11993}]","rt":11994,"trial_type":"instructions","trial_index":104,"time_elapsed":2159435,"internal_node_id":"0.0-6.0"},{"rt":13350,"responses":"{\"Q0\":\"thank you, that was fun.\"}","trial_type":"survey-text","trial_index":105,"time_elapsed":2173864,"internal_node_id":"0.0-7.0"}]