[{"view_history":"[{\"page_index\":0,\"viewing_time\":5725},{\"page_index\":1,\"viewing_time\":9957},{\"page_index\":2,\"viewing_time\":24728},{\"page_index\":3,\"viewing_time\":2389}]","rt":42800,"trial_type":"instructions","trial_index":0,"time_elapsed":42802,"internal_node_id":"0.0-0.0"},{"view_history":"[{\"page_index\":0,\"viewing_time\":1168},{\"page_index\":1,\"viewing_time\":14110}]","rt":15279,"trial_type":"instructions","trial_index":1,"time_elapsed":59083,"internal_node_id":"0.0-1.0"},{"group":"tri cycles (cube, non-group)","room_assignment":["green","red","brown","blue","yellow","grey","purple","pink"],"door_color_assignment":["black","white"],"door_generator_assignment":[0,1],"goal":3,"start":0,"action_noise":0.1,"location_history":"[0,2,6,5,2,6,4,7,3]","action_history":"[1,1,1,1,1,0,0,0]","door_history":"[1,1,1,1,1,0,0,0]","location_rts":"[1274,2232,608,623,513,641,921,436]","trial_type":"two-door-navigation","trial_index":2,"time_elapsed":78127,"internal_node_id":"0.0-2.0-0.0"},{"group":"tri cycles (cube, non-group)","room_assignment":["green","red","brown","blue","yellow","grey","purple","pink"],"door_color_assignment":["black","white"],"door_generator_assignment":[0,1],"goal":1,"start":3,"action_noise":0.1,"location_history":"[3,7,6,4,7,6,4,0,3,4,0,3,4,0,3,4,0,3,7,3,7,6,4,7,3,4,0,3,4,0,2,1]","action_history":"[0,0,0,0,0,0,1,1,1,1,1,1,1,1,1,1,1,1,1,0,0,0,1,1,1,1,1,1,1,1,1]","door_history":"[0,0,0,0,0,0,1,1,1,1,1,1,1,1,1,1,1,1,1,0,0,0,1,1,1,1,1,1,1,1,1]","location_rts":"[1766,692,705,1180,750,526,778,711,500,709,564,572,461,537,430,543,174,465,409,803,395,400,63,518,557,443,395,413,458,351,324]","trial_type":"two-door-navigation","trial_index":3,"time_elapsed":131154,"internal_node_id":"0.0-2.0-1.0"},{"group":"tri cycles (cube, non-group)","room_assignment":["green","red","brown","blue","yellow","grey","purple","pink"],"door_color_assignment":["black","white"],"door_generator_assignment":[0,1],"goal":2,"start":1,"action_noise":0.1,"location_history":"[1,0,3,7,3,7,6,4,7,6,4,7,3,4,0,3,7,3,4,7,3,4,0,3,7,3,4,0,2]","action_history":"[0,1,0,1,1,0,0,0,1,0,0,0,1,1,1,1,1,1,0,1,1,1,1,0,1,1,1,0]","door_history":"[0,1,0,1,1,0,0,0,1,0,0,0,1,1,1,1,1,1,0,1,1,1,1,0,1,1,1,0]","location_rts":"[3340,1,971,11,295,224,129,309,175,210,137,104,284,292,543,35,337,358,789,880,429,339,294,376,358,303,30,67]","trial_type":"two-door-navigation","trial_index":4,"time_elapsed":175072,"internal_node_id":"0.0-2.0-2.0"},{"group":"tri cycles (cube, non-group)","room_assignment":["green","red","brown","blue","yellow","grey","purple","pink"],"door_color_assignment":["black","white"],"door_generator_assignment":[0,1],"goal":6,"start":2,"action_noise":0.1,"location_history":"[2,1,0,2,6]","action_history":"[0,0,0,0]","door_history":"[0,0,0,0]","location_rts":"[1491,399,114,157]","trial_type":"two-door-navigation","trial_index":5,"time_elapsed":184818,"internal_node_id":"0.0-2.0-3.0"},{"group":"tri cycles (cube, non-group)","room_assignment":["green","red","brown","blue","yellow","grey","purple","pink"],"door_color_assignment":["black","white"],"door_generator_assignment":[0,1],"goal":5,"start":6,"action_noise":0.1,"location_history":"[6,4,7,3,4,0,3,4,0,3,4,0,3,4,0,3,7,3,7,6,4,7,3,7,3,7,6,4,7,6,4,7,6,4,0,2,6,4,0,3,4,7,6,4,7,6,5]","action_history":"[0,0,1,1,1,1,1,1,1,1,1,1,1,1,0,0,0,0,0,0,0,1,0,1,0,0,0,0,0,0,0,0,0,1,0,1,0,1,1,1,0,0,0,0,0,0]","door_history":"[0,0,1,1,1,1,1,1,1,1,1,1,1,1,0,0,0,0,0,0,0,1,0,1,0,0,0,0,0,0,0,0,0,1,0,1,0,1,1,1,0,0,0,0,0,0]","location_rts":"[1115,320,15,157,111,5,34,305,125,38,156,104,228,232,415,118,40,99,130,100,215,555,389,610,96,156,500,462,256,17,268,59,95,247,366,664,203,400,135,22,201,267,171,50,124,111]","trial_type":"two-door-navigation","trial_index":6,"time_elapsed":246029,"internal_node_id":"0.0-2.0-4.0"},{"group":"tri cycles (cube, non-group)","room_assignment":["green","red","brown","blue","yellow","grey","purple","pink"],"door_color_assignment":["black","white"],"door_generator_assignment":[0,1],"goal":4,"start":5,"action_noise":0.1,"location_history":"[5,2,6,4]","action_history":"[1,1,0]","door_history":"[1,1,0]","location_rts":"[12194,272,63]","trial_type":"two-door-navigation","trial_index":7,"time_elapsed":265143,"internal_node_id":"0.0-2.0-5.0"},{"group":"tri cycles (cube, non-group)","room_assignment":["green","red","brown","blue","yellow","grey","purple","pink"],"door_color_assignment":["black","white"],"door_generator_assignment":[0,1],"goal":7,"start":4,"action_noise":0.1,"location_history":"[4,7]","action_history":"[0]","door_history":"[0]","location_rts":"[415]","trial_type":"two-door-navigation","trial_index":8,"time_elapsed":270089,"internal_node_id":"0.0-2.0-6.0"},{"group":"tri cycles (cube, non-group)","room_assignment":["green","red","brown","blue","yellow","grey","purple","pink"],"door_color_assignment":["black","white"],"door_generator_assignment":[0,1],"goal":4,"start":7,"action_noise":0.1,"location_history":"[7,3,7,6,5,2,6,4]","action_history":"[0,0,0,1,1,1,1]","door_history":"[0,0,0,1,1,1,1]","location_rts":"[534,149,97,368,53,184,33]","trial_type":"two-door-navigation","trial_index":9,"time_elapsed":282189,"internal_node_id":"0.0-2.0-7.0"},{"group":"tri cycles (cube, non-group)","room_assignment":["green","red","brown","blue","yellow","grey","purple","pink"],"door_color_assignment":["black","white"],"door_generator_assignment":[0,1],"goal":6,"start":4,"action_noise":0.1,"location_history":"[4,0,2,1,0,2,1,0,3,7,6]","action_history":"[1,0,0,0,0,0,0,1,0,0]","door_history":"[1,0,0,0,0,0,0,1,0,0]","location_rts":"[1342,255,50,173,166,99,193,133,135,185]","trial_type":"two-door-navigation","trial_index":10,"time_elapsed":298716,"internal_node_id":"0.0-2.0-8.0"},{"group":"tri cycles (cube, non-group)","room_assignment":["green","red","brown","blue","yellow","grey","purple","pink"],"door_color_assignment":["black","white"],"door_generator_assignment":[0,1],"goal":0,"start":6,"action_noise":0.1,"location_history":"[6,4,7,6,5,1,5,2,1,0]","action_history":"[0,0,0,1,0,1,1,0,0]","door_history":"[0,0,0,1,0,1,1,0,0]","location_rts":"[753,15,143,438,281,165,2,7,64]","trial_type":"two-door-navigation","trial_index":11,"time_elapsed":313320,"internal_node_id":"0.0-2.0-9.0"},{"group":"tri cycles (cube, non-group)","room_assignment":["green","red","brown","blue","yellow","grey","purple","pink"],"door_color_assignment":["black","white"],"door_generator_assignment":[0,1],"goal":1,"start":0,"action_noise":0.1,"location_history":"[0,2,1]","action_history":"[0,0]","door_history":"[0,0]","location_rts":"[17781,74]","trial_type":"two-door-navigation","trial_index":12,"time_elapsed":336719,"internal_node_id":"0.0-2.0-10.0"},{"group":"tri cycles (cube, non-group)","room_assignment":["green","red","brown","blue","yellow","grey","purple","pink"],"door_color_assignment":["black","white"],"door_generator_assignment":[0,1],"goal":3,"start":1,"action_noise":0.1,"location_history":"[1,0,2,6,4,7,6,4,0,3]","action_history":"[0,0,0,0,0,0,0,1,1]","door_history":"[0,0,0,0,0,0,0,1,1]","location_rts":"[445,39,60,132,53,46,96,289,237]","trial_type":"two-door-navigation","trial_index":13,"time_elapsed":350845,"internal_node_id":"0.0-2.0-11.0"},{"group":"tri cycles (cube, non-group)","room_assignment":["green","red","brown","blue","yellow","grey","purple","pink"],"door_color_assignment":["black","white"],"door_generator_assignment":[0,1],"goal":7,"start":3,"action_noise":0.1,"location_history":"[3,4,7]","action_history":"[1,0]","door_history":"[1,0]","location_rts":"[893,85]","trial_type":"two-door-navigation","trial_index":14,"time_elapsed":357396,"internal_node_id":"0.0-2.0-12.0"},{"group":"tri cycles (cube, non-group)","room_assignment":["green","red","brown","blue","yellow","grey","purple","pink"],"door_color_assignment":["black","white"],"door_generator_assignment":[0,1],"goal":5,"start":7,"action_noise":0.1,"location_history":"[7,6,4,0,3,7,3,4,0,3,4,0,3,4,0,3,4,0,2,6,5]","action_history":"[0,0,1,1,1,1,1,1,1,0,1,1,1,1,1,1,1,0,1,1]","door_history":"[0,0,1,1,1,1,1,1,1,0,1,1,1,1,1,1,1,0,1,1]","location_rts":"[1091,122,209,102,63,181,121,63,133,535,170,256,104,164,132,144,237,284,335,283]","trial_type":"two-door-navigation","trial_index":15,"time_elapsed":386107,"internal_node_id":"0.0-2.0-13.0"},{"group":"tri cycles (cube, non-group)","room_assignment":["green","red","brown","blue","yellow","grey","purple","pink"],"door_color_assignment":["black","white"],"door_generator_assignment":[0,1],"goal":2,"start":5,"action_noise":0.1,"location_history":"[5,1,0,2]","action_history":"[1,0,0]","door_history":"[1,0,0]","location_rts":"[1934,146,361]","trial_type":"two-door-navigation","trial_index":16,"time_elapsed":395113,"internal_node_id":"0.0-2.0-14.0"},{"group":"tri cycles (cube, non-group)","room_assignment":["green","red","brown","blue","yellow","grey","purple","pink"],"door_color_assignment":["black","white"],"door_generator_assignment":[0,1],"goal":7,"start":2,"action_noise":0.1,"location_history":"[2,1,5,1,0,2,1,0,2,6,4,7]","action_history":"[0,0,0,0,0,0,0,0,1,0,0]","door_history":"[0,0,0,0,0,0,0,0,1,0,0]","location_rts":"[1648,73,15,58,58,213,116,10,558,24,427]","trial_type":"two-door-navigation","trial_index":17,"time_elapsed":413083,"internal_node_id":"0.0-2.0-15.0"},{"group":"tri cycles (cube, non-group)","room_assignment":["green","red","brown","blue","yellow","grey","purple","pink"],"door_color_assignment":["black","white"],"door_generator_assignment":[0,1],"goal":4,"start":7,"action_noise":0.1,"location_history":"[7,6,4]","action_history":"[0,0]","door_history":"[0,0]","location_rts":"[948,268]","trial_type":"two-door-navigation","trial_index":18,"time_elapsed":419844,"internal_node_id":"0.0-2.0-16.0"},{"group":"tri cycles (cube, non-group)","room_assignment":["green","red","brown","blue","yellow","grey","purple","pink"],"door_color_assignment":["black","white"],"door_generator_assignment":[0,1],"goal":2,"start":4,"action_noise":0.1,"location_history":"[4,7,3,7,6,5,1,0,2]","action_history":"[0,0,0,0,1,0,0,0]","door_history":"[0,0,0,0,1,0,0,0]","location_rts":"[676,78,116,96,509,62,108,55]","trial_type":"two-door-navigation","trial_index":19,"time_elapsed":433320,"internal_node_id":"0.0-2.0-17.0"},{"group":"tri cycles (cube, non-group)","room_assignment":["green","red","brown","blue","yellow","grey","purple","pink"],"door_color_assignment":["black","white"],"door_generator_assignment":[0,1],"goal":3,"start":2,"action_noise":0.1,"location_history":"[2,1,0,2,1,5,2,1,0,3]","action_history":"[0,0,0,0,1,0,0,0,0]","door_history":"[0,0,0,0,1,0,0,0,0]","location_rts":"[442,178,25,8,397,11,177,235,11]","trial_type":"two-door-navigation","trial_index":20,"time_elapsed":448235,"internal_node_id":"0.0-2.0-18.0"},{"group":"tri cycles (cube, non-group)","room_assignment":["green","red","brown","blue","yellow","grey","purple","pink"],"door_color_assignment":["black","white"],"door_generator_assignment":[0,1],"goal":6,"start":3,"action_noise":0.1,"location_history":"[3,7,6]","action_history":"[0,0]","door_history":"[0,0]","location_rts":"[12435,105]","trial_type":"two-door-navigation","trial_index":21,"time_elapsed":467318,"internal_node_id":"0.0-2.0-19.0"},{"group":"tri cycles (cube, non-group)","room_assignment":["green","red","brown","blue","yellow","grey","purple","pink"],"door_color_assignment":["black","white"],"door_generator_assignment":[0,1],"goal":5,"start":6,"action_noise":0.1,"location_history":"[6,4,7,6,5]","action_history":"[0,0,0,0]","door_history":"[0,0,0,0]","location_rts":"[396,206,120,62]","trial_type":"two-door-navigation","trial_index":22,"time_elapsed":475698,"internal_node_id":"0.0-2.0-20.0"},{"group":"tri cycles (cube, non-group)","room_assignment":["green","red","brown","blue","yellow","grey","purple","pink"],"door_color_assignment":["black","white"],"door_generator_assignment":[0,1],"goal":1,"start":5,"action_noise":0.1,"location_history":"[5,1]","action_history":"[0]","door_history":"[0]","location_rts":"[475]","trial_type":"two-door-navigation","trial_index":23,"time_elapsed":480696,"internal_node_id":"0.0-2.0-21.0"},{"group":"tri cycles (cube, non-group)","room_assignment":["green","red","brown","blue","yellow","grey","purple","pink"],"door_color_assignment":["black","white"],"door_generator_assignment":[0,1],"goal":0,"start":1,"action_noise":0.1,"location_history":"[1,5,1,0]","action_history":"[0,0,0]","door_history":"[0,0,0]","location_rts":"[386,129,8]","trial_type":"two-door-navigation","trial_index":24,"time_elapsed":487796,"internal_node_id":"0.0-2.0-22.0"},{"group":"tri cycles (cube, non-group)","room_assignment":["green","red","brown","blue","yellow","grey","purple","pink"],"door_color_assignment":["black","white"],"door_generator_assignment":[0,1],"goal":2,"start":0,"action_noise":0.1,"location_history":"[0,2]","action_history":"[0]","door_history":"[0]","location_rts":"[633]","trial_type":"two-door-navigation","trial_index":25,"time_elapsed":492955,"internal_node_id":"0.0-2.0-23.0"},{"group":"tri cycles (cube, non-group)","room_assignment":["green","red","brown","blue","yellow","grey","purple","pink"],"door_color_assignment":["black","white"],"door_generator_assignment":[0,1],"goal":6,"start":2,"action_noise":0.1,"location_history":"[2,1,0,2,1,0,2,6]","action_history":"[0,0,0,0,1,0,0]","door_history":"[0,0,0,0,1,0,0]","location_rts":"[561,240,150,242,205,94,1]","trial_type":"two-door-navigation","trial_index":26,"time_elapsed":505152,"internal_node_id":"0.0-2.0-24.0"},{"group":"tri cycles (cube, non-group)","room_assignment":["green","red","brown","blue","yellow","grey","purple","pink"],"door_color_assignment":["black","white"],"door_generator_assignment":[0,1],"goal":1,"start":6,"action_noise":0.1,"location_history":"[6,4,7,6,4,0,2,1]","action_history":"[0,0,0,0,0,1,0]","door_history":"[0,0,0,0,0,1,0]","location_rts":"[659,174,76,146,58,361,216]","trial_type":"two-door-navigation","trial_index":27,"time_elapsed":517506,"internal_node_id":"0.0-2.0-25.0"},{"group":"tri cycles (cube, non-group)","room_assignment":["green","red","brown","blue","yellow","grey","purple","pink"],"door_color_assignment":["black","white"],"door_generator_assignment":[0,1],"goal":3,"start":1,"action_noise":0.1,"location_history":"[1,0,2,6,4,7,3]","action_history":"[0,0,0,0,0,1]","door_history":"[0,0,0,0,0,1]","location_rts":"[615,240,92,111,199,221]","trial_type":"two-door-navigation","trial_index":28,"time_elapsed":528611,"internal_node_id":"0.0-2.0-26.0"},{"group":"tri cycles (cube, non-group)","room_assignment":["green","red","brown","blue","yellow","grey","purple","pink"],"door_color_assignment":["black","white"],"door_generator_assignment":[0,1],"goal":7,"start":3,"action_noise":0.1,"location_history":"[3,4,7]","action_history":"[0,0]","door_history":"[0,0]","location_rts":"[506,193]","trial_type":"two-door-navigation","trial_index":29,"time_elapsed":534893,"internal_node_id":"0.0-2.0-27.0"},{"group":"tri cycles (cube, non-group)","room_assignment":["green","red","brown","blue","yellow","grey","purple","pink"],"door_color_assignment":["black","white"],"door_generator_assignment":[0,1],"goal":4,"start":7,"action_noise":0.1,"location_history":"[7,6,4]","action_history":"[0,0]","door_history":"[0,0]","location_rts":"[553,25]","trial_type":"two-door-navigation","trial_index":30,"time_elapsed":541017,"internal_node_id":"0.0-2.0-28.0"},{"group":"tri cycles (cube, non-group)","room_assignment":["green","red","brown","blue","yellow","grey","purple","pink"],"door_color_assignment":["black","white"],"door_generator_assignment":[0,1],"goal":0,"start":4,"action_noise":0.1,"location_history":"[4,7,6,4,7,3,7,6,4,0]","action_history":"[0,0,0,0,1,0,0,0,1]","door_history":"[0,0,0,0,1,0,0,0,1]","location_rts":"[777,184,6,17,355,162,22,63,144]","trial_type":"two-door-navigation","trial_index":31,"time_elapsed":555472,"internal_node_id":"0.0-2.0-29.0"},{"group":"tri cycles (cube, non-group)","room_assignment":["green","red","brown","blue","yellow","grey","purple","pink"],"door_color_assignment":["black","white"],"door_generator_assignment":[0,1],"goal":5,"start":0,"action_noise":0.1,"location_history":"[0,2,1,0,2,1,0,2,1,0,2,6,4,7,6,4,7,3,7,6,4,7,6,4,0,2,1,0,2,6,5]","action_history":"[0,0,0,0,1,0,0,0,0,0,1,0,0,0,0,0,1,0,0,0,0,0,0,1,0,0,0,0,1,1]","door_history":"[0,0,0,0,1,0,0,0,0,0,1,0,0,0,0,0,1,0,0,0,0,0,0,1,0,0,0,0,1,1]","location_rts":"[3342,210,236,73,243,164,194,144,268,42,447,136,190,209,133,167,158,16,175,140,262,168,190,234,57,184,156,79,126,168]","trial_type":"two-door-navigation","trial_index":32,"time_elapsed":598114,"internal_node_id":"0.0-2.0-30.0"},{"group":"tri cycles (cube, non-group)","room_assignment":["green","red","brown","blue","yellow","grey","purple","pink"],"door_color_assignment":["black","white"],"door_generator_assignment":[0,1],"goal":3,"start":5,"action_noise":0.1,"location_history":"[5,2,1,5,2,6,5,1,0,2,6,5,2,6,4,0,3]","action_history":"[1,1,1,1,1,1,0,0,0,1,1,1,1,1,0,1]","door_history":"[1,1,1,1,1,1,0,0,0,1,1,1,1,1,0,1]","location_rts":"[1148,47,122,126,40,236,26,14,159,126,35,251,165,245,520,90]","trial_type":"two-door-navigation","trial_index":33,"time_elapsed":621431,"internal_node_id":"0.0-2.0-31.0"},{"group":"tri cycles (cube, non-group)","room_assignment":["green","red","brown","blue","yellow","grey","purple","pink"],"door_color_assignment":["black","white"],"door_generator_assignment":[0,1],"goal":2,"start":3,"action_noise":0.1,"location_history":"[3,4,0,3,4,7,6,4,7,6,4,7,3,7,6,4,7,6,5,2]","action_history":"[1,1,1,1,0,0,0,0,0,0,1,1,0,0,0,0,0,1,1]","door_history":"[1,1,1,1,0,0,0,0,0,0,1,1,0,0,0,0,0,1,1]","location_rts":"[1094,228,43,182,91,115,225,66,132,122,976,63,559,171,8,40,10,415,159]","trial_type":"two-door-navigation","trial_index":34,"time_elapsed":649113,"internal_node_id":"0.0-2.0-32.0"},{"group":"tri cycles (cube, non-group)","room_assignment":["green","red","brown","blue","yellow","grey","purple","pink"],"door_color_assignment":["black","white"],"door_generator_assignment":[0,1],"goal":6,"start":2,"action_noise":0.1,"location_history":"[2,6]","action_history":"[1]","door_history":"[1]","location_rts":"[815]","trial_type":"two-door-navigation","trial_index":35,"time_elapsed":654458,"internal_node_id":"0.0-2.0-33.0"},{"group":"tri cycles (cube, non-group)","room_assignment":["green","red","brown","blue","yellow","grey","purple","pink"],"door_color_assignment":["black","white"],"door_generator_assignment":[0,1],"goal":1,"start":6,"action_noise":0.1,"location_history":"[6,5,1]","action_history":"[1,1]","door_history":"[1,1]","location_rts":"[1778,187]","trial_type":"two-door-navigation","trial_index":36,"time_elapsed":661971,"internal_node_id":"0.0-2.0-34.0"},{"group":"tri cycles (cube, non-group)","room_assignment":["green","red","brown","blue","yellow","grey","purple","pink"],"door_color_assignment":["black","white"],"door_generator_assignment":[0,1],"goal":7,"start":1,"action_noise":0.1,"location_history":"[1,0,3,4,0,3,7]","action_history":"[1,1,1,1,1,0]","door_history":"[1,1,1,1,1,0]","location_rts":"[914,259,101,24,87,144]","trial_type":"two-door-navigation","trial_index":37,"time_elapsed":673155,"internal_node_id":"0.0-2.0-35.0"},{"group":"tri cycles (cube, non-group)","room_assignment":["green","red","brown","blue","yellow","grey","purple","pink"],"door_color_assignment":["black","white"],"door_generator_assignment":[0,1],"goal":4,"start":7,"action_noise":0.1,"location_history":"[7,6,4]","action_history":"[0,0]","door_history":"[0,0]","location_rts":"[1987,524]","trial_type":"two-door-navigation","trial_index":38,"time_elapsed":681213,"internal_node_id":"0.0-2.0-36.0"},{"group":"tri cycles (cube, non-group)","room_assignment":["green","red","brown","blue","yellow","grey","purple","pink"],"door_color_assignment":["black","white"],"door_generator_assignment":[0,1],"goal":5,"start":4,"action_noise":0.1,"location_history":"[4,0,3,4,0,2,1,0,2,6,4,7,6,4,0,3,4,7,3,4,0,3,7,3,4,0,3,4,0,3,7,6,4,7,6,4,0,3,7,3,4,7,3,4,0,3,4,7,6,5]","action_history":"[1,1,1,1,0,0,0,0,1,0,0,0,0,1,1,1,1,1,1,1,1,0,1,1,1,1,1,1,1,0,0,0,0,0,0,1,1,1,1,1,0,1,1,1,1,1,1,1,1]","door_history":"[1,1,1,1,0,0,0,0,1,0,0,0,0,1,1,1,1,1,1,1,1,0,1,1,1,1,1,1,1,0,0,0,0,0,0,1,1,1,1,1,0,1,1,1,1,1,1,1,1]","location_rts":"[70032,444,193,317,641,124,330,82,191,32,9,191,291,99,144,194,353,56,284,275,130,262,177,255,132,151,49,186,158,316,153,2,34,41,127,444,141,20,83,175,266,84,291,97,252,268,232,147,38]","trial_type":"two-door-navigation","trial_index":39,"time_elapsed":813937,"internal_node_id":"0.0-2.0-37.0"},{"group":"tri cycles (cube, non-group)","room_assignment":["green","red","brown","blue","yellow","grey","purple","pink"],"door_color_assignment":["black","white"],"door_generator_assignment":[0,1],"goal":0,"start":5,"action_noise":0.1,"location_history":"[5,1,0]","action_history":"[0,0]","door_history":"[0,0]","location_rts":"[26234,82]","trial_type":"two-door-navigation","trial_index":40,"time_elapsed":845816,"internal_node_id":"0.0-2.0-38.0"},{"group":"tri cycles (cube, non-group)","room_assignment":["green","red","brown","blue","yellow","grey","purple","pink"],"door_color_assignment":["black","white"],"door_generator_assignment":[0,1],"goal":4,"start":0,"action_noise":0.1,"location_history":"[0,3,7,6,4]","action_history":"[0,0,0,0]","door_history":"[0,0,0,0]","location_rts":"[542,174,178,160]","trial_type":"two-door-navigation","trial_index":41,"time_elapsed":854495,"internal_node_id":"0.0-2.0-39.0"},{"group":"tri cycles (cube, non-group)","room_assignment":["green","red","brown","blue","yellow","grey","purple","pink"],"door_color_assignment":["black","white"],"door_generator_assignment":[0,1],"goal":0,"start":4,"action_noise":0.1,"location_history":"[4,0]","action_history":"[0]","door_history":"[0]","location_rts":"[4188]","trial_type":"two-door-navigation","trial_index":42,"time_elapsed":863209,"internal_node_id":"0.0-2.0-40.0"},{"group":"tri cycles (cube, non-group)","room_assignment":["green","red","brown","blue","yellow","grey","purple","pink"],"door_color_assignment":["black","white"],"door_generator_assignment":[0,1],"goal":2,"start":0,"action_noise":0.1,"location_history":"[0,2]","action_history":"[0]","door_history":"[0]","location_rts":"[482]","trial_type":"two-door-navigation","trial_index":43,"time_elapsed":868219,"internal_node_id":"0.0-2.0-41.0"},{"group":"tri cycles (cube, non-group)","room_assignment":["green","red","brown","blue","yellow","grey","purple","pink"],"door_color_assignment":["black","white"],"door_generator_assignment":[0,1],"goal":3,"start":2,"action_noise":0.1,"location_history":"[2,6,4,0,2,6,4,0,3]","action_history":"[0,0,0,0,1,1,1,1]","door_history":"[0,0,0,0,1,1,1,1]","location_rts":"[695,148,180,161,636,240,122,143]","trial_type":"two-door-navigation","trial_index":44,"time_elapsed":882245,"internal_node_id":"0.0-2.0-42.0"},{"group":"tri cycles (cube, non-group)","room_assignment":["green","red","brown","blue","yellow","grey","purple","pink"],"door_color_assignment":["black","white"],"door_generator_assignment":[0,1],"goal":5,"start":3,"action_noise":0.1,"location_history":"[3,4,0,3,7,6,4,7,6,4,7,3,4,0,3,4,7,3,7,6,4,7,6,4,7,6,4,7,6,4,7,6,5]","action_history":"[1,1,0,0,0,0,0,0,0,0,1,1,1,1,1,0,0,0,0,0,0,1,1,0,0,0,0,0,0,0,0,1]","door_history":"[1,1,0,0,0,0,0,0,0,0,1,1,1,1,1,0,0,0,0,0,0,1,1,0,0,0,0,0,0,0,0,1]","location_rts":"[776,27,247,54,82,199,181,208,101,76,4,179,71,32,79,261,122,207,115,282,124,478,206,272,41,150,529,149,437,422,135,143]","trial_type":"two-door-navigation","trial_index":45,"time_elapsed":924921,"internal_node_id":"0.0-2.0-43.0"},{"group":"tri cycles (cube, non-group)","room_assignment":["green","red","brown","blue","yellow","grey","purple","pink"],"door_color_assignment":["black","white"],"door_generator_assignment":[0,1],"goal":1,"start":5,"action_noise":0.1,"location_history":"[5,1]","action_history":"[0]","door_history":"[0]","location_rts":"[5848]","trial_type":"two-door-navigation","trial_index":46,"time_elapsed":935310,"internal_node_id":"0.0-2.0-44.0"},{"group":"tri cycles (cube, non-group)","room_assignment":["green","red","brown","blue","yellow","grey","purple","pink"],"door_color_assignment":["black","white"],"door_generator_assignment":[0,1],"goal":7,"start":1,"action_noise":0.1,"location_history":"[1,0,2,1,0,2,6,5,2,1,5,2,1,0,2,1,0,3,7]","action_history":"[0,0,0,0,0,1,1,1,1,1,1,0,0,0,0,0,0,0]","door_history":"[0,0,0,0,0,1,1,1,1,1,1,0,0,0,0,0,0,0]","location_rts":"[812,215,135,88,216,17,60,158,125,184,2,533,197,172,245,124,149,258]","trial_type":"two-door-navigation","trial_index":47,"time_elapsed":960927,"internal_node_id":"0.0-2.0-45.0"},{"group":"tri cycles (cube, non-group)","room_assignment":["green","red","brown","blue","yellow","grey","purple","pink"],"door_color_assignment":["black","white"],"door_generator_assignment":[0,1],"goal":6,"start":7,"action_noise":0.1,"location_history":"[7,6]","action_history":"[0]","door_history":"[0]","location_rts":"[634]","trial_type":"two-door-navigation","trial_index":48,"time_elapsed":966085,"internal_node_id":"0.0-2.0-46.0"},{"group":"tri cycles (cube, non-group)","room_assignment":["green","red","brown","blue","yellow","grey","purple","pink"],"door_color_assignment":["black","white"],"door_generator_assignment":[0,1],"goal":3,"start":6,"action_noise":0.1,"location_history":"[6,4,7,6,4,0,3]","action_history":"[0,0,0,0,1,1]","door_history":"[0,0,0,0,1,1]","location_rts":"[373,113,151,177,171,290]","trial_type":"two-door-navigation","trial_index":49,"time_elapsed":977014,"internal_node_id":"0.0-2.0-47.0"},{"group":"tri cycles (cube, non-group)","room_assignment":["green","red","brown","blue","yellow","grey","purple","pink"],"door_color_assignment":["black","white"],"door_generator_assignment":[0,1],"goal":0,"start":3,"action_noise":0.1,"location_history":"[3,4,0]","action_history":"[1,1]","door_history":"[1,1]","location_rts":"[1146,55]","trial_type":"two-door-navigation","trial_index":50,"time_elapsed":983761,"internal_node_id":"0.0-2.0-48.0"},{"group":"tri cycles (cube, non-group)","room_assignment":["green","red","brown","blue","yellow","grey","purple","pink"],"door_color_assignment":["black","white"],"door_generator_assignment":[0,1],"goal":2,"start":0,"action_noise":0.1,"location_history":"[0,3,4,0,3,4,7,6,5,1,0,3,4,0,3,4,0,3,4,0,2]","action_history":"[1,1,1,1,1,0,0,0,0,0,0,1,1,1,1,1,1,1,1,0]","door_history":"[1,1,1,1,1,0,0,0,0,0,0,1,1,1,1,1,1,1,1,0]","location_rts":"[876,110,55,162,101,120,91,235,11,107,3,838,180,196,183,12,25,174,116,507]","trial_type":"two-door-navigation","trial_index":51,"time_elapsed":1012236,"internal_node_id":"0.0-2.0-49.0"},{"view_history":"[{\"page_index\":0,\"viewing_time\":32374}]","rt":32374,"trial_type":"instructions","trial_index":52,"time_elapsed":1046610,"internal_node_id":"0.0-3.0"},{"view_history":"[{\"page_index\":0,\"viewing_time\":1778},{\"page_index\":1,\"viewing_time\":21622}]","rt":23400,"trial_type":"instructions","trial_index":53,"time_elapsed":1071011,"internal_node_id":"0.0-4.0"},{"group":"square cycles (cube, non-group)","fractal_assignment":["../images/ylw_pnk.png","../images/gry_blk.png","../images/cyn_red.png","../images/ylw_slt.png","../images/pnk_blu.png","../images/blu_wht.png","../images/org_blu.png","../images/grn_red.png"],"mutagen_generator_assignment":[0,1],"goal":3,"start":0,"action_noise":0.1,"location_history":"[0,1,2,3]","action_history":"[0,0,0]","mutagen_history":"[0,0,0]","location_rts":"[1540,14,145]","trial_type":"fractal-mutation","trial_index":54,"time_elapsed":1079354,"internal_node_id":"0.0-5.0-0.0"},{"group":"square cycles (cube, non-group)","fractal_assignment":["../images/ylw_pnk.png","../images/gry_blk.png","../images/cyn_red.png","../images/ylw_slt.png","../images/pnk_blu.png","../images/blu_wht.png","../images/org_blu.png","../images/grn_red.png"],"mutagen_generator_assignment":[0,1],"goal":1,"start":3,"action_noise":0.1,"location_history":"[3,0,4,7,3,2,3,2,3,0,4,5,1]","action_history":"[0,1,0,1,1,0,1,1,0,1,1,1]","mutagen_history":"[0,1,0,1,1,0,1,1,0,1,1,1]","location_rts":"[541,60,81,33,94,83,102,62,24,86,4,253]","trial_type":"fractal-mutation","trial_index":55,"time_elapsed":1096823,"internal_node_id":"0.0-5.0-1.0"},{"group":"square cycles (cube, non-group)","fractal_assignment":["../images/ylw_pnk.png","../images/gry_blk.png","../images/cyn_red.png","../images/ylw_slt.png","../images/pnk_blu.png","../images/blu_wht.png","../images/org_blu.png","../images/grn_red.png"],"mutagen_generator_assignment":[0,1],"goal":2,"start":1,"action_noise":0.1,"location_history":"[1,2]","action_history":"[0]","mutagen_history":"[0]","location_rts":"[576]","trial_type":"fractal-mutation","trial_index":56,"time_elapsed":1101964,"internal_node_id":"0.0-5.0-2.0"},{"group":"square cycles (cube, non-group)","fractal_assignment":["../images/ylw_pnk.png","../images/gry_blk.png","../images/cyn_red.png","../images/ylw_slt.png","../images/pnk_blu.png","../images/blu_wht.png","../images/org_blu.png","../images/grn_red.png"],"mutagen_generator_assignment":[0,1],"goal":6,"start":2,"action_noise":0.1,"location_history":"[2,6]","action_history":"[0]","mutagen_history":"[0]","location_rts":"[58]","trial_type":"fractal-mutation","trial_index":57,"time_elapsed":1106563,"internal_node_id":"0.0-5.0-3.0"},{"group":"square cycles (cube, non-group)","fractal_assignment":["../images/ylw_pnk.png","../images/gry_blk.png","../images/cyn_red.png","../images/ylw_slt.png","../images/pnk_blu.png","../images/blu_wht.png","../images/org_blu.png","../images/grn_red.png"],"mutagen_generator_assignment":[0,1],"goal":5,"start":6,"action_noise":0.1,"location_history":"[6,7,3,2,6,5]","action_history":"[1,1,1,1,0]","mutagen_history":"[1,1,1,1,0]","location_rts":"[309,61,315,513,233]","trial_type":"fractal-mutation","trial_index":58,"time_elapsed":1116749,"internal_node_id":"0.0-5.0-4.0"},{"group":"square cycles (cube, non-group)","fractal_assignment":["../images/ylw_pnk.png","../images/gry_blk.png","../images/cyn_red.png","../images/ylw_slt.png","../images/pnk_blu.png","../images/blu_wht.png","../images/org_blu.png","../images/grn_red.png"],"mutagen_generator_assignment":[0,1],"goal":4,"start":5,"action_noise":0.1,"location_history":"[5,1,0,4]","action_history":"[1,1,1]","mutagen_history":"[1,1,1]","location_rts":"[188,199,57]","trial_type":"fractal-mutation","trial_index":59,"time_elapsed":1123832,"internal_node_id":"0.0-5.0-5.0"},{"group":"square cycles (cube, non-group)","fractal_assignment":["../images/ylw_pnk.png","../images/gry_blk.png","../images/cyn_red.png","../images/ylw_slt.png","../images/pnk_blu.png","../images/blu_wht.png","../images/org_blu.png","../images/grn_red.png"],"mutagen_generator_assignment":[0,1],"goal":7,"start":4,"action_noise":0.1,"location_history":"[4,7]","action_history":"[1]","mutagen_history":"[1]","location_rts":"[509]","trial_type":"fractal-mutation","trial_index":60,"time_elapsed":1128891,"internal_node_id":"0.0-5.0-6.0"},{"group":"square cycles (cube, non-group)","fractal_assignment":["../images/ylw_pnk.png","../images/gry_blk.png","../images/cyn_red.png","../images/ylw_slt.png","../images/pnk_blu.png","../images/blu_wht.png","../images/org_blu.png","../images/grn_red.png"],"mutagen_generator_assignment":[0,1],"goal":4,"start":7,"action_noise":0.1,"location_history":"[7,3,0,1,2,6,7,6,7,3,2,3,0,1,2,3,0,4]","action_history":"[1,0,0,0,1,1,1,1,1,1,0,0,0,0,0,0,1]","mutagen_history":"[1,0,0,0,1,1,1,1,1,1,0,0,0,0,0,0,1]","location_rts":"[75,285,228,23,17,167,160,157,14,897,624,51,361,113,228,16,177]","trial_type":"fractal-mutation","trial_index":61,"time_elapsed":1153733,"internal_node_id":"0.0-5.0-7.0"},{"group":"square cycles (cube, non-group)","fractal_assignment":["../images/ylw_pnk.png","../images/gry_blk.png","../images/cyn_red.png","../images/ylw_slt.png","../images/pnk_blu.png","../images/blu_wht.png","../images/org_blu.png","../images/grn_red.png"],"mutagen_generator_assignment":[0,1],"goal":6,"start":4,"action_noise":0.1,"location_history":"[4,7,6]","action_history":"[0,0]","mutagen_history":"[0,0]","location_rts":"[398,101]","trial_type":"fractal-mutation","trial_index":62,"time_elapsed":1159809,"internal_node_id":"0.0-5.0-8.0"},{"group":"square cycles (cube, non-group)","fractal_assignment":["../images/ylw_pnk.png","../images/gry_blk.png","../images/cyn_red.png","../images/ylw_slt.png","../images/pnk_blu.png","../images/blu_wht.png","../images/org_blu.png","../images/grn_red.png"],"mutagen_generator_assignment":[0,1],"goal":0,"start":6,"action_noise":0.1,"location_history":"[6,5,4,5,1,2,6,5,4,5,1,0]","action_history":"[0,0,1,1,0,1,0,0,1,0,1]","mutagen_history":"[0,0,1,1,0,1,0,0,1,0,1]","location_rts":"[417,277,38,19,191,71,10,73,199,390,179]","trial_type":"fractal-mutation","trial_index":63,"time_elapsed":1176617,"internal_node_id":"0.0-5.0-9.0"},{"group":"square cycles (cube, non-group)","fractal_assignment":["../images/ylw_pnk.png","../images/gry_blk.png","../images/cyn_red.png","../images/ylw_slt.png","../images/pnk_blu.png","../images/blu_wht.png","../images/org_blu.png","../images/grn_red.png"],"mutagen_generator_assignment":[0,1],"goal":1,"start":0,"action_noise":0.1,"location_history":"[0,4,7,6,7,3,0,1]","action_history":"[1,0,0,1,1,1,0]","mutagen_history":"[1,0,0,1,1,1,0]","location_rts":"[12,251,633,30,170,0,1150]","trial_type":"fractal-mutation","trial_index":64,"time_elapsed":1189654,"internal_node_id":"0.0-5.0-10.0"},{"group":"square cycles (cube, non-group)","fractal_assignment":["../images/ylw_pnk.png","../images/gry_blk.png","../images/cyn_red.png","../images/ylw_slt.png","../images/pnk_blu.png","../images/blu_wht.png","../images/org_blu.png","../images/grn_red.png"],"mutagen_generator_assignment":[0,1],"goal":3,"start":1,"action_noise":0.1,"location_history":"[1,0,1,2,3]","action_history":"[1,1,1,0]","mutagen_history":"[1,1,1,0]","location_rts":"[127,47,14,72]","trial_type":"fractal-mutation","trial_index":65,"time_elapsed":1197584,"internal_node_id":"0.0-5.0-11.0"},{"group":"square cycles (cube, non-group)","fractal_assignment":["../images/ylw_pnk.png","../images/gry_blk.png","../images/cyn_red.png","../images/ylw_slt.png","../images/pnk_blu.png","../images/blu_wht.png","../images/org_blu.png","../images/grn_red.png"],"mutagen_generator_assignment":[0,1],"goal":7,"start":3,"action_noise":0.1,"location_history":"[3,2,6,5,1,2,6,7]","action_history":"[1,1,0,1,0,1,1]","mutagen_history":"[1,1,0,1,0,1,1]","location_rts":"[275,112,59,439,129,147,147]","trial_type":"fractal-mutation","trial_index":66,"time_elapsed":1209692,"internal_node_id":"0.0-5.0-12.0"},{"group":"square cycles (cube, non-group)","fractal_assignment":["../images/ylw_pnk.png","../images/gry_blk.png","../images/cyn_red.png","../images/ylw_slt.png","../images/pnk_blu.png","../images/blu_wht.png","../images/org_blu.png","../images/grn_red.png"],"mutagen_generator_assignment":[0,1],"goal":5,"start":7,"action_noise":0.1,"location_history":"[7,3,0,1,0,4,7,3,0,1,0,1,0,1,2,3,0,4,5]","action_history":"[1,0,0,0,1,0,0,0,0,1,1,1,0,0,0,0,1,1]","mutagen_history":"[1,0,0,0,1,0,0,0,0,1,1,1,0,0,0,0,1,1]","location_rts":"[599,694,54,25,51,297,150,197,503,21,252,73,318,272,218,134,387,34]","trial_type":"fractal-mutation","trial_index":67,"time_elapsed":1236202,"internal_node_id":"0.0-5.0-13.0"},{"group":"square cycles (cube, non-group)","fractal_assignment":["../images/ylw_pnk.png","../images/gry_blk.png","../images/cyn_red.png","../images/ylw_slt.png","../images/pnk_blu.png","../images/blu_wht.png","../images/org_blu.png","../images/grn_red.png"],"mutagen_generator_assignment":[0,1],"goal":2,"start":5,"action_noise":0.1,"location_history":"[5,1,0,4,7,6,5,1,0,4,5,1,0,4,7,3,0,1,0,4,5,1,0,1,0,1,0,1,0,4,5,4,7,6,5,4,5,4,7,3,2]","action_history":"[1,1,0,0,1,0,1,1,1,0,1,0,0,0,1,0,0,1,1,1,1,1,0,1,0,1,0,1,1,1,0,0,0,0,0,1,0,0,0,1]","mutagen_history":"[1,1,0,0,1,0,1,1,1,0,1,0,0,0,1,0,0,1,1,1,1,1,0,1,0,1,0,1,1,1,0,0,0,0,0,1,0,0,0,1]","location_rts":"[123,323,40,42,22,207,153,185,156,63,8,110,44,87,100,164,201,233,224,61,153,20,69,59,114,286,119,169,51,32,285,230,368,13,246,267,155,199,93,131]","trial_type":"fractal-mutation","trial_index":68,"time_elapsed":1286985,"internal_node_id":"0.0-5.0-14.0"},{"group":"square cycles (cube, non-group)","fractal_assignment":["../images/ylw_pnk.png","../images/gry_blk.png","../images/cyn_red.png","../images/ylw_slt.png","../images/pnk_blu.png","../images/blu_wht.png","../images/org_blu.png","../images/grn_red.png"],"mutagen_generator_assignment":[0,1],"goal":7,"start":2,"action_noise":0.1,"location_history":"[2,6,7]","action_history":"[1,1]","mutagen_history":"[1,1]","location_rts":"[447,206]","trial_type":"fractal-mutation","trial_index":69,"time_elapsed":1293219,"internal_node_id":"0.0-5.0-15.0"},{"group":"square cycles (cube, non-group)","fractal_assignment":["../images/ylw_pnk.png","../images/gry_blk.png","../images/cyn_red.png","../images/ylw_slt.png","../images/pnk_blu.png","../images/blu_wht.png","../images/org_blu.png","../images/grn_red.png"],"mutagen_generator_assignment":[0,1],"goal":4,"start":7,"action_noise":0.1,"location_history":"[7,3,2,6,5,4]","action_history":"[1,0,1,0,1]","mutagen_history":"[1,0,1,0,1]","location_rts":"[284,73,278,1,101]","trial_type":"fractal-mutation","trial_index":70,"time_elapsed":1302683,"internal_node_id":"0.0-5.0-16.0"},{"group":"square cycles (cube, non-group)","fractal_assignment":["../images/ylw_pnk.png","../images/gry_blk.png","../images/cyn_red.png","../images/ylw_slt.png","../images/pnk_blu.png","../images/blu_wht.png","../images/org_blu.png","../images/grn_red.png"],"mutagen_generator_assignment":[0,1],"goal":2,"start":4,"action_noise":0.1,"location_history":"[4,5,4,5,4,7,6,7,3,0,1,0,4,7,6,7,3,2]","action_history":"[1,0,1,0,0,1,1,1,0,0,0,1,0,0,1,1,1]","mutagen_history":"[1,0,1,0,0,1,1,1,0,0,0,1,0,0,1,1,1]","location_rts":"[12,93,85,102,58,56,47,394,159,362,18,122,12,404,377,414,49]","trial_type":"fractal-mutation","trial_index":71,"time_elapsed":1326720,"internal_node_id":"0.0-5.0-17.0"},{"group":"square cycles (cube, non-group)","fractal_assignment":["../images/ylw_pnk.png","../images/gry_blk.png","../images/cyn_red.png","../images/ylw_slt.png","../images/pnk_blu.png","../images/blu_wht.png","../images/org_blu.png","../images/grn_red.png"],"mutagen_generator_assignment":[0,1],"goal":3,"start":2,"action_noise":0.1,"location_history":"[2,3]","action_history":"[0]","mutagen_history":"[0]","location_rts":"[180]","trial_type":"fractal-mutation","trial_index":72,"time_elapsed":1331439,"internal_node_id":"0.0-5.0-18.0"},{"group":"square cycles (cube, non-group)","fractal_assignment":["../images/ylw_pnk.png","../images/gry_blk.png","../images/cyn_red.png","../images/ylw_slt.png","../images/pnk_blu.png","../images/blu_wht.png","../images/org_blu.png","../images/grn_red.png"],"mutagen_generator_assignment":[0,1],"goal":6,"start":3,"action_noise":0.1,"location_history":"[3,2,6]","action_history":"[1,1]","mutagen_history":"[1,1]","location_rts":"[37,49]","trial_type":"fractal-mutation","trial_index":73,"time_elapsed":1337110,"internal_node_id":"0.0-5.0-19.0"},{"group":"square cycles (cube, non-group)","fractal_assignment":["../images/ylw_pnk.png","../images/gry_blk.png","../images/cyn_red.png","../images/ylw_slt.png","../images/pnk_blu.png","../images/blu_wht.png","../images/org_blu.png","../images/grn_red.png"],"mutagen_generator_assignment":[0,1],"goal":5,"start":6,"action_noise":0.1,"location_history":"[6,7,3,2,3,0,4,7,6,5]","action_history":"[1,1,1,0,0,1,0,0,1]","mutagen_history":"[1,1,1,0,0,1,0,0,1]","location_rts":"[204,176,43,520,214,44,367,96,392]","trial_type":"fractal-mutation","trial_index":74,"time_elapsed":1352043,"internal_node_id":"0.0-5.0-20.0"},{"group":"square cycles (cube, non-group)","fractal_assignment":["../images/ylw_pnk.png","../images/gry_blk.png","../images/cyn_red.png","../images/ylw_slt.png","../images/pnk_blu.png","../images/blu_wht.png","../images/org_blu.png","../images/grn_red.png"],"mutagen_generator_assignment":[0,1],"goal":1,"start":5,"action_noise":0.1,"location_history":"[5,1]","action_history":"[1]","mutagen_history":"[1]","location_rts":"[472]","trial_type":"fractal-mutation","trial_index":75,"time_elapsed":1357057,"internal_node_id":"0.0-5.0-21.0"},{"group":"square cycles (cube, non-group)","fractal_assignment":["../images/ylw_pnk.png","../images/gry_blk.png","../images/cyn_red.png","../images/ylw_slt.png","../images/pnk_blu.png","../images/blu_wht.png","../images/org_blu.png","../images/grn_red.png"],"mutagen_generator_assignment":[0,1],"goal":0,"start":1,"action_noise":0.1,"location_history":"[1,2,3,2,6,7,3,2,3,0]","action_history":"[0,0,0,1,1,1,1,0,0]","mutagen_history":"[0,0,0,1,1,1,1,0,0]","location_rts":"[177,472,87,168,122,12,192,171,75]","trial_type":"fractal-mutation","trial_index":76,"time_elapsed":1371405,"internal_node_id":"0.0-5.0-22.0"},{"group":"square cycles (cube, non-group)","fractal_assignment":["../images/ylw_pnk.png","../images/gry_blk.png","../images/cyn_red.png","../images/ylw_slt.png","../images/pnk_blu.png","../images/blu_wht.png","../images/org_blu.png","../images/grn_red.png"],"mutagen_generator_assignment":[0,1],"goal":2,"start":0,"action_noise":0.1,"location_history":"[0,1,2]","action_history":"[0,0]","mutagen_history":"[0,0]","location_rts":"[407,8]","trial_type":"fractal-mutation","trial_index":77,"time_elapsed":1377393,"internal_node_id":"0.0-5.0-23.0"},{"group":"square cycles (cube, non-group)","fractal_assignment":["../images/ylw_pnk.png","../images/gry_blk.png","../images/cyn_red.png","../images/ylw_slt.png","../images/pnk_blu.png","../images/blu_wht.png","../images/org_blu.png","../images/grn_red.png"],"mutagen_generator_assignment":[0,1],"goal":6,"start":2,"action_noise":0.1,"location_history":"[2,3,0,1,2,3,2,6]","action_history":"[0,0,0,0,0,0,1]","mutagen_history":"[0,0,0,0,0,0,1]","location_rts":"[50,37,282,129,125,119,296]","trial_type":"fractal-mutation","trial_index":78,"time_elapsed":1389225,"internal_node_id":"0.0-5.0-24.0"},{"group":"square cycles (cube, non-group)","fractal_assignment":["../images/ylw_pnk.png","../images/gry_blk.png","../images/cyn_red.png","../images/ylw_slt.png","../images/pnk_blu.png","../images/blu_wht.png","../images/org_blu.png","../images/grn_red.png"],"mutagen_generator_assignment":[0,1],"goal":1,"start":6,"action_noise":0.1,"location_history":"[6,5,1]","action_history":"[0,0]","mutagen_history":"[0,0]","location_rts":"[153,106]","trial_type":"fractal-mutation","trial_index":79,"time_elapsed":1395053,"internal_node_id":"0.0-5.0-25.0"},{"group":"square cycles (cube, non-group)","fractal_assignment":["../images/ylw_pnk.png","../images/gry_blk.png","../images/cyn_red.png","../images/ylw_slt.png","../images/pnk_blu.png","../images/blu_wht.png","../images/org_blu.png","../images/grn_red.png"],"mutagen_generator_assignment":[0,1],"goal":3,"start":1,"action_noise":0.1,"location_history":"[1,0,1,2,3]","action_history":"[1,0,0,0]","mutagen_history":"[1,0,0,0]","location_rts":"[200,124,170,296]","trial_type":"fractal-mutation","trial_index":80,"time_elapsed":1403515,"internal_node_id":"0.0-5.0-26.0"},{"group":"square cycles (cube, non-group)","fractal_assignment":["../images/ylw_pnk.png","../images/gry_blk.png","../images/cyn_red.png","../images/ylw_slt.png","../images/pnk_blu.png","../images/blu_wht.png","../images/org_blu.png","../images/grn_red.png"],"mutagen_generator_assignment":[0,1],"goal":7,"start":3,"action_noise":0.1,"location_history":"[3,0,1,2,3,0,1,0,1,2,3,0,4,7]","action_history":"[0,0,0,0,0,0,1,0,0,0,0,1,0]","mutagen_history":"[0,0,0,0,0,0,1,0,0,0,0,1,0]","location_rts":"[218,402,311,259,246,86,147,344,169,215,255,164,236]","trial_type":"fractal-mutation","trial_index":81,"time_elapsed":1423602,"internal_node_id":"0.0-5.0-27.0"},{"group":"square cycles (cube, non-group)","fractal_assignment":["../images/ylw_pnk.png","../images/gry_blk.png","../images/cyn_red.png","../images/ylw_slt.png","../images/pnk_blu.png","../images/blu_wht.png","../images/org_blu.png","../images/grn_red.png"],"mutagen_generator_assignment":[0,1],"goal":4,"start":7,"action_noise":0.1,"location_history":"[7,6,5,4]","action_history":"[0,0,0]","mutagen_history":"[0,0,0]","location_rts":"[179,187,167]","trial_type":"fractal-mutation","trial_index":82,"time_elapsed":1430739,"internal_node_id":"0.0-5.0-28.0"},{"group":"square cycles (cube, non-group)","fractal_assignment":["../images/ylw_pnk.png","../images/gry_blk.png","../images/cyn_red.png","../images/ylw_slt.png","../images/pnk_blu.png","../images/blu_wht.png","../images/org_blu.png","../images/grn_red.png"],"mutagen_generator_assignment":[0,1],"goal":0,"start":4,"action_noise":0.1,"location_history":"[4,5,4,5,1,2,3,0]","action_history":"[1,0,1,1,0,0,0]","mutagen_history":"[1,0,1,1,0,0,0]","location_rts":"[25,298,105,18,97,271,65]","trial_type":"fractal-mutation","trial_index":83,"time_elapsed":1442420,"internal_node_id":"0.0-5.0-29.0"},{"group":"square cycles (cube, non-group)","fractal_assignment":["../images/ylw_pnk.png","../images/gry_blk.png","../images/cyn_red.png","../images/ylw_slt.png","../images/pnk_blu.png","../images/blu_wht.png","../images/org_blu.png","../images/grn_red.png"],"mutagen_generator_assignment":[0,1],"goal":5,"start":0,"action_noise":0.1,"location_history":"[0,4,5]","action_history":"[1,1]","mutagen_history":"[1,1]","location_rts":"[705,302]","trial_type":"fractal-mutation","trial_index":84,"time_elapsed":1449028,"internal_node_id":"0.0-5.0-30.0"},{"group":"square cycles (cube, non-group)","fractal_assignment":["../images/ylw_pnk.png","../images/gry_blk.png","../images/cyn_red.png","../images/ylw_slt.png","../images/pnk_blu.png","../images/blu_wht.png","../images/org_blu.png","../images/grn_red.png"],"mutagen_generator_assignment":[0,1],"goal":3,"start":5,"action_noise":0.1,"location_history":"[5,4,5,1,0,1,0,4,7,6,5,4,7,6,7,3]","action_history":"[0,1,1,1,0,1,0,0,0,0,0,0,0,1,1]","mutagen_history":"[0,1,1,1,0,1,0,0,0,0,0,0,0,1,1]","location_rts":"[222,42,114,127,141,118,78,90,168,57,26,105,150,56,68]","trial_type":"fractal-mutation","trial_index":85,"time_elapsed":1469627,"internal_node_id":"0.0-5.0-31.0"},{"group":"square cycles (cube, non-group)","fractal_assignment":["../images/ylw_pnk.png","../images/gry_blk.png","../images/cyn_red.png","../images/ylw_slt.png","../images/pnk_blu.png","../images/blu_wht.png","../images/org_blu.png","../images/grn_red.png"],"mutagen_generator_assignment":[0,1],"goal":2,"start":3,"action_noise":0.1,"location_history":"[3,0,4,7,6,5,4,7,6,7,6,7,3,2]","action_history":"[1,1,0,0,0,0,0,0,1,1,1,1,1]","mutagen_history":"[1,1,0,0,0,0,0,0,1,1,1,1,1]","location_rts":"[37,161,206,6,58,130,357,137,424,209,200,87,48]","trial_type":"fractal-mutation","trial_index":86,"time_elapsed":1488713,"internal_node_id":"0.0-5.0-32.0"},{"group":"square cycles (cube, non-group)","fractal_assignment":["../images/ylw_pnk.png","../images/gry_blk.png","../images/cyn_red.png","../images/ylw_slt.png","../images/pnk_blu.png","../images/blu_wht.png","../images/org_blu.png","../images/grn_red.png"],"mutagen_generator_assignment":[0,1],"goal":6,"start":2,"action_noise":0.1,"location_history":"[2,6]","action_history":"[1]","mutagen_history":"[1]","location_rts":"[59]","trial_type":"fractal-mutation","trial_index":87,"time_elapsed":1493313,"internal_node_id":"0.0-5.0-33.0"},{"group":"square cycles (cube, non-group)","fractal_assignment":["../images/ylw_pnk.png","../images/gry_blk.png","../images/cyn_red.png","../images/ylw_slt.png","../images/pnk_blu.png","../images/blu_wht.png","../images/org_blu.png","../images/grn_red.png"],"mutagen_generator_assignment":[0,1],"goal":1,"start":6,"action_noise":0.1,"location_history":"[6,7,3,0,1]","action_history":"[1,1,0,0]","mutagen_history":"[1,1,0,0]","location_rts":"[112,37,118,138]","trial_type":"fractal-mutation","trial_index":88,"time_elapsed":1501396,"internal_node_id":"0.0-5.0-34.0"},{"group":"square cycles (cube, non-group)","fractal_assignment":["../images/ylw_pnk.png","../images/gry_blk.png","../images/cyn_red.png","../images/ylw_slt.png","../images/pnk_blu.png","../images/blu_wht.png","../images/org_blu.png","../images/grn_red.png"],"mutagen_generator_assignment":[0,1],"goal":7,"start":1,"action_noise":0.1,"location_history":"[1,2,6,5,4,7]","action_history":"[0,1,0,0,0]","mutagen_history":"[0,1,0,0,0]","location_rts":"[605,251,91,339,40]","trial_type":"fractal-mutation","trial_index":89,"time_elapsed":1511423,"internal_node_id":"0.0-5.0-35.0"},{"group":"square cycles (cube, non-group)","fractal_assignment":["../images/ylw_pnk.png","../images/gry_blk.png","../images/cyn_red.png","../images/ylw_slt.png","../images/pnk_blu.png","../images/blu_wht.png","../images/org_blu.png","../images/grn_red.png"],"mutagen_generator_assignment":[0,1],"goal":4,"start":7,"action_noise":0.1,"location_history":"[7,6,5,4]","action_history":"[0,0,0]","mutagen_history":"[0,0,0]","location_rts":"[101,536,103]","trial_type":"fractal-mutation","trial_index":90,"time_elapsed":1518796,"internal_node_id":"0.0-5.0-36.0"},{"group":"square cycles (cube, non-group)","fractal_assignment":["../images/ylw_pnk.png","../images/gry_blk.png","../images/cyn_red.png","../images/ylw_slt.png","../images/pnk_blu.png","../images/blu_wht.png","../images/org_blu.png","../images/grn_red.png"],"mutagen_generator_assignment":[0,1],"goal":5,"start":4,"action_noise":0.1,"location_history":"[4,7,3,2,3,2,6,7,3,0,1,2,6,7,3,2,6,7,3,0,1,2,3,0,1,0,4,7,3,2,3,2,6,5]","action_history":"[0,0,1,0,1,1,1,1,0,0,0,1,1,1,1,1,1,1,0,0,0,0,0,0,1,1,0,1,1,1,1,1,0]","mutagen_history":"[0,0,1,0,1,1,1,1,0,0,0,1,1,1,1,1,1,1,0,0,0,0,0,0,1,1,0,1,1,1,1,1,0]","location_rts":"[662,102,442,58,71,253,446,485,126,118,120,220,141,76,338,273,426,510,126,297,316,191,49,45,26,144,303,266,222,46,107,186,124]","trial_type":"fractal-mutation","trial_index":91,"time_elapsed":1563995,"internal_node_id":"0.0-5.0-37.0"},{"group":"square cycles (cube, non-group)","fractal_assignment":["../images/ylw_pnk.png","../images/gry_blk.png","../images/cyn_red.png","../images/ylw_slt.png","../images/pnk_blu.png","../images/blu_wht.png","../images/org_blu.png","../images/grn_red.png"],"mutagen_generator_assignment":[0,1],"goal":0,"start":5,"action_noise":0.1,"location_history":"[5,4,5,1,2,6,5,4,7,3,2,6,5,4,7,6,5,4,5,4,5,1,2,3,0]","action_history":"[0,1,0,0,1,0,0,0,1,1,1,0,0,0,0,0,0,1,0,1,1,0,0,0]","mutagen_history":"[0,1,0,0,1,0,0,0,1,1,1,0,0,0,0,0,0,1,0,1,1,0,0,0]","location_rts":"[183,116,76,314,193,160,26,40,88,43,95,153,393,153,117,134,317,74,73,233,82,186,25,542]","trial_type":"fractal-mutation","trial_index":92,"time_elapsed":1596270,"internal_node_id":"0.0-5.0-38.0"},{"group":"square cycles (cube, non-group)","fractal_assignment":["../images/ylw_pnk.png","../images/gry_blk.png","../images/cyn_red.png","../images/ylw_slt.png","../images/pnk_blu.png","../images/blu_wht.png","../images/org_blu.png","../images/grn_red.png"],"mutagen_generator_assignment":[0,1],"goal":4,"start":0,"action_noise":0.1,"location_history":"[0,4]","action_history":"[0]","mutagen_history":"[0]","location_rts":"[547]","trial_type":"fractal-mutation","trial_index":93,"time_elapsed":1601357,"internal_node_id":"0.0-5.0-39.0"},{"group":"square cycles (cube, non-group)","fractal_assignment":["../images/ylw_pnk.png","../images/gry_blk.png","../images/cyn_red.png","../images/ylw_slt.png","../images/pnk_blu.png","../images/blu_wht.png","../images/org_blu.png","../images/grn_red.png"],"mutagen_generator_assignment":[0,1],"goal":0,"start":4,"action_noise":0.1,"location_history":"[4,7,6,5,1,2,3,0]","action_history":"[0,0,0,0,0,0,0]","mutagen_history":"[0,0,0,0,0,0,0]","location_rts":"[87,13,182,119,40,248,457]","trial_type":"fractal-mutation","trial_index":94,"time_elapsed":1613273,"internal_node_id":"0.0-5.0-40.0"},{"group":"square cycles (cube, non-group)","fractal_assignment":["../images/ylw_pnk.png","../images/gry_blk.png","../images/cyn_red.png","../images/ylw_slt.png","../images/pnk_blu.png","../images/blu_wht.png","../images/org_blu.png","../images/grn_red.png"],"mutagen_generator_assignment":[0,1],"goal":2,"start":0,"action_noise":0.1,"location_history":"[0,1,0,1,2]","action_history":"[0,0,0,0]","mutagen_history":"[0,0,0,0]","location_rts":"[251,460,107,25]","trial_type":"fractal-mutation","trial_index":95,"time_elapsed":1621752,"internal_node_id":"0.0-5.0-41.0"},{"group":"square cycles (cube, non-group)","fractal_assignment":["../images/ylw_pnk.png","../images/gry_blk.png","../images/cyn_red.png","../images/ylw_slt.png","../images/pnk_blu.png","../images/blu_wht.png","../images/org_blu.png","../images/grn_red.png"],"mutagen_generator_assignment":[0,1],"goal":3,"start":2,"action_noise":0.1,"location_history":"[2,6,7,3]","action_history":"[1,1,1]","mutagen_history":"[1,1,1]","location_rts":"[43,270,18]","trial_type":"fractal-mutation","trial_index":96,"time_elapsed":1628706,"internal_node_id":"0.0-5.0-42.0"},{"group":"square cycles (cube, non-group)","fractal_assignment":["../images/ylw_pnk.png","../images/gry_blk.png","../images/cyn_red.png","../images/ylw_slt.png","../images/pnk_blu.png","../images/blu_wht.png","../images/org_blu.png","../images/grn_red.png"],"mutagen_generator_assignment":[0,1],"goal":5,"start":3,"action_noise":0.1,"location_history":"[3,0,4,7,6,5]","action_history":"[1,0,0,0,0]","mutagen_history":"[1,0,0,0,0]","location_rts":"[515,116,218,263,695]","trial_type":"fractal-mutation","trial_index":97,"time_elapsed":1639210,"internal_node_id":"0.0-5.0-43.0"},{"group":"square cycles (cube, non-group)","fractal_assignment":["../images/ylw_pnk.png","../images/gry_blk.png","../images/cyn_red.png","../images/ylw_slt.png","../images/pnk_blu.png","../images/blu_wht.png","../images/org_blu.png","../images/grn_red.png"],"mutagen_generator_assignment":[0,1],"goal":1,"start":5,"action_noise":0.1,"location_history":"[5,1]","action_history":"[1]","mutagen_history":"[1]","location_rts":"[455]","trial_type":"fractal-mutation","trial_index":98,"time_elapsed":1644214,"internal_node_id":"0.0-5.0-44.0"},{"group":"square cycles (cube, non-group)","fractal_assignment":["../images/ylw_pnk.png","../images/gry_blk.png","../images/cyn_red.png","../images/ylw_slt.png","../images/pnk_blu.png","../images/blu_wht.png","../images/org_blu.png","../images/grn_red.png"],"mutagen_generator_assignment":[0,1],"goal":7,"start":1,"action_noise":0.1,"location_history":"[1,0,1,2,3,0,1,2,6,5,1,0,4,5,1,0,1,2,6,7]","action_history":"[0,0,0,0,0,0,0,0,0,1,1,1,1,1,0,0,0,1,1]","mutagen_history":"[0,0,0,0,0,0,0,0,0,1,1,1,1,1,0,0,0,1,1]","location_rts":"[253,431,58,177,736,536,482,136,114,264,83,237,19,366,18,201,72,176,159]","trial_type":"fractal-mutation","trial_index":99,"time_elapsed":1672058,"internal_node_id":"0.0-5.0-45.0"},{"group":"square cycles (cube, non-group)","fractal_assignment":["../images/ylw_pnk.png","../images/gry_blk.png","../images/cyn_red.png","../images/ylw_slt.png","../images/pnk_blu.png","../images/blu_wht.png","../images/org_blu.png","../images/grn_red.png"],"mutagen_generator_assignment":[0,1],"goal":6,"start":7,"action_noise":0.1,"location_history":"[7,3,2,6]","action_history":"[1,1,1]","mutagen_history":"[1,1,1]","location_rts":"[633,9,361]","trial_type":"fractal-mutation","trial_index":100,"time_elapsed":1679687,"internal_node_id":"0.0-5.0-46.0"},{"group":"square cycles (cube, non-group)","fractal_assignment":["../images/ylw_pnk.png","../images/gry_blk.png","../images/cyn_red.png","../images/ylw_slt.png","../images/pnk_blu.png","../images/blu_wht.png","../images/org_blu.png","../images/grn_red.png"],"mutagen_generator_assignment":[0,1],"goal":3,"start":6,"action_noise":0.1,"location_history":"[6,7,6,5,4,5,1,0,4,5,1,2,3]","action_history":"[1,0,0,0,1,1,1,1,1,1,0,0]","mutagen_history":"[1,0,0,0,1,1,1,1,1,1,0,0]","location_rts":"[522,122,25,54,371,282,161,225,348,264,218,154]","trial_type":"fractal-mutation","trial_index":101,"time_elapsed":1698542,"internal_node_id":"0.0-5.0-47.0"},{"group":"square cycles (cube, non-group)","fractal_assignment":["../images/ylw_pnk.png","../images/gry_blk.png","../images/cyn_red.png","../images/ylw_slt.png","../images/pnk_blu.png","../images/blu_wht.png","../images/org_blu.png","../images/grn_red.png"],"mutagen_generator_assignment":[0,1],"goal":0,"start":3,"action_noise":0.1,"location_history":"[3,0]","action_history":"[0]","mutagen_history":"[0]","location_rts":"[116]","trial_type":"fractal-mutation","trial_index":102,"time_elapsed":1703197,"internal_node_id":"0.0-5.0-48.0"},{"group":"square cycles (cube, non-group)","fractal_assignment":["../images/ylw_pnk.png","../images/gry_blk.png","../images/cyn_red.png","../images/ylw_slt.png","../images/pnk_blu.png","../images/blu_wht.png","../images/org_blu.png","../images/grn_red.png"],"mutagen_generator_assignment":[0,1],"goal":2,"start":0,"action_noise":0.1,"location_history":"[0,1,2]","action_history":"[0,0]","mutagen_history":"[0,0]","location_rts":"[117,40]","trial_type":"fractal-mutation","trial_index":103,"time_elapsed":1708959,"internal_node_id":"0.0-5.0-49.0"},{"view_history":"[{\"page_index\":0,\"viewing_time\":11563}]","rt":11563,"trial_type":"instructions","trial_index":104,"time_elapsed":1721523,"internal_node_id":"0.0-6.0"},{"rt":6298,"responses":"{\"Q0\":\"kind of fun\"}","trial_type":"survey-text","trial_index":105,"time_elapsed":1728828,"internal_node_id":"0.0-7.0"}]