[{"view_history":"[{\"page_index\":0,\"viewing_time\":15911},{\"page_index\":1,\"viewing_time\":17881},{\"page_index\":2,\"viewing_time\":36325},{\"page_index\":3,\"viewing_time\":7050}]","rt":77167,"trial_type":"instructions","trial_index":0,"time_elapsed":77167,"internal_node_id":"0.0-0.0"},{"view_history":"[{\"page_index\":0,\"viewing_time\":3657},{\"page_index\":1,\"viewing_time\":57275}]","rt":60932,"trial_type":"instructions","trial_index":1,"time_elapsed":139100,"internal_node_id":"0.0-1.0"},{"group":"square cycles (cube, non-group)","room_assignment":["pink","blue","purple","brown","green","grey","red","yellow"],"door_color_assignment":["white","black"],"door_generator_assignment":[1,0],"goal":3,"start":0,"action_noise":0.1,"location_history":"[0,4,5,4,7,3]","action_history":"[1,1,0,0,1]","door_history":"[0,0,1,1,0]","location_rts":"[7497,2848,3708,1941,1440]","trial_type":"two-door-navigation","trial_index":2,"time_elapsed":165049,"internal_node_id":"0.0-2.0-0.0"},{"group":"square cycles (cube, non-group)","room_assignment":["pink","blue","purple","brown","green","grey","red","yellow"],"door_color_assignment":["white","black"],"door_generator_assignment":[1,0],"goal":1,"start":3,"action_noise":0.1,"location_history":"[3,0,1]","action_history":"[0,0]","door_history":"[1,1]","location_rts":"[2216,1181]","trial_type":"two-door-navigation","trial_index":3,"time_elapsed":173961,"internal_node_id":"0.0-2.0-1.0"},{"group":"square cycles (cube, non-group)","room_assignment":["pink","blue","purple","brown","green","grey","red","yellow"],"door_color_assignment":["white","black"],"door_generator_assignment":[1,0],"goal":2,"start":1,"action_noise":0.1,"location_history":"[1,0,4,5,1,0,4,5,4,7,3,0,4,5,4,7,6,5,4,7,3,0,4,5,1,2]","action_history":"[1,1,1,1,1,0,0,0,0,0,0,0,0,0,0,0,0,0,0,1,0,1,1,0,0]","door_history":"[0,0,0,0,0,1,1,1,1,1,1,1,1,1,1,1,1,1,1,0,1,0,0,1,1]","location_rts":"[2851,1159,1019,880,658,842,489,546,411,441,436,957,464,480,901,717,610,586,639,1158,1930,1843,1270,974,1234]","trial_type":"two-door-navigation","trial_index":4,"time_elapsed":226066,"internal_node_id":"0.0-2.0-2.0"},{"group":"square cycles (cube, non-group)","room_assignment":["pink","blue","purple","brown","green","grey","red","yellow"],"door_color_assignment":["white","black"],"door_generator_assignment":[1,0],"goal":6,"start":2,"action_noise":0.1,"location_history":"[2,6]","action_history":"[1]","door_history":"[0]","location_rts":"[2543]","trial_type":"two-door-navigation","trial_index":5,"time_elapsed":233113,"internal_node_id":"0.0-2.0-3.0"},{"group":"square cycles (cube, non-group)","room_assignment":["pink","blue","purple","brown","green","grey","red","yellow"],"door_color_assignment":["white","black"],"door_generator_assignment":[1,0],"goal":5,"start":6,"action_noise":0.1,"location_history":"[6,5]","action_history":"[0]","door_history":"[1]","location_rts":"[6199]","trial_type":"two-door-navigation","trial_index":6,"time_elapsed":243814,"internal_node_id":"0.0-2.0-4.0"},{"group":"square cycles (cube, non-group)","room_assignment":["pink","blue","purple","brown","green","grey","red","yellow"],"door_color_assignment":["white","black"],"door_generator_assignment":[1,0],"goal":4,"start":5,"action_noise":0.1,"location_history":"[5,4]","action_history":"[0]","door_history":"[1]","location_rts":"[1952]","trial_type":"two-door-navigation","trial_index":7,"time_elapsed":250269,"internal_node_id":"0.0-2.0-5.0"},{"group":"square cycles (cube, non-group)","room_assignment":["pink","blue","purple","brown","green","grey","red","yellow"],"door_color_assignment":["white","black"],"door_generator_assignment":[1,0],"goal":7,"start":4,"action_noise":0.1,"location_history":"[4,5,4,7]","action_history":"[1,0,0]","door_history":"[0,1,1]","location_rts":"[1936,1306,772]","trial_type":"two-door-navigation","trial_index":8,"time_elapsed":260795,"internal_node_id":"0.0-2.0-6.0"},{"group":"square cycles (cube, non-group)","room_assignment":["pink","blue","purple","brown","green","grey","red","yellow"],"door_color_assignment":["white","black"],"door_generator_assignment":[1,0],"goal":4,"start":7,"action_noise":0.1,"location_history":"[7,6,5,4]","action_history":"[0,0,0]","door_history":"[1,1,1]","location_rts":"[2202,715,494]","trial_type":"two-door-navigation","trial_index":9,"time_elapsed":270720,"internal_node_id":"0.0-2.0-7.0"},{"group":"square cycles (cube, non-group)","room_assignment":["pink","blue","purple","brown","green","grey","red","yellow"],"door_color_assignment":["white","black"],"door_generator_assignment":[1,0],"goal":6,"start":4,"action_noise":0.1,"location_history":"[4,5,1,0,4,5,4,5,4,7,6]","action_history":"[1,1,1,1,1,0,0,0,0,0]","door_history":"[0,0,0,0,0,1,1,1,1,1]","location_rts":"[2571,698,503,426,445,417,365,373,365,410]","trial_type":"two-door-navigation","trial_index":10,"time_elapsed":290823,"internal_node_id":"0.0-2.0-8.0"},{"group":"square cycles (cube, non-group)","room_assignment":["pink","blue","purple","brown","green","grey","red","yellow"],"door_color_assignment":["white","black"],"door_generator_assignment":[1,0],"goal":0,"start":6,"action_noise":0.1,"location_history":"[6,7,6,5,4,7,6,5,4,5,1,0]","action_history":"[1,0,0,0,0,0,0,1,1,1,1]","door_history":"[0,1,1,1,1,1,1,0,0,0,0]","location_rts":"[2552,1261,430,714,479,421,542,346,364,409,398]","trial_type":"two-door-navigation","trial_index":11,"time_elapsed":313285,"internal_node_id":"0.0-2.0-9.0"},{"group":"square cycles (cube, non-group)","room_assignment":["pink","blue","purple","brown","green","grey","red","yellow"],"door_color_assignment":["white","black"],"door_generator_assignment":[1,0],"goal":1,"start":0,"action_noise":0.1,"location_history":"[0,4,5,1]","action_history":"[1,1,1]","door_history":"[0,0,0]","location_rts":"[2257,660,1016]","trial_type":"two-door-navigation","trial_index":12,"time_elapsed":323729,"internal_node_id":"0.0-2.0-10.0"},{"group":"square cycles (cube, non-group)","room_assignment":["pink","blue","purple","brown","green","grey","red","yellow"],"door_color_assignment":["white","black"],"door_generator_assignment":[1,0],"goal":3,"start":1,"action_noise":0.1,"location_history":"[1,2,3]","action_history":"[0,0]","door_history":"[1,1]","location_rts":"[1950,816]","trial_type":"two-door-navigation","trial_index":13,"time_elapsed":332004,"internal_node_id":"0.0-2.0-11.0"},{"group":"square cycles (cube, non-group)","room_assignment":["pink","blue","purple","brown","green","grey","red","yellow"],"door_color_assignment":["white","black"],"door_generator_assignment":[1,0],"goal":7,"start":3,"action_noise":0.1,"location_history":"[3,2,6,7]","action_history":"[1,1,1]","door_history":"[0,0,0]","location_rts":"[2128,411,378]","trial_type":"two-door-navigation","trial_index":14,"time_elapsed":341432,"internal_node_id":"0.0-2.0-12.0"},{"group":"square cycles (cube, non-group)","room_assignment":["pink","blue","purple","brown","green","grey","red","yellow"],"door_color_assignment":["white","black"],"door_generator_assignment":[1,0],"goal":5,"start":7,"action_noise":0.1,"location_history":"[7,6,5]","action_history":"[0,0]","door_history":"[1,1]","location_rts":"[1804,377]","trial_type":"two-door-navigation","trial_index":15,"time_elapsed":349118,"internal_node_id":"0.0-2.0-13.0"},{"group":"square cycles (cube, non-group)","room_assignment":["pink","blue","purple","brown","green","grey","red","yellow"],"door_color_assignment":["white","black"],"door_generator_assignment":[1,0],"goal":2,"start":5,"action_noise":0.1,"location_history":"[5,4,7,6,7,3,0,4,5,1,2]","action_history":"[0,0,0,1,1,1,1,1,0,0]","door_history":"[1,1,1,0,0,0,0,0,1,1]","location_rts":"[3215,360,376,409,385,558,362,394,426,481]","trial_type":"two-door-navigation","trial_index":16,"time_elapsed":369623,"internal_node_id":"0.0-2.0-14.0"},{"group":"square cycles (cube, non-group)","room_assignment":["pink","blue","purple","brown","green","grey","red","yellow"],"door_color_assignment":["white","black"],"door_generator_assignment":[1,0],"goal":7,"start":2,"action_noise":0.1,"location_history":"[2,6,7]","action_history":"[1,1]","door_history":"[0,0]","location_rts":"[1350,191]","trial_type":"two-door-navigation","trial_index":17,"time_elapsed":376670,"internal_node_id":"0.0-2.0-15.0"},{"group":"square cycles (cube, non-group)","room_assignment":["pink","blue","purple","brown","green","grey","red","yellow"],"door_color_assignment":["white","black"],"door_generator_assignment":[1,0],"goal":4,"start":7,"action_noise":0.1,"location_history":"[7,6,5,4]","action_history":"[0,0,0]","door_history":"[1,1,1]","location_rts":"[1787,371,367]","trial_type":"two-door-navigation","trial_index":18,"time_elapsed":385704,"internal_node_id":"0.0-2.0-16.0"},{"group":"square cycles (cube, non-group)","room_assignment":["pink","blue","purple","brown","green","grey","red","yellow"],"door_color_assignment":["white","black"],"door_generator_assignment":[1,0],"goal":2,"start":4,"action_noise":0.1,"location_history":"[4,7,6,5,4,7,6,7,3,2]","action_history":"[0,0,0,0,0,0,1,1,1]","door_history":"[1,1,1,1,1,1,0,0,0]","location_rts":"[2724,384,408,388,377,594,397,329,502]","trial_type":"two-door-navigation","trial_index":19,"time_elapsed":404339,"internal_node_id":"0.0-2.0-17.0"},{"group":"square cycles (cube, non-group)","room_assignment":["pink","blue","purple","brown","green","grey","red","yellow"],"door_color_assignment":["white","black"],"door_generator_assignment":[1,0],"goal":3,"start":2,"action_noise":0.1,"location_history":"[2,3]","action_history":"[0]","door_history":"[1]","location_rts":"[2111]","trial_type":"two-door-navigation","trial_index":20,"time_elapsed":410957,"internal_node_id":"0.0-2.0-18.0"},{"group":"square cycles (cube, non-group)","room_assignment":["pink","blue","purple","brown","green","grey","red","yellow"],"door_color_assignment":["white","black"],"door_generator_assignment":[1,0],"goal":6,"start":3,"action_noise":0.1,"location_history":"[3,2,6]","action_history":"[1,1]","door_history":"[0,0]","location_rts":"[3127,420]","trial_type":"two-door-navigation","trial_index":21,"time_elapsed":420014,"internal_node_id":"0.0-2.0-19.0"},{"group":"square cycles (cube, non-group)","room_assignment":["pink","blue","purple","brown","green","grey","red","yellow"],"door_color_assignment":["white","black"],"door_generator_assignment":[1,0],"goal":5,"start":6,"action_noise":0.1,"location_history":"[6,5]","action_history":"[0]","door_history":"[1]","location_rts":"[1551]","trial_type":"two-door-navigation","trial_index":22,"time_elapsed":426069,"internal_node_id":"0.0-2.0-20.0"},{"group":"square cycles (cube, non-group)","room_assignment":["pink","blue","purple","brown","green","grey","red","yellow"],"door_color_assignment":["white","black"],"door_generator_assignment":[1,0],"goal":1,"start":5,"action_noise":0.1,"location_history":"[5,4,7,6,5,4,5,1]","action_history":"[0,0,0,0,0,1,1]","door_history":"[1,1,1,1,1,0,0]","location_rts":"[1586,375,385,371,411,384,404]","trial_type":"two-door-navigation","trial_index":23,"time_elapsed":440515,"internal_node_id":"0.0-2.0-21.0"},{"group":"square cycles (cube, non-group)","room_assignment":["pink","blue","purple","brown","green","grey","red","yellow"],"door_color_assignment":["white","black"],"door_generator_assignment":[1,0],"goal":0,"start":1,"action_noise":0.1,"location_history":"[1,0]","action_history":"[1]","door_history":"[0]","location_rts":"[2279]","trial_type":"two-door-navigation","trial_index":24,"time_elapsed":447298,"internal_node_id":"0.0-2.0-22.0"},{"group":"square cycles (cube, non-group)","room_assignment":["pink","blue","purple","brown","green","grey","red","yellow"],"door_color_assignment":["white","black"],"door_generator_assignment":[1,0],"goal":2,"start":0,"action_noise":0.1,"location_history":"[0,4,5,4,7,3,2]","action_history":"[1,1,1,1,1,1]","door_history":"[0,0,0,0,0,0]","location_rts":"[1986,423,402,388,387,352]","trial_type":"two-door-navigation","trial_index":25,"time_elapsed":460759,"internal_node_id":"0.0-2.0-23.0"},{"group":"square cycles (cube, non-group)","room_assignment":["pink","blue","purple","brown","green","grey","red","yellow"],"door_color_assignment":["white","black"],"door_generator_assignment":[1,0],"goal":6,"start":2,"action_noise":0.1,"location_history":"[2,6]","action_history":"[1]","door_history":"[0]","location_rts":"[2021]","trial_type":"two-door-navigation","trial_index":26,"time_elapsed":467282,"internal_node_id":"0.0-2.0-24.0"},{"group":"square cycles (cube, non-group)","room_assignment":["pink","blue","purple","brown","green","grey","red","yellow"],"door_color_assignment":["white","black"],"door_generator_assignment":[1,0],"goal":1,"start":6,"action_noise":0.1,"location_history":"[6,5,1]","action_history":"[0,0]","door_history":"[1,1]","location_rts":"[4240,395]","trial_type":"two-door-navigation","trial_index":27,"time_elapsed":477419,"internal_node_id":"0.0-2.0-25.0"},{"group":"square cycles (cube, non-group)","room_assignment":["pink","blue","purple","brown","green","grey","red","yellow"],"door_color_assignment":["white","black"],"door_generator_assignment":[1,0],"goal":3,"start":1,"action_noise":0.1,"location_history":"[1,2,3]","action_history":"[0,0]","door_history":"[1,1]","location_rts":"[1483,589]","trial_type":"two-door-navigation","trial_index":28,"time_elapsed":484996,"internal_node_id":"0.0-2.0-26.0"},{"group":"square cycles (cube, non-group)","room_assignment":["pink","blue","purple","brown","green","grey","red","yellow"],"door_color_assignment":["white","black"],"door_generator_assignment":[1,0],"goal":7,"start":3,"action_noise":0.1,"location_history":"[3,2,6,7]","action_history":"[1,1,1]","door_history":"[0,0,0]","location_rts":"[1531,363,392]","trial_type":"two-door-navigation","trial_index":29,"time_elapsed":493793,"internal_node_id":"0.0-2.0-27.0"},{"group":"square cycles (cube, non-group)","room_assignment":["pink","blue","purple","brown","green","grey","red","yellow"],"door_color_assignment":["white","black"],"door_generator_assignment":[1,0],"goal":4,"start":7,"action_noise":0.1,"location_history":"[7,6,5,4]","action_history":"[0,0,0]","door_history":"[1,1,1]","location_rts":"[1333,340,397]","trial_type":"two-door-navigation","trial_index":30,"time_elapsed":502374,"internal_node_id":"0.0-2.0-28.0"},{"group":"square cycles (cube, non-group)","room_assignment":["pink","blue","purple","brown","green","grey","red","yellow"],"door_color_assignment":["white","black"],"door_generator_assignment":[1,0],"goal":0,"start":4,"action_noise":0.1,"location_history":"[4,5,1,0]","action_history":"[1,1,1]","door_history":"[0,0,0]","location_rts":"[1546,340,355]","trial_type":"two-door-navigation","trial_index":31,"time_elapsed":511124,"internal_node_id":"0.0-2.0-29.0"},{"group":"square cycles (cube, non-group)","room_assignment":["pink","blue","purple","brown","green","grey","red","yellow"],"door_color_assignment":["white","black"],"door_generator_assignment":[1,0],"goal":5,"start":0,"action_noise":0.1,"location_history":"[0,1,2,3,0,1,0,4,5]","action_history":"[0,0,0,0,0,1,1,1]","door_history":"[1,1,1,1,1,0,0,0]","location_rts":"[1334,369,362,383,724,452,388,369]","trial_type":"two-door-navigation","trial_index":32,"time_elapsed":527029,"internal_node_id":"0.0-2.0-30.0"},{"group":"square cycles (cube, non-group)","room_assignment":["pink","blue","purple","brown","green","grey","red","yellow"],"door_color_assignment":["white","black"],"door_generator_assignment":[1,0],"goal":3,"start":5,"action_noise":0.1,"location_history":"[5,1,2,6,5,4,5,1,2,6,5,4,5,1,0,4,5,4,7,6,5,4,7,6,7,6,5,4,5,1,0,4,5,1,0,1,0,1,2,3]","action_history":"[0,0,0,0,1,1,1,1,1,0,0,1,1,1,1,1,0,0,0,0,0,0,0,0,0,0,1,1,1,1,1,1,1,1,0,1,0,0,0]","door_history":"[1,1,1,1,0,0,0,0,0,1,1,0,0,0,0,0,1,1,1,1,1,1,1,1,1,1,0,0,0,0,0,0,0,0,1,0,1,1,1]","location_rts":"[2091,345,1107,509,413,359,451,1408,489,569,1290,707,379,362,411,379,623,353,401,376,376,385,395,384,325,262,433,417,261,347,304,382,392,291,839,606,494,759,821]","trial_type":"two-door-navigation","trial_index":33,"time_elapsed":591137,"internal_node_id":"0.0-2.0-31.0"},{"group":"square cycles (cube, non-group)","room_assignment":["pink","blue","purple","brown","green","grey","red","yellow"],"door_color_assignment":["white","black"],"door_generator_assignment":[1,0],"goal":2,"start":3,"action_noise":0.1,"location_history":"[3,2]","action_history":"[1]","door_history":"[0]","location_rts":"[1101]","trial_type":"two-door-navigation","trial_index":34,"time_elapsed":596745,"internal_node_id":"0.0-2.0-32.0"},{"group":"square cycles (cube, non-group)","room_assignment":["pink","blue","purple","brown","green","grey","red","yellow"],"door_color_assignment":["white","black"],"door_generator_assignment":[1,0],"goal":6,"start":2,"action_noise":0.1,"location_history":"[2,3,2,6]","action_history":"[0,1,1]","door_history":"[1,0,0]","location_rts":"[1046,960,371]","trial_type":"two-door-navigation","trial_index":35,"time_elapsed":605637,"internal_node_id":"0.0-2.0-33.0"},{"group":"square cycles (cube, non-group)","room_assignment":["pink","blue","purple","brown","green","grey","red","yellow"],"door_color_assignment":["white","black"],"door_generator_assignment":[1,0],"goal":1,"start":6,"action_noise":0.1,"location_history":"[6,5,1]","action_history":"[1,1]","door_history":"[0,0]","location_rts":"[1662,408]","trial_type":"two-door-navigation","trial_index":36,"time_elapsed":613213,"internal_node_id":"0.0-2.0-34.0"},{"group":"square cycles (cube, non-group)","room_assignment":["pink","blue","purple","brown","green","grey","red","yellow"],"door_color_assignment":["white","black"],"door_generator_assignment":[1,0],"goal":7,"start":1,"action_noise":0.1,"location_history":"[1,0,4,5,1,2,3,0,1,2,3,0,4,5,1,0,4,5,1,0,4,7]","action_history":"[1,1,1,1,0,0,0,0,0,0,1,1,1,1,1,1,1,1,1,1,0]","door_history":"[0,0,0,0,1,1,1,1,1,1,0,0,0,0,0,0,0,0,0,0,1]","location_rts":"[1544,783,678,667,499,358,408,442,441,333,398,340,393,354,382,332,393,357,343,403,769]","trial_type":"two-door-navigation","trial_index":37,"time_elapsed":648419,"internal_node_id":"0.0-2.0-35.0"},{"group":"square cycles (cube, non-group)","room_assignment":["pink","blue","purple","brown","green","grey","red","yellow"],"door_color_assignment":["white","black"],"door_generator_assignment":[1,0],"goal":4,"start":7,"action_noise":0.1,"location_history":"[7,3,0,1,2,6,7,6,7,3,0,4]","action_history":"[1,0,0,0,0,1,0,1,1,1,1]","door_history":"[0,1,1,1,1,0,1,0,0,0,0]","location_rts":"[1217,384,325,377,374,314,454,308,393,332,351]","trial_type":"two-door-navigation","trial_index":38,"time_elapsed":667787,"internal_node_id":"0.0-2.0-36.0"},{"group":"square cycles (cube, non-group)","room_assignment":["pink","blue","purple","brown","green","grey","red","yellow"],"door_color_assignment":["white","black"],"door_generator_assignment":[1,0],"goal":5,"start":4,"action_noise":0.1,"location_history":"[4,5]","action_history":"[0]","door_history":"[1]","location_rts":"[1237]","trial_type":"two-door-navigation","trial_index":39,"time_elapsed":673530,"internal_node_id":"0.0-2.0-37.0"},{"group":"square cycles (cube, non-group)","room_assignment":["pink","blue","purple","brown","green","grey","red","yellow"],"door_color_assignment":["white","black"],"door_generator_assignment":[1,0],"goal":0,"start":5,"action_noise":0.1,"location_history":"[5,4,5,1,2,6,7,3,2,6,7,6,5,4,7,6,5,4,5,1,0]","action_history":"[0,1,1,1,1,1,1,1,1,1,0,0,0,0,0,0,0,1,1,1]","door_history":"[1,0,0,0,0,0,0,0,0,0,1,1,1,1,1,1,1,0,0,0]","location_rts":"[1136,353,315,385,448,658,366,410,596,392,307,300,363,384,339,589,331,568,285,323]","trial_type":"two-door-navigation","trial_index":40,"time_elapsed":705938,"internal_node_id":"0.0-2.0-38.0"},{"group":"square cycles (cube, non-group)","room_assignment":["pink","blue","purple","brown","green","grey","red","yellow"],"door_color_assignment":["white","black"],"door_generator_assignment":[1,0],"goal":4,"start":0,"action_noise":0.1,"location_history":"[0,1,2,3,0,1,0,4]","action_history":"[0,1,0,0,0,0,1]","door_history":"[1,0,1,1,1,1,0]","location_rts":"[1004,381,325,268,283,347,333]","trial_type":"two-door-navigation","trial_index":41,"time_elapsed":719399,"internal_node_id":"0.0-2.0-39.0"},{"group":"square cycles (cube, non-group)","room_assignment":["pink","blue","purple","brown","green","grey","red","yellow"],"door_color_assignment":["white","black"],"door_generator_assignment":[1,0],"goal":0,"start":4,"action_noise":0.1,"location_history":"[4,5,1,0]","action_history":"[1,1,1]","door_history":"[0,0,0]","location_rts":"[998,416,440]","trial_type":"two-door-navigation","trial_index":42,"time_elapsed":727761,"internal_node_id":"0.0-2.0-40.0"},{"group":"square cycles (cube, non-group)","room_assignment":["pink","blue","purple","brown","green","grey","red","yellow"],"door_color_assignment":["white","black"],"door_generator_assignment":[1,0],"goal":2,"start":0,"action_noise":0.1,"location_history":"[0,1,2]","action_history":"[0,0]","door_history":"[1,1]","location_rts":"[1136,385]","trial_type":"two-door-navigation","trial_index":43,"time_elapsed":734790,"internal_node_id":"0.0-2.0-41.0"},{"group":"square cycles (cube, non-group)","room_assignment":["pink","blue","purple","brown","green","grey","red","yellow"],"door_color_assignment":["white","black"],"door_generator_assignment":[1,0],"goal":3,"start":2,"action_noise":0.1,"location_history":"[2,3]","action_history":"[0]","door_history":"[1]","location_rts":"[2966]","trial_type":"two-door-navigation","trial_index":44,"time_elapsed":742260,"internal_node_id":"0.0-2.0-42.0"},{"group":"square cycles (cube, non-group)","room_assignment":["pink","blue","purple","brown","green","grey","red","yellow"],"door_color_assignment":["white","black"],"door_generator_assignment":[1,0],"goal":5,"start":3,"action_noise":0.1,"location_history":"[3,0,1,0,4,5]","action_history":"[0,0,0,1,1]","door_history":"[1,1,1,0,0]","location_rts":"[1307,508,412,518,400]","trial_type":"two-door-navigation","trial_index":45,"time_elapsed":753921,"internal_node_id":"0.0-2.0-43.0"},{"group":"square cycles (cube, non-group)","room_assignment":["pink","blue","purple","brown","green","grey","red","yellow"],"door_color_assignment":["white","black"],"door_generator_assignment":[1,0],"goal":1,"start":5,"action_noise":0.1,"location_history":"[5,4,5,4,5,1]","action_history":"[0,0,0,1,1]","door_history":"[1,1,1,0,0]","location_rts":"[1942,365,370,474,400]","trial_type":"two-door-navigation","trial_index":46,"time_elapsed":765990,"internal_node_id":"0.0-2.0-44.0"},{"group":"square cycles (cube, non-group)","room_assignment":["pink","blue","purple","brown","green","grey","red","yellow"],"door_color_assignment":["white","black"],"door_generator_assignment":[1,0],"goal":7,"start":1,"action_noise":0.1,"location_history":"[1,0,4,5,1,0,4,7]","action_history":"[1,1,1,1,0,0,0]","door_history":"[0,0,0,0,1,1,1]","location_rts":"[1479,386,388,352,338,415,369]","trial_type":"two-door-navigation","trial_index":47,"time_elapsed":780249,"internal_node_id":"0.0-2.0-45.0"},{"group":"square cycles (cube, non-group)","room_assignment":["pink","blue","purple","brown","green","grey","red","yellow"],"door_color_assignment":["white","black"],"door_generator_assignment":[1,0],"goal":6,"start":7,"action_noise":0.1,"location_history":"[7,6]","action_history":"[0]","door_history":"[1]","location_rts":"[1845]","trial_type":"two-door-navigation","trial_index":48,"time_elapsed":786599,"internal_node_id":"0.0-2.0-46.0"},{"group":"square cycles (cube, non-group)","room_assignment":["pink","blue","purple","brown","green","grey","red","yellow"],"door_color_assignment":["white","black"],"door_generator_assignment":[1,0],"goal":3,"start":6,"action_noise":0.1,"location_history":"[6,7,6,5,4,7,6,7,3]","action_history":"[1,0,0,0,0,0,1,1]","door_history":"[0,1,1,1,1,1,0,0]","location_rts":"[2509,863,397,423,682,637,887,588]","trial_type":"two-door-navigation","trial_index":49,"time_elapsed":805112,"internal_node_id":"0.0-2.0-47.0"},{"group":"square cycles (cube, non-group)","room_assignment":["pink","blue","purple","brown","green","grey","red","yellow"],"door_color_assignment":["white","black"],"door_generator_assignment":[1,0],"goal":0,"start":3,"action_noise":0.1,"location_history":"[3,2,6,7,3,2,6,7,3,0]","action_history":"[1,1,1,1,1,1,1,1,1]","door_history":"[0,0,0,0,0,0,0,0,0]","location_rts":"[1457,1421,425,346,345,546,307,334,372]","trial_type":"two-door-navigation","trial_index":50,"time_elapsed":823199,"internal_node_id":"0.0-2.0-48.0"},{"group":"square cycles (cube, non-group)","room_assignment":["pink","blue","purple","brown","green","grey","red","yellow"],"door_color_assignment":["white","black"],"door_generator_assignment":[1,0],"goal":2,"start":0,"action_noise":0.1,"location_history":"[0,1,2]","action_history":"[0,0]","door_history":"[1,1]","location_rts":"[1586,495]","trial_type":"two-door-navigation","trial_index":51,"time_elapsed":830790,"internal_node_id":"0.0-2.0-49.0"},{"view_history":"[{\"page_index\":0,\"viewing_time\":6487}]","rt":6487,"trial_type":"instructions","trial_index":52,"time_elapsed":838277,"internal_node_id":"0.0-3.0"},{"view_history":"[{\"page_index\":0,\"viewing_time\":3407},{\"page_index\":1,\"viewing_time\":41476}]","rt":44883,"trial_type":"instructions","trial_index":53,"time_elapsed":884160,"internal_node_id":"0.0-4.0"},{"group":"tri cycles (cube, non-group)","fractal_assignment":["../images/grn_red.png","../images/pnk_blu.png","../images/gry_blk.png","../images/ylw_pnk.png","../images/ylw_slt.png","../images/cyn_red.png","../images/blu_wht.png","../images/org_blu.png"],"mutagen_generator_assignment":[0,1],"goal":3,"start":0,"action_noise":0.1,"location_history":"[0,2,1,0,3]","action_history":"[0,0,0,1]","mutagen_history":"[0,0,0,1]","location_rts":"[6132,1500,448,274]","trial_type":"fractal-mutation","trial_index":54,"time_elapsed":900212,"internal_node_id":"0.0-5.0-0.0"},{"group":"tri cycles (cube, non-group)","fractal_assignment":["../images/grn_red.png","../images/pnk_blu.png","../images/gry_blk.png","../images/ylw_pnk.png","../images/ylw_slt.png","../images/cyn_red.png","../images/blu_wht.png","../images/org_blu.png"],"mutagen_generator_assignment":[0,1],"goal":1,"start":3,"action_noise":0.1,"location_history":"[3,7,6,4,0,3,4,0,3,7,6,5,1]","action_history":"[0,0,0,1,1,1,1,1,1,0,0,0]","mutagen_history":"[0,0,0,1,1,1,1,1,1,0,0,0]","location_rts":"[1659,943,802,519,572,903,647,809,1017,490,539,472]","trial_type":"fractal-mutation","trial_index":55,"time_elapsed":925711,"internal_node_id":"0.0-5.0-1.0"},{"group":"tri cycles (cube, non-group)","fractal_assignment":["../images/grn_red.png","../images/pnk_blu.png","../images/gry_blk.png","../images/ylw_pnk.png","../images/ylw_slt.png","../images/cyn_red.png","../images/blu_wht.png","../images/org_blu.png"],"mutagen_generator_assignment":[0,1],"goal":2,"start":1,"action_noise":0.1,"location_history":"[1,0,2]","action_history":"[0,0]","mutagen_history":"[0,0]","location_rts":"[1236,501]","trial_type":"fractal-mutation","trial_index":56,"time_elapsed":933020,"internal_node_id":"0.0-5.0-2.0"},{"group":"tri cycles (cube, non-group)","fractal_assignment":["../images/grn_red.png","../images/pnk_blu.png","../images/gry_blk.png","../images/ylw_pnk.png","../images/ylw_slt.png","../images/cyn_red.png","../images/blu_wht.png","../images/org_blu.png"],"mutagen_generator_assignment":[0,1],"goal":6,"start":2,"action_noise":0.1,"location_history":"[2,6]","action_history":"[1]","mutagen_history":"[1]","location_rts":"[957]","trial_type":"fractal-mutation","trial_index":57,"time_elapsed":938544,"internal_node_id":"0.0-5.0-3.0"},{"group":"tri cycles (cube, non-group)","fractal_assignment":["../images/grn_red.png","../images/pnk_blu.png","../images/gry_blk.png","../images/ylw_pnk.png","../images/ylw_slt.png","../images/cyn_red.png","../images/blu_wht.png","../images/org_blu.png"],"mutagen_generator_assignment":[0,1],"goal":5,"start":6,"action_noise":0.1,"location_history":"[6,4,7,6,5]","action_history":"[0,0,0,1]","mutagen_history":"[0,0,0,1]","location_rts":"[1547,703,911,571]","trial_type":"fractal-mutation","trial_index":58,"time_elapsed":949947,"internal_node_id":"0.0-5.0-4.0"},{"group":"tri cycles (cube, non-group)","fractal_assignment":["../images/grn_red.png","../images/pnk_blu.png","../images/gry_blk.png","../images/ylw_pnk.png","../images/ylw_slt.png","../images/cyn_red.png","../images/blu_wht.png","../images/org_blu.png"],"mutagen_generator_assignment":[0,1],"goal":4,"start":5,"action_noise":0.1,"location_history":"[5,1,0,3,4]","action_history":"[0,0,1,1]","mutagen_history":"[0,0,1,1]","location_rts":"[1473,512,473,492]","trial_type":"fractal-mutation","trial_index":59,"time_elapsed":960612,"internal_node_id":"0.0-5.0-5.0"},{"group":"tri cycles (cube, non-group)","fractal_assignment":["../images/grn_red.png","../images/pnk_blu.png","../images/gry_blk.png","../images/ylw_pnk.png","../images/ylw_slt.png","../images/cyn_red.png","../images/blu_wht.png","../images/org_blu.png"],"mutagen_generator_assignment":[0,1],"goal":7,"start":4,"action_noise":0.1,"location_history":"[4,7]","action_history":"[0]","mutagen_history":"[0]","location_rts":"[1092]","trial_type":"fractal-mutation","trial_index":60,"time_elapsed":966238,"internal_node_id":"0.0-5.0-6.0"},{"group":"tri cycles (cube, non-group)","fractal_assignment":["../images/grn_red.png","../images/pnk_blu.png","../images/gry_blk.png","../images/ylw_pnk.png","../images/ylw_slt.png","../images/cyn_red.png","../images/blu_wht.png","../images/org_blu.png"],"mutagen_generator_assignment":[0,1],"goal":4,"start":7,"action_noise":0.1,"location_history":"[7,3,4]","action_history":"[1,1]","mutagen_history":"[1,1]","location_rts":"[2266,494]","trial_type":"fractal-mutation","trial_index":61,"time_elapsed":974631,"internal_node_id":"0.0-5.0-7.0"},{"group":"tri cycles (cube, non-group)","fractal_assignment":["../images/grn_red.png","../images/pnk_blu.png","../images/gry_blk.png","../images/ylw_pnk.png","../images/ylw_slt.png","../images/cyn_red.png","../images/blu_wht.png","../images/org_blu.png"],"mutagen_generator_assignment":[0,1],"goal":6,"start":4,"action_noise":0.1,"location_history":"[4,0,3,7,3,7,6]","action_history":"[1,1,0,0,0,0]","mutagen_history":"[1,1,0,0,0,0]","location_rts":"[2777,468,792,412,461,445]","trial_type":"fractal-mutation","trial_index":62,"time_elapsed":989761,"internal_node_id":"0.0-5.0-8.0"},{"group":"tri cycles (cube, non-group)","fractal_assignment":["../images/grn_red.png","../images/pnk_blu.png","../images/gry_blk.png","../images/ylw_pnk.png","../images/ylw_slt.png","../images/cyn_red.png","../images/blu_wht.png","../images/org_blu.png"],"mutagen_generator_assignment":[0,1],"goal":0,"start":6,"action_noise":0.1,"location_history":"[6,5,2,6,4,7,6,4,7,6,5,2,6,4,0]","action_history":"[1,1,1,0,0,0,0,0,0,1,1,1,0,1]","mutagen_history":"[1,1,1,0,0,0,0,0,0,1,1,1,0,1]","location_rts":"[3330,545,553,788,515,509,573,500,531,490,652,492,622,407]","trial_type":"fractal-mutation","trial_index":63,"time_elapsed":1018478,"internal_node_id":"0.0-5.0-9.0"},{"group":"tri cycles (cube, non-group)","fractal_assignment":["../images/grn_red.png","../images/pnk_blu.png","../images/gry_blk.png","../images/ylw_pnk.png","../images/ylw_slt.png","../images/cyn_red.png","../images/blu_wht.png","../images/org_blu.png"],"mutagen_generator_assignment":[0,1],"goal":1,"start":0,"action_noise":0.1,"location_history":"[0,3,4,7,6,4,7,6,4,0,3,4,0,3,4,0,2,1]","action_history":"[1,1,1,0,0,0,0,0,1,1,1,1,1,1,1,1,0]","mutagen_history":"[1,1,1,0,0,0,0,0,1,1,1,1,1,1,1,1,0]","location_rts":"[2064,414,470,422,468,403,451,509,500,854,443,448,937,444,498,629,341]","trial_type":"fractal-mutation","trial_index":64,"time_elapsed":1050211,"internal_node_id":"0.0-5.0-10.0"},{"group":"tri cycles (cube, non-group)","fractal_assignment":["../images/grn_red.png","../images/pnk_blu.png","../images/gry_blk.png","../images/ylw_pnk.png","../images/ylw_slt.png","../images/cyn_red.png","../images/blu_wht.png","../images/org_blu.png"],"mutagen_generator_assignment":[0,1],"goal":3,"start":1,"action_noise":0.1,"location_history":"[1,5,2,6,5,2,6,5,1,0,3]","action_history":"[1,1,1,1,1,1,1,0,0,0]","mutagen_history":"[1,1,1,1,1,1,1,0,0,0]","location_rts":"[1062,424,419,454,487,463,472,327,460,460]","trial_type":"fractal-mutation","trial_index":65,"time_elapsed":1069311,"internal_node_id":"0.0-5.0-11.0"},{"group":"tri cycles (cube, non-group)","fractal_assignment":["../images/grn_red.png","../images/pnk_blu.png","../images/gry_blk.png","../images/ylw_pnk.png","../images/ylw_slt.png","../images/cyn_red.png","../images/blu_wht.png","../images/org_blu.png"],"mutagen_generator_assignment":[0,1],"goal":7,"start":3,"action_noise":0.1,"location_history":"[3,7]","action_history":"[0]","mutagen_history":"[0]","location_rts":"[1373]","trial_type":"fractal-mutation","trial_index":66,"time_elapsed":1075222,"internal_node_id":"0.0-5.0-12.0"},{"group":"tri cycles (cube, non-group)","fractal_assignment":["../images/grn_red.png","../images/pnk_blu.png","../images/gry_blk.png","../images/ylw_pnk.png","../images/ylw_slt.png","../images/cyn_red.png","../images/blu_wht.png","../images/org_blu.png"],"mutagen_generator_assignment":[0,1],"goal":5,"start":7,"action_noise":0.1,"location_history":"[7,6,5]","action_history":"[0,1]","mutagen_history":"[0,1]","location_rts":"[1063,448]","trial_type":"fractal-mutation","trial_index":67,"time_elapsed":1082338,"internal_node_id":"0.0-5.0-13.0"},{"group":"tri cycles (cube, non-group)","fractal_assignment":["../images/grn_red.png","../images/pnk_blu.png","../images/gry_blk.png","../images/ylw_pnk.png","../images/ylw_slt.png","../images/cyn_red.png","../images/blu_wht.png","../images/org_blu.png"],"mutagen_generator_assignment":[0,1],"goal":2,"start":5,"action_noise":0.1,"location_history":"[5,2]","action_history":"[1]","mutagen_history":"[1]","location_rts":"[2131]","trial_type":"fractal-mutation","trial_index":68,"time_elapsed":1089033,"internal_node_id":"0.0-5.0-14.0"},{"group":"tri cycles (cube, non-group)","fractal_assignment":["../images/grn_red.png","../images/pnk_blu.png","../images/gry_blk.png","../images/ylw_pnk.png","../images/ylw_slt.png","../images/cyn_red.png","../images/blu_wht.png","../images/org_blu.png"],"mutagen_generator_assignment":[0,1],"goal":7,"start":2,"action_noise":0.1,"location_history":"[2,6,5,2,1,0,2,1,5,2,6,4,7]","action_history":"[1,1,1,0,0,0,0,1,1,1,0,0]","mutagen_history":"[1,1,1,0,0,0,0,1,1,1,0,0]","location_rts":"[1270,432,458,418,429,442,449,581,630,422,470,523]","trial_type":"fractal-mutation","trial_index":69,"time_elapsed":1111668,"internal_node_id":"0.0-5.0-15.0"},{"group":"tri cycles (cube, non-group)","fractal_assignment":["../images/grn_red.png","../images/pnk_blu.png","../images/gry_blk.png","../images/ylw_pnk.png","../images/ylw_slt.png","../images/cyn_red.png","../images/blu_wht.png","../images/org_blu.png"],"mutagen_generator_assignment":[0,1],"goal":4,"start":7,"action_noise":0.1,"location_history":"[7,3,7,3,4]","action_history":"[0,0,1,1]","mutagen_history":"[0,0,1,1]","location_rts":"[2462,481,480,410]","trial_type":"fractal-mutation","trial_index":70,"time_elapsed":1123209,"internal_node_id":"0.0-5.0-16.0"},{"group":"tri cycles (cube, non-group)","fractal_assignment":["../images/grn_red.png","../images/pnk_blu.png","../images/gry_blk.png","../images/ylw_pnk.png","../images/ylw_slt.png","../images/cyn_red.png","../images/blu_wht.png","../images/org_blu.png"],"mutagen_generator_assignment":[0,1],"goal":2,"start":4,"action_noise":0.1,"location_history":"[4,7,3,7,6,4,7,3,4,0,3,4,0,2]","action_history":"[1,1,0,0,0,0,1,1,1,1,1,1,0]","mutagen_history":"[1,1,0,0,0,0,1,1,1,1,1,1,0]","location_rts":"[1194,546,460,448,992,915,567,397,341,432,391,381,424]","trial_type":"fractal-mutation","trial_index":71,"time_elapsed":1147914,"internal_node_id":"0.0-5.0-17.0"},{"group":"tri cycles (cube, non-group)","fractal_assignment":["../images/grn_red.png","../images/pnk_blu.png","../images/gry_blk.png","../images/ylw_pnk.png","../images/ylw_slt.png","../images/cyn_red.png","../images/blu_wht.png","../images/org_blu.png"],"mutagen_generator_assignment":[0,1],"goal":3,"start":2,"action_noise":0.1,"location_history":"[2,6,5,2,6,5,2,6,4,7,6,4,0,3]","action_history":"[1,1,1,1,1,1,1,0,0,0,0,1,1]","mutagen_history":"[1,1,1,1,1,1,1,0,0,0,0,1,1]","location_rts":"[2341,560,614,630,464,560,600,539,554,662,563,537,552]","trial_type":"fractal-mutation","trial_index":72,"time_elapsed":1174316,"internal_node_id":"0.0-5.0-18.0"},{"group":"tri cycles (cube, non-group)","fractal_assignment":["../images/grn_red.png","../images/pnk_blu.png","../images/gry_blk.png","../images/ylw_pnk.png","../images/ylw_slt.png","../images/cyn_red.png","../images/blu_wht.png","../images/org_blu.png"],"mutagen_generator_assignment":[0,1],"goal":6,"start":3,"action_noise":0.1,"location_history":"[3,7,3,4,0,3,4,0,2,6]","action_history":"[0,1,1,1,1,1,1,0,0]","mutagen_history":"[0,1,1,1,1,1,1,0,0]","location_rts":"[1566,639,404,370,442,418,327,560,499]","trial_type":"fractal-mutation","trial_index":73,"time_elapsed":1192532,"internal_node_id":"0.0-5.0-19.0"},{"group":"tri cycles (cube, non-group)","fractal_assignment":["../images/grn_red.png","../images/pnk_blu.png","../images/gry_blk.png","../images/ylw_pnk.png","../images/ylw_slt.png","../images/cyn_red.png","../images/blu_wht.png","../images/org_blu.png"],"mutagen_generator_assignment":[0,1],"goal":5,"start":6,"action_noise":0.1,"location_history":"[6,4,7,6,5]","action_history":"[0,0,0,1]","mutagen_history":"[0,0,0,1]","location_rts":"[1717,435,665,508]","trial_type":"fractal-mutation","trial_index":74,"time_elapsed":1203528,"internal_node_id":"0.0-5.0-20.0"},{"group":"tri cycles (cube, non-group)","fractal_assignment":["../images/grn_red.png","../images/pnk_blu.png","../images/gry_blk.png","../images/ylw_pnk.png","../images/ylw_slt.png","../images/cyn_red.png","../images/blu_wht.png","../images/org_blu.png"],"mutagen_generator_assignment":[0,1],"goal":1,"start":5,"action_noise":0.1,"location_history":"[5,2,6,5,1]","action_history":"[1,1,1,0]","mutagen_history":"[1,1,1,0]","location_rts":"[932,2334,619,536]","trial_type":"fractal-mutation","trial_index":75,"time_elapsed":1215685,"internal_node_id":"0.0-5.0-21.0"},{"group":"tri cycles (cube, non-group)","fractal_assignment":["../images/grn_red.png","../images/pnk_blu.png","../images/gry_blk.png","../images/ylw_pnk.png","../images/ylw_slt.png","../images/cyn_red.png","../images/blu_wht.png","../images/org_blu.png"],"mutagen_generator_assignment":[0,1],"goal":0,"start":1,"action_noise":0.1,"location_history":"[1,0]","action_history":"[0]","mutagen_history":"[0]","location_rts":"[391]","trial_type":"fractal-mutation","trial_index":76,"time_elapsed":1220617,"internal_node_id":"0.0-5.0-22.0"},{"group":"tri cycles (cube, non-group)","fractal_assignment":["../images/grn_red.png","../images/pnk_blu.png","../images/gry_blk.png","../images/ylw_pnk.png","../images/ylw_slt.png","../images/cyn_red.png","../images/blu_wht.png","../images/org_blu.png"],"mutagen_generator_assignment":[0,1],"goal":2,"start":0,"action_noise":0.1,"location_history":"[0,3,4,0,2]","action_history":"[1,1,1,0]","mutagen_history":"[1,1,1,0]","location_rts":"[1126,417,384,437]","trial_type":"fractal-mutation","trial_index":77,"time_elapsed":1230715,"internal_node_id":"0.0-5.0-23.0"},{"group":"tri cycles (cube, non-group)","fractal_assignment":["../images/grn_red.png","../images/pnk_blu.png","../images/gry_blk.png","../images/ylw_pnk.png","../images/ylw_slt.png","../images/cyn_red.png","../images/blu_wht.png","../images/org_blu.png"],"mutagen_generator_assignment":[0,1],"goal":6,"start":2,"action_noise":0.1,"location_history":"[2,6]","action_history":"[0]","mutagen_history":"[0]","location_rts":"[1198]","trial_type":"fractal-mutation","trial_index":78,"time_elapsed":1236448,"internal_node_id":"0.0-5.0-24.0"},{"group":"tri cycles (cube, non-group)","fractal_assignment":["../images/grn_red.png","../images/pnk_blu.png","../images/gry_blk.png","../images/ylw_pnk.png","../images/ylw_slt.png","../images/cyn_red.png","../images/blu_wht.png","../images/org_blu.png"],"mutagen_generator_assignment":[0,1],"goal":1,"start":6,"action_noise":0.1,"location_history":"[6,4,7,3,4,0,3,4,0,2,1]","action_history":"[0,0,0,1,1,1,1,1,1,0]","mutagen_history":"[0,0,0,1,1,1,1,1,1,0]","location_rts":"[1233,439,460,404,471,858,467,464,516,463]","trial_type":"fractal-mutation","trial_index":79,"time_elapsed":1256255,"internal_node_id":"0.0-5.0-25.0"},{"group":"tri cycles (cube, non-group)","fractal_assignment":["../images/grn_red.png","../images/pnk_blu.png","../images/gry_blk.png","../images/ylw_pnk.png","../images/ylw_slt.png","../images/cyn_red.png","../images/blu_wht.png","../images/org_blu.png"],"mutagen_generator_assignment":[0,1],"goal":3,"start":1,"action_noise":0.1,"location_history":"[1,0,2,1,0,2,1,5,2,1,0,2,1,0,2,1,5,2,6,5,2,1,0,2,1,5,2,6,5,2,6,5,1,0,2,1,5,2,6,5,2,6,5,1,0,2,1,0,2,1,0,2,6,5,1,5,2,6,5,2,6,5,1,0,3]","action_history":"[0,0,0,0,0,0,1,1,1,0,0,0,0,0,0,1,1,1,1,1,0,0,0,0,1,1,1,1,1,1,0,0,0,0,0,1,1,1,1,1,1,1,1,0,0,0,0,0,0,0,0,0,1,1,1,1,1,1,1,1,1,0,0,1]","mutagen_history":"[0,0,0,0,0,0,1,1,1,0,0,0,0,0,0,1,1,1,1,1,0,0,0,0,1,1,1,1,1,1,0,0,0,0,0,1,1,1,1,1,1,1,1,0,0,0,0,0,0,0,0,0,1,1,1,1,1,1,1,1,1,0,0,1]","location_rts":"[1454,455,468,603,709,732,565,823,777,541,892,646,540,594,1758,976,510,440,496,502,421,421,407,465,431,433,426,420,409,351,437,434,423,446,417,281,400,348,368,361,375,365,333,344,518,404,319,412,398,360,411,149,140,363,374,364,310,837,559,393,399,396,505,589]","trial_type":"fractal-mutation","trial_index":80,"time_elapsed":1359205,"internal_node_id":"0.0-5.0-26.0"},{"group":"tri cycles (cube, non-group)","fractal_assignment":["../images/grn_red.png","../images/pnk_blu.png","../images/gry_blk.png","../images/ylw_pnk.png","../images/ylw_slt.png","../images/cyn_red.png","../images/blu_wht.png","../images/org_blu.png"],"mutagen_generator_assignment":[0,1],"goal":7,"start":3,"action_noise":0.1,"location_history":"[3,7]","action_history":"[0]","mutagen_history":"[0]","location_rts":"[1260]","trial_type":"fractal-mutation","trial_index":81,"time_elapsed":1365001,"internal_node_id":"0.0-5.0-27.0"},{"group":"tri cycles (cube, non-group)","fractal_assignment":["../images/grn_red.png","../images/pnk_blu.png","../images/gry_blk.png","../images/ylw_pnk.png","../images/ylw_slt.png","../images/cyn_red.png","../images/blu_wht.png","../images/org_blu.png"],"mutagen_generator_assignment":[0,1],"goal":4,"start":7,"action_noise":0.1,"location_history":"[7,3,4]","action_history":"[1,1]","mutagen_history":"[1,1]","location_rts":"[1199,423]","trial_type":"fractal-mutation","trial_index":82,"time_elapsed":1372256,"internal_node_id":"0.0-5.0-28.0"},{"group":"tri cycles (cube, non-group)","fractal_assignment":["../images/grn_red.png","../images/pnk_blu.png","../images/gry_blk.png","../images/ylw_pnk.png","../images/ylw_slt.png","../images/cyn_red.png","../images/blu_wht.png","../images/org_blu.png"],"mutagen_generator_assignment":[0,1],"goal":0,"start":4,"action_noise":0.1,"location_history":"[4,0]","action_history":"[1]","mutagen_history":"[1]","location_rts":"[1786]","trial_type":"fractal-mutation","trial_index":83,"time_elapsed":1378607,"internal_node_id":"0.0-5.0-29.0"},{"group":"tri cycles (cube, non-group)","fractal_assignment":["../images/grn_red.png","../images/pnk_blu.png","../images/gry_blk.png","../images/ylw_pnk.png","../images/ylw_slt.png","../images/cyn_red.png","../images/blu_wht.png","../images/org_blu.png"],"mutagen_generator_assignment":[0,1],"goal":5,"start":0,"action_noise":0.1,"location_history":"[0,3,4,0,3,7,6,4,0,2,6,4,0,3,4,7,6,4,0,3,7,6,5]","action_history":"[1,1,1,1,0,0,0,0,0,1,0,1,1,1,0,0,0,1,1,0,0,1]","mutagen_history":"[1,1,1,1,0,0,0,0,0,1,0,1,1,1,0,0,0,1,1,0,0,1]","location_rts":"[1749,484,495,740,455,580,617,449,754,714,938,665,660,564,477,1009,746,745,1086,841,553,603]","trial_type":"fractal-mutation","trial_index":84,"time_elapsed":1421145,"internal_node_id":"0.0-5.0-30.0"},{"group":"tri cycles (cube, non-group)","fractal_assignment":["../images/grn_red.png","../images/pnk_blu.png","../images/gry_blk.png","../images/ylw_pnk.png","../images/ylw_slt.png","../images/cyn_red.png","../images/blu_wht.png","../images/org_blu.png"],"mutagen_generator_assignment":[0,1],"goal":3,"start":5,"action_noise":0.1,"location_history":"[5,1,5,1,5,2,1,0,2,1,0,3]","action_history":"[0,1,1,1,1,0,0,0,0,0,1]","mutagen_history":"[0,1,1,1,1,0,0,0,0,0,1]","location_rts":"[582,412,385,442,708,468,542,441,600,668,676]","trial_type":"fractal-mutation","trial_index":85,"time_elapsed":1442130,"internal_node_id":"0.0-5.0-31.0"},{"group":"tri cycles (cube, non-group)","fractal_assignment":["../images/grn_red.png","../images/pnk_blu.png","../images/gry_blk.png","../images/ylw_pnk.png","../images/ylw_slt.png","../images/cyn_red.png","../images/blu_wht.png","../images/org_blu.png"],"mutagen_generator_assignment":[0,1],"goal":2,"start":3,"action_noise":0.1,"location_history":"[3,4,0,2]","action_history":"[1,0,0]","mutagen_history":"[1,0,0]","location_rts":"[794,501,419]","trial_type":"fractal-mutation","trial_index":86,"time_elapsed":1450480,"internal_node_id":"0.0-5.0-32.0"},{"group":"tri cycles (cube, non-group)","fractal_assignment":["../images/grn_red.png","../images/pnk_blu.png","../images/gry_blk.png","../images/ylw_pnk.png","../images/ylw_slt.png","../images/cyn_red.png","../images/blu_wht.png","../images/org_blu.png"],"mutagen_generator_assignment":[0,1],"goal":6,"start":2,"action_noise":0.1,"location_history":"[2,6]","action_history":"[1]","mutagen_history":"[1]","location_rts":"[1693]","trial_type":"fractal-mutation","trial_index":87,"time_elapsed":1456739,"internal_node_id":"0.0-5.0-33.0"},{"group":"tri cycles (cube, non-group)","fractal_assignment":["../images/grn_red.png","../images/pnk_blu.png","../images/gry_blk.png","../images/ylw_pnk.png","../images/ylw_slt.png","../images/cyn_red.png","../images/blu_wht.png","../images/org_blu.png"],"mutagen_generator_assignment":[0,1],"goal":1,"start":6,"action_noise":0.1,"location_history":"[6,5,2,1]","action_history":"[1,1,0]","mutagen_history":"[1,1,0]","location_rts":"[1763,681,513]","trial_type":"fractal-mutation","trial_index":88,"time_elapsed":1466354,"internal_node_id":"0.0-5.0-34.0"},{"group":"tri cycles (cube, non-group)","fractal_assignment":["../images/grn_red.png","../images/pnk_blu.png","../images/gry_blk.png","../images/ylw_pnk.png","../images/ylw_slt.png","../images/cyn_red.png","../images/blu_wht.png","../images/org_blu.png"],"mutagen_generator_assignment":[0,1],"goal":7,"start":1,"action_noise":0.1,"location_history":"[1,5,2,1,0,2,1,5,2,6,5,2,1,0,3,4,7]","action_history":"[1,1,0,0,0,0,1,1,1,1,1,0,0,1,1,1]","mutagen_history":"[1,1,0,0,0,0,1,1,1,1,1,0,0,1,1,1]","location_rts":"[1516,845,438,426,613,570,369,552,504,453,515,606,526,493,801,464]","trial_type":"fractal-mutation","trial_index":89,"time_elapsed":1496423,"internal_node_id":"0.0-5.0-35.0"},{"group":"tri cycles (cube, non-group)","fractal_assignment":["../images/grn_red.png","../images/pnk_blu.png","../images/gry_blk.png","../images/ylw_pnk.png","../images/ylw_slt.png","../images/cyn_red.png","../images/blu_wht.png","../images/org_blu.png"],"mutagen_generator_assignment":[0,1],"goal":4,"start":7,"action_noise":0.1,"location_history":"[7,3,4]","action_history":"[1,1]","mutagen_history":"[1,1]","location_rts":"[1298,476]","trial_type":"fractal-mutation","trial_index":90,"time_elapsed":1503832,"internal_node_id":"0.0-5.0-36.0"},{"group":"tri cycles (cube, non-group)","fractal_assignment":["../images/grn_red.png","../images/pnk_blu.png","../images/gry_blk.png","../images/ylw_pnk.png","../images/ylw_slt.png","../images/cyn_red.png","../images/blu_wht.png","../images/org_blu.png"],"mutagen_generator_assignment":[0,1],"goal":5,"start":4,"action_noise":0.1,"location_history":"[4,0,2,1,5]","action_history":"[0,0,0,1]","mutagen_history":"[0,0,0,1]","location_rts":"[1580,480,511,507]","trial_type":"fractal-mutation","trial_index":91,"time_elapsed":1514595,"internal_node_id":"0.0-5.0-37.0"},{"group":"tri cycles (cube, non-group)","fractal_assignment":["../images/grn_red.png","../images/pnk_blu.png","../images/gry_blk.png","../images/ylw_pnk.png","../images/ylw_slt.png","../images/cyn_red.png","../images/blu_wht.png","../images/org_blu.png"],"mutagen_generator_assignment":[0,1],"goal":0,"start":5,"action_noise":0.1,"location_history":"[5,2,6,5,2,6,4,7,6,5,2,6,4,7,6,5,1,0]","action_history":"[1,1,1,1,0,0,0,0,1,1,1,0,0,0,0,0,0]","mutagen_history":"[1,1,1,1,0,0,0,0,1,1,1,0,0,0,0,0,0]","location_rts":"[2010,463,504,658,520,475,491,554,515,936,625,487,538,349,84,671,501]","trial_type":"fractal-mutation","trial_index":92,"time_elapsed":1546290,"internal_node_id":"0.0-5.0-38.0"},{"group":"tri cycles (cube, non-group)","fractal_assignment":["../images/grn_red.png","../images/pnk_blu.png","../images/gry_blk.png","../images/ylw_pnk.png","../images/ylw_slt.png","../images/cyn_red.png","../images/blu_wht.png","../images/org_blu.png"],"mutagen_generator_assignment":[0,1],"goal":4,"start":0,"action_noise":0.1,"location_history":"[0,3,7,3,7,6,4]","action_history":"[1,1,1,0,0,0]","mutagen_history":"[1,1,1,0,0,0]","location_rts":"[980,425,581,1297,765,638]","trial_type":"fractal-mutation","trial_index":93,"time_elapsed":1560778,"internal_node_id":"0.0-5.0-39.0"},{"group":"tri cycles (cube, non-group)","fractal_assignment":["../images/grn_red.png","../images/pnk_blu.png","../images/gry_blk.png","../images/ylw_pnk.png","../images/ylw_slt.png","../images/cyn_red.png","../images/blu_wht.png","../images/org_blu.png"],"mutagen_generator_assignment":[0,1],"goal":0,"start":4,"action_noise":0.1,"location_history":"[4,7,6,5,2,6,5,2,6,4,7,3,7,6,4,7,3,4,0]","action_history":"[0,0,1,1,1,1,1,1,0,0,0,0,0,0,0,1,1,1]","mutagen_history":"[0,0,1,1,1,1,1,1,0,0,0,0,0,0,0,1,1,1]","location_rts":"[1752,660,451,471,832,484,594,587,616,714,771,1905,496,668,621,459,552,985]","trial_type":"fractal-mutation","trial_index":94,"time_elapsed":1596801,"internal_node_id":"0.0-5.0-40.0"},{"group":"tri cycles (cube, non-group)","fractal_assignment":["../images/grn_red.png","../images/pnk_blu.png","../images/gry_blk.png","../images/ylw_pnk.png","../images/ylw_slt.png","../images/cyn_red.png","../images/blu_wht.png","../images/org_blu.png"],"mutagen_generator_assignment":[0,1],"goal":2,"start":0,"action_noise":0.1,"location_history":"[0,3,4,7,6,4,7,6,5,2]","action_history":"[1,1,0,0,0,0,0,1,1]","mutagen_history":"[1,1,0,0,0,0,0,1,1]","location_rts":"[1165,389,418,387,709,423,446,412,527]","trial_type":"fractal-mutation","trial_index":95,"time_elapsed":1614610,"internal_node_id":"0.0-5.0-41.0"},{"group":"tri cycles (cube, non-group)","fractal_assignment":["../images/grn_red.png","../images/pnk_blu.png","../images/gry_blk.png","../images/ylw_pnk.png","../images/ylw_slt.png","../images/cyn_red.png","../images/blu_wht.png","../images/org_blu.png"],"mutagen_generator_assignment":[0,1],"goal":3,"start":2,"action_noise":0.1,"location_history":"[2,6,5,2,1,0,3]","action_history":"[1,1,1,0,0,0]","mutagen_history":"[1,1,1,0,0,0]","location_rts":"[1926,559,613,521,540,657]","trial_type":"fractal-mutation","trial_index":96,"time_elapsed":1629232,"internal_node_id":"0.0-5.0-42.0"},{"group":"tri cycles (cube, non-group)","fractal_assignment":["../images/grn_red.png","../images/pnk_blu.png","../images/gry_blk.png","../images/ylw_pnk.png","../images/ylw_slt.png","../images/cyn_red.png","../images/blu_wht.png","../images/org_blu.png"],"mutagen_generator_assignment":[0,1],"goal":5,"start":3,"action_noise":0.1,"location_history":"[3,4,0,3,4,0,2,1,0,3,4,7,3,7,3,4,0,2,6,5]","action_history":"[1,1,1,1,1,0,0,0,1,1,1,1,0,0,0,0,1,1,1]","mutagen_history":"[1,1,1,1,1,0,0,0,1,1,1,1,0,0,0,0,1,1,1]","location_rts":"[1516,432,608,502,886,842,959,534,712,458,440,528,410,594,795,869,500,473,529]","trial_type":"fractal-mutation","trial_index":97,"time_elapsed":1665327,"internal_node_id":"0.0-5.0-43.0"},{"group":"tri cycles (cube, non-group)","fractal_assignment":["../images/grn_red.png","../images/pnk_blu.png","../images/gry_blk.png","../images/ylw_pnk.png","../images/ylw_slt.png","../images/cyn_red.png","../images/blu_wht.png","../images/org_blu.png"],"mutagen_generator_assignment":[0,1],"goal":1,"start":5,"action_noise":0.1,"location_history":"[5,2,6,5,2,1]","action_history":"[1,1,1,1,0]","mutagen_history":"[1,1,1,1,0]","location_rts":"[952,655,592,856,1873]","trial_type":"fractal-mutation","trial_index":98,"time_elapsed":1679053,"internal_node_id":"0.0-5.0-44.0"},{"group":"tri cycles (cube, non-group)","fractal_assignment":["../images/grn_red.png","../images/pnk_blu.png","../images/gry_blk.png","../images/ylw_pnk.png","../images/ylw_slt.png","../images/cyn_red.png","../images/blu_wht.png","../images/org_blu.png"],"mutagen_generator_assignment":[0,1],"goal":7,"start":1,"action_noise":0.1,"location_history":"[1,0,2,1,5,2,6,5,2,6,4,7]","action_history":"[0,0,0,1,1,1,1,1,1,0,0]","mutagen_history":"[0,0,0,1,1,1,1,1,1,0,0]","location_rts":"[1012,409,449,421,883,525,739,603,639,418,738]","trial_type":"fractal-mutation","trial_index":99,"time_elapsed":1700958,"internal_node_id":"0.0-5.0-45.0"},{"group":"tri cycles (cube, non-group)","fractal_assignment":["../images/grn_red.png","../images/pnk_blu.png","../images/gry_blk.png","../images/ylw_pnk.png","../images/ylw_slt.png","../images/cyn_red.png","../images/blu_wht.png","../images/org_blu.png"],"mutagen_generator_assignment":[0,1],"goal":6,"start":7,"action_noise":0.1,"location_history":"[7,6]","action_history":"[0]","mutagen_history":"[0]","location_rts":"[1328]","trial_type":"fractal-mutation","trial_index":100,"time_elapsed":1706822,"internal_node_id":"0.0-5.0-46.0"},{"group":"tri cycles (cube, non-group)","fractal_assignment":["../images/grn_red.png","../images/pnk_blu.png","../images/gry_blk.png","../images/ylw_pnk.png","../images/ylw_slt.png","../images/cyn_red.png","../images/blu_wht.png","../images/org_blu.png"],"mutagen_generator_assignment":[0,1],"goal":3,"start":6,"action_noise":0.1,"location_history":"[6,4,7,6,4,0,2,6,4,7,6,5,1,0,2,1,0,2,1,5,1,5,2,6,5,2,6,4,7,6,4,7,3]","action_history":"[0,0,0,0,1,1,1,1,1,1,1,0,0,0,0,0,0,0,1,1,1,1,1,1,1,1,0,0,0,0,0,0]","mutagen_history":"[0,0,0,0,1,1,1,1,1,1,1,0,0,0,0,0,0,0,1,1,1,1,1,1,1,1,0,0,0,0,0,0]","location_rts":"[1486,483,519,516,717,510,1577,459,753,1115,720,601,588,884,813,724,503,372,513,623,474,554,418,535,446,565,402,504,373,415,352,324]","trial_type":"fractal-mutation","trial_index":101,"time_elapsed":1763730,"internal_node_id":"0.0-5.0-47.0"},{"group":"tri cycles (cube, non-group)","fractal_assignment":["../images/grn_red.png","../images/pnk_blu.png","../images/gry_blk.png","../images/ylw_pnk.png","../images/ylw_slt.png","../images/cyn_red.png","../images/blu_wht.png","../images/org_blu.png"],"mutagen_generator_assignment":[0,1],"goal":0,"start":3,"action_noise":0.1,"location_history":"[3,7,6,5,1,0]","action_history":"[1,1,1,0,0]","mutagen_history":"[1,1,1,0,0]","location_rts":"[1353,535,486,540,405]","trial_type":"fractal-mutation","trial_index":102,"time_elapsed":1775823,"internal_node_id":"0.0-5.0-48.0"},{"group":"tri cycles (cube, non-group)","fractal_assignment":["../images/grn_red.png","../images/pnk_blu.png","../images/gry_blk.png","../images/ylw_pnk.png","../images/ylw_slt.png","../images/cyn_red.png","../images/blu_wht.png","../images/org_blu.png"],"mutagen_generator_assignment":[0,1],"goal":2,"start":0,"action_noise":0.1,"location_history":"[0,3,7,6,4,0,3,4,0,3,7,6,4,7,6,5,2]","action_history":"[0,0,0,1,1,1,1,1,1,0,0,0,0,0,1,1]","mutagen_history":"[0,0,0,1,1,1,1,1,1,0,0,0,0,0,1,1]","location_rts":"[1287,406,480,361,429,403,391,469,392,446,543,607,426,462,419,652]","trial_type":"fractal-mutation","trial_index":103,"time_elapsed":1804322,"internal_node_id":"0.0-5.0-49.0"},{"view_history":"[{\"page_index\":0,\"viewing_time\":25303}]","rt":25304,"trial_type":"instructions","trial_index":104,"time_elapsed":1830626,"internal_node_id":"0.0-6.0"},{"rt":7411,"responses":"{\"Q0\":\"Thanks\"}","trial_type":"survey-text","trial_index":105,"time_elapsed":1839042,"internal_node_id":"0.0-7.0"}]