[{"view_history":"[{\"page_index\":0,\"viewing_time\":2455},{\"page_index\":1,\"viewing_time\":6608},{\"page_index\":2,\"viewing_time\":31891},{\"page_index\":3,\"viewing_time\":7235}]","rt":48190,"trial_type":"instructions","trial_index":0,"time_elapsed":48190,"internal_node_id":"0.0-0.0"},{"view_history":"[{\"page_index\":0,\"viewing_time\":4293},{\"page_index\":1,\"viewing_time\":27479}]","rt":31773,"trial_type":"instructions","trial_index":1,"time_elapsed":80964,"internal_node_id":"0.0-1.0"},{"group":"tri cycles (cube, non-group)","room_assignment":["red","blue","brown","yellow","purple","pink","grey","green"],"door_color_assignment":["black","white"],"door_generator_assignment":[1,0],"goal":3,"start":0,"action_noise":0.1,"location_history":"[0,3]","action_history":"[1]","door_history":"[0]","location_rts":"[2107]","trial_type":"two-door-navigation","trial_index":2,"time_elapsed":87599,"internal_node_id":"0.0-2.0-0.0"},{"group":"tri cycles (cube, non-group)","room_assignment":["red","blue","brown","yellow","purple","pink","grey","green"],"door_color_assignment":["black","white"],"door_generator_assignment":[1,0],"goal":1,"start":3,"action_noise":0.1,"location_history":"[3,4,7,6,4,7,3,4,0,3,4,0,3,4,0,2,1]","action_history":"[0,0,0,0,0,1,1,1,1,1,1,1,1,1,0,0]","door_history":"[1,1,1,1,1,0,0,0,0,0,0,0,0,0,1,1]","location_rts":"[1709,1514,535,550,1565,936,446,493,371,421,723,777,779,623,1423,3185]","trial_type":"two-door-navigation","trial_index":3,"time_elapsed":123456,"internal_node_id":"0.0-2.0-1.0"},{"group":"tri cycles (cube, non-group)","room_assignment":["red","blue","brown","yellow","purple","pink","grey","green"],"door_color_assignment":["black","white"],"door_generator_assignment":[1,0],"goal":2,"start":1,"action_noise":0.1,"location_history":"[1,0,3,7,6,4,7,3,4,7,6,4,7,3,7,3,7,6,5,1,5,2]","action_history":"[0,1,0,0,0,0,1,1,1,0,1,0,1,0,1,0,0,1,0,1,1]","door_history":"[1,0,1,1,1,1,0,0,0,1,0,1,0,1,0,1,1,0,1,0,0]","location_rts":"[4415,1233,633,425,565,345,546,637,400,610,737,750,488,952,518,356,1086,1094,893,629,375]","trial_type":"two-door-navigation","trial_index":4,"time_elapsed":166058,"internal_node_id":"0.0-2.0-2.0"},{"group":"tri cycles (cube, non-group)","room_assignment":["red","blue","brown","yellow","purple","pink","grey","green"],"door_color_assignment":["black","white"],"door_generator_assignment":[1,0],"goal":6,"start":2,"action_noise":0.1,"location_history":"[2,1,0,2,6]","action_history":"[0,0,0,1]","door_history":"[1,1,1,0]","location_rts":"[2325,931,403,289]","trial_type":"two-door-navigation","trial_index":5,"time_elapsed":177584,"internal_node_id":"0.0-2.0-3.0"},{"group":"tri cycles (cube, non-group)","room_assignment":["red","blue","brown","yellow","purple","pink","grey","green"],"door_color_assignment":["black","white"],"door_generator_assignment":[1,0],"goal":5,"start":6,"action_noise":0.1,"location_history":"[6,5]","action_history":"[1]","door_history":"[0]","location_rts":"[1692]","trial_type":"two-door-navigation","trial_index":6,"time_elapsed":183800,"internal_node_id":"0.0-2.0-4.0"},{"group":"tri cycles (cube, non-group)","room_assignment":["red","blue","brown","yellow","purple","pink","grey","green"],"door_color_assignment":["black","white"],"door_generator_assignment":[1,0],"goal":4,"start":5,"action_noise":0.1,"location_history":"[5,1,5,1,0,2,1,0,2,1,5,2,6,4]","action_history":"[0,1,0,0,0,0,0,0,0,1,1,1,1]","door_history":"[1,0,1,1,1,1,1,1,1,0,0,0,0]","location_rts":"[1681,1157,805,369,3510,1163,1220,1151,339,535,1009,1294,691]","trial_type":"two-door-navigation","trial_index":7,"time_elapsed":215462,"internal_node_id":"0.0-2.0-5.0"},{"group":"tri cycles (cube, non-group)","room_assignment":["red","blue","brown","yellow","purple","pink","grey","green"],"door_color_assignment":["black","white"],"door_generator_assignment":[1,0],"goal":7,"start":4,"action_noise":0.1,"location_history":"[4,7]","action_history":"[0]","door_history":"[1]","location_rts":"[2197]","trial_type":"two-door-navigation","trial_index":8,"time_elapsed":222182,"internal_node_id":"0.0-2.0-6.0"},{"group":"tri cycles (cube, non-group)","room_assignment":["red","blue","brown","yellow","purple","pink","grey","green"],"door_color_assignment":["black","white"],"door_generator_assignment":[1,0],"goal":4,"start":7,"action_noise":0.1,"location_history":"[7,3,7,6,5,2,1,5,2,1,0,2,1,0,3,7,3,4]","action_history":"[1,0,1,1,1,1,1,1,0,0,0,0,0,1,0,1,1]","door_history":"[0,1,0,0,0,0,0,0,1,1,1,1,1,0,1,0,0]","location_rts":"[1374,1090,868,590,636,561,891,455,353,327,394,613,1015,376,1456,973,416]","trial_type":"two-door-navigation","trial_index":9,"time_elapsed":255382,"internal_node_id":"0.0-2.0-7.0"},{"group":"tri cycles (cube, non-group)","room_assignment":["red","blue","brown","yellow","purple","pink","grey","green"],"door_color_assignment":["black","white"],"door_generator_assignment":[1,0],"goal":6,"start":4,"action_noise":0.1,"location_history":"[4,0,3,4,0,2,1,0,2,1,0,3,7,6]","action_history":"[1,1,1,1,0,0,0,0,1,1,1,0,0]","door_history":"[0,0,0,0,1,1,1,1,0,0,0,1,1]","location_rts":"[602839,394,353,363,978,581,764,413,710,400,425,647,731]","trial_type":"two-door-navigation","trial_index":10,"time_elapsed":881716,"internal_node_id":"0.0-2.0-8.0"},{"group":"tri cycles (cube, non-group)","room_assignment":["red","blue","brown","yellow","purple","pink","grey","green"],"door_color_assignment":["black","white"],"door_generator_assignment":[1,0],"goal":0,"start":6,"action_noise":0.1,"location_history":"[6,5,2,6,4,7,6,4,0]","action_history":"[1,1,1,0,0,0,0,1]","door_history":"[0,0,0,1,1,1,1,0]","location_rts":"[5417,630,1304,6767,376,499,351,631]","trial_type":"two-door-navigation","trial_index":11,"time_elapsed":909340,"internal_node_id":"0.0-2.0-9.0"},{"group":"tri cycles (cube, non-group)","room_assignment":["red","blue","brown","yellow","purple","pink","grey","green"],"door_color_assignment":["black","white"],"door_generator_assignment":[1,0],"goal":1,"start":0,"action_noise":0.1,"location_history":"[0,2,6,5,1]","action_history":"[0,1,1,1]","door_history":"[1,0,0,0]","location_rts":"[2923,1119,1461,753]","trial_type":"two-door-navigation","trial_index":12,"time_elapsed":923177,"internal_node_id":"0.0-2.0-10.0"},{"group":"tri cycles (cube, non-group)","room_assignment":["red","blue","brown","yellow","purple","pink","grey","green"],"door_color_assignment":["black","white"],"door_generator_assignment":[1,0],"goal":3,"start":1,"action_noise":0.1,"location_history":"[1,0,2,1,0,3]","action_history":"[0,0,0,0,1]","door_history":"[1,1,1,1,0]","location_rts":"[3508,2976,408,1675,687]","trial_type":"two-door-navigation","trial_index":13,"time_elapsed":941029,"internal_node_id":"0.0-2.0-11.0"},{"group":"tri cycles (cube, non-group)","room_assignment":["red","blue","brown","yellow","purple","pink","grey","green"],"door_color_assignment":["black","white"],"door_generator_assignment":[1,0],"goal":7,"start":3,"action_noise":0.1,"location_history":"[3,4,7]","action_history":"[1,0]","door_history":"[0,1]","location_rts":"[3282,3240]","trial_type":"two-door-navigation","trial_index":14,"time_elapsed":953093,"internal_node_id":"0.0-2.0-12.0"},{"group":"tri cycles (cube, non-group)","room_assignment":["red","blue","brown","yellow","purple","pink","grey","green"],"door_color_assignment":["black","white"],"door_generator_assignment":[1,0],"goal":5,"start":7,"action_noise":0.1,"location_history":"[7,3,7,3,4,7,3,4,0,2,1,5]","action_history":"[1,0,1,1,0,1,1,1,0,1,1]","door_history":"[0,1,0,0,1,0,0,0,1,0,0]","location_rts":"[13354,2839,826,956,1145,664,219,300,1257,1068,468]","trial_type":"two-door-navigation","trial_index":15,"time_elapsed":990889,"internal_node_id":"0.0-2.0-13.0"},{"group":"tri cycles (cube, non-group)","room_assignment":["red","blue","brown","yellow","purple","pink","grey","green"],"door_color_assignment":["black","white"],"door_generator_assignment":[1,0],"goal":2,"start":5,"action_noise":0.1,"location_history":"[5,2]","action_history":"[1]","door_history":"[0]","location_rts":"[1370]","trial_type":"two-door-navigation","trial_index":16,"time_elapsed":996787,"internal_node_id":"0.0-2.0-14.0"},{"group":"tri cycles (cube, non-group)","room_assignment":["red","blue","brown","yellow","purple","pink","grey","green"],"door_color_assignment":["black","white"],"door_generator_assignment":[1,0],"goal":7,"start":2,"action_noise":0.1,"location_history":"[2,1,5,2,1,0,2,6,4,7]","action_history":"[0,1,1,0,0,0,1,1,0]","door_history":"[1,0,0,1,1,1,0,0,1]","location_rts":"[13999,613,814,5010,9909,4641,9897,8942,12007]","trial_type":"two-door-navigation","trial_index":17,"time_elapsed":1075283,"internal_node_id":"0.0-2.0-15.0"},{"group":"tri cycles (cube, non-group)","room_assignment":["red","blue","brown","yellow","purple","pink","grey","green"],"door_color_assignment":["black","white"],"door_generator_assignment":[1,0],"goal":4,"start":7,"action_noise":0.1,"location_history":"[7,3,4]","action_history":"[1,1]","door_history":"[0,0]","location_rts":"[10546,5212]","trial_type":"two-door-navigation","trial_index":18,"time_elapsed":1096578,"internal_node_id":"0.0-2.0-16.0"},{"group":"tri cycles (cube, non-group)","room_assignment":["red","blue","brown","yellow","purple","pink","grey","green"],"door_color_assignment":["black","white"],"door_generator_assignment":[1,0],"goal":2,"start":4,"action_noise":0.1,"location_history":"[4,7,3,7,3,4,7,3,7,3,4,7,6,5,2]","action_history":"[1,0,0,1,1,1,1,1,1,1,1,0,1,1]","door_history":"[0,1,1,0,0,0,0,0,0,0,0,1,0,0]","location_rts":"[11795,12619,10802,8936,3120,7792,5162,785,1386,283,641,1882,3769,1187]","trial_type":"two-door-navigation","trial_index":19,"time_elapsed":1184490,"internal_node_id":"0.0-2.0-17.0"},{"group":"tri cycles (cube, non-group)","room_assignment":["red","blue","brown","yellow","purple","pink","grey","green"],"door_color_assignment":["black","white"],"door_generator_assignment":[1,0],"goal":3,"start":2,"action_noise":0.1,"location_history":"[2,1,5,1,0,2,6,4,7,6,5,2,6,4,7,6,4,0,2,6,5,2,6,5,1,0,2,6,5,1,5,1,0,3]","action_history":"[0,1,0,0,1,1,0,0,0,1,1,1,0,0,0,0,1,0,1,1,1,1,1,0,0,0,0,0,0,1,1,0,1]","door_history":"[1,0,1,1,0,0,1,1,1,0,0,0,1,1,1,1,0,1,0,0,0,0,0,1,1,1,1,1,1,0,0,1,0]","location_rts":"[7818,5714,8722,12087,5758,8881,9874,8697,684,340,266,624,422,474,520,442,335,374,614,342,265,309,246,211,389,1539,3044,387,2198,385,538,319,1449]","trial_type":"two-door-navigation","trial_index":20,"time_elapsed":1305876,"internal_node_id":"0.0-2.0-18.0"},{"group":"tri cycles (cube, non-group)","room_assignment":["red","blue","brown","yellow","purple","pink","grey","green"],"door_color_assignment":["black","white"],"door_generator_assignment":[1,0],"goal":6,"start":3,"action_noise":0.1,"location_history":"[3,4,0,2,1,0,3,4,0,2,1,5,2,6]","action_history":"[1,1,0,0,1,1,1,1,1,0,1,1,1]","door_history":"[0,0,1,1,0,0,0,0,0,1,0,0,0]","location_rts":"[1119,259,368,560,508,289,308,325,709,5960,525,185,561]","trial_type":"two-door-navigation","trial_index":21,"time_elapsed":1334294,"internal_node_id":"0.0-2.0-19.0"},{"group":"tri cycles (cube, non-group)","room_assignment":["red","blue","brown","yellow","purple","pink","grey","green"],"door_color_assignment":["black","white"],"door_generator_assignment":[1,0],"goal":5,"start":6,"action_noise":0.1,"location_history":"[6,5]","action_history":"[1]","door_history":"[0]","location_rts":"[1237]","trial_type":"two-door-navigation","trial_index":22,"time_elapsed":1340054,"internal_node_id":"0.0-2.0-20.0"},{"group":"tri cycles (cube, non-group)","room_assignment":["red","blue","brown","yellow","purple","pink","grey","green"],"door_color_assignment":["black","white"],"door_generator_assignment":[1,0],"goal":1,"start":5,"action_noise":0.1,"location_history":"[5,2,1]","action_history":"[1,0]","door_history":"[0,1]","location_rts":"[946,2813]","trial_type":"two-door-navigation","trial_index":23,"time_elapsed":1349356,"internal_node_id":"0.0-2.0-21.0"},{"group":"tri cycles (cube, non-group)","room_assignment":["red","blue","brown","yellow","purple","pink","grey","green"],"door_color_assignment":["black","white"],"door_generator_assignment":[1,0],"goal":0,"start":1,"action_noise":0.1,"location_history":"[1,0]","action_history":"[0]","door_history":"[1]","location_rts":"[2128]","trial_type":"two-door-navigation","trial_index":24,"time_elapsed":1356011,"internal_node_id":"0.0-2.0-22.0"},{"group":"tri cycles (cube, non-group)","room_assignment":["red","blue","brown","yellow","purple","pink","grey","green"],"door_color_assignment":["black","white"],"door_generator_assignment":[1,0],"goal":2,"start":0,"action_noise":0.1,"location_history":"[0,3,7,3,7,6,4,7,6,5,2]","action_history":"[1,1,1,0,0,1,0,0,0,1]","door_history":"[0,0,0,1,1,0,1,1,1,0]","location_rts":"[2423,327,443,3237,2833,525,663,368,920,790]","trial_type":"two-door-navigation","trial_index":25,"time_elapsed":1382213,"internal_node_id":"0.0-2.0-23.0"},{"group":"tri cycles (cube, non-group)","room_assignment":["red","blue","brown","yellow","purple","pink","grey","green"],"door_color_assignment":["black","white"],"door_generator_assignment":[1,0],"goal":6,"start":2,"action_noise":0.1,"location_history":"[2,6]","action_history":"[1]","door_history":"[0]","location_rts":"[27202]","trial_type":"two-door-navigation","trial_index":26,"time_elapsed":1413937,"internal_node_id":"0.0-2.0-24.0"},{"group":"tri cycles (cube, non-group)","room_assignment":["red","blue","brown","yellow","purple","pink","grey","green"],"door_color_assignment":["black","white"],"door_generator_assignment":[1,0],"goal":1,"start":6,"action_noise":0.1,"location_history":"[6,5,1]","action_history":"[0,0]","door_history":"[1,1]","location_rts":"[1503,835]","trial_type":"two-door-navigation","trial_index":27,"time_elapsed":1421814,"internal_node_id":"0.0-2.0-25.0"},{"group":"tri cycles (cube, non-group)","room_assignment":["red","blue","brown","yellow","purple","pink","grey","green"],"door_color_assignment":["black","white"],"door_generator_assignment":[1,0],"goal":3,"start":1,"action_noise":0.1,"location_history":"[1,0,2,6,4,0,3]","action_history":"[0,0,0,0,1,1]","door_history":"[1,1,1,1,0,0]","location_rts":"[1467,513,711,905,1087,850]","trial_type":"two-door-navigation","trial_index":28,"time_elapsed":1436960,"internal_node_id":"0.0-2.0-26.0"},{"group":"tri cycles (cube, non-group)","room_assignment":["red","blue","brown","yellow","purple","pink","grey","green"],"door_color_assignment":["black","white"],"door_generator_assignment":[1,0],"goal":7,"start":3,"action_noise":0.1,"location_history":"[3,7]","action_history":"[0]","door_history":"[1]","location_rts":"[4796]","trial_type":"two-door-navigation","trial_index":29,"time_elapsed":1446281,"internal_node_id":"0.0-2.0-27.0"},{"group":"tri cycles (cube, non-group)","room_assignment":["red","blue","brown","yellow","purple","pink","grey","green"],"door_color_assignment":["black","white"],"door_generator_assignment":[1,0],"goal":4,"start":7,"action_noise":0.1,"location_history":"[7,6,5,2,1,0,2,6,5,1,0,2,6,5,2,1,0,3,4]","action_history":"[0,1,1,0,0,0,1,0,0,0,0,1,1,1,0,1,1,1]","door_history":"[1,0,0,1,1,1,0,1,1,1,1,0,0,0,1,0,0,0]","location_rts":"[4993,865,1181,1065,690,648,475,808,413,411,576,1120,1771,416,711,295,397,491]","trial_type":"two-door-navigation","trial_index":30,"time_elapsed":1485424,"internal_node_id":"0.0-2.0-28.0"},{"group":"tri cycles (cube, non-group)","room_assignment":["red","blue","brown","yellow","purple","pink","grey","green"],"door_color_assignment":["black","white"],"door_generator_assignment":[1,0],"goal":0,"start":4,"action_noise":0.1,"location_history":"[4,0]","action_history":"[1]","door_history":"[0]","location_rts":"[17960]","trial_type":"two-door-navigation","trial_index":31,"time_elapsed":1507908,"internal_node_id":"0.0-2.0-29.0"},{"group":"tri cycles (cube, non-group)","room_assignment":["red","blue","brown","yellow","purple","pink","grey","green"],"door_color_assignment":["black","white"],"door_generator_assignment":[1,0],"goal":5,"start":0,"action_noise":0.1,"location_history":"[0,3,4,7,3,4,7,6,5]","action_history":"[1,1,1,1,1,0,0,1]","door_history":"[0,0,0,0,0,1,1,0]","location_rts":"[1106,277,360,505,499,604,542,1064]","trial_type":"two-door-navigation","trial_index":32,"time_elapsed":1524515,"internal_node_id":"0.0-2.0-30.0"},{"group":"tri cycles (cube, non-group)","room_assignment":["red","blue","brown","yellow","purple","pink","grey","green"],"door_color_assignment":["black","white"],"door_generator_assignment":[1,0],"goal":3,"start":5,"action_noise":0.1,"location_history":"[5,1,0,3]","action_history":"[0,0,1]","door_history":"[1,1,0]","location_rts":"[1643,762,766]","trial_type":"two-door-navigation","trial_index":33,"time_elapsed":1534246,"internal_node_id":"0.0-2.0-31.0"},{"group":"tri cycles (cube, non-group)","room_assignment":["red","blue","brown","yellow","purple","pink","grey","green"],"door_color_assignment":["black","white"],"door_generator_assignment":[1,0],"goal":2,"start":3,"action_noise":0.1,"location_history":"[3,4,0,3,4,7,3,4,7,3,7,6,4,7,6,5,2]","action_history":"[1,1,1,1,0,1,1,0,1,0,0,0,0,0,1,1]","door_history":"[0,0,0,0,1,0,0,1,0,1,1,1,1,1,0,0]","location_rts":"[993,265,457,363,431,653,627,343,764,612,543,338,268,224,688,678]","trial_type":"two-door-navigation","trial_index":34,"time_elapsed":1562290,"internal_node_id":"0.0-2.0-32.0"},{"group":"tri cycles (cube, non-group)","room_assignment":["red","blue","brown","yellow","purple","pink","grey","green"],"door_color_assignment":["black","white"],"door_generator_assignment":[1,0],"goal":6,"start":2,"action_noise":0.1,"location_history":"[2,6]","action_history":"[1]","door_history":"[0]","location_rts":"[1794]","trial_type":"two-door-navigation","trial_index":35,"time_elapsed":1568605,"internal_node_id":"0.0-2.0-33.0"},{"group":"tri cycles (cube, non-group)","room_assignment":["red","blue","brown","yellow","purple","pink","grey","green"],"door_color_assignment":["black","white"],"door_generator_assignment":[1,0],"goal":1,"start":6,"action_noise":0.1,"location_history":"[6,4,7,6,4,0,2,1]","action_history":"[0,0,0,0,1,0,0]","door_history":"[1,1,1,1,0,1,1]","location_rts":"[1336,570,790,1236,1024,410,415]","trial_type":"two-door-navigation","trial_index":36,"time_elapsed":1585011,"internal_node_id":"0.0-2.0-34.0"},{"group":"tri cycles (cube, non-group)","room_assignment":["red","blue","brown","yellow","purple","pink","grey","green"],"door_color_assignment":["black","white"],"door_generator_assignment":[1,0],"goal":7,"start":1,"action_noise":0.1,"location_history":"[1,0,2,1,5,1,0,3,4,0,2,1,0,3,7]","action_history":"[0,0,0,1,0,0,1,1,1,0,0,0,1,0]","door_history":"[1,1,1,0,1,1,0,0,0,1,1,1,0,1]","location_rts":"[1183,344,1331,639,661,538,617,347,341,571,532,1242,532,303]","trial_type":"two-door-navigation","trial_index":37,"time_elapsed":1611945,"internal_node_id":"0.0-2.0-35.0"},{"group":"tri cycles (cube, non-group)","room_assignment":["red","blue","brown","yellow","purple","pink","grey","green"],"door_color_assignment":["black","white"],"door_generator_assignment":[1,0],"goal":4,"start":7,"action_noise":0.1,"location_history":"[7,6,5,2,6,5,1,0,2,1,5,2,6,4]","action_history":"[1,1,1,1,1,0,0,0,1,1,1,1,0]","door_history":"[0,0,0,0,0,1,1,1,0,0,0,0,1]","location_rts":"[1047,427,770,694,610,745,833,1237,295,414,438,455,1061]","trial_type":"two-door-navigation","trial_index":38,"time_elapsed":1637704,"internal_node_id":"0.0-2.0-36.0"},{"group":"tri cycles (cube, non-group)","room_assignment":["red","blue","brown","yellow","purple","pink","grey","green"],"door_color_assignment":["black","white"],"door_generator_assignment":[1,0],"goal":5,"start":4,"action_noise":0.1,"location_history":"[4,0,3,4,7,6,5]","action_history":"[1,1,1,1,0,1]","door_history":"[0,0,0,0,1,0]","location_rts":"[1607,384,401,648,394,624]","trial_type":"two-door-navigation","trial_index":39,"time_elapsed":1651380,"internal_node_id":"0.0-2.0-37.0"},{"group":"tri cycles (cube, non-group)","room_assignment":["red","blue","brown","yellow","purple","pink","grey","green"],"door_color_assignment":["black","white"],"door_generator_assignment":[1,0],"goal":0,"start":5,"action_noise":0.1,"location_history":"[5,1,0]","action_history":"[0,0]","door_history":"[1,1]","location_rts":"[2140,304]","trial_type":"two-door-navigation","trial_index":40,"time_elapsed":1659370,"internal_node_id":"0.0-2.0-38.0"},{"group":"tri cycles (cube, non-group)","room_assignment":["red","blue","brown","yellow","purple","pink","grey","green"],"door_color_assignment":["black","white"],"door_generator_assignment":[1,0],"goal":4,"start":0,"action_noise":0.1,"location_history":"[0,2,1,0,3,4]","action_history":"[0,0,0,1,1]","door_history":"[1,1,1,0,0]","location_rts":"[1073,915,457,427,326]","trial_type":"two-door-navigation","trial_index":41,"time_elapsed":1671155,"internal_node_id":"0.0-2.0-39.0"},{"group":"tri cycles (cube, non-group)","room_assignment":["red","blue","brown","yellow","purple","pink","grey","green"],"door_color_assignment":["black","white"],"door_generator_assignment":[1,0],"goal":0,"start":4,"action_noise":0.1,"location_history":"[4,0]","action_history":"[1]","door_history":"[0]","location_rts":"[1101]","trial_type":"two-door-navigation","trial_index":42,"time_elapsed":1676780,"internal_node_id":"0.0-2.0-40.0"},{"group":"tri cycles (cube, non-group)","room_assignment":["red","blue","brown","yellow","purple","pink","grey","green"],"door_color_assignment":["black","white"],"door_generator_assignment":[1,0],"goal":2,"start":0,"action_noise":0.1,"location_history":"[0,3,4,7,6,5,2]","action_history":"[1,1,1,0,1,1]","door_history":"[0,0,0,1,0,0]","location_rts":"[904,401,380,406,950,760]","trial_type":"two-door-navigation","trial_index":43,"time_elapsed":1690198,"internal_node_id":"0.0-2.0-41.0"},{"group":"tri cycles (cube, non-group)","room_assignment":["red","blue","brown","yellow","purple","pink","grey","green"],"door_color_assignment":["black","white"],"door_generator_assignment":[1,0],"goal":3,"start":2,"action_noise":0.1,"location_history":"[2,1,0,3]","action_history":"[0,0,0]","door_history":"[1,1,1]","location_rts":"[1056,305,302]","trial_type":"two-door-navigation","trial_index":44,"time_elapsed":1698422,"internal_node_id":"0.0-2.0-42.0"},{"group":"tri cycles (cube, non-group)","room_assignment":["red","blue","brown","yellow","purple","pink","grey","green"],"door_color_assignment":["black","white"],"door_generator_assignment":[1,0],"goal":5,"start":3,"action_noise":0.1,"location_history":"[3,7,3,4,0,3,7,3,4,0,2,6,5]","action_history":"[0,1,1,1,0,0,1,1,1,0,1,1]","door_history":"[1,0,0,0,1,1,0,0,0,1,0,0]","location_rts":"[966,449,359,352,395,985,792,370,395,234,200,380]","trial_type":"two-door-navigation","trial_index":45,"time_elapsed":1720019,"internal_node_id":"0.0-2.0-43.0"},{"group":"tri cycles (cube, non-group)","room_assignment":["red","blue","brown","yellow","purple","pink","grey","green"],"door_color_assignment":["black","white"],"door_generator_assignment":[1,0],"goal":1,"start":5,"action_noise":0.1,"location_history":"[5,1]","action_history":"[0]","door_history":"[1]","location_rts":"[1169]","trial_type":"two-door-navigation","trial_index":46,"time_elapsed":1725707,"internal_node_id":"0.0-2.0-44.0"},{"group":"tri cycles (cube, non-group)","room_assignment":["red","blue","brown","yellow","purple","pink","grey","green"],"door_color_assignment":["black","white"],"door_generator_assignment":[1,0],"goal":7,"start":1,"action_noise":0.1,"location_history":"[1,0,3,4,0,3,7]","action_history":"[0,1,1,1,1,0]","door_history":"[1,0,0,0,0,1]","location_rts":"[1111,648,371,495,511,654]","trial_type":"two-door-navigation","trial_index":47,"time_elapsed":1739118,"internal_node_id":"0.0-2.0-45.0"},{"group":"tri cycles (cube, non-group)","room_assignment":["red","blue","brown","yellow","purple","pink","grey","green"],"door_color_assignment":["black","white"],"door_generator_assignment":[1,0],"goal":6,"start":7,"action_noise":0.1,"location_history":"[7,6]","action_history":"[0]","door_history":"[1]","location_rts":"[1083]","trial_type":"two-door-navigation","trial_index":48,"time_elapsed":1744724,"internal_node_id":"0.0-2.0-46.0"},{"group":"tri cycles (cube, non-group)","room_assignment":["red","blue","brown","yellow","purple","pink","grey","green"],"door_color_assignment":["black","white"],"door_generator_assignment":[1,0],"goal":3,"start":6,"action_noise":0.1,"location_history":"[6,4,7,3]","action_history":"[0,0,1]","door_history":"[1,1,0]","location_rts":"[1555,400,617]","trial_type":"two-door-navigation","trial_index":49,"time_elapsed":1753854,"internal_node_id":"0.0-2.0-47.0"},{"group":"tri cycles (cube, non-group)","room_assignment":["red","blue","brown","yellow","purple","pink","grey","green"],"door_color_assignment":["black","white"],"door_generator_assignment":[1,0],"goal":0,"start":3,"action_noise":0.1,"location_history":"[3,7,3,4,0]","action_history":"[0,1,1,1]","door_history":"[1,0,0,0]","location_rts":"[997,135,378,407]","trial_type":"two-door-navigation","trial_index":50,"time_elapsed":1763345,"internal_node_id":"0.0-2.0-48.0"},{"group":"tri cycles (cube, non-group)","room_assignment":["red","blue","brown","yellow","purple","pink","grey","green"],"door_color_assignment":["black","white"],"door_generator_assignment":[1,0],"goal":2,"start":0,"action_noise":0.1,"location_history":"[0,2]","action_history":"[1]","door_history":"[0]","location_rts":"[935]","trial_type":"two-door-navigation","trial_index":51,"time_elapsed":1768802,"internal_node_id":"0.0-2.0-49.0"},{"view_history":"[{\"page_index\":0,\"viewing_time\":3046}]","rt":3047,"trial_type":"instructions","trial_index":52,"time_elapsed":1772850,"internal_node_id":"0.0-3.0"},{"view_history":"[{\"page_index\":0,\"viewing_time\":2547},{\"page_index\":1,\"viewing_time\":16296}]","rt":18843,"trial_type":"instructions","trial_index":53,"time_elapsed":1792694,"internal_node_id":"0.0-4.0"},{"group":"tri cycles (cube, non-group)","fractal_assignment":["../images/gry_blk.png","../images/blu_wht.png","../images/ylw_slt.png","../images/cyn_red.png","../images/org_blu.png","../images/pnk_blu.png","../images/ylw_pnk.png","../images/grn_red.png"],"mutagen_generator_assignment":[0,1],"goal":3,"start":0,"action_noise":0.1,"location_history":"[0,3]","action_history":"[1]","mutagen_history":"[1]","location_rts":"[5265]","trial_type":"fractal-mutation","trial_index":54,"time_elapsed":1802577,"internal_node_id":"0.0-5.0-0.0"},{"group":"tri cycles (cube, non-group)","fractal_assignment":["../images/gry_blk.png","../images/blu_wht.png","../images/ylw_slt.png","../images/cyn_red.png","../images/org_blu.png","../images/pnk_blu.png","../images/ylw_pnk.png","../images/grn_red.png"],"mutagen_generator_assignment":[0,1],"goal":1,"start":3,"action_noise":0.1,"location_history":"[3,7,6,4,0,3,7,6,4,0,3,7,6,5,2,6,5,2,1]","action_history":"[0,0,0,1,1,0,1,1,1,1,0,0,1,1,1,1,1,0]","mutagen_history":"[0,0,0,1,1,0,1,1,1,1,0,0,1,1,1,1,1,0]","location_rts":"[3274,1182,913,162,1789,1310,502,492,5,524,1791,1044,449,728,561,1319,233,650]","trial_type":"fractal-mutation","trial_index":55,"time_elapsed":1842769,"internal_node_id":"0.0-5.0-1.0"},{"group":"tri cycles (cube, non-group)","fractal_assignment":["../images/gry_blk.png","../images/blu_wht.png","../images/ylw_slt.png","../images/cyn_red.png","../images/org_blu.png","../images/pnk_blu.png","../images/ylw_pnk.png","../images/grn_red.png"],"mutagen_generator_assignment":[0,1],"goal":2,"start":1,"action_noise":0.1,"location_history":"[1,0,2]","action_history":"[0,0]","mutagen_history":"[0,0]","location_rts":"[487,673]","trial_type":"fractal-mutation","trial_index":56,"time_elapsed":1849579,"internal_node_id":"0.0-5.0-2.0"},{"group":"tri cycles (cube, non-group)","fractal_assignment":["../images/gry_blk.png","../images/blu_wht.png","../images/ylw_slt.png","../images/cyn_red.png","../images/org_blu.png","../images/pnk_blu.png","../images/ylw_pnk.png","../images/grn_red.png"],"mutagen_generator_assignment":[0,1],"goal":6,"start":2,"action_noise":0.1,"location_history":"[2,1,5,2,6]","action_history":"[0,1,1,1]","mutagen_history":"[0,1,1,1]","location_rts":"[232,337,442,404]","trial_type":"fractal-mutation","trial_index":57,"time_elapsed":1858872,"internal_node_id":"0.0-5.0-3.0"},{"group":"tri cycles (cube, non-group)","fractal_assignment":["../images/gry_blk.png","../images/blu_wht.png","../images/ylw_slt.png","../images/cyn_red.png","../images/org_blu.png","../images/pnk_blu.png","../images/ylw_pnk.png","../images/grn_red.png"],"mutagen_generator_assignment":[0,1],"goal":5,"start":6,"action_noise":0.1,"location_history":"[6,5]","action_history":"[1]","mutagen_history":"[1]","location_rts":"[1173]","trial_type":"fractal-mutation","trial_index":58,"time_elapsed":1864637,"internal_node_id":"0.0-5.0-4.0"},{"group":"tri cycles (cube, non-group)","fractal_assignment":["../images/gry_blk.png","../images/blu_wht.png","../images/ylw_slt.png","../images/cyn_red.png","../images/org_blu.png","../images/pnk_blu.png","../images/ylw_pnk.png","../images/grn_red.png"],"mutagen_generator_assignment":[0,1],"goal":4,"start":5,"action_noise":0.1,"location_history":"[5,2,1,5,1,0,3,7,6,4]","action_history":"[1,1,1,1,0,1,1,0,0]","mutagen_history":"[1,1,1,1,0,1,1,0,0]","location_rts":"[1217,427,570,427,366,1142,722,935,532]","trial_type":"fractal-mutation","trial_index":59,"time_elapsed":1884214,"internal_node_id":"0.0-5.0-5.0"},{"group":"tri cycles (cube, non-group)","fractal_assignment":["../images/gry_blk.png","../images/blu_wht.png","../images/ylw_slt.png","../images/cyn_red.png","../images/org_blu.png","../images/pnk_blu.png","../images/ylw_pnk.png","../images/grn_red.png"],"mutagen_generator_assignment":[0,1],"goal":7,"start":4,"action_noise":0.1,"location_history":"[4,0,3,4,0,3,7]","action_history":"[1,1,1,1,1,0]","mutagen_history":"[1,1,1,1,1,0]","location_rts":"[1314,499,528,455,427,592]","trial_type":"fractal-mutation","trial_index":60,"time_elapsed":1898099,"internal_node_id":"0.0-5.0-6.0"},{"group":"tri cycles (cube, non-group)","fractal_assignment":["../images/gry_blk.png","../images/blu_wht.png","../images/ylw_slt.png","../images/cyn_red.png","../images/org_blu.png","../images/pnk_blu.png","../images/ylw_pnk.png","../images/grn_red.png"],"mutagen_generator_assignment":[0,1],"goal":4,"start":7,"action_noise":0.1,"location_history":"[7,6,4]","action_history":"[0,0]","mutagen_history":"[0,0]","location_rts":"[1600,393]","trial_type":"fractal-mutation","trial_index":61,"time_elapsed":1905742,"internal_node_id":"0.0-5.0-7.0"},{"group":"tri cycles (cube, non-group)","fractal_assignment":["../images/gry_blk.png","../images/blu_wht.png","../images/ylw_slt.png","../images/cyn_red.png","../images/org_blu.png","../images/pnk_blu.png","../images/ylw_pnk.png","../images/grn_red.png"],"mutagen_generator_assignment":[0,1],"goal":6,"start":4,"action_noise":0.1,"location_history":"[4,0,3,7,6]","action_history":"[1,1,0,0]","mutagen_history":"[1,1,0,0]","location_rts":"[1455,414,892,965]","trial_type":"fractal-mutation","trial_index":62,"time_elapsed":1917341,"internal_node_id":"0.0-5.0-8.0"},{"group":"tri cycles (cube, non-group)","fractal_assignment":["../images/gry_blk.png","../images/blu_wht.png","../images/ylw_slt.png","../images/cyn_red.png","../images/org_blu.png","../images/pnk_blu.png","../images/ylw_pnk.png","../images/grn_red.png"],"mutagen_generator_assignment":[0,1],"goal":0,"start":6,"action_noise":0.1,"location_history":"[6,4,0]","action_history":"[1,1]","mutagen_history":"[1,1]","location_rts":"[1353,749]","trial_type":"fractal-mutation","trial_index":63,"time_elapsed":1925144,"internal_node_id":"0.0-5.0-9.0"},{"group":"tri cycles (cube, non-group)","fractal_assignment":["../images/gry_blk.png","../images/blu_wht.png","../images/ylw_slt.png","../images/cyn_red.png","../images/org_blu.png","../images/pnk_blu.png","../images/ylw_pnk.png","../images/grn_red.png"],"mutagen_generator_assignment":[0,1],"goal":1,"start":0,"action_noise":0.1,"location_history":"[0,3,4,7,6,4,0,2,6,4,0,3,7,3,4,7,6,4,7,3,4,7,3,7,6,4,0,2,6,4,7,6,5,2,6,4,7,3,4,0,3,4,7,6,4,0,2,1]","action_history":"[1,1,0,0,0,1,0,0,0,1,1,0,1,1,0,0,0,0,1,1,0,1,0,0,0,1,0,1,0,0,0,1,1,1,0,0,1,1,1,1,1,0,0,0,1,1,0]","mutagen_history":"[1,1,0,0,0,1,0,0,0,1,1,0,1,1,0,0,0,0,1,1,0,1,0,0,0,1,0,1,0,0,0,1,1,1,0,0,1,1,1,1,1,0,0,0,1,1,0]","location_rts":"[884,1215,531,532,550,678,565,509,435,484,507,235,231,269,435,565,375,476,236,691,629,567,507,476,453,801,1072,1440,850,733,537,677,647,851,799,207,242,654,188,408,531,513,587,811,717,535,1257]","trial_type":"fractal-mutation","trial_index":64,"time_elapsed":2007867,"internal_node_id":"0.0-5.0-10.0"},{"group":"tri cycles (cube, non-group)","fractal_assignment":["../images/gry_blk.png","../images/blu_wht.png","../images/ylw_slt.png","../images/cyn_red.png","../images/org_blu.png","../images/pnk_blu.png","../images/ylw_pnk.png","../images/grn_red.png"],"mutagen_generator_assignment":[0,1],"goal":3,"start":1,"action_noise":0.1,"location_history":"[1,5,1,5,2,1,5,1,0,3]","action_history":"[1,1,1,1,0,1,0,0,1]","mutagen_history":"[1,1,1,1,0,1,0,0,1]","location_rts":"[1286,521,390,523,187,737,574,483,851]","trial_type":"fractal-mutation","trial_index":65,"time_elapsed":2026721,"internal_node_id":"0.0-5.0-11.0"},{"group":"tri cycles (cube, non-group)","fractal_assignment":["../images/gry_blk.png","../images/blu_wht.png","../images/ylw_slt.png","../images/cyn_red.png","../images/org_blu.png","../images/pnk_blu.png","../images/ylw_pnk.png","../images/grn_red.png"],"mutagen_generator_assignment":[0,1],"goal":7,"start":3,"action_noise":0.1,"location_history":"[3,4,0,3,7]","action_history":"[1,1,1,0]","mutagen_history":"[1,1,1,0]","location_rts":"[1827,383,485,397]","trial_type":"fractal-mutation","trial_index":66,"time_elapsed":2037730,"internal_node_id":"0.0-5.0-12.0"},{"group":"tri cycles (cube, non-group)","fractal_assignment":["../images/gry_blk.png","../images/blu_wht.png","../images/ylw_slt.png","../images/cyn_red.png","../images/org_blu.png","../images/pnk_blu.png","../images/ylw_pnk.png","../images/grn_red.png"],"mutagen_generator_assignment":[0,1],"goal":5,"start":7,"action_noise":0.1,"location_history":"[7,3,4,7,6,4,0,2,6,5]","action_history":"[1,1,0,0,0,1,0,1,1]","mutagen_history":"[1,1,0,0,0,1,0,1,1]","location_rts":"[1821,528,337,495,371,342,1206,1523,964]","trial_type":"fractal-mutation","trial_index":67,"time_elapsed":2058623,"internal_node_id":"0.0-5.0-13.0"},{"group":"tri cycles (cube, non-group)","fractal_assignment":["../images/gry_blk.png","../images/blu_wht.png","../images/ylw_slt.png","../images/cyn_red.png","../images/org_blu.png","../images/pnk_blu.png","../images/ylw_pnk.png","../images/grn_red.png"],"mutagen_generator_assignment":[0,1],"goal":2,"start":5,"action_noise":0.1,"location_history":"[5,2]","action_history":"[1]","mutagen_history":"[1]","location_rts":"[866]","trial_type":"fractal-mutation","trial_index":68,"time_elapsed":2064129,"internal_node_id":"0.0-5.0-14.0"},{"group":"tri cycles (cube, non-group)","fractal_assignment":["../images/gry_blk.png","../images/blu_wht.png","../images/ylw_slt.png","../images/cyn_red.png","../images/org_blu.png","../images/pnk_blu.png","../images/ylw_pnk.png","../images/grn_red.png"],"mutagen_generator_assignment":[0,1],"goal":7,"start":2,"action_noise":0.1,"location_history":"[2,1,0,3,4,0,3,7]","action_history":"[0,0,1,1,1,1,0]","mutagen_history":"[0,0,1,1,1,1,0]","location_rts":"[1564,601,419,471,501,421,755]","trial_type":"fractal-mutation","trial_index":69,"time_elapsed":2080066,"internal_node_id":"0.0-5.0-15.0"},{"group":"tri cycles (cube, non-group)","fractal_assignment":["../images/gry_blk.png","../images/blu_wht.png","../images/ylw_slt.png","../images/cyn_red.png","../images/org_blu.png","../images/pnk_blu.png","../images/ylw_pnk.png","../images/grn_red.png"],"mutagen_generator_assignment":[0,1],"goal":4,"start":7,"action_noise":0.1,"location_history":"[7,3,4]","action_history":"[1,1]","mutagen_history":"[1,1]","location_rts":"[1682,452]","trial_type":"fractal-mutation","trial_index":70,"time_elapsed":2087961,"internal_node_id":"0.0-5.0-16.0"},{"group":"tri cycles (cube, non-group)","fractal_assignment":["../images/gry_blk.png","../images/blu_wht.png","../images/ylw_slt.png","../images/cyn_red.png","../images/org_blu.png","../images/pnk_blu.png","../images/ylw_pnk.png","../images/grn_red.png"],"mutagen_generator_assignment":[0,1],"goal":2,"start":4,"action_noise":0.1,"location_history":"[4,0,2]","action_history":"[1,0]","mutagen_history":"[1,0]","location_rts":"[650,321]","trial_type":"fractal-mutation","trial_index":71,"time_elapsed":2094614,"internal_node_id":"0.0-5.0-17.0"},{"group":"tri cycles (cube, non-group)","fractal_assignment":["../images/gry_blk.png","../images/blu_wht.png","../images/ylw_slt.png","../images/cyn_red.png","../images/org_blu.png","../images/pnk_blu.png","../images/ylw_pnk.png","../images/grn_red.png"],"mutagen_generator_assignment":[0,1],"goal":3,"start":2,"action_noise":0.1,"location_history":"[2,6,5,2,1,0,3]","action_history":"[1,1,1,0,0,1]","mutagen_history":"[1,1,1,0,0,1]","location_rts":"[977,456,530,1463,481,470]","trial_type":"fractal-mutation","trial_index":72,"time_elapsed":2109037,"internal_node_id":"0.0-5.0-18.0"},{"group":"tri cycles (cube, non-group)","fractal_assignment":["../images/gry_blk.png","../images/blu_wht.png","../images/ylw_slt.png","../images/cyn_red.png","../images/org_blu.png","../images/pnk_blu.png","../images/ylw_pnk.png","../images/grn_red.png"],"mutagen_generator_assignment":[0,1],"goal":6,"start":3,"action_noise":0.1,"location_history":"[3,4,7,6]","action_history":"[1,0,0]","mutagen_history":"[1,0,0]","location_rts":"[1634,646,537]","trial_type":"fractal-mutation","trial_index":73,"time_elapsed":2118588,"internal_node_id":"0.0-5.0-19.0"},{"group":"tri cycles (cube, non-group)","fractal_assignment":["../images/gry_blk.png","../images/blu_wht.png","../images/ylw_slt.png","../images/cyn_red.png","../images/org_blu.png","../images/pnk_blu.png","../images/ylw_pnk.png","../images/grn_red.png"],"mutagen_generator_assignment":[0,1],"goal":5,"start":6,"action_noise":0.1,"location_history":"[6,4,7,3,4,0,2,6,4,7,6,4,7,3,4,0,2,1,0,2,6,5]","action_history":"[0,0,1,1,1,0,1,0,0,0,0,0,1,1,1,1,0,0,0,1,1]","mutagen_history":"[0,0,1,1,1,0,1,0,0,0,0,0,1,1,1,1,0,0,0,1,1]","location_rts":"[1336,807,574,714,718,502,502,990,479,406,390,898,752,557,722,1163,1376,1401,838,727,539]","trial_type":"fractal-mutation","trial_index":74,"time_elapsed":2161295,"internal_node_id":"0.0-5.0-20.0"},{"group":"tri cycles (cube, non-group)","fractal_assignment":["../images/gry_blk.png","../images/blu_wht.png","../images/ylw_slt.png","../images/cyn_red.png","../images/org_blu.png","../images/pnk_blu.png","../images/ylw_pnk.png","../images/grn_red.png"],"mutagen_generator_assignment":[0,1],"goal":1,"start":5,"action_noise":0.1,"location_history":"[5,1]","action_history":"[0]","mutagen_history":"[0]","location_rts":"[1080]","trial_type":"fractal-mutation","trial_index":75,"time_elapsed":2166949,"internal_node_id":"0.0-5.0-21.0"},{"group":"tri cycles (cube, non-group)","fractal_assignment":["../images/gry_blk.png","../images/blu_wht.png","../images/ylw_slt.png","../images/cyn_red.png","../images/org_blu.png","../images/pnk_blu.png","../images/ylw_pnk.png","../images/grn_red.png"],"mutagen_generator_assignment":[0,1],"goal":0,"start":1,"action_noise":0.1,"location_history":"[1,5,2,1,0]","action_history":"[1,1,0,0]","mutagen_history":"[1,1,0,0]","location_rts":"[1089,499,770,924]","trial_type":"fractal-mutation","trial_index":76,"time_elapsed":2178104,"internal_node_id":"0.0-5.0-22.0"},{"group":"tri cycles (cube, non-group)","fractal_assignment":["../images/gry_blk.png","../images/blu_wht.png","../images/ylw_slt.png","../images/cyn_red.png","../images/org_blu.png","../images/pnk_blu.png","../images/ylw_pnk.png","../images/grn_red.png"],"mutagen_generator_assignment":[0,1],"goal":2,"start":0,"action_noise":0.1,"location_history":"[0,2]","action_history":"[0]","mutagen_history":"[0]","location_rts":"[906]","trial_type":"fractal-mutation","trial_index":77,"time_elapsed":2183595,"internal_node_id":"0.0-5.0-23.0"},{"group":"tri cycles (cube, non-group)","fractal_assignment":["../images/gry_blk.png","../images/blu_wht.png","../images/ylw_slt.png","../images/cyn_red.png","../images/org_blu.png","../images/pnk_blu.png","../images/ylw_pnk.png","../images/grn_red.png"],"mutagen_generator_assignment":[0,1],"goal":6,"start":2,"action_noise":0.1,"location_history":"[2,6]","action_history":"[1]","mutagen_history":"[1]","location_rts":"[1163]","trial_type":"fractal-mutation","trial_index":78,"time_elapsed":2189386,"internal_node_id":"0.0-5.0-24.0"},{"group":"tri cycles (cube, non-group)","fractal_assignment":["../images/gry_blk.png","../images/blu_wht.png","../images/ylw_slt.png","../images/cyn_red.png","../images/org_blu.png","../images/pnk_blu.png","../images/ylw_pnk.png","../images/grn_red.png"],"mutagen_generator_assignment":[0,1],"goal":1,"start":6,"action_noise":0.1,"location_history":"[6,4,7,3,7,3,4,0,2,1]","action_history":"[0,0,0,0,1,1,1,0,0]","mutagen_history":"[0,0,0,0,1,1,1,0,0]","location_rts":"[803,1052,596,553,886,572,591,857,1186]","trial_type":"fractal-mutation","trial_index":79,"time_elapsed":2209674,"internal_node_id":"0.0-5.0-25.0"},{"group":"tri cycles (cube, non-group)","fractal_assignment":["../images/gry_blk.png","../images/blu_wht.png","../images/ylw_slt.png","../images/cyn_red.png","../images/org_blu.png","../images/pnk_blu.png","../images/ylw_pnk.png","../images/grn_red.png"],"mutagen_generator_assignment":[0,1],"goal":3,"start":1,"action_noise":0.1,"location_history":"[1,5,1,5,1,5,2,1,0,2,1,0,3]","action_history":"[1,1,1,0,1,0,0,0,0,0,0,1]","mutagen_history":"[1,1,1,0,1,0,0,0,0,0,0,1]","location_rts":"[1269,398,521,277,658,226,191,608,601,618,713,386]","trial_type":"fractal-mutation","trial_index":80,"time_elapsed":2232656,"internal_node_id":"0.0-5.0-26.0"},{"group":"tri cycles (cube, non-group)","fractal_assignment":["../images/gry_blk.png","../images/blu_wht.png","../images/ylw_slt.png","../images/cyn_red.png","../images/org_blu.png","../images/pnk_blu.png","../images/ylw_pnk.png","../images/grn_red.png"],"mutagen_generator_assignment":[0,1],"goal":7,"start":3,"action_noise":0.1,"location_history":"[3,4,0,3,7]","action_history":"[1,1,1,0]","mutagen_history":"[1,1,1,0]","location_rts":"[1143,352,414,421]","trial_type":"fractal-mutation","trial_index":81,"time_elapsed":2242879,"internal_node_id":"0.0-5.0-27.0"},{"group":"tri cycles (cube, non-group)","fractal_assignment":["../images/gry_blk.png","../images/blu_wht.png","../images/ylw_slt.png","../images/cyn_red.png","../images/org_blu.png","../images/pnk_blu.png","../images/ylw_pnk.png","../images/grn_red.png"],"mutagen_generator_assignment":[0,1],"goal":4,"start":7,"action_noise":0.1,"location_history":"[7,3,4]","action_history":"[1,1]","mutagen_history":"[1,1]","location_rts":"[1251,575]","trial_type":"fractal-mutation","trial_index":82,"time_elapsed":2250381,"internal_node_id":"0.0-5.0-28.0"},{"group":"tri cycles (cube, non-group)","fractal_assignment":["../images/gry_blk.png","../images/blu_wht.png","../images/ylw_slt.png","../images/cyn_red.png","../images/org_blu.png","../images/pnk_blu.png","../images/ylw_pnk.png","../images/grn_red.png"],"mutagen_generator_assignment":[0,1],"goal":0,"start":4,"action_noise":0.1,"location_history":"[4,7,6,4,7,6,5,2,1,0]","action_history":"[1,1,0,0,0,1,1,1,0]","mutagen_history":"[1,1,0,0,0,1,1,1,0]","location_rts":"[1019,863,707,464,418,513,623,1249,872]","trial_type":"fractal-mutation","trial_index":83,"time_elapsed":2270349,"internal_node_id":"0.0-5.0-29.0"},{"group":"tri cycles (cube, non-group)","fractal_assignment":["../images/gry_blk.png","../images/blu_wht.png","../images/ylw_slt.png","../images/cyn_red.png","../images/org_blu.png","../images/pnk_blu.png","../images/ylw_pnk.png","../images/grn_red.png"],"mutagen_generator_assignment":[0,1],"goal":5,"start":0,"action_noise":0.1,"location_history":"[0,2,1,0,2,6,4,7,6,5]","action_history":"[0,0,0,1,1,0,0,0,1]","mutagen_history":"[0,0,0,1,1,0,0,0,1]","location_rts":"[1595,459,575,501,552,679,515,410,473]","trial_type":"fractal-mutation","trial_index":84,"time_elapsed":2289237,"internal_node_id":"0.0-5.0-30.0"},{"group":"tri cycles (cube, non-group)","fractal_assignment":["../images/gry_blk.png","../images/blu_wht.png","../images/ylw_slt.png","../images/cyn_red.png","../images/org_blu.png","../images/pnk_blu.png","../images/ylw_pnk.png","../images/grn_red.png"],"mutagen_generator_assignment":[0,1],"goal":3,"start":5,"action_noise":0.1,"location_history":"[5,2,1,0,3]","action_history":"[1,0,0,1]","mutagen_history":"[1,0,0,1]","location_rts":"[1097,460,730,632]","trial_type":"fractal-mutation","trial_index":85,"time_elapsed":2299978,"internal_node_id":"0.0-5.0-31.0"},{"group":"tri cycles (cube, non-group)","fractal_assignment":["../images/gry_blk.png","../images/blu_wht.png","../images/ylw_slt.png","../images/cyn_red.png","../images/org_blu.png","../images/pnk_blu.png","../images/ylw_pnk.png","../images/grn_red.png"],"mutagen_generator_assignment":[0,1],"goal":2,"start":3,"action_noise":0.1,"location_history":"[3,7,3,4,0,2]","action_history":"[0,1,1,1,0]","mutagen_history":"[0,1,1,1,0]","location_rts":"[1014,686,648,522,387]","trial_type":"fractal-mutation","trial_index":86,"time_elapsed":2312174,"internal_node_id":"0.0-5.0-32.0"},{"group":"tri cycles (cube, non-group)","fractal_assignment":["../images/gry_blk.png","../images/blu_wht.png","../images/ylw_slt.png","../images/cyn_red.png","../images/org_blu.png","../images/pnk_blu.png","../images/ylw_pnk.png","../images/grn_red.png"],"mutagen_generator_assignment":[0,1],"goal":6,"start":2,"action_noise":0.1,"location_history":"[2,6]","action_history":"[1]","mutagen_history":"[1]","location_rts":"[1673]","trial_type":"fractal-mutation","trial_index":87,"time_elapsed":2318478,"internal_node_id":"0.0-5.0-33.0"},{"group":"tri cycles (cube, non-group)","fractal_assignment":["../images/gry_blk.png","../images/blu_wht.png","../images/ylw_slt.png","../images/cyn_red.png","../images/org_blu.png","../images/pnk_blu.png","../images/ylw_pnk.png","../images/grn_red.png"],"mutagen_generator_assignment":[0,1],"goal":1,"start":6,"action_noise":0.1,"location_history":"[6,5,1]","action_history":"[1,0]","mutagen_history":"[1,0]","location_rts":"[868,708]","trial_type":"fractal-mutation","trial_index":88,"time_elapsed":2325730,"internal_node_id":"0.0-5.0-34.0"},{"group":"tri cycles (cube, non-group)","fractal_assignment":["../images/gry_blk.png","../images/blu_wht.png","../images/ylw_slt.png","../images/cyn_red.png","../images/org_blu.png","../images/pnk_blu.png","../images/ylw_pnk.png","../images/grn_red.png"],"mutagen_generator_assignment":[0,1],"goal":7,"start":1,"action_noise":0.1,"location_history":"[1,5,1,5,1,0,3,7]","action_history":"[1,0,0,0,0,1,0]","mutagen_history":"[1,0,0,0,0,1,0]","location_rts":"[1278,368,371,929,563,856,566]","trial_type":"fractal-mutation","trial_index":89,"time_elapsed":2341726,"internal_node_id":"0.0-5.0-35.0"},{"group":"tri cycles (cube, non-group)","fractal_assignment":["../images/gry_blk.png","../images/blu_wht.png","../images/ylw_slt.png","../images/cyn_red.png","../images/org_blu.png","../images/pnk_blu.png","../images/ylw_pnk.png","../images/grn_red.png"],"mutagen_generator_assignment":[0,1],"goal":4,"start":7,"action_noise":0.1,"location_history":"[7,3,4]","action_history":"[1,1]","mutagen_history":"[1,1]","location_rts":"[885,409]","trial_type":"fractal-mutation","trial_index":90,"time_elapsed":2348736,"internal_node_id":"0.0-5.0-36.0"},{"group":"tri cycles (cube, non-group)","fractal_assignment":["../images/gry_blk.png","../images/blu_wht.png","../images/ylw_slt.png","../images/cyn_red.png","../images/org_blu.png","../images/pnk_blu.png","../images/ylw_pnk.png","../images/grn_red.png"],"mutagen_generator_assignment":[0,1],"goal":5,"start":4,"action_noise":0.1,"location_history":"[4,7,6,4,0,2,6,4,7,3,7,3,4,0,2,6,5]","action_history":"[0,0,0,1,0,1,0,0,0,0,1,1,1,0,1,1]","mutagen_history":"[0,0,0,1,0,1,0,0,0,0,1,1,1,0,1,1]","location_rts":"[945,451,495,595,571,1056,700,599,637,674,790,669,996,1241,808,764]","trial_type":"fractal-mutation","trial_index":91,"time_elapsed":2381712,"internal_node_id":"0.0-5.0-37.0"},{"group":"tri cycles (cube, non-group)","fractal_assignment":["../images/gry_blk.png","../images/blu_wht.png","../images/ylw_slt.png","../images/cyn_red.png","../images/org_blu.png","../images/pnk_blu.png","../images/ylw_pnk.png","../images/grn_red.png"],"mutagen_generator_assignment":[0,1],"goal":0,"start":5,"action_noise":0.1,"location_history":"[5,1,0]","action_history":"[1,0]","mutagen_history":"[1,0]","location_rts":"[1288,411]","trial_type":"fractal-mutation","trial_index":92,"time_elapsed":2389098,"internal_node_id":"0.0-5.0-38.0"},{"group":"tri cycles (cube, non-group)","fractal_assignment":["../images/gry_blk.png","../images/blu_wht.png","../images/ylw_slt.png","../images/cyn_red.png","../images/org_blu.png","../images/pnk_blu.png","../images/ylw_pnk.png","../images/grn_red.png"],"mutagen_generator_assignment":[0,1],"goal":4,"start":0,"action_noise":0.1,"location_history":"[0,2,6,5,2,1,0,3,4]","action_history":"[1,1,1,1,0,0,1,1]","mutagen_history":"[1,1,1,1,0,0,1,1]","location_rts":"[968,433,1094,608,519,566,754,393]","trial_type":"fractal-mutation","trial_index":93,"time_elapsed":2406708,"internal_node_id":"0.0-5.0-39.0"},{"group":"tri cycles (cube, non-group)","fractal_assignment":["../images/gry_blk.png","../images/blu_wht.png","../images/ylw_slt.png","../images/cyn_red.png","../images/org_blu.png","../images/pnk_blu.png","../images/ylw_pnk.png","../images/grn_red.png"],"mutagen_generator_assignment":[0,1],"goal":0,"start":4,"action_noise":0.1,"location_history":"[4,0]","action_history":"[1]","mutagen_history":"[1]","location_rts":"[914]","trial_type":"fractal-mutation","trial_index":94,"time_elapsed":2412223,"internal_node_id":"0.0-5.0-40.0"},{"group":"tri cycles (cube, non-group)","fractal_assignment":["../images/gry_blk.png","../images/blu_wht.png","../images/ylw_slt.png","../images/cyn_red.png","../images/org_blu.png","../images/pnk_blu.png","../images/ylw_pnk.png","../images/grn_red.png"],"mutagen_generator_assignment":[0,1],"goal":2,"start":0,"action_noise":0.1,"location_history":"[0,3,4,0,2]","action_history":"[1,1,1,0]","mutagen_history":"[1,1,1,0]","location_rts":"[830,425,1224,505]","trial_type":"fractal-mutation","trial_index":95,"time_elapsed":2423086,"internal_node_id":"0.0-5.0-41.0"},{"group":"tri cycles (cube, non-group)","fractal_assignment":["../images/gry_blk.png","../images/blu_wht.png","../images/ylw_slt.png","../images/cyn_red.png","../images/org_blu.png","../images/pnk_blu.png","../images/ylw_pnk.png","../images/grn_red.png"],"mutagen_generator_assignment":[0,1],"goal":3,"start":2,"action_noise":0.1,"location_history":"[2,1,5,2,6,5,1,0,2,6,5,2,6,4,0,3]","action_history":"[0,0,1,1,1,0,0,1,1,1,1,1,0,1,1]","mutagen_history":"[0,0,1,1,1,0,0,1,1,1,1,1,0,1,1]","location_rts":"[1555,687,809,551,599,767,497,311,446,524,735,716,229,828,474]","trial_type":"fractal-mutation","trial_index":96,"time_elapsed":2452784,"internal_node_id":"0.0-5.0-42.0"},{"group":"tri cycles (cube, non-group)","fractal_assignment":["../images/gry_blk.png","../images/blu_wht.png","../images/ylw_slt.png","../images/cyn_red.png","../images/org_blu.png","../images/pnk_blu.png","../images/ylw_pnk.png","../images/grn_red.png"],"mutagen_generator_assignment":[0,1],"goal":5,"start":3,"action_noise":0.1,"location_history":"[3,7,3,7,6,4,0,2,6,4,7,3,4,0,2,1,5]","action_history":"[0,1,0,0,0,1,0,1,0,0,1,1,1,0,0,1]","mutagen_history":"[0,1,0,0,0,1,0,1,0,0,1,1,1,0,0,1]","location_rts":"[1582,479,636,189,503,558,299,213,442,517,506,517,446,476,785,1220]","trial_type":"fractal-mutation","trial_index":97,"time_elapsed":2483083,"internal_node_id":"0.0-5.0-43.0"},{"group":"tri cycles (cube, non-group)","fractal_assignment":["../images/gry_blk.png","../images/blu_wht.png","../images/ylw_slt.png","../images/cyn_red.png","../images/org_blu.png","../images/pnk_blu.png","../images/ylw_pnk.png","../images/grn_red.png"],"mutagen_generator_assignment":[0,1],"goal":1,"start":5,"action_noise":0.1,"location_history":"[5,1]","action_history":"[1]","mutagen_history":"[1]","location_rts":"[883]","trial_type":"fractal-mutation","trial_index":98,"time_elapsed":2488574,"internal_node_id":"0.0-5.0-44.0"},{"group":"tri cycles (cube, non-group)","fractal_assignment":["../images/gry_blk.png","../images/blu_wht.png","../images/ylw_slt.png","../images/cyn_red.png","../images/org_blu.png","../images/pnk_blu.png","../images/ylw_pnk.png","../images/grn_red.png"],"mutagen_generator_assignment":[0,1],"goal":7,"start":1,"action_noise":0.1,"location_history":"[1,5,1,0,2,6,4,0,3,4,0,3,4,0,3,4,7]","action_history":"[1,0,0,0,1,1,1,1,0,1,1,1,1,0,1,0]","mutagen_history":"[1,0,0,0,1,1,1,1,0,1,1,1,1,0,1,0]","location_rts":"[1172,38,818,429,679,452,388,509,1246,444,514,392,405,471,559,166]","trial_type":"fractal-mutation","trial_index":99,"time_elapsed":2518184,"internal_node_id":"0.0-5.0-45.0"},{"group":"tri cycles (cube, non-group)","fractal_assignment":["../images/gry_blk.png","../images/blu_wht.png","../images/ylw_slt.png","../images/cyn_red.png","../images/org_blu.png","../images/pnk_blu.png","../images/ylw_pnk.png","../images/grn_red.png"],"mutagen_generator_assignment":[0,1],"goal":6,"start":7,"action_noise":0.1,"location_history":"[7,3,4,7,6]","action_history":"[1,1,0,0]","mutagen_history":"[1,1,0,0]","location_rts":"[609,408,397,463]","trial_type":"fractal-mutation","trial_index":100,"time_elapsed":2527906,"internal_node_id":"0.0-5.0-46.0"},{"group":"tri cycles (cube, non-group)","fractal_assignment":["../images/gry_blk.png","../images/blu_wht.png","../images/ylw_slt.png","../images/cyn_red.png","../images/org_blu.png","../images/pnk_blu.png","../images/ylw_pnk.png","../images/grn_red.png"],"mutagen_generator_assignment":[0,1],"goal":3,"start":6,"action_noise":0.1,"location_history":"[6,4,0,3]","action_history":"[0,1,1]","mutagen_history":"[0,1,1]","location_rts":"[409,197,364]","trial_type":"fractal-mutation","trial_index":101,"time_elapsed":2535666,"internal_node_id":"0.0-5.0-47.0"},{"group":"tri cycles (cube, non-group)","fractal_assignment":["../images/gry_blk.png","../images/blu_wht.png","../images/ylw_slt.png","../images/cyn_red.png","../images/org_blu.png","../images/pnk_blu.png","../images/ylw_pnk.png","../images/grn_red.png"],"mutagen_generator_assignment":[0,1],"goal":0,"start":3,"action_noise":0.1,"location_history":"[3,4,0]","action_history":"[1,1]","mutagen_history":"[1,1]","location_rts":"[1038,408]","trial_type":"fractal-mutation","trial_index":102,"time_elapsed":2542803,"internal_node_id":"0.0-5.0-48.0"},{"group":"tri cycles (cube, non-group)","fractal_assignment":["../images/gry_blk.png","../images/blu_wht.png","../images/ylw_slt.png","../images/cyn_red.png","../images/org_blu.png","../images/pnk_blu.png","../images/ylw_pnk.png","../images/grn_red.png"],"mutagen_generator_assignment":[0,1],"goal":2,"start":0,"action_noise":0.1,"location_history":"[0,3,4,0,3,7,6,5,2]","action_history":"[1,1,1,0,1,0,1,1]","mutagen_history":"[1,1,1,0,1,0,1,1]","location_rts":"[806,449,408,405,820,179,551,1112]","trial_type":"fractal-mutation","trial_index":103,"time_elapsed":2559840,"internal_node_id":"0.0-5.0-49.0"},{"view_history":"[{\"page_index\":0,\"viewing_time\":3008}]","rt":3009,"trial_type":"instructions","trial_index":104,"time_elapsed":2563851,"internal_node_id":"0.0-6.0"},{"rt":2557,"responses":"{\"Q0\":\"\"}","trial_type":"survey-text","trial_index":105,"time_elapsed":2567411,"internal_node_id":"0.0-7.0"}]