[{"view_history":"[{\"page_index\":0,\"viewing_time\":20977},{\"page_index\":1,\"viewing_time\":13932},{\"page_index\":2,\"viewing_time\":17831},{\"page_index\":3,\"viewing_time\":9431}]","rt":62173,"trial_type":"instructions","trial_index":0,"time_elapsed":62177,"internal_node_id":"0.0-0.0"},{"view_history":"[{\"page_index\":0,\"viewing_time\":4090},{\"page_index\":1,\"viewing_time\":33168}]","rt":37260,"trial_type":"instructions","trial_index":1,"time_elapsed":100439,"internal_node_id":"0.0-1.0"},{"group":"square cycles (cube, non-group)","room_assignment":["brown","yellow","green","pink","red","purple","blue","grey"],"door_color_assignment":["black","white"],"door_generator_assignment":[1,0],"goal":3,"start":0,"action_noise":0.1,"location_history":"[0,4,7,3]","action_history":"[1,0,1]","door_history":"[0,1,0]","location_rts":"[3529,4533,3796]","trial_type":"two-door-navigation","trial_index":2,"time_elapsed":118831,"internal_node_id":"0.0-2.0-0.0"},{"group":"square cycles (cube, non-group)","room_assignment":["brown","yellow","green","pink","red","purple","blue","grey"],"door_color_assignment":["black","white"],"door_generator_assignment":[1,0],"goal":1,"start":3,"action_noise":0.1,"location_history":"[3,0,1]","action_history":"[0,0]","door_history":"[1,1]","location_rts":"[4775,1723]","trial_type":"two-door-navigation","trial_index":3,"time_elapsed":130838,"internal_node_id":"0.0-2.0-1.0"},{"group":"square cycles (cube, non-group)","room_assignment":["brown","yellow","green","pink","red","purple","blue","grey"],"door_color_assignment":["black","white"],"door_generator_assignment":[1,0],"goal":2,"start":1,"action_noise":0.1,"location_history":"[1,2]","action_history":"[0]","door_history":"[1]","location_rts":"[2055]","trial_type":"two-door-navigation","trial_index":4,"time_elapsed":137397,"internal_node_id":"0.0-2.0-2.0"},{"group":"square cycles (cube, non-group)","room_assignment":["brown","yellow","green","pink","red","purple","blue","grey"],"door_color_assignment":["black","white"],"door_generator_assignment":[1,0],"goal":6,"start":2,"action_noise":0.1,"location_history":"[2,3,0,1,0,4,5,1,0,4,7,6]","action_history":"[0,0,0,1,1,1,1,1,1,0,0]","door_history":"[1,1,1,0,0,0,0,0,0,1,1]","location_rts":"[2259,3115,2428,3620,1478,917,1111,1403,873,1405,1906]","trial_type":"two-door-navigation","trial_index":5,"time_elapsed":172472,"internal_node_id":"0.0-2.0-3.0"},{"group":"square cycles (cube, non-group)","room_assignment":["brown","yellow","green","pink","red","purple","blue","grey"],"door_color_assignment":["black","white"],"door_generator_assignment":[1,0],"goal":5,"start":6,"action_noise":0.1,"location_history":"[6,5]","action_history":"[0]","door_history":"[1]","location_rts":"[2309]","trial_type":"two-door-navigation","trial_index":6,"time_elapsed":179288,"internal_node_id":"0.0-2.0-4.0"},{"group":"square cycles (cube, non-group)","room_assignment":["brown","yellow","green","pink","red","purple","blue","grey"],"door_color_assignment":["black","white"],"door_generator_assignment":[1,0],"goal":4,"start":5,"action_noise":0.1,"location_history":"[5,1,0,1,0,4]","action_history":"[1,1,1,1,1]","door_history":"[0,0,0,0,0]","location_rts":"[2349,2195,867,717,1222]","trial_type":"two-door-navigation","trial_index":7,"time_elapsed":195158,"internal_node_id":"0.0-2.0-5.0"},{"group":"square cycles (cube, non-group)","room_assignment":["brown","yellow","green","pink","red","purple","blue","grey"],"door_color_assignment":["black","white"],"door_generator_assignment":[1,0],"goal":7,"start":4,"action_noise":0.1,"location_history":"[4,5,4,5,4,7]","action_history":"[1,0,0,0,0]","door_history":"[0,1,1,1,1]","location_rts":"[2404,1263,782,639,637]","trial_type":"two-door-navigation","trial_index":8,"time_elapsed":209396,"internal_node_id":"0.0-2.0-6.0"},{"group":"square cycles (cube, non-group)","room_assignment":["brown","yellow","green","pink","red","purple","blue","grey"],"door_color_assignment":["black","white"],"door_generator_assignment":[1,0],"goal":4,"start":7,"action_noise":0.1,"location_history":"[7,3,2,6,7,3,2,6,5,4]","action_history":"[1,1,1,1,1,1,1,0,0]","door_history":"[0,0,0,0,0,0,0,1,1]","location_rts":"[2197,564,701,566,980,734,667,1102,691]","trial_type":"two-door-navigation","trial_index":9,"time_elapsed":230132,"internal_node_id":"0.0-2.0-7.0"},{"group":"square cycles (cube, non-group)","room_assignment":["brown","yellow","green","pink","red","purple","blue","grey"],"door_color_assignment":["black","white"],"door_generator_assignment":[1,0],"goal":6,"start":4,"action_noise":0.1,"location_history":"[4,7,3,2,6]","action_history":"[0,1,1,1]","door_history":"[1,0,0,0]","location_rts":"[2522,1790,543,529]","trial_type":"two-door-navigation","trial_index":10,"time_elapsed":243019,"internal_node_id":"0.0-2.0-8.0"},{"group":"square cycles (cube, non-group)","room_assignment":["brown","yellow","green","pink","red","purple","blue","grey"],"door_color_assignment":["black","white"],"door_generator_assignment":[1,0],"goal":0,"start":6,"action_noise":0.1,"location_history":"[6,5,1,2,6,7,3,2,3,0]","action_history":"[0,0,0,1,1,1,1,0,0]","door_history":"[1,1,1,0,0,0,0,1,1]","location_rts":"[2284,604,980,1199,695,1335,955,1258,578]","trial_type":"two-door-navigation","trial_index":11,"time_elapsed":265437,"internal_node_id":"0.0-2.0-9.0"},{"group":"square cycles (cube, non-group)","room_assignment":["brown","yellow","green","pink","red","purple","blue","grey"],"door_color_assignment":["black","white"],"door_generator_assignment":[1,0],"goal":1,"start":0,"action_noise":0.1,"location_history":"[0,1]","action_history":"[0]","door_history":"[1]","location_rts":"[1407]","trial_type":"two-door-navigation","trial_index":12,"time_elapsed":271349,"internal_node_id":"0.0-2.0-10.0"},{"group":"square cycles (cube, non-group)","room_assignment":["brown","yellow","green","pink","red","purple","blue","grey"],"door_color_assignment":["black","white"],"door_generator_assignment":[1,0],"goal":3,"start":1,"action_noise":0.1,"location_history":"[1,0,4,5,1,0,1,2,3]","action_history":"[1,1,1,1,1,0,0,0]","door_history":"[0,0,0,0,0,1,1,1]","location_rts":"[2258,660,1249,799,727,1571,533,496]","trial_type":"two-door-navigation","trial_index":13,"time_elapsed":291154,"internal_node_id":"0.0-2.0-11.0"},{"group":"square cycles (cube, non-group)","room_assignment":["brown","yellow","green","pink","red","purple","blue","grey"],"door_color_assignment":["black","white"],"door_generator_assignment":[1,0],"goal":7,"start":3,"action_noise":0.1,"location_history":"[3,0,1,2,3,0,1,0,4,5,1,2,6,5,4,7]","action_history":"[0,0,0,0,0,1,1,1,1,1,0,1,0,0,0]","door_history":"[1,1,1,1,1,0,0,0,0,0,1,0,1,1,1]","location_rts":"[1578,535,496,727,604,1084,509,712,572,487,916,819,793,599,562]","trial_type":"two-door-navigation","trial_index":14,"time_elapsed":320700,"internal_node_id":"0.0-2.0-12.0"},{"group":"square cycles (cube, non-group)","room_assignment":["brown","yellow","green","pink","red","purple","blue","grey"],"door_color_assignment":["black","white"],"door_generator_assignment":[1,0],"goal":5,"start":7,"action_noise":0.1,"location_history":"[7,3,0,4,5]","action_history":"[1,1,1,1]","door_history":"[0,0,0,0]","location_rts":"[2712,696,549,759]","trial_type":"two-door-navigation","trial_index":15,"time_elapsed":332931,"internal_node_id":"0.0-2.0-13.0"},{"group":"square cycles (cube, non-group)","room_assignment":["brown","yellow","green","pink","red","purple","blue","grey"],"door_color_assignment":["black","white"],"door_generator_assignment":[1,0],"goal":2,"start":5,"action_noise":0.1,"location_history":"[5,4,7,6,7,3,2]","action_history":"[0,0,0,1,1,1]","door_history":"[1,1,1,0,0,0]","location_rts":"[2017,626,1028,1208,638,676]","trial_type":"two-door-navigation","trial_index":16,"time_elapsed":348642,"internal_node_id":"0.0-2.0-14.0"},{"group":"square cycles (cube, non-group)","room_assignment":["brown","yellow","green","pink","red","purple","blue","grey"],"door_color_assignment":["black","white"],"door_generator_assignment":[1,0],"goal":7,"start":2,"action_noise":0.1,"location_history":"[2,6,5,4,7]","action_history":"[1,0,0,0]","door_history":"[0,1,1,1]","location_rts":"[1699,1742,848,566]","trial_type":"two-door-navigation","trial_index":17,"time_elapsed":361006,"internal_node_id":"0.0-2.0-15.0"},{"group":"square cycles (cube, non-group)","room_assignment":["brown","yellow","green","pink","red","purple","blue","grey"],"door_color_assignment":["black","white"],"door_generator_assignment":[1,0],"goal":4,"start":7,"action_noise":0.1,"location_history":"[7,6,5,1,0,4]","action_history":"[1,1,1,1,1]","door_history":"[0,0,0,0,0]","location_rts":"[2079,626,689,774,577]","trial_type":"two-door-navigation","trial_index":18,"time_elapsed":374266,"internal_node_id":"0.0-2.0-16.0"},{"group":"square cycles (cube, non-group)","room_assignment":["brown","yellow","green","pink","red","purple","blue","grey"],"door_color_assignment":["black","white"],"door_generator_assignment":[1,0],"goal":2,"start":4,"action_noise":0.1,"location_history":"[4,7,6,5,1,0,4,5,4,5,4,7,3,2]","action_history":"[0,0,0,1,1,1,1,0,0,0,0,1,1]","door_history":"[1,1,1,0,0,0,0,1,1,1,1,0,0]","location_rts":"[1860,670,719,1108,710,568,456,1192,531,472,829,1478,495]","trial_type":"two-door-navigation","trial_index":19,"time_elapsed":401895,"internal_node_id":"0.0-2.0-17.0"},{"group":"square cycles (cube, non-group)","room_assignment":["brown","yellow","green","pink","red","purple","blue","grey"],"door_color_assignment":["black","white"],"door_generator_assignment":[1,0],"goal":3,"start":2,"action_noise":0.1,"location_history":"[2,3]","action_history":"[0]","door_history":"[1]","location_rts":"[2319]","trial_type":"two-door-navigation","trial_index":20,"time_elapsed":408718,"internal_node_id":"0.0-2.0-18.0"},{"group":"square cycles (cube, non-group)","room_assignment":["brown","yellow","green","pink","red","purple","blue","grey"],"door_color_assignment":["black","white"],"door_generator_assignment":[1,0],"goal":6,"start":3,"action_noise":0.1,"location_history":"[3,0,1,2,6]","action_history":"[0,0,0,0]","door_history":"[1,1,1,1]","location_rts":"[2346,586,528,591]","trial_type":"two-door-navigation","trial_index":21,"time_elapsed":420276,"internal_node_id":"0.0-2.0-19.0"},{"group":"square cycles (cube, non-group)","room_assignment":["brown","yellow","green","pink","red","purple","blue","grey"],"door_color_assignment":["black","white"],"door_generator_assignment":[1,0],"goal":5,"start":6,"action_noise":0.1,"location_history":"[6,5]","action_history":"[0]","door_history":"[1]","location_rts":"[1524]","trial_type":"two-door-navigation","trial_index":22,"time_elapsed":426301,"internal_node_id":"0.0-2.0-20.0"},{"group":"square cycles (cube, non-group)","room_assignment":["brown","yellow","green","pink","red","purple","blue","grey"],"door_color_assignment":["black","white"],"door_generator_assignment":[1,0],"goal":1,"start":5,"action_noise":0.1,"location_history":"[5,4,7,6,5,4,7,6,7,3,2,6,7,3,2,3,0,1]","action_history":"[0,0,0,0,0,0,1,1,1,1,1,1,1,1,0,0,0]","door_history":"[1,1,1,1,1,1,0,0,0,0,0,0,0,0,1,1,1]","location_rts":"[1863,681,592,615,789,706,1221,475,517,607,500,535,496,775,970,557,417]","trial_type":"two-door-navigation","trial_index":23,"time_elapsed":459157,"internal_node_id":"0.0-2.0-21.0"},{"group":"square cycles (cube, non-group)","room_assignment":["brown","yellow","green","pink","red","purple","blue","grey"],"door_color_assignment":["black","white"],"door_generator_assignment":[1,0],"goal":0,"start":1,"action_noise":0.1,"location_history":"[1,0]","action_history":"[0]","door_history":"[1]","location_rts":"[1397]","trial_type":"two-door-navigation","trial_index":24,"time_elapsed":465063,"internal_node_id":"0.0-2.0-22.0"},{"group":"square cycles (cube, non-group)","room_assignment":["brown","yellow","green","pink","red","purple","blue","grey"],"door_color_assignment":["black","white"],"door_generator_assignment":[1,0],"goal":2,"start":0,"action_noise":0.1,"location_history":"[0,1,0,1,2]","action_history":"[0,0,0,0]","door_history":"[1,1,1,1]","location_rts":"[3159,544,539,542]","trial_type":"two-door-navigation","trial_index":25,"time_elapsed":477364,"internal_node_id":"0.0-2.0-23.0"},{"group":"square cycles (cube, non-group)","room_assignment":["brown","yellow","green","pink","red","purple","blue","grey"],"door_color_assignment":["black","white"],"door_generator_assignment":[1,0],"goal":6,"start":2,"action_noise":0.1,"location_history":"[2,3,0,1,2,3,0,4,5,4,5,1,0,4,7,6]","action_history":"[0,0,0,0,0,0,1,1,1,1,1,1,1,0,0]","door_history":"[1,1,1,1,1,1,0,0,0,0,0,0,0,1,1]","location_rts":"[1859,549,773,814,1302,746,973,462,516,570,607,647,782,970,714]","trial_type":"two-door-navigation","trial_index":26,"time_elapsed":508196,"internal_node_id":"0.0-2.0-24.0"},{"group":"square cycles (cube, non-group)","room_assignment":["brown","yellow","green","pink","red","purple","blue","grey"],"door_color_assignment":["black","white"],"door_generator_assignment":[1,0],"goal":1,"start":6,"action_noise":0.1,"location_history":"[6,5,4,7,6,5,4,5,1]","action_history":"[0,0,0,0,0,0,1,1]","door_history":"[1,1,1,1,1,1,0,0]","location_rts":"[1463,583,478,581,792,854,1110,505]","trial_type":"two-door-navigation","trial_index":27,"time_elapsed":526075,"internal_node_id":"0.0-2.0-25.0"},{"group":"square cycles (cube, non-group)","room_assignment":["brown","yellow","green","pink","red","purple","blue","grey"],"door_color_assignment":["black","white"],"door_generator_assignment":[1,0],"goal":3,"start":1,"action_noise":0.1,"location_history":"[1,2,3]","action_history":"[0,0]","door_history":"[1,1]","location_rts":"[2060,462]","trial_type":"two-door-navigation","trial_index":28,"time_elapsed":534107,"internal_node_id":"0.0-2.0-26.0"},{"group":"square cycles (cube, non-group)","room_assignment":["brown","yellow","green","pink","red","purple","blue","grey"],"door_color_assignment":["black","white"],"door_generator_assignment":[1,0],"goal":7,"start":3,"action_noise":0.1,"location_history":"[3,0,1,2,3,0,1,0,4,5,1,0,4,5,1,0,4,7]","action_history":"[0,0,0,0,0,0,1,1,1,1,1,1,1,1,1,1,0]","door_history":"[1,1,1,1,1,1,0,0,0,0,0,0,0,0,0,0,1]","location_rts":"[1242,486,473,601,674,751,996,400,543,527,467,509,477,462,496,704,874]","trial_type":"two-door-navigation","trial_index":29,"time_elapsed":565418,"internal_node_id":"0.0-2.0-27.0"},{"group":"square cycles (cube, non-group)","room_assignment":["brown","yellow","green","pink","red","purple","blue","grey"],"door_color_assignment":["black","white"],"door_generator_assignment":[1,0],"goal":4,"start":7,"action_noise":0.1,"location_history":"[7,3,2,6,7,3,2,6,7,6,5,4]","action_history":"[1,1,1,1,1,1,1,1,0,0,0]","door_history":"[0,0,0,0,0,0,0,0,1,1,1]","location_rts":"[2201,465,616,506,637,598,542,752,1518,488,558]","trial_type":"two-door-navigation","trial_index":30,"time_elapsed":588843,"internal_node_id":"0.0-2.0-28.0"},{"group":"square cycles (cube, non-group)","room_assignment":["brown","yellow","green","pink","red","purple","blue","grey"],"door_color_assignment":["black","white"],"door_generator_assignment":[1,0],"goal":0,"start":4,"action_noise":0.1,"location_history":"[4,7,6,7,6,7,3,0]","action_history":"[0,0,0,0,1,1,1]","door_history":"[1,1,1,1,0,0,0]","location_rts":"[2604,757,544,1024,974,978,1072]","trial_type":"two-door-navigation","trial_index":31,"time_elapsed":607313,"internal_node_id":"0.0-2.0-29.0"},{"group":"square cycles (cube, non-group)","room_assignment":["brown","yellow","green","pink","red","purple","blue","grey"],"door_color_assignment":["black","white"],"door_generator_assignment":[1,0],"goal":5,"start":0,"action_noise":0.1,"location_history":"[0,1,2,3,0,1,2,3,2,6,7,3,2,6,7,6,5]","action_history":"[0,0,0,0,0,1,1,1,1,1,1,1,1,1,0,0]","door_history":"[1,1,1,1,1,0,0,0,0,0,0,0,0,0,1,1]","location_rts":"[2182,1227,652,901,767,1083,552,681,918,518,532,967,578,732,1843,589]","trial_type":"two-door-navigation","trial_index":32,"time_elapsed":641592,"internal_node_id":"0.0-2.0-30.0"},{"group":"square cycles (cube, non-group)","room_assignment":["brown","yellow","green","pink","red","purple","blue","grey"],"door_color_assignment":["black","white"],"door_generator_assignment":[1,0],"goal":3,"start":5,"action_noise":0.1,"location_history":"[5,1,2,3]","action_history":"[0,0,0]","door_history":"[1,1,1]","location_rts":"[1389,1110,472]","trial_type":"two-door-navigation","trial_index":33,"time_elapsed":651084,"internal_node_id":"0.0-2.0-31.0"},{"group":"square cycles (cube, non-group)","room_assignment":["brown","yellow","green","pink","red","purple","blue","grey"],"door_color_assignment":["black","white"],"door_generator_assignment":[1,0],"goal":2,"start":3,"action_noise":0.1,"location_history":"[3,0,1,2]","action_history":"[0,0,0]","door_history":"[1,1,1]","location_rts":"[1360,631,535]","trial_type":"two-door-navigation","trial_index":34,"time_elapsed":660123,"internal_node_id":"0.0-2.0-32.0"},{"group":"square cycles (cube, non-group)","room_assignment":["brown","yellow","green","pink","red","purple","blue","grey"],"door_color_assignment":["black","white"],"door_generator_assignment":[1,0],"goal":6,"start":2,"action_noise":0.1,"location_history":"[2,3,0,1,2,6]","action_history":"[0,0,0,0,1]","door_history":"[1,1,1,1,0]","location_rts":"[1738,809,983,978,1032]","trial_type":"two-door-navigation","trial_index":35,"time_elapsed":674179,"internal_node_id":"0.0-2.0-33.0"},{"group":"square cycles (cube, non-group)","room_assignment":["brown","yellow","green","pink","red","purple","blue","grey"],"door_color_assignment":["black","white"],"door_generator_assignment":[1,0],"goal":1,"start":6,"action_noise":0.1,"location_history":"[6,5,4,7,6,7,3,2,6,7,3,2,3,2,6,5,4,7,6,5,4,7,6,7,3,2,6,7,3,2,6,5,4,7,6,7,6,5,4,7,3,2,3,0,1]","action_history":"[0,0,0,0,1,1,1,1,1,1,1,1,1,1,0,0,0,0,0,0,0,0,1,1,1,1,1,1,1,1,0,0,0,0,1,0,1,0,0,1,1,0,0,0]","door_history":"[1,1,1,1,0,0,0,0,0,0,0,0,0,0,1,1,1,1,1,1,1,1,0,0,0,0,0,0,0,0,1,1,1,1,0,1,0,1,1,0,0,1,1,1]","location_rts":"[2338,1059,628,1236,829,475,515,436,445,482,441,531,458,501,1000,519,532,470,541,558,486,657,1064,407,508,430,470,456,536,762,783,529,428,511,1212,482,479,375,517,430,372,422,397,399]","trial_type":"two-door-navigation","trial_index":36,"time_elapsed":748931,"internal_node_id":"0.0-2.0-34.0"},{"group":"square cycles (cube, non-group)","room_assignment":["brown","yellow","green","pink","red","purple","blue","grey"],"door_color_assignment":["black","white"],"door_generator_assignment":[1,0],"goal":7,"start":1,"action_noise":0.1,"location_history":"[1,2,3,0,1,2,6,5,1,0,4,5,1,2,6,7]","action_history":"[0,0,0,0,0,0,0,1,1,1,1,1,1,1,1]","door_history":"[1,1,1,1,1,1,1,0,0,0,0,0,0,0,0]","location_rts":"[2026,593,370,365,454,465,532,1177,568,507,447,461,622,460,446]","trial_type":"two-door-navigation","trial_index":37,"time_elapsed":776967,"internal_node_id":"0.0-2.0-35.0"},{"group":"square cycles (cube, non-group)","room_assignment":["brown","yellow","green","pink","red","purple","blue","grey"],"door_color_assignment":["black","white"],"door_generator_assignment":[1,0],"goal":4,"start":7,"action_noise":0.1,"location_history":"[7,3,2,6,7,3,0,1,2,3,0,1,2,6,7,3,2,3,2,3,0,1,2,3,0,1,2,3,0,4]","action_history":"[1,1,1,1,1,0,0,0,0,0,0,1,1,1,1,1,1,1,0,0,0,0,0,0,0,0,0,0,1]","door_history":"[0,0,0,0,0,1,1,1,1,1,1,0,0,0,0,0,0,0,1,1,1,1,1,1,1,1,1,1,0]","location_rts":"[1453,472,527,478,658,1169,932,472,402,452,531,1148,551,401,421,375,344,462,874,517,409,461,471,406,446,325,759,383,969]","trial_type":"two-door-navigation","trial_index":38,"time_elapsed":826856,"internal_node_id":"0.0-2.0-36.0"},{"group":"square cycles (cube, non-group)","room_assignment":["brown","yellow","green","pink","red","purple","blue","grey"],"door_color_assignment":["black","white"],"door_generator_assignment":[1,0],"goal":5,"start":4,"action_noise":0.1,"location_history":"[4,5]","action_history":"[1]","door_history":"[0]","location_rts":"[1485]","trial_type":"two-door-navigation","trial_index":39,"time_elapsed":832862,"internal_node_id":"0.0-2.0-37.0"},{"group":"square cycles (cube, non-group)","room_assignment":["brown","yellow","green","pink","red","purple","blue","grey"],"door_color_assignment":["black","white"],"door_generator_assignment":[1,0],"goal":0,"start":5,"action_noise":0.1,"location_history":"[5,4,7,6,5,4,7,3,2,6,7,3,2,6,7,3,0]","action_history":"[0,0,0,0,0,0,1,1,1,1,1,1,1,1,1,0]","door_history":"[1,1,1,1,1,1,0,0,0,0,0,0,0,0,0,1]","location_rts":"[1866,391,458,423,495,519,1302,473,476,367,736,465,478,473,698,1003]","trial_type":"two-door-navigation","trial_index":40,"time_elapsed":863008,"internal_node_id":"0.0-2.0-38.0"},{"group":"square cycles (cube, non-group)","room_assignment":["brown","yellow","green","pink","red","purple","blue","grey"],"door_color_assignment":["black","white"],"door_generator_assignment":[1,0],"goal":4,"start":0,"action_noise":0.1,"location_history":"[0,4]","action_history":"[1]","door_history":"[0]","location_rts":"[2134]","trial_type":"two-door-navigation","trial_index":41,"time_elapsed":869690,"internal_node_id":"0.0-2.0-39.0"},{"group":"square cycles (cube, non-group)","room_assignment":["brown","yellow","green","pink","red","purple","blue","grey"],"door_color_assignment":["black","white"],"door_generator_assignment":[1,0],"goal":0,"start":4,"action_noise":0.1,"location_history":"[4,5,1,0]","action_history":"[1,1,1]","door_history":"[0,0,0]","location_rts":"[1525,588,465]","trial_type":"two-door-navigation","trial_index":42,"time_elapsed":878788,"internal_node_id":"0.0-2.0-40.0"},{"group":"square cycles (cube, non-group)","room_assignment":["brown","yellow","green","pink","red","purple","blue","grey"],"door_color_assignment":["black","white"],"door_generator_assignment":[1,0],"goal":2,"start":0,"action_noise":0.1,"location_history":"[0,1,2]","action_history":"[0,0]","door_history":"[1,1]","location_rts":"[1623,523]","trial_type":"two-door-navigation","trial_index":43,"time_elapsed":886438,"internal_node_id":"0.0-2.0-41.0"},{"group":"square cycles (cube, non-group)","room_assignment":["brown","yellow","green","pink","red","purple","blue","grey"],"door_color_assignment":["black","white"],"door_generator_assignment":[1,0],"goal":3,"start":2,"action_noise":0.1,"location_history":"[2,3]","action_history":"[0]","door_history":"[1]","location_rts":"[1448]","trial_type":"two-door-navigation","trial_index":44,"time_elapsed":892388,"internal_node_id":"0.0-2.0-42.0"},{"group":"square cycles (cube, non-group)","room_assignment":["brown","yellow","green","pink","red","purple","blue","grey"],"door_color_assignment":["black","white"],"door_generator_assignment":[1,0],"goal":5,"start":3,"action_noise":0.1,"location_history":"[3,0,1,2,3,0,4,7,3,2,6,5]","action_history":"[0,0,0,0,0,0,0,1,1,1,1]","door_history":"[1,1,1,1,1,1,1,0,0,0,0]","location_rts":"[1587,628,550,563,631,606,900,906,429,526,439]","trial_type":"two-door-navigation","trial_index":45,"time_elapsed":914685,"internal_node_id":"0.0-2.0-43.0"},{"group":"square cycles (cube, non-group)","room_assignment":["brown","yellow","green","pink","red","purple","blue","grey"],"door_color_assignment":["black","white"],"door_generator_assignment":[1,0],"goal":1,"start":5,"action_noise":0.1,"location_history":"[5,1]","action_history":"[0]","door_history":"[1]","location_rts":"[1851]","trial_type":"two-door-navigation","trial_index":46,"time_elapsed":921039,"internal_node_id":"0.0-2.0-44.0"},{"group":"square cycles (cube, non-group)","room_assignment":["brown","yellow","green","pink","red","purple","blue","grey"],"door_color_assignment":["black","white"],"door_generator_assignment":[1,0],"goal":7,"start":1,"action_noise":0.1,"location_history":"[1,2,6,7]","action_history":"[0,0,0]","door_history":"[1,1,1]","location_rts":"[1214,519,382]","trial_type":"two-door-navigation","trial_index":47,"time_elapsed":929662,"internal_node_id":"0.0-2.0-45.0"},{"group":"square cycles (cube, non-group)","room_assignment":["brown","yellow","green","pink","red","purple","blue","grey"],"door_color_assignment":["black","white"],"door_generator_assignment":[1,0],"goal":6,"start":7,"action_noise":0.1,"location_history":"[7,3,2,6]","action_history":"[1,1,1]","door_history":"[0,0,0]","location_rts":"[1786,450,414]","trial_type":"two-door-navigation","trial_index":48,"time_elapsed":938823,"internal_node_id":"0.0-2.0-46.0"},{"group":"square cycles (cube, non-group)","room_assignment":["brown","yellow","green","pink","red","purple","blue","grey"],"door_color_assignment":["black","white"],"door_generator_assignment":[1,0],"goal":3,"start":6,"action_noise":0.1,"location_history":"[6,5,1,0,4,5,1,0,1,2,3]","action_history":"[1,1,1,1,1,1,1,0,0,0]","door_history":"[0,0,0,0,0,0,0,1,1,1]","location_rts":"[1542,550,453,487,461,609,459,765,441,459]","trial_type":"two-door-navigation","trial_index":49,"time_elapsed":958614,"internal_node_id":"0.0-2.0-47.0"},{"group":"square cycles (cube, non-group)","room_assignment":["brown","yellow","green","pink","red","purple","blue","grey"],"door_color_assignment":["black","white"],"door_generator_assignment":[1,0],"goal":0,"start":3,"action_noise":0.1,"location_history":"[3,0]","action_history":"[0]","door_history":"[1]","location_rts":"[1264]","trial_type":"two-door-navigation","trial_index":50,"time_elapsed":964383,"internal_node_id":"0.0-2.0-48.0"},{"group":"square cycles (cube, non-group)","room_assignment":["brown","yellow","green","pink","red","purple","blue","grey"],"door_color_assignment":["black","white"],"door_generator_assignment":[1,0],"goal":2,"start":0,"action_noise":0.1,"location_history":"[0,4,5,1,0,4,5,4,7,6,5,4,7,6,7,3,0,4,5,4,7,3,0,1,2]","action_history":"[1,1,1,1,1,1,0,0,0,0,0,0,1,1,1,1,1,1,0,0,0,0,0,0]","door_history":"[0,0,0,0,0,0,1,1,1,1,1,1,0,0,0,0,0,0,1,1,1,1,1,1]","location_rts":"[1544,403,420,477,404,622,1006,354,487,414,463,438,1054,389,456,458,350,469,857,472,422,472,428,566]","trial_type":"two-door-navigation","trial_index":51,"time_elapsed":1005388,"internal_node_id":"0.0-2.0-49.0"},{"view_history":"[{\"page_index\":0,\"viewing_time\":4096}]","rt":4096,"trial_type":"instructions","trial_index":52,"time_elapsed":1010488,"internal_node_id":"0.0-3.0"},{"view_history":"[{\"page_index\":0,\"viewing_time\":15903},{\"page_index\":1,\"viewing_time\":166369}]","rt":182273,"trial_type":"instructions","trial_index":53,"time_elapsed":1193760,"internal_node_id":"0.0-4.0"},{"group":"square cycles (cube, non-group)","fractal_assignment":["../images/pnk_blu.png","../images/org_blu.png","../images/ylw_pnk.png","../images/blu_wht.png","../images/ylw_slt.png","../images/cyn_red.png","../images/gry_blk.png","../images/grn_red.png"],"mutagen_generator_assignment":[1,0],"goal":3,"start":0,"action_noise":0.1,"location_history":"[0,4,7,3]","action_history":"[1,1,1]","mutagen_history":"[0,0,0]","location_rts":"[16165,7057,6087]","trial_type":"fractal-mutation","trial_index":54,"time_elapsed":1229613,"internal_node_id":"0.0-5.0-0.0"},{"group":"square cycles (cube, non-group)","fractal_assignment":["../images/pnk_blu.png","../images/org_blu.png","../images/ylw_pnk.png","../images/blu_wht.png","../images/ylw_slt.png","../images/cyn_red.png","../images/gry_blk.png","../images/grn_red.png"],"mutagen_generator_assignment":[1,0],"goal":1,"start":3,"action_noise":0.1,"location_history":"[3,2,3,0,1]","action_history":"[1,0,0,1]","mutagen_history":"[0,1,1,0]","location_rts":"[3273,4602,2351,1857]","trial_type":"fractal-mutation","trial_index":55,"time_elapsed":1249284,"internal_node_id":"0.0-5.0-1.0"},{"group":"square cycles (cube, non-group)","fractal_assignment":["../images/pnk_blu.png","../images/org_blu.png","../images/ylw_pnk.png","../images/blu_wht.png","../images/ylw_slt.png","../images/cyn_red.png","../images/gry_blk.png","../images/grn_red.png"],"mutagen_generator_assignment":[1,0],"goal":2,"start":1,"action_noise":0.1,"location_history":"[1,0,1,2]","action_history":"[1,0,0]","mutagen_history":"[0,1,1]","location_rts":"[3583,2687,2255]","trial_type":"fractal-mutation","trial_index":56,"time_elapsed":1264402,"internal_node_id":"0.0-5.0-2.0"},{"group":"square cycles (cube, non-group)","fractal_assignment":["../images/pnk_blu.png","../images/org_blu.png","../images/ylw_pnk.png","../images/blu_wht.png","../images/ylw_slt.png","../images/cyn_red.png","../images/gry_blk.png","../images/grn_red.png"],"mutagen_generator_assignment":[1,0],"goal":6,"start":2,"action_noise":0.1,"location_history":"[2,3,2,3,0,1,0,4,5,1,0,1,0,1,2,6]","action_history":"[0,1,0,0,0,1,1,1,1,1,0,0,0,0,1]","mutagen_history":"[1,0,1,1,1,0,0,0,0,0,1,1,1,1,0]","location_rts":"[1331,1877,988,1156,1383,1411,1669,981,757,824,909,498,662,502,519]","trial_type":"fractal-mutation","trial_index":57,"time_elapsed":1298628,"internal_node_id":"0.0-5.0-3.0"},{"group":"square cycles (cube, non-group)","fractal_assignment":["../images/pnk_blu.png","../images/org_blu.png","../images/ylw_pnk.png","../images/blu_wht.png","../images/ylw_slt.png","../images/cyn_red.png","../images/gry_blk.png","../images/grn_red.png"],"mutagen_generator_assignment":[1,0],"goal":5,"start":6,"action_noise":0.1,"location_history":"[6,5]","action_history":"[0]","mutagen_history":"[1]","location_rts":"[1159]","trial_type":"fractal-mutation","trial_index":58,"time_elapsed":1304315,"internal_node_id":"0.0-5.0-4.0"},{"group":"square cycles (cube, non-group)","fractal_assignment":["../images/pnk_blu.png","../images/org_blu.png","../images/ylw_pnk.png","../images/blu_wht.png","../images/ylw_slt.png","../images/cyn_red.png","../images/gry_blk.png","../images/grn_red.png"],"mutagen_generator_assignment":[1,0],"goal":4,"start":5,"action_noise":0.1,"location_history":"[5,4]","action_history":"[0]","mutagen_history":"[1]","location_rts":"[746]","trial_type":"fractal-mutation","trial_index":59,"time_elapsed":1309596,"internal_node_id":"0.0-5.0-5.0"},{"group":"square cycles (cube, non-group)","fractal_assignment":["../images/pnk_blu.png","../images/org_blu.png","../images/ylw_pnk.png","../images/blu_wht.png","../images/ylw_slt.png","../images/cyn_red.png","../images/gry_blk.png","../images/grn_red.png"],"mutagen_generator_assignment":[1,0],"goal":7,"start":4,"action_noise":0.1,"location_history":"[4,7]","action_history":"[0]","mutagen_history":"[1]","location_rts":"[896]","trial_type":"fractal-mutation","trial_index":60,"time_elapsed":1315012,"internal_node_id":"0.0-5.0-6.0"},{"group":"square cycles (cube, non-group)","fractal_assignment":["../images/pnk_blu.png","../images/org_blu.png","../images/ylw_pnk.png","../images/blu_wht.png","../images/ylw_slt.png","../images/cyn_red.png","../images/gry_blk.png","../images/grn_red.png"],"mutagen_generator_assignment":[1,0],"goal":4,"start":7,"action_noise":0.1,"location_history":"[7,6,7,6,7,3,2,3,0,1,0,1,2,3,2,6,7,6,7,6,5,4]","action_history":"[0,1,0,1,1,1,0,0,1,1,0,0,0,1,1,1,0,1,1,0,0]","mutagen_history":"[1,0,1,0,0,0,1,1,0,0,1,1,1,0,0,0,1,0,0,1,1]","location_rts":"[842,1858,696,1088,1199,893,1068,1007,818,764,1483,1609,755,718,1196,906,502,375,506,395,373]","trial_type":"fractal-mutation","trial_index":61,"time_elapsed":1358879,"internal_node_id":"0.0-5.0-7.0"},{"group":"square cycles (cube, non-group)","fractal_assignment":["../images/pnk_blu.png","../images/org_blu.png","../images/ylw_pnk.png","../images/blu_wht.png","../images/ylw_slt.png","../images/cyn_red.png","../images/gry_blk.png","../images/grn_red.png"],"mutagen_generator_assignment":[1,0],"goal":6,"start":4,"action_noise":0.1,"location_history":"[4,7,6]","action_history":"[0,0]","mutagen_history":"[1,1]","location_rts":"[603,645]","trial_type":"fractal-mutation","trial_index":62,"time_elapsed":1365683,"internal_node_id":"0.0-5.0-8.0"},{"group":"square cycles (cube, non-group)","fractal_assignment":["../images/pnk_blu.png","../images/org_blu.png","../images/ylw_pnk.png","../images/blu_wht.png","../images/ylw_slt.png","../images/cyn_red.png","../images/gry_blk.png","../images/grn_red.png"],"mutagen_generator_assignment":[1,0],"goal":0,"start":6,"action_noise":0.1,"location_history":"[6,7,6,5,4,7,6,5,1,0]","action_history":"[1,0,0,0,1,0,0,0,1]","mutagen_history":"[0,1,1,1,0,1,1,1,0]","location_rts":"[1528,876,1457,1206,1435,711,1117,739,1325]","trial_type":"fractal-mutation","trial_index":63,"time_elapsed":1388771,"internal_node_id":"0.0-5.0-9.0"},{"group":"square cycles (cube, non-group)","fractal_assignment":["../images/pnk_blu.png","../images/org_blu.png","../images/ylw_pnk.png","../images/blu_wht.png","../images/ylw_slt.png","../images/cyn_red.png","../images/gry_blk.png","../images/grn_red.png"],"mutagen_generator_assignment":[1,0],"goal":1,"start":0,"action_noise":0.1,"location_history":"[0,4,5,1]","action_history":"[1,1,1]","mutagen_history":"[0,0,0]","location_rts":"[1512,658,424]","trial_type":"fractal-mutation","trial_index":64,"time_elapsed":1397895,"internal_node_id":"0.0-5.0-10.0"},{"group":"square cycles (cube, non-group)","fractal_assignment":["../images/pnk_blu.png","../images/org_blu.png","../images/ylw_pnk.png","../images/blu_wht.png","../images/ylw_slt.png","../images/cyn_red.png","../images/gry_blk.png","../images/grn_red.png"],"mutagen_generator_assignment":[1,0],"goal":3,"start":1,"action_noise":0.1,"location_history":"[1,0,4,5,1,2,3]","action_history":"[1,1,1,1,0,0]","mutagen_history":"[0,0,0,0,1,1]","location_rts":"[614,759,914,489,1268,616]","trial_type":"fractal-mutation","trial_index":65,"time_elapsed":1412164,"internal_node_id":"0.0-5.0-11.0"},{"group":"square cycles (cube, non-group)","fractal_assignment":["../images/pnk_blu.png","../images/org_blu.png","../images/ylw_pnk.png","../images/blu_wht.png","../images/ylw_slt.png","../images/cyn_red.png","../images/gry_blk.png","../images/grn_red.png"],"mutagen_generator_assignment":[1,0],"goal":7,"start":3,"action_noise":0.1,"location_history":"[3,0,1,2,3,0,4,5,4,7]","action_history":"[0,0,0,0,0,1,1,0,0]","mutagen_history":"[1,1,1,1,1,0,0,1,1]","location_rts":"[1300,1197,829,820,1104,1200,520,396,1893]","trial_type":"fractal-mutation","trial_index":66,"time_elapsed":1434123,"internal_node_id":"0.0-5.0-12.0"},{"group":"square cycles (cube, non-group)","fractal_assignment":["../images/pnk_blu.png","../images/org_blu.png","../images/ylw_pnk.png","../images/blu_wht.png","../images/ylw_slt.png","../images/cyn_red.png","../images/gry_blk.png","../images/grn_red.png"],"mutagen_generator_assignment":[1,0],"goal":5,"start":7,"action_noise":0.1,"location_history":"[7,6,5]","action_history":"[0,0]","mutagen_history":"[1,1]","location_rts":"[2595,844]","trial_type":"fractal-mutation","trial_index":67,"time_elapsed":1443114,"internal_node_id":"0.0-5.0-13.0"},{"group":"square cycles (cube, non-group)","fractal_assignment":["../images/pnk_blu.png","../images/org_blu.png","../images/ylw_pnk.png","../images/blu_wht.png","../images/ylw_slt.png","../images/cyn_red.png","../images/gry_blk.png","../images/grn_red.png"],"mutagen_generator_assignment":[1,0],"goal":2,"start":5,"action_noise":0.1,"location_history":"[5,4,7,6,7,6,5,1,0,4,7,3,2]","action_history":"[0,0,0,1,0,0,1,1,1,0,1,1]","mutagen_history":"[1,1,1,0,1,1,0,0,0,1,0,0]","location_rts":"[570,2162,662,959,721,732,385,1432,1112,703,480,771]","trial_type":"fractal-mutation","trial_index":68,"time_elapsed":1469515,"internal_node_id":"0.0-5.0-14.0"},{"group":"square cycles (cube, non-group)","fractal_assignment":["../images/pnk_blu.png","../images/org_blu.png","../images/ylw_pnk.png","../images/blu_wht.png","../images/ylw_slt.png","../images/cyn_red.png","../images/gry_blk.png","../images/grn_red.png"],"mutagen_generator_assignment":[1,0],"goal":7,"start":2,"action_noise":0.1,"location_history":"[2,6,7]","action_history":"[1,1]","mutagen_history":"[0,0]","location_rts":"[836,930]","trial_type":"fractal-mutation","trial_index":69,"time_elapsed":1476807,"internal_node_id":"0.0-5.0-15.0"},{"group":"square cycles (cube, non-group)","fractal_assignment":["../images/pnk_blu.png","../images/org_blu.png","../images/ylw_pnk.png","../images/blu_wht.png","../images/ylw_slt.png","../images/cyn_red.png","../images/gry_blk.png","../images/grn_red.png"],"mutagen_generator_assignment":[1,0],"goal":4,"start":7,"action_noise":0.1,"location_history":"[7,3,2,6,7,3,2,3,2,6,5,1,0,1,2,6,7,6,5,1,0,1,2,3,0,4]","action_history":"[1,1,1,1,0,1,0,0,0,0,1,1,0,0,1,1,0,0,1,1,0,0,0,0,0]","mutagen_history":"[0,0,0,0,1,0,1,1,1,1,0,0,1,1,0,0,1,1,0,0,1,1,1,1,1]","location_rts":"[748,805,531,711,711,1527,820,804,632,636,513,1026,461,474,590,560,454,495,437,729,642,347,455,454,582]","trial_type":"fractal-mutation","trial_index":70,"time_elapsed":1521874,"internal_node_id":"0.0-5.0-16.0"},{"group":"square cycles (cube, non-group)","fractal_assignment":["../images/pnk_blu.png","../images/org_blu.png","../images/ylw_pnk.png","../images/blu_wht.png","../images/ylw_slt.png","../images/cyn_red.png","../images/gry_blk.png","../images/grn_red.png"],"mutagen_generator_assignment":[1,0],"goal":2,"start":4,"action_noise":0.1,"location_history":"[4,5,4,7,3,2]","action_history":"[1,0,0,1,1]","mutagen_history":"[0,1,1,0,0]","location_rts":"[3505,1262,1317,607,584]","trial_type":"fractal-mutation","trial_index":71,"time_elapsed":1537723,"internal_node_id":"0.0-5.0-17.0"},{"group":"square cycles (cube, non-group)","fractal_assignment":["../images/pnk_blu.png","../images/org_blu.png","../images/ylw_pnk.png","../images/blu_wht.png","../images/ylw_slt.png","../images/cyn_red.png","../images/gry_blk.png","../images/grn_red.png"],"mutagen_generator_assignment":[1,0],"goal":3,"start":2,"action_noise":0.1,"location_history":"[2,6,7,6,5,4,7,6,7,3]","action_history":"[1,1,0,0,0,0,0,1,1]","mutagen_history":"[0,0,1,1,1,1,1,0,0]","location_rts":"[651,1745,1018,699,905,1567,1205,878,988]","trial_type":"fractal-mutation","trial_index":72,"time_elapsed":1560046,"internal_node_id":"0.0-5.0-18.0"},{"group":"square cycles (cube, non-group)","fractal_assignment":["../images/pnk_blu.png","../images/org_blu.png","../images/ylw_pnk.png","../images/blu_wht.png","../images/ylw_slt.png","../images/cyn_red.png","../images/gry_blk.png","../images/grn_red.png"],"mutagen_generator_assignment":[1,0],"goal":6,"start":3,"action_noise":0.1,"location_history":"[3,0,1,2,3,2,6]","action_history":"[0,0,0,0,1,1]","mutagen_history":"[1,1,1,1,0,0]","location_rts":"[2053,1536,743,858,1402,726]","trial_type":"fractal-mutation","trial_index":73,"time_elapsed":1576989,"internal_node_id":"0.0-5.0-19.0"},{"group":"square cycles (cube, non-group)","fractal_assignment":["../images/pnk_blu.png","../images/org_blu.png","../images/ylw_pnk.png","../images/blu_wht.png","../images/ylw_slt.png","../images/cyn_red.png","../images/gry_blk.png","../images/grn_red.png"],"mutagen_generator_assignment":[1,0],"goal":5,"start":6,"action_noise":0.1,"location_history":"[6,5]","action_history":"[0]","mutagen_history":"[1]","location_rts":"[1677]","trial_type":"fractal-mutation","trial_index":74,"time_elapsed":1583197,"internal_node_id":"0.0-5.0-20.0"},{"group":"square cycles (cube, non-group)","fractal_assignment":["../images/pnk_blu.png","../images/org_blu.png","../images/ylw_pnk.png","../images/blu_wht.png","../images/ylw_slt.png","../images/cyn_red.png","../images/gry_blk.png","../images/grn_red.png"],"mutagen_generator_assignment":[1,0],"goal":1,"start":5,"action_noise":0.1,"location_history":"[5,4,7,6,5,4,7,3,2,6,5,4,5,1]","action_history":"[0,0,0,0,0,0,1,1,1,1,0,1,1]","mutagen_history":"[1,1,1,1,1,1,0,0,0,0,1,0,0]","location_rts":"[2090,1496,712,735,1888,1144,1195,921,990,685,825,1363,571]","trial_type":"fractal-mutation","trial_index":75,"time_elapsed":1614543,"internal_node_id":"0.0-5.0-21.0"},{"group":"square cycles (cube, non-group)","fractal_assignment":["../images/pnk_blu.png","../images/org_blu.png","../images/ylw_pnk.png","../images/blu_wht.png","../images/ylw_slt.png","../images/cyn_red.png","../images/gry_blk.png","../images/grn_red.png"],"mutagen_generator_assignment":[1,0],"goal":0,"start":1,"action_noise":0.1,"location_history":"[1,0]","action_history":"[1]","mutagen_history":"[0]","location_rts":"[1117]","trial_type":"fractal-mutation","trial_index":76,"time_elapsed":1620168,"internal_node_id":"0.0-5.0-22.0"},{"group":"square cycles (cube, non-group)","fractal_assignment":["../images/pnk_blu.png","../images/org_blu.png","../images/ylw_pnk.png","../images/blu_wht.png","../images/ylw_slt.png","../images/cyn_red.png","../images/gry_blk.png","../images/grn_red.png"],"mutagen_generator_assignment":[1,0],"goal":2,"start":0,"action_noise":0.1,"location_history":"[0,4,5,1,2]","action_history":"[1,1,0,0]","mutagen_history":"[0,0,1,1]","location_rts":"[765,913,1442,1736]","trial_type":"fractal-mutation","trial_index":77,"time_elapsed":1632593,"internal_node_id":"0.0-5.0-23.0"},{"group":"square cycles (cube, non-group)","fractal_assignment":["../images/pnk_blu.png","../images/org_blu.png","../images/ylw_pnk.png","../images/blu_wht.png","../images/ylw_slt.png","../images/cyn_red.png","../images/gry_blk.png","../images/grn_red.png"],"mutagen_generator_assignment":[1,0],"goal":6,"start":2,"action_noise":0.1,"location_history":"[2,6]","action_history":"[1]","mutagen_history":"[0]","location_rts":"[1987]","trial_type":"fractal-mutation","trial_index":78,"time_elapsed":1639090,"internal_node_id":"0.0-5.0-24.0"},{"group":"square cycles (cube, non-group)","fractal_assignment":["../images/pnk_blu.png","../images/org_blu.png","../images/ylw_pnk.png","../images/blu_wht.png","../images/ylw_slt.png","../images/cyn_red.png","../images/gry_blk.png","../images/grn_red.png"],"mutagen_generator_assignment":[1,0],"goal":1,"start":6,"action_noise":0.1,"location_history":"[6,7,3,2,6,7,6,5,4,7,3,0,4,5,1]","action_history":"[1,1,1,1,1,0,0,0,0,1,0,1,1,1]","mutagen_history":"[0,0,0,0,0,1,1,1,1,0,1,0,0,0]","location_rts":"[1203,2091,828,1132,745,714,847,1487,2007,628,1568,1090,736,1573]","trial_type":"fractal-mutation","trial_index":79,"time_elapsed":1673435,"internal_node_id":"0.0-5.0-25.0"},{"group":"square cycles (cube, non-group)","fractal_assignment":["../images/pnk_blu.png","../images/org_blu.png","../images/ylw_pnk.png","../images/blu_wht.png","../images/ylw_slt.png","../images/cyn_red.png","../images/gry_blk.png","../images/grn_red.png"],"mutagen_generator_assignment":[1,0],"goal":3,"start":1,"action_noise":0.1,"location_history":"[1,0,1,2,6,5,1,2,3]","action_history":"[1,1,0,1,1,1,0,0]","mutagen_history":"[0,0,1,0,0,0,1,1]","location_rts":"[1312,886,886,1215,737,826,2185,678]","trial_type":"fractal-mutation","trial_index":80,"time_elapsed":1693805,"internal_node_id":"0.0-5.0-26.0"},{"group":"square cycles (cube, non-group)","fractal_assignment":["../images/pnk_blu.png","../images/org_blu.png","../images/ylw_pnk.png","../images/blu_wht.png","../images/ylw_slt.png","../images/cyn_red.png","../images/gry_blk.png","../images/grn_red.png"],"mutagen_generator_assignment":[1,0],"goal":7,"start":3,"action_noise":0.1,"location_history":"[3,0,1,2,3,2,6,5,1,2,3,2,6,7]","action_history":"[0,0,0,0,1,1,0,1,0,0,1,0,0]","mutagen_history":"[1,1,1,1,0,0,1,0,1,1,0,1,1]","location_rts":"[745,788,793,695,1080,758,702,1141,1781,624,505,432,498]","trial_type":"fractal-mutation","trial_index":81,"time_elapsed":1721098,"internal_node_id":"0.0-5.0-27.0"},{"group":"square cycles (cube, non-group)","fractal_assignment":["../images/pnk_blu.png","../images/org_blu.png","../images/ylw_pnk.png","../images/blu_wht.png","../images/ylw_slt.png","../images/cyn_red.png","../images/gry_blk.png","../images/grn_red.png"],"mutagen_generator_assignment":[1,0],"goal":4,"start":7,"action_noise":0.1,"location_history":"[7,6,5,4]","action_history":"[0,0,0]","mutagen_history":"[1,1,1]","location_rts":"[817,469,1096]","trial_type":"fractal-mutation","trial_index":82,"time_elapsed":1730036,"internal_node_id":"0.0-5.0-28.0"},{"group":"square cycles (cube, non-group)","fractal_assignment":["../images/pnk_blu.png","../images/org_blu.png","../images/ylw_pnk.png","../images/blu_wht.png","../images/ylw_slt.png","../images/cyn_red.png","../images/gry_blk.png","../images/grn_red.png"],"mutagen_generator_assignment":[1,0],"goal":0,"start":4,"action_noise":0.1,"location_history":"[4,7,6,5,4,5,1,2,6,5,1,0]","action_history":"[0,0,0,0,1,0,0,1,0,1,1]","mutagen_history":"[1,1,1,1,0,1,1,0,1,0,0]","location_rts":"[706,692,916,976,1847,879,1674,865,567,1608,1260]","trial_type":"fractal-mutation","trial_index":83,"time_elapsed":1756695,"internal_node_id":"0.0-5.0-29.0"},{"group":"square cycles (cube, non-group)","fractal_assignment":["../images/pnk_blu.png","../images/org_blu.png","../images/ylw_pnk.png","../images/blu_wht.png","../images/ylw_slt.png","../images/cyn_red.png","../images/gry_blk.png","../images/grn_red.png"],"mutagen_generator_assignment":[1,0],"goal":5,"start":0,"action_noise":0.1,"location_history":"[0,1,2,6,7,6,7,6,7,6,7,3,2,6,7,6,7,3,2,3,0,1,2,3,2,6,7,3,0,4,7,6,5]","action_history":"[0,0,1,1,0,1,0,1,0,0,0,1,1,0,0,1,1,1,0,0,0,0,1,1,1,1,1,0,1,0,0,0]","mutagen_history":"[1,1,0,0,1,0,1,0,1,1,1,0,0,1,1,0,0,0,1,1,1,1,0,0,0,0,0,1,0,1,1,1]","location_rts":"[581,488,498,456,524,381,395,409,356,328,296,425,394,420,283,559,572,538,568,493,416,866,462,393,668,216,20,123,68,72,182,242]","trial_type":"fractal-mutation","trial_index":84,"time_elapsed":1805379,"internal_node_id":"0.0-5.0-30.0"},{"group":"square cycles (cube, non-group)","fractal_assignment":["../images/pnk_blu.png","../images/org_blu.png","../images/ylw_pnk.png","../images/blu_wht.png","../images/ylw_slt.png","../images/cyn_red.png","../images/gry_blk.png","../images/grn_red.png"],"mutagen_generator_assignment":[1,0],"goal":3,"start":5,"action_noise":0.1,"location_history":"[5,4,7,6,5,1,2,3]","action_history":"[0,0,0,0,1,0,0]","mutagen_history":"[1,1,1,1,0,1,1]","location_rts":"[633,1408,567,371,1084,1807,353]","trial_type":"fractal-mutation","trial_index":85,"time_elapsed":1822291,"internal_node_id":"0.0-5.0-31.0"},{"group":"square cycles (cube, non-group)","fractal_assignment":["../images/pnk_blu.png","../images/org_blu.png","../images/ylw_pnk.png","../images/blu_wht.png","../images/ylw_slt.png","../images/cyn_red.png","../images/gry_blk.png","../images/grn_red.png"],"mutagen_generator_assignment":[1,0],"goal":2,"start":3,"action_noise":0.1,"location_history":"[3,0,1,0,1,0,4,7,6,7,3,2]","action_history":"[0,1,0,0,1,1,0,0,1,1,1]","mutagen_history":"[1,0,1,1,0,0,1,1,0,0,0]","location_rts":"[873,1512,1133,1049,730,595,555,512,400,558,814]","trial_type":"fractal-mutation","trial_index":86,"time_elapsed":1845679,"internal_node_id":"0.0-5.0-32.0"},{"group":"square cycles (cube, non-group)","fractal_assignment":["../images/pnk_blu.png","../images/org_blu.png","../images/ylw_pnk.png","../images/blu_wht.png","../images/ylw_slt.png","../images/cyn_red.png","../images/gry_blk.png","../images/grn_red.png"],"mutagen_generator_assignment":[1,0],"goal":6,"start":2,"action_noise":0.1,"location_history":"[2,6]","action_history":"[1]","mutagen_history":"[0]","location_rts":"[1580]","trial_type":"fractal-mutation","trial_index":87,"time_elapsed":1851793,"internal_node_id":"0.0-5.0-33.0"},{"group":"square cycles (cube, non-group)","fractal_assignment":["../images/pnk_blu.png","../images/org_blu.png","../images/ylw_pnk.png","../images/blu_wht.png","../images/ylw_slt.png","../images/cyn_red.png","../images/gry_blk.png","../images/grn_red.png"],"mutagen_generator_assignment":[1,0],"goal":1,"start":6,"action_noise":0.1,"location_history":"[6,5,1]","action_history":"[1,1]","mutagen_history":"[0,0]","location_rts":"[1898,1343]","trial_type":"fractal-mutation","trial_index":88,"time_elapsed":1860552,"internal_node_id":"0.0-5.0-34.0"},{"group":"square cycles (cube, non-group)","fractal_assignment":["../images/pnk_blu.png","../images/org_blu.png","../images/ylw_pnk.png","../images/blu_wht.png","../images/ylw_slt.png","../images/cyn_red.png","../images/gry_blk.png","../images/grn_red.png"],"mutagen_generator_assignment":[1,0],"goal":7,"start":1,"action_noise":0.1,"location_history":"[1,2,3,0,1,2,3,2,6,5,1,2,3,0,1,0,4,7]","action_history":"[0,0,0,0,0,0,1,1,0,1,0,0,0,0,1,1,0]","mutagen_history":"[1,1,1,1,1,1,0,0,1,0,1,1,1,1,0,0,1]","location_rts":"[1459,1017,708,717,956,908,633,897,602,481,520,663,476,524,494,582,440]","trial_type":"fractal-mutation","trial_index":89,"time_elapsed":1893509,"internal_node_id":"0.0-5.0-35.0"},{"group":"square cycles (cube, non-group)","fractal_assignment":["../images/pnk_blu.png","../images/org_blu.png","../images/ylw_pnk.png","../images/blu_wht.png","../images/ylw_slt.png","../images/cyn_red.png","../images/gry_blk.png","../images/grn_red.png"],"mutagen_generator_assignment":[1,0],"goal":4,"start":7,"action_noise":0.1,"location_history":"[7,6,7,3,2,6,5,1,0,4]","action_history":"[0,1,1,1,1,0,1,1,1]","mutagen_history":"[1,0,0,0,0,1,0,0,0]","location_rts":"[895,733,826,609,537,475,622,489,542]","trial_type":"fractal-mutation","trial_index":90,"time_elapsed":1911844,"internal_node_id":"0.0-5.0-36.0"},{"group":"square cycles (cube, non-group)","fractal_assignment":["../images/pnk_blu.png","../images/org_blu.png","../images/ylw_pnk.png","../images/blu_wht.png","../images/ylw_slt.png","../images/cyn_red.png","../images/gry_blk.png","../images/grn_red.png"],"mutagen_generator_assignment":[1,0],"goal":5,"start":4,"action_noise":0.1,"location_history":"[4,7,6,5]","action_history":"[0,0,0]","mutagen_history":"[1,1,1]","location_rts":"[635,808,586]","trial_type":"fractal-mutation","trial_index":91,"time_elapsed":1920451,"internal_node_id":"0.0-5.0-37.0"},{"group":"square cycles (cube, non-group)","fractal_assignment":["../images/pnk_blu.png","../images/org_blu.png","../images/ylw_pnk.png","../images/blu_wht.png","../images/ylw_slt.png","../images/cyn_red.png","../images/gry_blk.png","../images/grn_red.png"],"mutagen_generator_assignment":[1,0],"goal":0,"start":5,"action_noise":0.1,"location_history":"[5,4,7,6,7,3,2,3,0]","action_history":"[0,0,0,1,1,1,0,0]","mutagen_history":"[1,1,1,0,0,0,1,1]","location_rts":"[586,525,491,572,586,807,430,631]","trial_type":"fractal-mutation","trial_index":92,"time_elapsed":1936750,"internal_node_id":"0.0-5.0-38.0"},{"group":"square cycles (cube, non-group)","fractal_assignment":["../images/pnk_blu.png","../images/org_blu.png","../images/ylw_pnk.png","../images/blu_wht.png","../images/ylw_slt.png","../images/cyn_red.png","../images/gry_blk.png","../images/grn_red.png"],"mutagen_generator_assignment":[1,0],"goal":4,"start":0,"action_noise":0.1,"location_history":"[0,1,2,6,7,6,5,4]","action_history":"[0,0,0,1,0,0,0]","mutagen_history":"[1,1,1,0,1,1,1]","location_rts":"[1934,631,874,531,593,546,751]","trial_type":"fractal-mutation","trial_index":93,"time_elapsed":1953275,"internal_node_id":"0.0-5.0-39.0"},{"group":"square cycles (cube, non-group)","fractal_assignment":["../images/pnk_blu.png","../images/org_blu.png","../images/ylw_pnk.png","../images/blu_wht.png","../images/ylw_slt.png","../images/cyn_red.png","../images/gry_blk.png","../images/grn_red.png"],"mutagen_generator_assignment":[1,0],"goal":0,"start":4,"action_noise":0.1,"location_history":"[4,5,4,7,6,7,6,5,1,0]","action_history":"[1,0,0,0,1,0,0,1,1]","mutagen_history":"[0,1,1,1,0,1,1,0,0]","location_rts":"[1124,642,404,567,438,507,406,670,441]","trial_type":"fractal-mutation","trial_index":94,"time_elapsed":1971194,"internal_node_id":"0.0-5.0-40.0"},{"group":"square cycles (cube, non-group)","fractal_assignment":["../images/pnk_blu.png","../images/org_blu.png","../images/ylw_pnk.png","../images/blu_wht.png","../images/ylw_slt.png","../images/cyn_red.png","../images/gry_blk.png","../images/grn_red.png"],"mutagen_generator_assignment":[1,0],"goal":2,"start":0,"action_noise":0.1,"location_history":"[0,4,5,1,0,4,5,1,2]","action_history":"[1,1,1,1,1,1,1,1]","mutagen_history":"[0,0,0,0,0,0,0,0]","location_rts":"[680,852,650,1055,649,462,445,476]","trial_type":"fractal-mutation","trial_index":95,"time_elapsed":1988026,"internal_node_id":"0.0-5.0-41.0"},{"group":"square cycles (cube, non-group)","fractal_assignment":["../images/pnk_blu.png","../images/org_blu.png","../images/ylw_pnk.png","../images/blu_wht.png","../images/ylw_slt.png","../images/cyn_red.png","../images/gry_blk.png","../images/grn_red.png"],"mutagen_generator_assignment":[1,0],"goal":3,"start":2,"action_noise":0.1,"location_history":"[2,3]","action_history":"[0]","mutagen_history":"[1]","location_rts":"[652]","trial_type":"fractal-mutation","trial_index":96,"time_elapsed":1993204,"internal_node_id":"0.0-5.0-42.0"},{"group":"square cycles (cube, non-group)","fractal_assignment":["../images/pnk_blu.png","../images/org_blu.png","../images/ylw_pnk.png","../images/blu_wht.png","../images/ylw_slt.png","../images/cyn_red.png","../images/gry_blk.png","../images/grn_red.png"],"mutagen_generator_assignment":[1,0],"goal":5,"start":3,"action_noise":0.1,"location_history":"[3,0,1,2,6,5]","action_history":"[0,0,1,1,0]","mutagen_history":"[1,1,0,0,1]","location_rts":"[560,737,607,646,418]","trial_type":"fractal-mutation","trial_index":97,"time_elapsed":2004792,"internal_node_id":"0.0-5.0-43.0"},{"group":"square cycles (cube, non-group)","fractal_assignment":["../images/pnk_blu.png","../images/org_blu.png","../images/ylw_pnk.png","../images/blu_wht.png","../images/ylw_slt.png","../images/cyn_red.png","../images/gry_blk.png","../images/grn_red.png"],"mutagen_generator_assignment":[1,0],"goal":1,"start":5,"action_noise":0.1,"location_history":"[5,4,7,6,7,6,7,3,2,6,7,6,7,6,5,1]","action_history":"[0,0,0,1,0,1,1,1,1,1,0,1,0,0,1]","mutagen_history":"[1,1,1,0,1,0,0,0,0,0,1,0,1,1,0]","location_rts":"[379,479,613,529,704,473,580,485,860,532,402,420,448,161,537]","trial_type":"fractal-mutation","trial_index":98,"time_elapsed":2031121,"internal_node_id":"0.0-5.0-44.0"},{"group":"square cycles (cube, non-group)","fractal_assignment":["../images/pnk_blu.png","../images/org_blu.png","../images/ylw_pnk.png","../images/blu_wht.png","../images/ylw_slt.png","../images/cyn_red.png","../images/gry_blk.png","../images/grn_red.png"],"mutagen_generator_assignment":[1,0],"goal":7,"start":1,"action_noise":0.1,"location_history":"[1,2,3,0,1,0,1,0,4,7]","action_history":"[0,0,0,0,1,0,1,1,0]","mutagen_history":"[1,1,1,1,0,1,0,0,1]","location_rts":"[645,501,521,758,474,373,448,445,423]","trial_type":"fractal-mutation","trial_index":99,"time_elapsed":2048340,"internal_node_id":"0.0-5.0-45.0"},{"group":"square cycles (cube, non-group)","fractal_assignment":["../images/pnk_blu.png","../images/org_blu.png","../images/ylw_pnk.png","../images/blu_wht.png","../images/ylw_slt.png","../images/cyn_red.png","../images/gry_blk.png","../images/grn_red.png"],"mutagen_generator_assignment":[1,0],"goal":6,"start":7,"action_noise":0.1,"location_history":"[7,3,0,1,2,3,0,1,0,4,5,4,5,1,2,6]","action_history":"[0,0,0,0,0,0,0,1,1,1,1,1,1,0,1]","mutagen_history":"[1,1,1,1,1,1,1,0,0,0,0,0,0,1,0]","location_rts":"[609,408,685,536,406,607,623,444,376,435,451,409,476,470,430]","trial_type":"fractal-mutation","trial_index":100,"time_elapsed":2074477,"internal_node_id":"0.0-5.0-46.0"},{"group":"square cycles (cube, non-group)","fractal_assignment":["../images/pnk_blu.png","../images/org_blu.png","../images/ylw_pnk.png","../images/blu_wht.png","../images/ylw_slt.png","../images/cyn_red.png","../images/gry_blk.png","../images/grn_red.png"],"mutagen_generator_assignment":[1,0],"goal":3,"start":6,"action_noise":0.1,"location_history":"[6,5,4,7,6,5,4,5,1,0,4,5,4,5,4,7,6,5,4,7,3]","action_history":"[0,0,0,0,0,0,1,1,1,1,1,0,1,0,0,1,1,0,1,1]","mutagen_history":"[1,1,1,1,1,1,0,0,0,0,0,1,0,1,1,0,0,1,0,0]","location_rts":"[528,406,409,378,876,793,519,455,367,363,451,368,410,410,375,420,420,386,427,445]","trial_type":"fractal-mutation","trial_index":101,"time_elapsed":2107538,"internal_node_id":"0.0-5.0-47.0"},{"group":"square cycles (cube, non-group)","fractal_assignment":["../images/pnk_blu.png","../images/org_blu.png","../images/ylw_pnk.png","../images/blu_wht.png","../images/ylw_slt.png","../images/cyn_red.png","../images/gry_blk.png","../images/grn_red.png"],"mutagen_generator_assignment":[1,0],"goal":0,"start":3,"action_noise":0.1,"location_history":"[3,0]","action_history":"[0]","mutagen_history":"[1]","location_rts":"[555]","trial_type":"fractal-mutation","trial_index":102,"time_elapsed":2112623,"internal_node_id":"0.0-5.0-48.0"},{"group":"square cycles (cube, non-group)","fractal_assignment":["../images/pnk_blu.png","../images/org_blu.png","../images/ylw_pnk.png","../images/blu_wht.png","../images/ylw_slt.png","../images/cyn_red.png","../images/gry_blk.png","../images/grn_red.png"],"mutagen_generator_assignment":[1,0],"goal":2,"start":0,"action_noise":0.1,"location_history":"[0,4,7,3,0,4,5,4,5,4,7,3,2]","action_history":"[0,0,0,0,1,1,1,1,0,0,1,1]","mutagen_history":"[1,1,1,1,0,0,0,0,1,1,0,0]","location_rts":"[510,510,386,448,379,474,457,462,427,388,392,425]","trial_type":"fractal-mutation","trial_index":103,"time_elapsed":2133602,"internal_node_id":"0.0-5.0-49.0"},{"view_history":"[{\"page_index\":0,\"viewing_time\":45387}]","rt":45388,"trial_type":"instructions","trial_index":104,"time_elapsed":2179992,"internal_node_id":"0.0-6.0"},{"rt":3243,"responses":"{\"Q0\":\"\"}","trial_type":"survey-text","trial_index":105,"time_elapsed":2184246,"internal_node_id":"0.0-7.0"}]