[{"view_history":"[{\"page_index\":0,\"viewing_time\":273990},{\"page_index\":1,\"viewing_time\":828491},{\"page_index\":2,\"viewing_time\":7804},{\"page_index\":3,\"viewing_time\":2216}]","rt":1112502,"trial_type":"instructions","trial_index":0,"time_elapsed":1112503,"internal_node_id":"0.0-0.0"},{"view_history":"[{\"page_index\":0,\"viewing_time\":1403},{\"page_index\":1,\"viewing_time\":12203}]","rt":13606,"trial_type":"instructions","trial_index":1,"time_elapsed":1127110,"internal_node_id":"0.0-1.0"},{"group":"tri cycles (cube, non-group)","room_assignment":["red","green","brown","purple","yellow","grey","blue","pink"],"door_color_assignment":["black","white"],"door_generator_assignment":[0,1],"goal":3,"start":0,"action_noise":0.1,"location_history":"[0,2,1,0,2,6,4,0,2,6,5,2,6,5,1,5,2,6,5,1,0,3]","action_history":"[0,0,0,0,1,0,1,0,0,1,1,1,1,0,1,1,1,1,0,0,0]","door_history":"[0,0,0,0,1,0,1,0,0,1,1,1,1,0,1,1,1,1,0,0,0]","location_rts":"[2269,1789,1505,682,1059,808,775,310,491,752,294,302,310,348,255,388,377,278,326,223,232]","trial_type":"two-door-navigation","trial_index":2,"time_elapsed":1165967,"internal_node_id":"0.0-2.0-0.0"},{"group":"tri cycles (cube, non-group)","room_assignment":["red","green","brown","purple","yellow","grey","blue","pink"],"door_color_assignment":["black","white"],"door_generator_assignment":[0,1],"goal":1,"start":3,"action_noise":0.1,"location_history":"[3,7,3,4,0,2,6,5,2,1]","action_history":"[0,1,0,0,0,1,1,1,0]","door_history":"[0,1,0,0,0,1,1,1,0]","location_rts":"[1395,407,273,418,259,57,91,227,471]","trial_type":"two-door-navigation","trial_index":3,"time_elapsed":1182341,"internal_node_id":"0.0-2.0-1.0"},{"group":"tri cycles (cube, non-group)","room_assignment":["red","green","brown","purple","yellow","grey","blue","pink"],"door_color_assignment":["black","white"],"door_generator_assignment":[0,1],"goal":2,"start":1,"action_noise":0.1,"location_history":"[1,5,1,0,3,4,0,2]","action_history":"[1,0,0,1,1,1,0]","door_history":"[1,0,0,1,1,1,0]","location_rts":"[697,365,174,121,198,182,26]","trial_type":"two-door-navigation","trial_index":4,"time_elapsed":1194798,"internal_node_id":"0.0-2.0-2.0"},{"group":"tri cycles (cube, non-group)","room_assignment":["red","green","brown","purple","yellow","grey","blue","pink"],"door_color_assignment":["black","white"],"door_generator_assignment":[0,1],"goal":6,"start":2,"action_noise":0.1,"location_history":"[2,1,5,1,0,2,6]","action_history":"[0,1,0,0,0,1]","door_history":"[0,1,0,0,0,1]","location_rts":"[810,493,416,290,232,167]","trial_type":"two-door-navigation","trial_index":5,"time_elapsed":1206846,"internal_node_id":"0.0-2.0-3.0"},{"group":"tri cycles (cube, non-group)","room_assignment":["red","green","brown","purple","yellow","grey","blue","pink"],"door_color_assignment":["black","white"],"door_generator_assignment":[0,1],"goal":5,"start":6,"action_noise":0.1,"location_history":"[6,4,7,3,4,7,3,7,6,5]","action_history":"[0,0,1,1,0,1,0,0,1]","door_history":"[0,0,1,1,0,1,0,0,1]","location_rts":"[469,211,348,181,22,80,59,94,66]","trial_type":"two-door-navigation","trial_index":6,"time_elapsed":1221077,"internal_node_id":"0.0-2.0-4.0"},{"group":"tri cycles (cube, non-group)","room_assignment":["red","green","brown","purple","yellow","grey","blue","pink"],"door_color_assignment":["black","white"],"door_generator_assignment":[0,1],"goal":4,"start":5,"action_noise":0.1,"location_history":"[5,1,5,1,0,2,6,5,2,1,5,1,5,2,1,0,3,7,6,4]","action_history":"[0,1,0,0,0,1,1,1,0,1,0,1,1,0,0,0,0,0,0]","door_history":"[0,1,0,0,0,1,1,1,0,1,0,1,1,0,0,0,0,0,0]","location_rts":"[249,165,153,193,233,192,216,198,338,59,173,399,59,20,73,168,111,483,247]","trial_type":"two-door-navigation","trial_index":7,"time_elapsed":1247861,"internal_node_id":"0.0-2.0-5.0"},{"group":"tri cycles (cube, non-group)","room_assignment":["red","green","brown","purple","yellow","grey","blue","pink"],"door_color_assignment":["black","white"],"door_generator_assignment":[0,1],"goal":7,"start":4,"action_noise":0.1,"location_history":"[4,7]","action_history":"[0]","door_history":"[0]","location_rts":"[289]","trial_type":"two-door-navigation","trial_index":8,"time_elapsed":1252674,"internal_node_id":"0.0-2.0-6.0"},{"group":"tri cycles (cube, non-group)","room_assignment":["red","green","brown","purple","yellow","grey","blue","pink"],"door_color_assignment":["black","white"],"door_generator_assignment":[0,1],"goal":4,"start":7,"action_noise":0.1,"location_history":"[7,6,5,2,6,4]","action_history":"[0,1,1,1,0]","door_history":"[0,1,1,1,0]","location_rts":"[489,90,219,368,84]","trial_type":"two-door-navigation","trial_index":9,"time_elapsed":1262548,"internal_node_id":"0.0-2.0-7.0"},{"group":"tri cycles (cube, non-group)","room_assignment":["red","green","brown","purple","yellow","grey","blue","pink"],"door_color_assignment":["black","white"],"door_generator_assignment":[0,1],"goal":6,"start":4,"action_noise":0.1,"location_history":"[4,7,3,7,6]","action_history":"[0,1,0,0]","door_history":"[0,1,0,0]","location_rts":"[338,4,119,89]","trial_type":"two-door-navigation","trial_index":10,"time_elapsed":1270699,"internal_node_id":"0.0-2.0-8.0"},{"group":"tri cycles (cube, non-group)","room_assignment":["red","green","brown","purple","yellow","grey","blue","pink"],"door_color_assignment":["black","white"],"door_generator_assignment":[0,1],"goal":0,"start":6,"action_noise":0.1,"location_history":"[6,4,7,6,4,0]","action_history":"[0,0,0,1,0]","door_history":"[0,0,0,1,0]","location_rts":"[5248,1097,227,158,94]","trial_type":"two-door-navigation","trial_index":11,"time_elapsed":1286144,"internal_node_id":"0.0-2.0-9.0"},{"group":"tri cycles (cube, non-group)","room_assignment":["red","green","brown","purple","yellow","grey","blue","pink"],"door_color_assignment":["black","white"],"door_generator_assignment":[0,1],"goal":1,"start":0,"action_noise":0.1,"location_history":"[0,3,7,6,5,1]","action_history":"[0,0,0,1,0]","door_history":"[0,0,0,1,0]","location_rts":"[459,240,60,104,228]","trial_type":"two-door-navigation","trial_index":12,"time_elapsed":1295850,"internal_node_id":"0.0-2.0-10.0"},{"group":"tri cycles (cube, non-group)","room_assignment":["red","green","brown","purple","yellow","grey","blue","pink"],"door_color_assignment":["black","white"],"door_generator_assignment":[0,1],"goal":3,"start":1,"action_noise":0.1,"location_history":"[1,0,2,1,0,2,6,4,7,6,5,2,1,0,2,6,5,2,1,0,2,6,4,7,3]","action_history":"[0,1,1,0,0,1,0,0,0,1,0,0,0,0,1,1,1,0,0,0,1,0,0,1]","door_history":"[0,1,1,0,0,1,0,0,0,1,0,0,0,0,1,1,1,0,0,0,1,0,0,1]","location_rts":"[2471,172,200,144,225,63,88,242,134,184,144,235,1039,161,215,17877,291,248,212,350,5,198,259,65]","trial_type":"two-door-navigation","trial_index":13,"time_elapsed":1349210,"internal_node_id":"0.0-2.0-11.0"},{"group":"tri cycles (cube, non-group)","room_assignment":["red","green","brown","purple","yellow","grey","blue","pink"],"door_color_assignment":["black","white"],"door_generator_assignment":[0,1],"goal":7,"start":3,"action_noise":0.1,"location_history":"[3,7]","action_history":"[0]","door_history":"[0]","location_rts":"[437]","trial_type":"two-door-navigation","trial_index":14,"time_elapsed":1354174,"internal_node_id":"0.0-2.0-12.0"},{"group":"tri cycles (cube, non-group)","room_assignment":["red","green","brown","purple","yellow","grey","blue","pink"],"door_color_assignment":["black","white"],"door_generator_assignment":[0,1],"goal":5,"start":7,"action_noise":0.1,"location_history":"[7,6,4,7,6,5]","action_history":"[0,0,0,0,1]","door_history":"[0,0,0,0,1]","location_rts":"[877,221,236,209,136]","trial_type":"two-door-navigation","trial_index":15,"time_elapsed":1364507,"internal_node_id":"0.0-2.0-13.0"},{"group":"tri cycles (cube, non-group)","room_assignment":["red","green","brown","purple","yellow","grey","blue","pink"],"door_color_assignment":["black","white"],"door_generator_assignment":[0,1],"goal":2,"start":5,"action_noise":0.1,"location_history":"[5,1,0,3,7,6,4,0,2]","action_history":"[0,0,1,1,0,0,1,0]","door_history":"[0,0,1,1,0,0,1,0]","location_rts":"[9866,251,299,295,364,372,233,8]","trial_type":"two-door-navigation","trial_index":16,"time_elapsed":1387897,"internal_node_id":"0.0-2.0-14.0"},{"group":"tri cycles (cube, non-group)","room_assignment":["red","green","brown","purple","yellow","grey","blue","pink"],"door_color_assignment":["black","white"],"door_generator_assignment":[0,1],"goal":7,"start":2,"action_noise":0.1,"location_history":"[2,6,4,7]","action_history":"[1,0,0]","door_history":"[1,0,0]","location_rts":"[601,204,175]","trial_type":"two-door-navigation","trial_index":17,"time_elapsed":1395445,"internal_node_id":"0.0-2.0-15.0"},{"group":"tri cycles (cube, non-group)","room_assignment":["red","green","brown","purple","yellow","grey","blue","pink"],"door_color_assignment":["black","white"],"door_generator_assignment":[0,1],"goal":4,"start":7,"action_noise":0.1,"location_history":"[7,6,5,1,0,2,1,5,1,0,2,1,5,1,0,3,7,6,5,1,0,2,1,0,3,7,3,7,6,4]","action_history":"[0,1,1,0,0,0,1,0,0,0,0,1,0,0,1,0,0,0,0,0,0,0,0,1,0,1,0,0,0]","door_history":"[0,1,1,0,0,0,1,0,0,0,0,1,0,0,1,0,0,0,0,0,0,0,0,1,0,1,0,0,0]","location_rts":"[931,3,188,27,198,295,189,16,158,179,171,146,118,86,262,431,127,184,38,113,190,412,258,227,56,207,17,225,127]","trial_type":"two-door-navigation","trial_index":18,"time_elapsed":1434440,"internal_node_id":"0.0-2.0-16.0"},{"group":"tri cycles (cube, non-group)","room_assignment":["red","green","brown","purple","yellow","grey","blue","pink"],"door_color_assignment":["black","white"],"door_generator_assignment":[0,1],"goal":2,"start":4,"action_noise":0.1,"location_history":"[4,7,3,7,6,4,7,3,4,7,3,7,3,7,6,4,0,3,7,6,4,0,2]","action_history":"[0,1,0,0,0,0,1,1,0,0,0,1,0,1,1,1,1,0,0,0,1,1]","door_history":"[0,1,0,0,0,0,1,1,0,0,0,1,0,1,1,1,1,0,0,0,1,1]","location_rts":"[244,229,335,176,181,163,150,363,184,148,168,309,49,151,89,121,394,103,110,435,430,257]","trial_type":"two-door-navigation","trial_index":19,"time_elapsed":1465273,"internal_node_id":"0.0-2.0-17.0"},{"group":"tri cycles (cube, non-group)","room_assignment":["red","green","brown","purple","yellow","grey","blue","pink"],"door_color_assignment":["black","white"],"door_generator_assignment":[0,1],"goal":3,"start":2,"action_noise":0.1,"location_history":"[2,1,0,3]","action_history":"[0,0,1]","door_history":"[0,0,1]","location_rts":"[371,196,146]","trial_type":"two-door-navigation","trial_index":20,"time_elapsed":1472578,"internal_node_id":"0.0-2.0-18.0"},{"group":"tri cycles (cube, non-group)","room_assignment":["red","green","brown","purple","yellow","grey","blue","pink"],"door_color_assignment":["black","white"],"door_generator_assignment":[0,1],"goal":6,"start":3,"action_noise":0.1,"location_history":"[3,7,3,7,3,7,6]","action_history":"[0,0,0,1,0,1]","door_history":"[0,0,0,1,0,1]","location_rts":"[588,251,202,257,274,183]","trial_type":"two-door-navigation","trial_index":21,"time_elapsed":1483998,"internal_node_id":"0.0-2.0-19.0"},{"group":"tri cycles (cube, non-group)","room_assignment":["red","green","brown","purple","yellow","grey","blue","pink"],"door_color_assignment":["black","white"],"door_generator_assignment":[0,1],"goal":5,"start":6,"action_noise":0.1,"location_history":"[6,5]","action_history":"[1]","door_history":"[1]","location_rts":"[661]","trial_type":"two-door-navigation","trial_index":22,"time_elapsed":1489180,"internal_node_id":"0.0-2.0-20.0"},{"group":"tri cycles (cube, non-group)","room_assignment":["red","green","brown","purple","yellow","grey","blue","pink"],"door_color_assignment":["black","white"],"door_generator_assignment":[0,1],"goal":1,"start":5,"action_noise":0.1,"location_history":"[5,1]","action_history":"[0]","door_history":"[0]","location_rts":"[1399]","trial_type":"two-door-navigation","trial_index":23,"time_elapsed":1495111,"internal_node_id":"0.0-2.0-21.0"},{"group":"tri cycles (cube, non-group)","room_assignment":["red","green","brown","purple","yellow","grey","blue","pink"],"door_color_assignment":["black","white"],"door_generator_assignment":[0,1],"goal":0,"start":1,"action_noise":0.1,"location_history":"[1,5,2,6,4,7,6,4,0]","action_history":"[0,0,1,0,0,0,0,1]","door_history":"[0,0,1,0,0,0,0,1]","location_rts":"[1623,361,240,297,141,240,217,41]","trial_type":"two-door-navigation","trial_index":24,"time_elapsed":1509958,"internal_node_id":"0.0-2.0-22.0"},{"group":"tri cycles (cube, non-group)","room_assignment":["red","green","brown","purple","yellow","grey","blue","pink"],"door_color_assignment":["black","white"],"door_generator_assignment":[0,1],"goal":2,"start":0,"action_noise":0.1,"location_history":"[0,2]","action_history":"[0]","door_history":"[0]","location_rts":"[508]","trial_type":"two-door-navigation","trial_index":25,"time_elapsed":1514985,"internal_node_id":"0.0-2.0-23.0"},{"group":"tri cycles (cube, non-group)","room_assignment":["red","green","brown","purple","yellow","grey","blue","pink"],"door_color_assignment":["black","white"],"door_generator_assignment":[0,1],"goal":6,"start":2,"action_noise":0.1,"location_history":"[2,1,0,2,1,0,2,6]","action_history":"[0,1,0,0,0,0,1]","door_history":"[0,1,0,0,0,0,1]","location_rts":"[341,405,142,220,185,211,80]","trial_type":"two-door-navigation","trial_index":26,"time_elapsed":1527263,"internal_node_id":"0.0-2.0-24.0"},{"group":"tri cycles (cube, non-group)","room_assignment":["red","green","brown","purple","yellow","grey","blue","pink"],"door_color_assignment":["black","white"],"door_generator_assignment":[0,1],"goal":1,"start":6,"action_noise":0.1,"location_history":"[6,5,2,6,4,7,6,4,7,3,7,6,4,7,6,5,2,1]","action_history":"[1,1,1,0,0,0,0,0,1,0,0,0,0,0,1,1,0]","door_history":"[1,1,1,0,0,0,0,0,1,0,0,0,0,0,1,1,0]","location_rts":"[4123,226,227,151,197,252,53,146,7,87,200,176,114,94,13,80,33]","trial_type":"two-door-navigation","trial_index":27,"time_elapsed":1554392,"internal_node_id":"0.0-2.0-25.0"},{"group":"tri cycles (cube, non-group)","room_assignment":["red","green","brown","purple","yellow","grey","blue","pink"],"door_color_assignment":["black","white"],"door_generator_assignment":[0,1],"goal":3,"start":1,"action_noise":0.1,"location_history":"[1,0,3]","action_history":"[0,1]","door_history":"[0,1]","location_rts":"[81,228]","trial_type":"two-door-navigation","trial_index":28,"time_elapsed":1560278,"internal_node_id":"0.0-2.0-26.0"},{"group":"tri cycles (cube, non-group)","room_assignment":["red","green","brown","purple","yellow","grey","blue","pink"],"door_color_assignment":["black","white"],"door_generator_assignment":[0,1],"goal":7,"start":3,"action_noise":0.1,"location_history":"[3,7]","action_history":"[0]","door_history":"[0]","location_rts":"[269]","trial_type":"two-door-navigation","trial_index":29,"time_elapsed":1565077,"internal_node_id":"0.0-2.0-27.0"},{"group":"tri cycles (cube, non-group)","room_assignment":["red","green","brown","purple","yellow","grey","blue","pink"],"door_color_assignment":["black","white"],"door_generator_assignment":[0,1],"goal":4,"start":7,"action_noise":0.1,"location_history":"[7,3,7,6,5,1,0,2,1,0,3,4]","action_history":"[1,0,0,1,0,0,0,0,0,1,1]","door_history":"[1,0,0,1,0,0,0,0,0,1,1]","location_rts":"[871,447,36,267,247,97,242,63,112,119,222]","trial_type":"two-door-navigation","trial_index":30,"time_elapsed":1582651,"internal_node_id":"0.0-2.0-28.0"},{"group":"tri cycles (cube, non-group)","room_assignment":["red","green","brown","purple","yellow","grey","blue","pink"],"door_color_assignment":["black","white"],"door_generator_assignment":[0,1],"goal":0,"start":4,"action_noise":0.1,"location_history":"[4,7,6,5,1,0]","action_history":"[0,0,1,0,0]","door_history":"[0,0,1,0,0]","location_rts":"[217,85,163,179,85]","trial_type":"two-door-navigation","trial_index":31,"time_elapsed":1592015,"internal_node_id":"0.0-2.0-29.0"},{"group":"tri cycles (cube, non-group)","room_assignment":["red","green","brown","purple","yellow","grey","blue","pink"],"door_color_assignment":["black","white"],"door_generator_assignment":[0,1],"goal":5,"start":0,"action_noise":0.1,"location_history":"[0,2,1,0,3,4,7,6,4,0,3,4,7,6,4,0,3,4,0,2,6,5]","action_history":"[0,0,1,1,1,0,0,0,1,1,1,0,0,0,0,1,1,1,0,1,0]","door_history":"[0,0,1,1,1,0,0,0,1,1,1,0,0,0,0,1,1,1,0,1,0]","location_rts":"[220,130,446,29,246,3,260,147,34,152,204,62,252,216,165,95,253,89,266,39,114]","trial_type":"two-door-navigation","trial_index":32,"time_elapsed":1620530,"internal_node_id":"0.0-2.0-30.0"},{"group":"tri cycles (cube, non-group)","room_assignment":["red","green","brown","purple","yellow","grey","blue","pink"],"door_color_assignment":["black","white"],"door_generator_assignment":[0,1],"goal":3,"start":5,"action_noise":0.1,"location_history":"[5,2,1,0,3]","action_history":"[1,0,0,1]","door_history":"[1,0,0,1]","location_rts":"[1245,281,410,378]","trial_type":"two-door-navigation","trial_index":33,"time_elapsed":1630434,"internal_node_id":"0.0-2.0-31.0"},{"group":"tri cycles (cube, non-group)","room_assignment":["red","green","brown","purple","yellow","grey","blue","pink"],"door_color_assignment":["black","white"],"door_generator_assignment":[0,1],"goal":2,"start":3,"action_noise":0.1,"location_history":"[3,7,6,5,2]","action_history":"[0,0,1,1]","door_history":"[0,0,1,1]","location_rts":"[10687,270,39,251]","trial_type":"two-door-navigation","trial_index":34,"time_elapsed":1649326,"internal_node_id":"0.0-2.0-32.0"},{"group":"tri cycles (cube, non-group)","room_assignment":["red","green","brown","purple","yellow","grey","blue","pink"],"door_color_assignment":["black","white"],"door_generator_assignment":[0,1],"goal":6,"start":2,"action_noise":0.1,"location_history":"[2,1,0,3,7,6]","action_history":"[0,0,0,0,1]","door_history":"[0,0,0,0,1]","location_rts":"[212,258,270,558,389]","trial_type":"two-door-navigation","trial_index":35,"time_elapsed":1659661,"internal_node_id":"0.0-2.0-33.0"},{"group":"tri cycles (cube, non-group)","room_assignment":["red","green","brown","purple","yellow","grey","blue","pink"],"door_color_assignment":["black","white"],"door_generator_assignment":[0,1],"goal":1,"start":6,"action_noise":0.1,"location_history":"[6,4,7,6,5,1]","action_history":"[0,0,1,1,1]","door_history":"[0,0,1,1,1]","location_rts":"[504,242,237,218,215]","trial_type":"two-door-navigation","trial_index":36,"time_elapsed":1669728,"internal_node_id":"0.0-2.0-34.0"},{"group":"tri cycles (cube, non-group)","room_assignment":["red","green","brown","purple","yellow","grey","blue","pink"],"door_color_assignment":["black","white"],"door_generator_assignment":[0,1],"goal":7,"start":1,"action_noise":0.1,"location_history":"[1,0,2,1,5,2,6,5,1,5,2,6,4,0,3,7]","action_history":"[0,0,0,1,1,1,0,0,1,1,1,1,1,0,0]","door_history":"[0,0,0,1,1,1,0,0,1,1,1,1,1,0,0]","location_rts":"[254,201,162,5,212,121,328,37,470,171,60,709,1455,223,95]","trial_type":"two-door-navigation","trial_index":37,"time_elapsed":1693199,"internal_node_id":"0.0-2.0-35.0"},{"group":"tri cycles (cube, non-group)","room_assignment":["red","green","brown","purple","yellow","grey","blue","pink"],"door_color_assignment":["black","white"],"door_generator_assignment":[0,1],"goal":4,"start":7,"action_noise":0.1,"location_history":"[7,3,7,6,5,2,1,0,2,1,5,1,5,2,6,5,1,0,2,1,5,2,1,5,2,6,5,1,0,2,1,5,1,5,1,5,1,0,3,7,6,4]","action_history":"[0,0,0,1,1,0,0,0,0,0,0,1,1,1,1,0,0,0,0,0,1,0,0,1,1,0,0,0,0,0,1,0,1,1,1,0,0,1,0,0,0]","door_history":"[0,0,0,1,1,0,0,0,0,0,0,1,1,1,1,0,0,0,0,0,1,0,0,1,1,0,0,0,0,0,1,0,1,1,1,0,0,1,0,0,0]","location_rts":"[6096,158,266,3,247,63,283,26,101,9,34,381,9,86,106,321,125,56,76,52,105,478,242,423,125,202,170,151,151,202,92,110,204,271,842,389,263,195,822,202,145]","trial_type":"two-door-navigation","trial_index":38,"time_elapsed":1753089,"internal_node_id":"0.0-2.0-36.0"},{"group":"tri cycles (cube, non-group)","room_assignment":["red","green","brown","purple","yellow","grey","blue","pink"],"door_color_assignment":["black","white"],"door_generator_assignment":[0,1],"goal":5,"start":4,"action_noise":0.1,"location_history":"[4,7,6,5]","action_history":"[0,1,1]","door_history":"[0,1,1]","location_rts":"[765,635,162]","trial_type":"two-door-navigation","trial_index":39,"time_elapsed":1761232,"internal_node_id":"0.0-2.0-37.0"},{"group":"tri cycles (cube, non-group)","room_assignment":["red","green","brown","purple","yellow","grey","blue","pink"],"door_color_assignment":["black","white"],"door_generator_assignment":[0,1],"goal":0,"start":5,"action_noise":0.1,"location_history":"[5,2,1,0]","action_history":"[0,0,0]","door_history":"[0,0,0]","location_rts":"[476,73,154]","trial_type":"two-door-navigation","trial_index":40,"time_elapsed":1768510,"internal_node_id":"0.0-2.0-38.0"},{"group":"tri cycles (cube, non-group)","room_assignment":["red","green","brown","purple","yellow","grey","blue","pink"],"door_color_assignment":["black","white"],"door_generator_assignment":[0,1],"goal":4,"start":0,"action_noise":0.1,"location_history":"[0,2,1,5,2,6,4]","action_history":"[0,0,0,1,1,0]","door_history":"[0,0,0,1,1,0]","location_rts":"[839,265,142,57,218,269]","trial_type":"two-door-navigation","trial_index":41,"time_elapsed":1779950,"internal_node_id":"0.0-2.0-39.0"},{"group":"tri cycles (cube, non-group)","room_assignment":["red","green","brown","purple","yellow","grey","blue","pink"],"door_color_assignment":["black","white"],"door_generator_assignment":[0,1],"goal":0,"start":4,"action_noise":0.1,"location_history":"[4,7,6,5,1,0]","action_history":"[0,0,1,0,0]","door_history":"[0,0,1,0,0]","location_rts":"[377,71,59,165,66]","trial_type":"two-door-navigation","trial_index":42,"time_elapsed":1789321,"internal_node_id":"0.0-2.0-40.0"},{"group":"tri cycles (cube, non-group)","room_assignment":["red","green","brown","purple","yellow","grey","blue","pink"],"door_color_assignment":["black","white"],"door_generator_assignment":[0,1],"goal":2,"start":0,"action_noise":0.1,"location_history":"[0,2]","action_history":"[0]","door_history":"[0]","location_rts":"[514]","trial_type":"two-door-navigation","trial_index":43,"time_elapsed":1794358,"internal_node_id":"0.0-2.0-41.0"},{"group":"tri cycles (cube, non-group)","room_assignment":["red","green","brown","purple","yellow","grey","blue","pink"],"door_color_assignment":["black","white"],"door_generator_assignment":[0,1],"goal":3,"start":2,"action_noise":0.1,"location_history":"[2,1,0,2,6,5,1,0,3]","action_history":"[0,0,0,1,0,0,0,1]","door_history":"[0,0,0,1,0,0,0,1]","location_rts":"[185,158,117,169,233,258,184,49]","trial_type":"two-door-navigation","trial_index":44,"time_elapsed":1807400,"internal_node_id":"0.0-2.0-42.0"},{"group":"tri cycles (cube, non-group)","room_assignment":["red","green","brown","purple","yellow","grey","blue","pink"],"door_color_assignment":["black","white"],"door_generator_assignment":[0,1],"goal":5,"start":3,"action_noise":0.1,"location_history":"[3,7,3,4,7,6,4,0,2,1,0,2,1,5]","action_history":"[0,0,1,0,0,0,1,0,0,0,1,0,1]","door_history":"[0,0,1,0,0,0,1,0,0,0,1,0,1]","location_rts":"[396,102,373,369,197,309,387,1163,226,324,97,206,363]","trial_type":"two-door-navigation","trial_index":45,"time_elapsed":1828817,"internal_node_id":"0.0-2.0-43.0"},{"group":"tri cycles (cube, non-group)","room_assignment":["red","green","brown","purple","yellow","grey","blue","pink"],"door_color_assignment":["black","white"],"door_generator_assignment":[0,1],"goal":1,"start":5,"action_noise":0.1,"location_history":"[5,1]","action_history":"[0]","door_history":"[0]","location_rts":"[306]","trial_type":"two-door-navigation","trial_index":46,"time_elapsed":1833646,"internal_node_id":"0.0-2.0-44.0"},{"group":"tri cycles (cube, non-group)","room_assignment":["red","green","brown","purple","yellow","grey","blue","pink"],"door_color_assignment":["black","white"],"door_generator_assignment":[0,1],"goal":7,"start":1,"action_noise":0.1,"location_history":"[1,5,1,0,2,1,5,1,0,2,6,5,1,0,3,7]","action_history":"[0,0,0,1,0,0,0,0,1,0,0,0,0,1,0]","door_history":"[0,0,0,1,0,0,0,0,1,0,0,0,0,1,0]","location_rts":"[333,204,240,298,62,91,155,225,88,245,115,173,172,37,187]","trial_type":"two-door-navigation","trial_index":47,"time_elapsed":1855167,"internal_node_id":"0.0-2.0-45.0"},{"group":"tri cycles (cube, non-group)","room_assignment":["red","green","brown","purple","yellow","grey","blue","pink"],"door_color_assignment":["black","white"],"door_generator_assignment":[0,1],"goal":6,"start":7,"action_noise":0.1,"location_history":"[7,6]","action_history":"[0]","door_history":"[0]","location_rts":"[70]","trial_type":"two-door-navigation","trial_index":48,"time_elapsed":1859762,"internal_node_id":"0.0-2.0-46.0"},{"group":"tri cycles (cube, non-group)","room_assignment":["red","green","brown","purple","yellow","grey","blue","pink"],"door_color_assignment":["black","white"],"door_generator_assignment":[0,1],"goal":3,"start":6,"action_noise":0.1,"location_history":"[6,4,0,2,1,0,3]","action_history":"[0,1,0,0,0,1]","door_history":"[0,1,0,0,0,1]","location_rts":"[415,294,349,211,94,123]","trial_type":"two-door-navigation","trial_index":49,"time_elapsed":1870897,"internal_node_id":"0.0-2.0-47.0"},{"group":"tri cycles (cube, non-group)","room_assignment":["red","green","brown","purple","yellow","grey","blue","pink"],"door_color_assignment":["black","white"],"door_generator_assignment":[0,1],"goal":0,"start":3,"action_noise":0.1,"location_history":"[3,7,6,4,7,6,4,0]","action_history":"[0,0,0,1,0,0,1]","door_history":"[0,0,0,1,0,0,1]","location_rts":"[330,396,196,406,189,305,472]","trial_type":"two-door-navigation","trial_index":50,"time_elapsed":1883857,"internal_node_id":"0.0-2.0-48.0"},{"group":"tri cycles (cube, non-group)","room_assignment":["red","green","brown","purple","yellow","grey","blue","pink"],"door_color_assignment":["black","white"],"door_generator_assignment":[0,1],"goal":2,"start":0,"action_noise":0.1,"location_history":"[0,2]","action_history":"[0]","door_history":"[0]","location_rts":"[401]","trial_type":"two-door-navigation","trial_index":51,"time_elapsed":1888789,"internal_node_id":"0.0-2.0-49.0"},{"view_history":"[{\"page_index\":0,\"viewing_time\":2114}]","rt":2114,"trial_type":"instructions","trial_index":52,"time_elapsed":1891904,"internal_node_id":"0.0-3.0"},{"view_history":"[{\"page_index\":0,\"viewing_time\":831},{\"page_index\":1,\"viewing_time\":32915}]","rt":33746,"trial_type":"instructions","trial_index":53,"time_elapsed":1926651,"internal_node_id":"0.0-4.0"},{"group":"tri cycles (cube, non-group)","fractal_assignment":["../images/grn_red.png","../images/blu_wht.png","../images/gry_blk.png","../images/pnk_blu.png","../images/org_blu.png","../images/cyn_red.png","../images/ylw_slt.png","../images/ylw_pnk.png"],"mutagen_generator_assignment":[0,1],"goal":3,"start":0,"action_noise":0.1,"location_history":"[0,2,6,5,1,0,3]","action_history":"[0,1,1,0,0,1]","mutagen_history":"[0,1,1,0,0,1]","location_rts":"[3025,2332,1035,350,278,288]","trial_type":"fractal-mutation","trial_index":54,"time_elapsed":1943660,"internal_node_id":"0.0-5.0-0.0"},{"group":"tri cycles (cube, non-group)","fractal_assignment":["../images/grn_red.png","../images/blu_wht.png","../images/gry_blk.png","../images/pnk_blu.png","../images/org_blu.png","../images/cyn_red.png","../images/ylw_slt.png","../images/ylw_pnk.png"],"mutagen_generator_assignment":[0,1],"goal":1,"start":3,"action_noise":0.1,"location_history":"[3,7,3,4,7,6,5,2,1]","action_history":"[1,0,1,0,0,1,1,1]","mutagen_history":"[1,0,1,0,0,1,1,1]","location_rts":"[232,381,1157,362,645,122,582,183]","trial_type":"fractal-mutation","trial_index":55,"time_elapsed":1959081,"internal_node_id":"0.0-5.0-1.0"},{"group":"tri cycles (cube, non-group)","fractal_assignment":["../images/grn_red.png","../images/blu_wht.png","../images/gry_blk.png","../images/pnk_blu.png","../images/org_blu.png","../images/cyn_red.png","../images/ylw_slt.png","../images/ylw_pnk.png"],"mutagen_generator_assignment":[0,1],"goal":2,"start":1,"action_noise":0.1,"location_history":"[1,0,2]","action_history":"[1,0]","mutagen_history":"[1,0]","location_rts":"[251,44]","trial_type":"fractal-mutation","trial_index":56,"time_elapsed":1964950,"internal_node_id":"0.0-5.0-2.0"},{"group":"tri cycles (cube, non-group)","fractal_assignment":["../images/grn_red.png","../images/blu_wht.png","../images/gry_blk.png","../images/pnk_blu.png","../images/org_blu.png","../images/cyn_red.png","../images/ylw_slt.png","../images/ylw_pnk.png"],"mutagen_generator_assignment":[0,1],"goal":6,"start":2,"action_noise":0.1,"location_history":"[2,6]","action_history":"[1]","mutagen_history":"[1]","location_rts":"[582]","trial_type":"fractal-mutation","trial_index":57,"time_elapsed":1970066,"internal_node_id":"0.0-5.0-3.0"},{"group":"tri cycles (cube, non-group)","fractal_assignment":["../images/grn_red.png","../images/blu_wht.png","../images/gry_blk.png","../images/pnk_blu.png","../images/org_blu.png","../images/cyn_red.png","../images/ylw_slt.png","../images/ylw_pnk.png"],"mutagen_generator_assignment":[0,1],"goal":5,"start":6,"action_noise":0.1,"location_history":"[6,4,0,2,6,5]","action_history":"[0,1,1,1,1]","mutagen_history":"[0,1,1,1,1]","location_rts":"[321,5,70,684,281]","trial_type":"fractal-mutation","trial_index":58,"time_elapsed":1980095,"internal_node_id":"0.0-5.0-4.0"},{"group":"tri cycles (cube, non-group)","fractal_assignment":["../images/grn_red.png","../images/blu_wht.png","../images/gry_blk.png","../images/pnk_blu.png","../images/org_blu.png","../images/cyn_red.png","../images/ylw_slt.png","../images/ylw_pnk.png"],"mutagen_generator_assignment":[0,1],"goal":4,"start":5,"action_noise":0.1,"location_history":"[5,1,5,2,6,5,1,0,2,6,5,1,0,3,4]","action_history":"[0,1,1,1,1,0,1,0,1,0,0,0,1,1]","mutagen_history":"[0,1,1,1,1,0,1,0,1,0,0,0,1,1]","location_rts":"[503,787,14,499,189,534,980,694,383,666,229,461,101,175]","trial_type":"fractal-mutation","trial_index":59,"time_elapsed":2004215,"internal_node_id":"0.0-5.0-5.0"},{"group":"tri cycles (cube, non-group)","fractal_assignment":["../images/grn_red.png","../images/blu_wht.png","../images/gry_blk.png","../images/pnk_blu.png","../images/org_blu.png","../images/cyn_red.png","../images/ylw_slt.png","../images/ylw_pnk.png"],"mutagen_generator_assignment":[0,1],"goal":7,"start":4,"action_noise":0.1,"location_history":"[4,0,3,4,7]","action_history":"[1,1,0,0]","mutagen_history":"[1,1,0,0]","location_rts":"[86,22,292,531]","trial_type":"fractal-mutation","trial_index":60,"time_elapsed":2012763,"internal_node_id":"0.0-5.0-6.0"},{"group":"tri cycles (cube, non-group)","fractal_assignment":["../images/grn_red.png","../images/blu_wht.png","../images/gry_blk.png","../images/pnk_blu.png","../images/org_blu.png","../images/cyn_red.png","../images/ylw_slt.png","../images/ylw_pnk.png"],"mutagen_generator_assignment":[0,1],"goal":4,"start":7,"action_noise":0.1,"location_history":"[7,6,5,1,5,2,1,0,3,4]","action_history":"[0,1,1,1,1,0,0,1,1]","mutagen_history":"[0,1,1,1,1,0,0,1,1]","location_rts":"[265,521,280,318,422,137,158,335,24]","trial_type":"fractal-mutation","trial_index":61,"time_elapsed":2028020,"internal_node_id":"0.0-5.0-7.0"},{"group":"tri cycles (cube, non-group)","fractal_assignment":["../images/grn_red.png","../images/blu_wht.png","../images/gry_blk.png","../images/pnk_blu.png","../images/org_blu.png","../images/cyn_red.png","../images/ylw_slt.png","../images/ylw_pnk.png"],"mutagen_generator_assignment":[0,1],"goal":6,"start":4,"action_noise":0.1,"location_history":"[4,0,3,7,6]","action_history":"[1,1,0,0]","mutagen_history":"[1,1,0,0]","location_rts":"[369,220,145,189]","trial_type":"fractal-mutation","trial_index":62,"time_elapsed":2036573,"internal_node_id":"0.0-5.0-8.0"},{"group":"tri cycles (cube, non-group)","fractal_assignment":["../images/grn_red.png","../images/blu_wht.png","../images/gry_blk.png","../images/pnk_blu.png","../images/org_blu.png","../images/cyn_red.png","../images/ylw_slt.png","../images/ylw_pnk.png"],"mutagen_generator_assignment":[0,1],"goal":0,"start":6,"action_noise":0.1,"location_history":"[6,4,7,6,4,7,6,5,2,6,4,0]","action_history":"[0,1,0,0,0,0,1,1,1,0,1]","mutagen_history":"[0,1,0,0,0,0,1,1,1,0,1]","location_rts":"[726,42,351,560,128,62,165,67,215,318,470]","trial_type":"fractal-mutation","trial_index":63,"time_elapsed":2054492,"internal_node_id":"0.0-5.0-9.0"},{"group":"tri cycles (cube, non-group)","fractal_assignment":["../images/grn_red.png","../images/blu_wht.png","../images/gry_blk.png","../images/pnk_blu.png","../images/org_blu.png","../images/cyn_red.png","../images/ylw_slt.png","../images/ylw_pnk.png"],"mutagen_generator_assignment":[0,1],"goal":1,"start":0,"action_noise":0.1,"location_history":"[0,3,7,6,5,2,1]","action_history":"[1,0,0,1,1,0]","mutagen_history":"[1,0,0,1,1,0]","location_rts":"[367,678,371,574,355,234]","trial_type":"fractal-mutation","trial_index":64,"time_elapsed":2066794,"internal_node_id":"0.0-5.0-10.0"},{"group":"tri cycles (cube, non-group)","fractal_assignment":["../images/grn_red.png","../images/blu_wht.png","../images/gry_blk.png","../images/pnk_blu.png","../images/org_blu.png","../images/cyn_red.png","../images/ylw_slt.png","../images/ylw_pnk.png"],"mutagen_generator_assignment":[0,1],"goal":3,"start":1,"action_noise":0.1,"location_history":"[1,5,2,1,0,2,6,4,7,3]","action_history":"[1,1,0,0,0,1,0,0,1]","mutagen_history":"[1,1,0,0,0,1,0,0,1]","location_rts":"[665,72,237,396,593,65,81,37,164]","trial_type":"fractal-mutation","trial_index":65,"time_elapsed":2081943,"internal_node_id":"0.0-5.0-11.0"},{"group":"tri cycles (cube, non-group)","fractal_assignment":["../images/grn_red.png","../images/blu_wht.png","../images/gry_blk.png","../images/pnk_blu.png","../images/org_blu.png","../images/cyn_red.png","../images/ylw_slt.png","../images/ylw_pnk.png"],"mutagen_generator_assignment":[0,1],"goal":7,"start":3,"action_noise":0.1,"location_history":"[3,7]","action_history":"[0]","mutagen_history":"[0]","location_rts":"[150]","trial_type":"fractal-mutation","trial_index":66,"time_elapsed":2086619,"internal_node_id":"0.0-5.0-12.0"},{"group":"tri cycles (cube, non-group)","fractal_assignment":["../images/grn_red.png","../images/blu_wht.png","../images/gry_blk.png","../images/pnk_blu.png","../images/org_blu.png","../images/cyn_red.png","../images/ylw_slt.png","../images/ylw_pnk.png"],"mutagen_generator_assignment":[0,1],"goal":5,"start":7,"action_noise":0.1,"location_history":"[7,3,4,7,3,4,0,2,1,5]","action_history":"[1,1,0,1,1,1,0,0,1]","mutagen_history":"[1,1,0,1,1,1,0,0,1]","location_rts":"[311,213,58,188,197,218,147,422,102]","trial_type":"fractal-mutation","trial_index":67,"time_elapsed":2101254,"internal_node_id":"0.0-5.0-13.0"},{"group":"tri cycles (cube, non-group)","fractal_assignment":["../images/grn_red.png","../images/blu_wht.png","../images/gry_blk.png","../images/pnk_blu.png","../images/org_blu.png","../images/cyn_red.png","../images/ylw_slt.png","../images/ylw_pnk.png"],"mutagen_generator_assignment":[0,1],"goal":2,"start":5,"action_noise":0.1,"location_history":"[5,2]","action_history":"[1]","mutagen_history":"[1]","location_rts":"[263]","trial_type":"fractal-mutation","trial_index":68,"time_elapsed":2106060,"internal_node_id":"0.0-5.0-14.0"},{"group":"tri cycles (cube, non-group)","fractal_assignment":["../images/grn_red.png","../images/blu_wht.png","../images/gry_blk.png","../images/pnk_blu.png","../images/org_blu.png","../images/cyn_red.png","../images/ylw_slt.png","../images/ylw_pnk.png"],"mutagen_generator_assignment":[0,1],"goal":7,"start":2,"action_noise":0.1,"location_history":"[2,6,5,2,6,5,1,5,1,0,2,6,5,2,1,0,2,1,5,2,1,5,2,1,0,2,6,4,0,2,6,5,2,6,4,0,2,1,5,1,5,1,0,3,4,0,3,7]","action_history":"[1,0,1,1,1,0,0,0,1,0,1,1,1,0,0,0,0,1,1,0,0,1,0,0,0,1,0,1,0,1,1,1,1,0,1,0,0,1,0,1,0,0,1,1,1,1,0]","mutagen_history":"[1,0,1,1,1,0,0,0,1,0,1,1,1,0,0,0,0,1,1,0,0,1,0,0,0,1,0,1,0,1,1,1,1,0,1,0,0,1,0,1,0,0,1,1,1,1,0]","location_rts":"[129,223,12,58,350,82,285,51,163,277,385,169,32,191,137,377,165,101,154,175,274,65,36,266,471,57,1,182,55,108,104,151,250,187,281,282,363,148,140,289,242,256,200,586,368,305,330]","trial_type":"fractal-mutation","trial_index":69,"time_elapsed":2167502,"internal_node_id":"0.0-5.0-15.0"},{"group":"tri cycles (cube, non-group)","fractal_assignment":["../images/grn_red.png","../images/blu_wht.png","../images/gry_blk.png","../images/pnk_blu.png","../images/org_blu.png","../images/cyn_red.png","../images/ylw_slt.png","../images/ylw_pnk.png"],"mutagen_generator_assignment":[0,1],"goal":4,"start":7,"action_noise":0.1,"location_history":"[7,3,7,3,4]","action_history":"[1,0,1,1]","mutagen_history":"[1,0,1,1]","location_rts":"[24,87,193,178]","trial_type":"fractal-mutation","trial_index":70,"time_elapsed":2175639,"internal_node_id":"0.0-5.0-16.0"},{"group":"tri cycles (cube, non-group)","fractal_assignment":["../images/grn_red.png","../images/blu_wht.png","../images/gry_blk.png","../images/pnk_blu.png","../images/org_blu.png","../images/cyn_red.png","../images/ylw_slt.png","../images/ylw_pnk.png"],"mutagen_generator_assignment":[0,1],"goal":2,"start":4,"action_noise":0.1,"location_history":"[4,0,2]","action_history":"[1,0]","mutagen_history":"[1,0]","location_rts":"[245,224]","trial_type":"fractal-mutation","trial_index":71,"time_elapsed":2181658,"internal_node_id":"0.0-5.0-17.0"},{"group":"tri cycles (cube, non-group)","fractal_assignment":["../images/grn_red.png","../images/blu_wht.png","../images/gry_blk.png","../images/pnk_blu.png","../images/org_blu.png","../images/cyn_red.png","../images/ylw_slt.png","../images/ylw_pnk.png"],"mutagen_generator_assignment":[0,1],"goal":3,"start":2,"action_noise":0.1,"location_history":"[2,6,4,7,6,5,2,6,5,1,5,2,6,4,7,6,5,2,1,0,2,6,5,2,1,5,1,0,2,6,5,2,6,5,2,1,5,1,0,3]","action_history":"[1,0,0,0,1,1,1,1,0,1,1,1,0,0,0,1,1,0,0,0,1,1,1,0,1,0,0,0,1,1,0,1,1,1,0,1,0,0,1]","mutagen_history":"[1,0,0,0,1,1,1,1,0,1,1,1,0,0,0,1,1,0,0,0,1,1,1,0,1,0,0,0,1,1,0,1,1,1,0,1,0,0,1]","location_rts":"[9,158,232,324,47,20,138,132,99,324,143,175,226,216,57,49,976,111,235,79,138,231,128,622,11,283,194,73,89,149,171,169,84,15,368,458,438,940,290]","trial_type":"fractal-mutation","trial_index":72,"time_elapsed":2233974,"internal_node_id":"0.0-5.0-18.0"},{"group":"tri cycles (cube, non-group)","fractal_assignment":["../images/grn_red.png","../images/blu_wht.png","../images/gry_blk.png","../images/pnk_blu.png","../images/org_blu.png","../images/cyn_red.png","../images/ylw_slt.png","../images/ylw_pnk.png"],"mutagen_generator_assignment":[0,1],"goal":6,"start":3,"action_noise":0.1,"location_history":"[3,4,0,2,6]","action_history":"[1,1,0,0]","mutagen_history":"[1,1,0,0]","location_rts":"[46,16,205,372]","trial_type":"fractal-mutation","trial_index":73,"time_elapsed":2242260,"internal_node_id":"0.0-5.0-19.0"},{"group":"tri cycles (cube, non-group)","fractal_assignment":["../images/grn_red.png","../images/blu_wht.png","../images/gry_blk.png","../images/pnk_blu.png","../images/org_blu.png","../images/cyn_red.png","../images/ylw_slt.png","../images/ylw_pnk.png"],"mutagen_generator_assignment":[0,1],"goal":5,"start":6,"action_noise":0.1,"location_history":"[6,4,0,3,7,6,4,0,2,1,5]","action_history":"[0,1,1,0,0,0,1,0,0,1]","mutagen_history":"[0,1,1,0,0,0,1,0,0,1]","location_rts":"[56,147,168,250,226,327,151,253,220,197]","trial_type":"fractal-mutation","trial_index":74,"time_elapsed":2258125,"internal_node_id":"0.0-5.0-20.0"},{"group":"tri cycles (cube, non-group)","fractal_assignment":["../images/grn_red.png","../images/blu_wht.png","../images/gry_blk.png","../images/pnk_blu.png","../images/org_blu.png","../images/cyn_red.png","../images/ylw_slt.png","../images/ylw_pnk.png"],"mutagen_generator_assignment":[0,1],"goal":1,"start":5,"action_noise":0.1,"location_history":"[5,2,6,4,0,3,4,7,6,4,7,6,5,1]","action_history":"[1,0,0,1,1,1,0,0,1,0,0,1,1]","mutagen_history":"[1,0,0,1,1,1,0,0,1,0,0,1,1]","location_rts":"[47,136,520,127,144,17,266,152,515,57,220,240,103]","trial_type":"fractal-mutation","trial_index":75,"time_elapsed":2277563,"internal_node_id":"0.0-5.0-21.0"},{"group":"tri cycles (cube, non-group)","fractal_assignment":["../images/grn_red.png","../images/blu_wht.png","../images/gry_blk.png","../images/pnk_blu.png","../images/org_blu.png","../images/cyn_red.png","../images/ylw_slt.png","../images/ylw_pnk.png"],"mutagen_generator_assignment":[0,1],"goal":0,"start":1,"action_noise":0.1,"location_history":"[1,5,2,1,0]","action_history":"[1,1,0,0]","mutagen_history":"[1,1,0,0]","location_rts":"[129,228,21,208]","trial_type":"fractal-mutation","trial_index":76,"time_elapsed":2285777,"internal_node_id":"0.0-5.0-22.0"},{"group":"tri cycles (cube, non-group)","fractal_assignment":["../images/grn_red.png","../images/blu_wht.png","../images/gry_blk.png","../images/pnk_blu.png","../images/org_blu.png","../images/cyn_red.png","../images/ylw_slt.png","../images/ylw_pnk.png"],"mutagen_generator_assignment":[0,1],"goal":2,"start":0,"action_noise":0.1,"location_history":"[0,2]","action_history":"[0]","mutagen_history":"[0]","location_rts":"[195]","trial_type":"fractal-mutation","trial_index":77,"time_elapsed":2290522,"internal_node_id":"0.0-5.0-23.0"},{"group":"tri cycles (cube, non-group)","fractal_assignment":["../images/grn_red.png","../images/blu_wht.png","../images/gry_blk.png","../images/pnk_blu.png","../images/org_blu.png","../images/cyn_red.png","../images/ylw_slt.png","../images/ylw_pnk.png"],"mutagen_generator_assignment":[0,1],"goal":6,"start":2,"action_noise":0.1,"location_history":"[2,1,0,3,4,0,2,1,0,3,4,7,6]","action_history":"[0,0,1,1,1,0,0,0,1,1,0,1]","mutagen_history":"[0,0,1,1,1,0,0,0,1,1,0,1]","location_rts":"[474,282,211,196,70,136,192,88,52,114,79,74]","trial_type":"fractal-mutation","trial_index":78,"time_elapsed":2308401,"internal_node_id":"0.0-5.0-24.0"},{"group":"tri cycles (cube, non-group)","fractal_assignment":["../images/grn_red.png","../images/blu_wht.png","../images/gry_blk.png","../images/pnk_blu.png","../images/org_blu.png","../images/cyn_red.png","../images/ylw_slt.png","../images/ylw_pnk.png"],"mutagen_generator_assignment":[0,1],"goal":1,"start":6,"action_noise":0.1,"location_history":"[6,5,1]","action_history":"[1,0]","mutagen_history":"[1,0]","location_rts":"[19,189]","trial_type":"fractal-mutation","trial_index":79,"time_elapsed":2314189,"internal_node_id":"0.0-5.0-25.0"},{"group":"tri cycles (cube, non-group)","fractal_assignment":["../images/grn_red.png","../images/blu_wht.png","../images/gry_blk.png","../images/pnk_blu.png","../images/org_blu.png","../images/cyn_red.png","../images/ylw_slt.png","../images/ylw_pnk.png"],"mutagen_generator_assignment":[0,1],"goal":3,"start":1,"action_noise":0.1,"location_history":"[1,0,3]","action_history":"[1,1]","mutagen_history":"[1,1]","location_rts":"[72,69]","trial_type":"fractal-mutation","trial_index":80,"time_elapsed":2319904,"internal_node_id":"0.0-5.0-26.0"},{"group":"tri cycles (cube, non-group)","fractal_assignment":["../images/grn_red.png","../images/blu_wht.png","../images/gry_blk.png","../images/pnk_blu.png","../images/org_blu.png","../images/cyn_red.png","../images/ylw_slt.png","../images/ylw_pnk.png"],"mutagen_generator_assignment":[0,1],"goal":7,"start":3,"action_noise":0.1,"location_history":"[3,4,7]","action_history":"[1,0]","mutagen_history":"[1,0]","location_rts":"[439,279]","trial_type":"fractal-mutation","trial_index":81,"time_elapsed":2326208,"internal_node_id":"0.0-5.0-27.0"},{"group":"tri cycles (cube, non-group)","fractal_assignment":["../images/grn_red.png","../images/blu_wht.png","../images/gry_blk.png","../images/pnk_blu.png","../images/org_blu.png","../images/cyn_red.png","../images/ylw_slt.png","../images/ylw_pnk.png"],"mutagen_generator_assignment":[0,1],"goal":4,"start":7,"action_noise":0.1,"location_history":"[7,6,4]","action_history":"[0,0]","mutagen_history":"[0,0]","location_rts":"[1270,300]","trial_type":"fractal-mutation","trial_index":82,"time_elapsed":2333346,"internal_node_id":"0.0-5.0-28.0"},{"group":"tri cycles (cube, non-group)","fractal_assignment":["../images/grn_red.png","../images/blu_wht.png","../images/gry_blk.png","../images/pnk_blu.png","../images/org_blu.png","../images/cyn_red.png","../images/ylw_slt.png","../images/ylw_pnk.png"],"mutagen_generator_assignment":[0,1],"goal":0,"start":4,"action_noise":0.1,"location_history":"[4,0]","action_history":"[0]","mutagen_history":"[0]","location_rts":"[105]","trial_type":"fractal-mutation","trial_index":83,"time_elapsed":2337990,"internal_node_id":"0.0-5.0-29.0"},{"group":"tri cycles (cube, non-group)","fractal_assignment":["../images/grn_red.png","../images/blu_wht.png","../images/gry_blk.png","../images/pnk_blu.png","../images/org_blu.png","../images/cyn_red.png","../images/ylw_slt.png","../images/ylw_pnk.png"],"mutagen_generator_assignment":[0,1],"goal":5,"start":0,"action_noise":0.1,"location_history":"[0,2,6,5]","action_history":"[0,1,0]","mutagen_history":"[0,1,0]","location_rts":"[214,236,234]","trial_type":"fractal-mutation","trial_index":84,"time_elapsed":2345271,"internal_node_id":"0.0-5.0-30.0"},{"group":"tri cycles (cube, non-group)","fractal_assignment":["../images/grn_red.png","../images/blu_wht.png","../images/gry_blk.png","../images/pnk_blu.png","../images/org_blu.png","../images/cyn_red.png","../images/ylw_slt.png","../images/ylw_pnk.png"],"mutagen_generator_assignment":[0,1],"goal":3,"start":5,"action_noise":0.1,"location_history":"[5,1,5,2,6,5,1,5,2,6,4,0,3]","action_history":"[0,1,1,1,0,0,1,1,1,0,1,1]","mutagen_history":"[0,1,1,1,0,0,1,1,1,0,1,1]","location_rts":"[124,209,125,355,12,243,108,153,215,46,528,216]","trial_type":"fractal-mutation","trial_index":85,"time_elapsed":2363427,"internal_node_id":"0.0-5.0-31.0"},{"group":"tri cycles (cube, non-group)","fractal_assignment":["../images/grn_red.png","../images/blu_wht.png","../images/gry_blk.png","../images/pnk_blu.png","../images/org_blu.png","../images/cyn_red.png","../images/ylw_slt.png","../images/ylw_pnk.png"],"mutagen_generator_assignment":[0,1],"goal":2,"start":3,"action_noise":0.1,"location_history":"[3,4,7,6,4,0,3,4,7,3,7,6,4,0,3,7,6,5,2]","action_history":"[1,0,0,0,1,1,1,0,1,0,0,0,1,1,0,0,1,1]","mutagen_history":"[1,0,0,0,1,1,1,0,1,0,0,0,1,1,0,0,1,1]","location_rts":"[189,321,200,213,216,164,168,137,293,24,201,233,147,90,137,238,171,270]","trial_type":"fractal-mutation","trial_index":86,"time_elapsed":2388920,"internal_node_id":"0.0-5.0-32.0"},{"group":"tri cycles (cube, non-group)","fractal_assignment":["../images/grn_red.png","../images/blu_wht.png","../images/gry_blk.png","../images/pnk_blu.png","../images/org_blu.png","../images/cyn_red.png","../images/ylw_slt.png","../images/ylw_pnk.png"],"mutagen_generator_assignment":[0,1],"goal":6,"start":2,"action_noise":0.1,"location_history":"[2,6]","action_history":"[1]","mutagen_history":"[1]","location_rts":"[253]","trial_type":"fractal-mutation","trial_index":87,"time_elapsed":2393716,"internal_node_id":"0.0-5.0-33.0"},{"group":"tri cycles (cube, non-group)","fractal_assignment":["../images/grn_red.png","../images/blu_wht.png","../images/gry_blk.png","../images/pnk_blu.png","../images/org_blu.png","../images/cyn_red.png","../images/ylw_slt.png","../images/ylw_pnk.png"],"mutagen_generator_assignment":[0,1],"goal":1,"start":6,"action_noise":0.1,"location_history":"[6,5,2,1]","action_history":"[1,1,1]","mutagen_history":"[1,1,1]","location_rts":"[127,179,162]","trial_type":"fractal-mutation","trial_index":88,"time_elapsed":2400816,"internal_node_id":"0.0-5.0-34.0"},{"group":"tri cycles (cube, non-group)","fractal_assignment":["../images/grn_red.png","../images/blu_wht.png","../images/gry_blk.png","../images/pnk_blu.png","../images/org_blu.png","../images/cyn_red.png","../images/ylw_slt.png","../images/ylw_pnk.png"],"mutagen_generator_assignment":[0,1],"goal":7,"start":1,"action_noise":0.1,"location_history":"[1,5,2,1,0,3,4,7]","action_history":"[1,1,0,1,1,1,0]","mutagen_history":"[1,1,0,1,1,1,0]","location_rts":"[484,146,242,250,151,9,329]","trial_type":"fractal-mutation","trial_index":89,"time_elapsed":2413200,"internal_node_id":"0.0-5.0-35.0"},{"group":"tri cycles (cube, non-group)","fractal_assignment":["../images/grn_red.png","../images/blu_wht.png","../images/gry_blk.png","../images/pnk_blu.png","../images/org_blu.png","../images/cyn_red.png","../images/ylw_slt.png","../images/ylw_pnk.png"],"mutagen_generator_assignment":[0,1],"goal":4,"start":7,"action_noise":0.1,"location_history":"[7,3,4]","action_history":"[1,1]","mutagen_history":"[1,1]","location_rts":"[166,147]","trial_type":"fractal-mutation","trial_index":90,"time_elapsed":2419090,"internal_node_id":"0.0-5.0-36.0"},{"group":"tri cycles (cube, non-group)","fractal_assignment":["../images/grn_red.png","../images/blu_wht.png","../images/gry_blk.png","../images/pnk_blu.png","../images/org_blu.png","../images/cyn_red.png","../images/ylw_slt.png","../images/ylw_pnk.png"],"mutagen_generator_assignment":[0,1],"goal":5,"start":4,"action_noise":0.1,"location_history":"[4,0,2,1,5]","action_history":"[1,0,0,1]","mutagen_history":"[1,0,0,1]","location_rts":"[100,169,136,236]","trial_type":"fractal-mutation","trial_index":91,"time_elapsed":2427352,"internal_node_id":"0.0-5.0-37.0"},{"group":"tri cycles (cube, non-group)","fractal_assignment":["../images/grn_red.png","../images/blu_wht.png","../images/gry_blk.png","../images/pnk_blu.png","../images/org_blu.png","../images/cyn_red.png","../images/ylw_slt.png","../images/ylw_pnk.png"],"mutagen_generator_assignment":[0,1],"goal":0,"start":5,"action_noise":0.1,"location_history":"[5,1,5,2,1,0]","action_history":"[0,1,1,0,0]","mutagen_history":"[0,1,1,0,0]","location_rts":"[6,275,221,321,248]","trial_type":"fractal-mutation","trial_index":92,"time_elapsed":2437083,"internal_node_id":"0.0-5.0-38.0"},{"group":"tri cycles (cube, non-group)","fractal_assignment":["../images/grn_red.png","../images/blu_wht.png","../images/gry_blk.png","../images/pnk_blu.png","../images/org_blu.png","../images/cyn_red.png","../images/ylw_slt.png","../images/ylw_pnk.png"],"mutagen_generator_assignment":[0,1],"goal":4,"start":0,"action_noise":0.1,"location_history":"[0,3,4]","action_history":"[1,1]","mutagen_history":"[1,1]","location_rts":"[377,301]","trial_type":"fractal-mutation","trial_index":93,"time_elapsed":2443315,"internal_node_id":"0.0-5.0-39.0"},{"group":"tri cycles (cube, non-group)","fractal_assignment":["../images/grn_red.png","../images/blu_wht.png","../images/gry_blk.png","../images/pnk_blu.png","../images/org_blu.png","../images/cyn_red.png","../images/ylw_slt.png","../images/ylw_pnk.png"],"mutagen_generator_assignment":[0,1],"goal":0,"start":4,"action_noise":0.1,"location_history":"[4,0]","action_history":"[1]","mutagen_history":"[1]","location_rts":"[137]","trial_type":"fractal-mutation","trial_index":94,"time_elapsed":2447981,"internal_node_id":"0.0-5.0-40.0"},{"group":"tri cycles (cube, non-group)","fractal_assignment":["../images/grn_red.png","../images/blu_wht.png","../images/gry_blk.png","../images/pnk_blu.png","../images/org_blu.png","../images/cyn_red.png","../images/ylw_slt.png","../images/ylw_pnk.png"],"mutagen_generator_assignment":[0,1],"goal":2,"start":0,"action_noise":0.1,"location_history":"[0,3,7,6,4,0,3,7,3,4,7,6,4,0,2]","action_history":"[1,0,0,0,1,1,0,1,1,0,0,0,1,0]","mutagen_history":"[1,0,0,0,1,1,0,1,1,0,0,0,1,0]","location_rts":"[68,9,122,58,28,361,117,343,124,111,235,128,153,175]","trial_type":"fractal-mutation","trial_index":95,"time_elapsed":2467926,"internal_node_id":"0.0-5.0-41.0"},{"group":"tri cycles (cube, non-group)","fractal_assignment":["../images/grn_red.png","../images/blu_wht.png","../images/gry_blk.png","../images/pnk_blu.png","../images/org_blu.png","../images/cyn_red.png","../images/ylw_slt.png","../images/ylw_pnk.png"],"mutagen_generator_assignment":[0,1],"goal":3,"start":2,"action_noise":0.1,"location_history":"[2,6,5,1,5,2,1,0,3]","action_history":"[1,0,0,1,1,0,0,1]","mutagen_history":"[1,0,0,1,1,0,0,1]","location_rts":"[125,354,128,187,203,93,99,92]","trial_type":"fractal-mutation","trial_index":96,"time_elapsed":2480946,"internal_node_id":"0.0-5.0-42.0"},{"group":"tri cycles (cube, non-group)","fractal_assignment":["../images/grn_red.png","../images/blu_wht.png","../images/gry_blk.png","../images/pnk_blu.png","../images/org_blu.png","../images/cyn_red.png","../images/ylw_slt.png","../images/ylw_pnk.png"],"mutagen_generator_assignment":[0,1],"goal":5,"start":3,"action_noise":0.1,"location_history":"[3,4,7,3,4,0,2,6,5]","action_history":"[1,0,1,1,1,0,0,1]","mutagen_history":"[1,0,1,1,1,0,0,1]","location_rts":"[200,36,372,191,200,119,212,112]","trial_type":"fractal-mutation","trial_index":97,"time_elapsed":2494115,"internal_node_id":"0.0-5.0-43.0"},{"group":"tri cycles (cube, non-group)","fractal_assignment":["../images/grn_red.png","../images/blu_wht.png","../images/gry_blk.png","../images/pnk_blu.png","../images/org_blu.png","../images/cyn_red.png","../images/ylw_slt.png","../images/ylw_pnk.png"],"mutagen_generator_assignment":[0,1],"goal":1,"start":5,"action_noise":0.1,"location_history":"[5,2,1]","action_history":"[1,0]","mutagen_history":"[1,0]","location_rts":"[66,96]","trial_type":"fractal-mutation","trial_index":98,"time_elapsed":2499842,"internal_node_id":"0.0-5.0-44.0"},{"group":"tri cycles (cube, non-group)","fractal_assignment":["../images/grn_red.png","../images/blu_wht.png","../images/gry_blk.png","../images/pnk_blu.png","../images/org_blu.png","../images/cyn_red.png","../images/ylw_slt.png","../images/ylw_pnk.png"],"mutagen_generator_assignment":[0,1],"goal":7,"start":1,"action_noise":0.1,"location_history":"[1,5,2,1,5,1,0,3,4,0,3,7]","action_history":"[1,1,0,1,0,0,1,1,1,1,0]","mutagen_history":"[1,1,0,1,0,0,1,1,1,1,0]","location_rts":"[266,13,195,20,259,226,24,129,292,10,182]","trial_type":"fractal-mutation","trial_index":99,"time_elapsed":2516353,"internal_node_id":"0.0-5.0-45.0"},{"group":"tri cycles (cube, non-group)","fractal_assignment":["../images/grn_red.png","../images/blu_wht.png","../images/gry_blk.png","../images/pnk_blu.png","../images/org_blu.png","../images/cyn_red.png","../images/ylw_slt.png","../images/ylw_pnk.png"],"mutagen_generator_assignment":[0,1],"goal":6,"start":7,"action_noise":0.1,"location_history":"[7,3,7,3,4,7,6]","action_history":"[1,0,1,1,0,1]","mutagen_history":"[1,0,1,1,0,1]","location_rts":"[147,69,70,82,46,120]","trial_type":"fractal-mutation","trial_index":100,"time_elapsed":2526576,"internal_node_id":"0.0-5.0-46.0"},{"group":"tri cycles (cube, non-group)","fractal_assignment":["../images/grn_red.png","../images/blu_wht.png","../images/gry_blk.png","../images/pnk_blu.png","../images/org_blu.png","../images/cyn_red.png","../images/ylw_slt.png","../images/ylw_pnk.png"],"mutagen_generator_assignment":[0,1],"goal":3,"start":6,"action_noise":0.1,"location_history":"[6,4,0,2,1,0,3]","action_history":"[0,1,1,1,0,1]","mutagen_history":"[0,1,1,1,0,1]","location_rts":"[556,59,130,175,141,40]","trial_type":"fractal-mutation","trial_index":101,"time_elapsed":2537378,"internal_node_id":"0.0-5.0-47.0"},{"group":"tri cycles (cube, non-group)","fractal_assignment":["../images/grn_red.png","../images/blu_wht.png","../images/gry_blk.png","../images/pnk_blu.png","../images/org_blu.png","../images/cyn_red.png","../images/ylw_slt.png","../images/ylw_pnk.png"],"mutagen_generator_assignment":[0,1],"goal":0,"start":3,"action_noise":0.1,"location_history":"[3,4,7,6,5,1,5,1,5,2,1,5,2,1,0]","action_history":"[1,0,1,1,0,1,0,1,1,0,1,1,0,0]","mutagen_history":"[1,0,1,1,0,1,0,1,1,0,1,1,0,0]","location_rts":"[276,111,199,198,335,30,98,75,196,279,249,296,61,393]","trial_type":"fractal-mutation","trial_index":102,"time_elapsed":2558139,"internal_node_id":"0.0-5.0-48.0"},{"group":"tri cycles (cube, non-group)","fractal_assignment":["../images/grn_red.png","../images/blu_wht.png","../images/gry_blk.png","../images/pnk_blu.png","../images/org_blu.png","../images/cyn_red.png","../images/ylw_slt.png","../images/ylw_pnk.png"],"mutagen_generator_assignment":[0,1],"goal":2,"start":0,"action_noise":0.1,"location_history":"[0,3,7,6,5,2]","action_history":"[1,0,0,1,1]","mutagen_history":"[1,0,0,1,1]","location_rts":"[194,9,142,193,12]","trial_type":"fractal-mutation","trial_index":103,"time_elapsed":2567343,"internal_node_id":"0.0-5.0-49.0"},{"view_history":"[{\"page_index\":0,\"viewing_time\":2737}]","rt":2737,"trial_type":"instructions","trial_index":104,"time_elapsed":2571081,"internal_node_id":"0.0-6.0"},{"rt":4207,"responses":"{\"Q0\":\"fun survey\"}","trial_type":"survey-text","trial_index":105,"time_elapsed":2576293,"internal_node_id":"0.0-7.0"}]