[{"view_history":"[{\"page_index\":0,\"viewing_time\":7119},{\"page_index\":1,\"viewing_time\":9950},{\"page_index\":2,\"viewing_time\":19319},{\"page_index\":3,\"viewing_time\":6368}]","rt":42758,"trial_type":"instructions","trial_index":0,"time_elapsed":42758,"internal_node_id":"0.0-0.0"},{"view_history":"[{\"page_index\":0,\"viewing_time\":1854},{\"page_index\":1,\"viewing_time\":53080}]","rt":54934,"trial_type":"instructions","trial_index":1,"time_elapsed":98694,"internal_node_id":"0.0-1.0"},{"group":"square cycles (cube, non-group)","room_assignment":["red","green","grey","brown","blue","purple","yellow","pink"],"door_color_assignment":["white","black"],"door_generator_assignment":[1,0],"goal":3,"start":0,"action_noise":0.1,"location_history":"[0,1,2,6,7,3]","action_history":"[0,0,1,1,1]","door_history":"[1,1,0,0,0]","location_rts":"[4860,4462,2680,6254,4382]","trial_type":"two-door-navigation","trial_index":2,"time_elapsed":129846,"internal_node_id":"0.0-2.0-0.0"},{"group":"square cycles (cube, non-group)","room_assignment":["red","green","grey","brown","blue","purple","yellow","pink"],"door_color_assignment":["white","black"],"door_generator_assignment":[1,0],"goal":1,"start":3,"action_noise":0.1,"location_history":"[3,2,6,7,3,0,4,7,3,0,1]","action_history":"[1,1,1,1,0,1,0,1,0,0]","door_history":"[0,0,0,0,1,0,1,0,1,1]","location_rts":"[4199,2348,872,2323,1713,2877,1133,2590,801,2909]","trial_type":"two-door-navigation","trial_index":3,"time_elapsed":165130,"internal_node_id":"0.0-2.0-1.0"},{"group":"square cycles (cube, non-group)","room_assignment":["red","green","grey","brown","blue","purple","yellow","pink"],"door_color_assignment":["white","black"],"door_generator_assignment":[1,0],"goal":2,"start":1,"action_noise":0.1,"location_history":"[1,2]","action_history":"[0]","door_history":"[1]","location_rts":"[3307]","trial_type":"two-door-navigation","trial_index":4,"time_elapsed":172937,"internal_node_id":"0.0-2.0-2.0"},{"group":"square cycles (cube, non-group)","room_assignment":["red","green","grey","brown","blue","purple","yellow","pink"],"door_color_assignment":["white","black"],"door_generator_assignment":[1,0],"goal":6,"start":2,"action_noise":0.1,"location_history":"[2,3,0,1,2,6]","action_history":"[0,0,0,0,0]","door_history":"[1,1,1,1,1]","location_rts":"[1778,1706,1025,800,1472]","trial_type":"two-door-navigation","trial_index":5,"time_elapsed":188249,"internal_node_id":"0.0-2.0-3.0"},{"group":"square cycles (cube, non-group)","room_assignment":["red","green","grey","brown","blue","purple","yellow","pink"],"door_color_assignment":["white","black"],"door_generator_assignment":[1,0],"goal":5,"start":6,"action_noise":0.1,"location_history":"[6,5]","action_history":"[0]","door_history":"[1]","location_rts":"[2708]","trial_type":"two-door-navigation","trial_index":6,"time_elapsed":195460,"internal_node_id":"0.0-2.0-4.0"},{"group":"square cycles (cube, non-group)","room_assignment":["red","green","grey","brown","blue","purple","yellow","pink"],"door_color_assignment":["white","black"],"door_generator_assignment":[1,0],"goal":4,"start":5,"action_noise":0.1,"location_history":"[5,4]","action_history":"[0]","door_history":"[1]","location_rts":"[5296]","trial_type":"two-door-navigation","trial_index":7,"time_elapsed":205261,"internal_node_id":"0.0-2.0-5.0"},{"group":"square cycles (cube, non-group)","room_assignment":["red","green","grey","brown","blue","purple","yellow","pink"],"door_color_assignment":["white","black"],"door_generator_assignment":[1,0],"goal":7,"start":4,"action_noise":0.1,"location_history":"[4,5,1,0,4,5,1,0,1,0,1,2,6,7]","action_history":"[1,1,1,1,1,1,1,1,1,0,0,1,1]","door_history":"[0,0,0,0,0,0,0,0,0,1,1,0,0]","location_rts":"[2504,478,564,478,404,513,480,462,472,896,998,1847,1517]","trial_type":"two-door-navigation","trial_index":8,"time_elapsed":233394,"internal_node_id":"0.0-2.0-6.0"},{"group":"square cycles (cube, non-group)","room_assignment":["red","green","grey","brown","blue","purple","yellow","pink"],"door_color_assignment":["white","black"],"door_generator_assignment":[1,0],"goal":4,"start":7,"action_noise":0.1,"location_history":"[7,6,5,1,2,3,0,1,2,6,5,4]","action_history":"[0,0,0,0,0,0,0,0,1,0,0]","door_history":"[1,1,1,1,1,1,1,1,0,1,1]","location_rts":"[2467,342,444,488,402,610,2191,465,415,409,231]","trial_type":"two-door-navigation","trial_index":9,"time_elapsed":256381,"internal_node_id":"0.0-2.0-7.0"},{"group":"square cycles (cube, non-group)","room_assignment":["red","green","grey","brown","blue","purple","yellow","pink"],"door_color_assignment":["white","black"],"door_generator_assignment":[1,0],"goal":6,"start":4,"action_noise":0.1,"location_history":"[4,5,1,0,4,7,6]","action_history":"[1,1,1,1,0,0]","door_history":"[0,0,0,0,1,1]","location_rts":"[2192,390,1151,631,1125,1001]","trial_type":"two-door-navigation","trial_index":10,"time_elapsed":272379,"internal_node_id":"0.0-2.0-8.0"},{"group":"square cycles (cube, non-group)","room_assignment":["red","green","grey","brown","blue","purple","yellow","pink"],"door_color_assignment":["white","black"],"door_generator_assignment":[1,0],"goal":0,"start":6,"action_noise":0.1,"location_history":"[6,5,4,7,6,5,4,7,3,0]","action_history":"[0,0,0,0,0,0,0,1,0]","door_history":"[1,1,1,1,1,1,1,0,1]","location_rts":"[2181,366,360,311,381,359,380,990,1139]","trial_type":"two-door-navigation","trial_index":11,"time_elapsed":291371,"internal_node_id":"0.0-2.0-9.0"},{"group":"square cycles (cube, non-group)","room_assignment":["red","green","grey","brown","blue","purple","yellow","pink"],"door_color_assignment":["white","black"],"door_generator_assignment":[1,0],"goal":1,"start":0,"action_noise":0.1,"location_history":"[0,1]","action_history":"[1]","door_history":"[0]","location_rts":"[1674]","trial_type":"two-door-navigation","trial_index":12,"time_elapsed":297545,"internal_node_id":"0.0-2.0-10.0"},{"group":"square cycles (cube, non-group)","room_assignment":["red","green","grey","brown","blue","purple","yellow","pink"],"door_color_assignment":["white","black"],"door_generator_assignment":[1,0],"goal":3,"start":1,"action_noise":0.1,"location_history":"[1,0,4,5,4,7,6,5,4,5,4,7,3]","action_history":"[1,1,1,0,0,0,0,0,1,1,0,1]","door_history":"[0,0,0,1,1,1,1,1,0,0,1,0]","location_rts":"[1268,690,654,1238,424,1101,322,656,331,1943,591,253]","trial_type":"two-door-navigation","trial_index":13,"time_elapsed":322536,"internal_node_id":"0.0-2.0-11.0"},{"group":"square cycles (cube, non-group)","room_assignment":["red","green","grey","brown","blue","purple","yellow","pink"],"door_color_assignment":["white","black"],"door_generator_assignment":[1,0],"goal":7,"start":3,"action_noise":0.1,"location_history":"[3,0,1,0,1,2,6,7]","action_history":"[0,0,1,0,0,1,1]","door_history":"[1,1,0,1,1,0,0]","location_rts":"[1876,2448,640,1551,406,872,845]","trial_type":"two-door-navigation","trial_index":14,"time_elapsed":341691,"internal_node_id":"0.0-2.0-12.0"},{"group":"square cycles (cube, non-group)","room_assignment":["red","green","grey","brown","blue","purple","yellow","pink"],"door_color_assignment":["white","black"],"door_generator_assignment":[1,0],"goal":5,"start":7,"action_noise":0.1,"location_history":"[7,3,2,3,2,3,0,1,2,3,2,6,5]","action_history":"[1,1,1,1,0,0,0,0,0,0,1,0]","door_history":"[0,0,0,0,1,1,1,1,1,1,0,1]","location_rts":"[8931,328,620,441,541,345,918,471,423,1136,3039,2812]","trial_type":"two-door-navigation","trial_index":15,"time_elapsed":377212,"internal_node_id":"0.0-2.0-13.0"},{"group":"square cycles (cube, non-group)","room_assignment":["red","green","grey","brown","blue","purple","yellow","pink"],"door_color_assignment":["white","black"],"door_generator_assignment":[1,0],"goal":2,"start":5,"action_noise":0.1,"location_history":"[5,1,0,4,7,6,7,3,0,1,0,1,0,1,2]","action_history":"[1,1,1,0,0,1,1,1,0,1,0,1,0,0]","door_history":"[0,0,0,1,1,0,0,0,1,0,1,0,1,1]","location_rts":"[2778,1248,935,422,1487,364,278,422,1632,222,504,591,357,270]","trial_type":"two-door-navigation","trial_index":16,"time_elapsed":406250,"internal_node_id":"0.0-2.0-14.0"},{"group":"square cycles (cube, non-group)","room_assignment":["red","green","grey","brown","blue","purple","yellow","pink"],"door_color_assignment":["white","black"],"door_generator_assignment":[1,0],"goal":7,"start":2,"action_noise":0.1,"location_history":"[2,3,2,6,7]","action_history":"[0,0,1,1]","door_history":"[1,1,0,0]","location_rts":"[2395,3808,1406,583]","trial_type":"two-door-navigation","trial_index":17,"time_elapsed":421944,"internal_node_id":"0.0-2.0-15.0"},{"group":"square cycles (cube, non-group)","room_assignment":["red","green","grey","brown","blue","purple","yellow","pink"],"door_color_assignment":["white","black"],"door_generator_assignment":[1,0],"goal":4,"start":7,"action_noise":0.1,"location_history":"[7,3,2,3,0,4]","action_history":"[1,0,0,0,0]","door_history":"[0,1,1,1,1]","location_rts":"[4140,1768,376,1336,486]","trial_type":"two-door-navigation","trial_index":18,"time_elapsed":438554,"internal_node_id":"0.0-2.0-16.0"},{"group":"square cycles (cube, non-group)","room_assignment":["red","green","grey","brown","blue","purple","yellow","pink"],"door_color_assignment":["white","black"],"door_generator_assignment":[1,0],"goal":2,"start":4,"action_noise":0.1,"location_history":"[4,5,1,0,1,2]","action_history":"[1,1,1,0,0]","door_history":"[0,0,0,1,1]","location_rts":"[2380,519,729,1775,601]","trial_type":"two-door-navigation","trial_index":19,"time_elapsed":453059,"internal_node_id":"0.0-2.0-17.0"},{"group":"square cycles (cube, non-group)","room_assignment":["red","green","grey","brown","blue","purple","yellow","pink"],"door_color_assignment":["white","black"],"door_generator_assignment":[1,0],"goal":3,"start":2,"action_noise":0.1,"location_history":"[2,3]","action_history":"[0]","door_history":"[1]","location_rts":"[3202]","trial_type":"two-door-navigation","trial_index":20,"time_elapsed":460761,"internal_node_id":"0.0-2.0-18.0"},{"group":"square cycles (cube, non-group)","room_assignment":["red","green","grey","brown","blue","purple","yellow","pink"],"door_color_assignment":["white","black"],"door_generator_assignment":[1,0],"goal":6,"start":3,"action_noise":0.1,"location_history":"[3,0,1,0,1,0,4,5,1,0,1,0,1,2,3,0,4,5,1,0,1,0,1,2,6]","action_history":"[0,0,1,1,1,1,1,1,1,0,0,0,0,0,0,0,1,1,1,0,1,0,0,1]","door_history":"[1,1,0,0,0,0,0,0,0,1,1,1,1,1,1,1,0,0,0,1,0,1,1,0]","location_rts":"[2355,1778,461,1528,3054,813,532,407,360,536,277,288,304,367,503,758,344,329,342,1105,350,319,711,991]","trial_type":"two-door-navigation","trial_index":21,"time_elapsed":507100,"internal_node_id":"0.0-2.0-19.0"},{"group":"square cycles (cube, non-group)","room_assignment":["red","green","grey","brown","blue","purple","yellow","pink"],"door_color_assignment":["white","black"],"door_generator_assignment":[1,0],"goal":5,"start":6,"action_noise":0.1,"location_history":"[6,5]","action_history":"[0]","door_history":"[1]","location_rts":"[3807]","trial_type":"two-door-navigation","trial_index":22,"time_elapsed":515410,"internal_node_id":"0.0-2.0-20.0"},{"group":"square cycles (cube, non-group)","room_assignment":["red","green","grey","brown","blue","purple","yellow","pink"],"door_color_assignment":["white","black"],"door_generator_assignment":[1,0],"goal":1,"start":5,"action_noise":0.1,"location_history":"[5,4,7,6,7,3,2,6,7,3,2,6,5,4,7,3,2,3,0,1]","action_history":"[0,0,0,1,1,1,1,1,1,1,1,0,0,0,1,1,0,0,0]","door_history":"[1,1,1,0,0,0,0,0,0,0,0,1,1,1,0,0,1,1,1]","location_rts":"[1523,1881,1908,1340,399,1095,872,938,384,429,240,2725,350,360,1493,261,695,247,246]","trial_type":"two-door-navigation","trial_index":23,"time_elapsed":555345,"internal_node_id":"0.0-2.0-21.0"},{"group":"square cycles (cube, non-group)","room_assignment":["red","green","grey","brown","blue","purple","yellow","pink"],"door_color_assignment":["white","black"],"door_generator_assignment":[1,0],"goal":0,"start":1,"action_noise":0.1,"location_history":"[1,0]","action_history":"[0]","door_history":"[1]","location_rts":"[2314]","trial_type":"two-door-navigation","trial_index":24,"time_elapsed":562163,"internal_node_id":"0.0-2.0-22.0"},{"group":"square cycles (cube, non-group)","room_assignment":["red","green","grey","brown","blue","purple","yellow","pink"],"door_color_assignment":["white","black"],"door_generator_assignment":[1,0],"goal":2,"start":0,"action_noise":0.1,"location_history":"[0,4,5,1,0,4,5,1,2]","action_history":"[1,1,0,1,1,1,1,0]","door_history":"[0,0,1,0,0,0,0,1]","location_rts":"[2202,1553,1953,335,480,560,1375,4804]","trial_type":"two-door-navigation","trial_index":25,"time_elapsed":586938,"internal_node_id":"0.0-2.0-23.0"},{"group":"square cycles (cube, non-group)","room_assignment":["red","green","grey","brown","blue","purple","yellow","pink"],"door_color_assignment":["white","black"],"door_generator_assignment":[1,0],"goal":6,"start":2,"action_noise":0.1,"location_history":"[2,3,0,1,2,6]","action_history":"[0,0,0,0,1]","door_history":"[1,1,1,1,0]","location_rts":"[2818,1464,528,368,333]","trial_type":"two-door-navigation","trial_index":26,"time_elapsed":600955,"internal_node_id":"0.0-2.0-24.0"},{"group":"square cycles (cube, non-group)","room_assignment":["red","green","grey","brown","blue","purple","yellow","pink"],"door_color_assignment":["white","black"],"door_generator_assignment":[1,0],"goal":1,"start":6,"action_noise":0.1,"location_history":"[6,5,4,5,4,7,6,7,3,0,1]","action_history":"[0,0,1,0,0,0,1,0,0,0]","door_history":"[1,1,0,1,1,1,0,1,1,1]","location_rts":"[2937,443,1356,704,229,360,479,322,366,486]","trial_type":"two-door-navigation","trial_index":27,"time_elapsed":622154,"internal_node_id":"0.0-2.0-25.0"},{"group":"square cycles (cube, non-group)","room_assignment":["red","green","grey","brown","blue","purple","yellow","pink"],"door_color_assignment":["white","black"],"door_generator_assignment":[1,0],"goal":3,"start":1,"action_noise":0.1,"location_history":"[1,2,6,7,3]","action_history":"[0,1,1,1]","door_history":"[1,0,0,0]","location_rts":"[2099,1163,320,448]","trial_type":"two-door-navigation","trial_index":28,"time_elapsed":633690,"internal_node_id":"0.0-2.0-26.0"},{"group":"square cycles (cube, non-group)","room_assignment":["red","green","grey","brown","blue","purple","yellow","pink"],"door_color_assignment":["white","black"],"door_generator_assignment":[1,0],"goal":7,"start":3,"action_noise":0.1,"location_history":"[3,2,6,7]","action_history":"[1,1,1]","door_history":"[0,0,0]","location_rts":"[2635,240,85]","trial_type":"two-door-navigation","trial_index":29,"time_elapsed":643153,"internal_node_id":"0.0-2.0-27.0"},{"group":"square cycles (cube, non-group)","room_assignment":["red","green","grey","brown","blue","purple","yellow","pink"],"door_color_assignment":["white","black"],"door_generator_assignment":[1,0],"goal":4,"start":7,"action_noise":0.1,"location_history":"[7,6,5,4]","action_history":"[0,0,0]","door_history":"[1,1,1]","location_rts":"[1843,1920,646]","trial_type":"two-door-navigation","trial_index":30,"time_elapsed":654066,"internal_node_id":"0.0-2.0-28.0"},{"group":"square cycles (cube, non-group)","room_assignment":["red","green","grey","brown","blue","purple","yellow","pink"],"door_color_assignment":["white","black"],"door_generator_assignment":[1,0],"goal":0,"start":4,"action_noise":0.1,"location_history":"[4,5,1,0]","action_history":"[1,1,1]","door_history":"[0,0,0]","location_rts":"[4670,5608,2138]","trial_type":"two-door-navigation","trial_index":31,"time_elapsed":672986,"internal_node_id":"0.0-2.0-29.0"},{"group":"square cycles (cube, non-group)","room_assignment":["red","green","grey","brown","blue","purple","yellow","pink"],"door_color_assignment":["white","black"],"door_generator_assignment":[1,0],"goal":5,"start":0,"action_noise":0.1,"location_history":"[0,4,7,6,7,6,5]","action_history":"[1,0,0,0,0,0]","door_history":"[0,1,1,1,1,1]","location_rts":"[2236,465,743,452,999,380]","trial_type":"two-door-navigation","trial_index":32,"time_elapsed":687770,"internal_node_id":"0.0-2.0-30.0"},{"group":"square cycles (cube, non-group)","room_assignment":["red","green","grey","brown","blue","purple","yellow","pink"],"door_color_assignment":["white","black"],"door_generator_assignment":[1,0],"goal":3,"start":5,"action_noise":0.1,"location_history":"[5,4,5,1,0,1,2,3]","action_history":"[0,1,1,1,0,0,0]","door_history":"[1,0,0,0,1,1,1]","location_rts":"[5836,845,856,519,524,319,262]","trial_type":"two-door-navigation","trial_index":33,"time_elapsed":707442,"internal_node_id":"0.0-2.0-31.0"},{"group":"square cycles (cube, non-group)","room_assignment":["red","green","grey","brown","blue","purple","yellow","pink"],"door_color_assignment":["white","black"],"door_generator_assignment":[1,0],"goal":2,"start":3,"action_noise":0.1,"location_history":"[3,0,4,7,3,2]","action_history":"[0,1,1,1,1]","door_history":"[1,0,0,0,0]","location_rts":"[3260,863,231,215,622]","trial_type":"two-door-navigation","trial_index":34,"time_elapsed":721147,"internal_node_id":"0.0-2.0-32.0"},{"group":"square cycles (cube, non-group)","room_assignment":["red","green","grey","brown","blue","purple","yellow","pink"],"door_color_assignment":["white","black"],"door_generator_assignment":[1,0],"goal":6,"start":2,"action_noise":0.1,"location_history":"[2,6]","action_history":"[1]","door_history":"[0]","location_rts":"[2058]","trial_type":"two-door-navigation","trial_index":35,"time_elapsed":727707,"internal_node_id":"0.0-2.0-33.0"},{"group":"square cycles (cube, non-group)","room_assignment":["red","green","grey","brown","blue","purple","yellow","pink"],"door_color_assignment":["white","black"],"door_generator_assignment":[1,0],"goal":1,"start":6,"action_noise":0.1,"location_history":"[6,7,6,5,1]","action_history":"[0,0,0,1]","door_history":"[1,1,1,0]","location_rts":"[2674,398,448,1519]","trial_type":"two-door-navigation","trial_index":36,"time_elapsed":740249,"internal_node_id":"0.0-2.0-34.0"},{"group":"square cycles (cube, non-group)","room_assignment":["red","green","grey","brown","blue","purple","yellow","pink"],"door_color_assignment":["white","black"],"door_generator_assignment":[1,0],"goal":7,"start":1,"action_noise":0.1,"location_history":"[1,0,4,5,1,2,6,7]","action_history":"[0,1,1,1,0,0,1]","door_history":"[1,0,0,0,1,1,0]","location_rts":"[3206,342,311,449,511,455,304]","trial_type":"two-door-navigation","trial_index":37,"time_elapsed":756332,"internal_node_id":"0.0-2.0-35.0"},{"group":"square cycles (cube, non-group)","room_assignment":["red","green","grey","brown","blue","purple","yellow","pink"],"door_color_assignment":["white","black"],"door_generator_assignment":[1,0],"goal":4,"start":7,"action_noise":0.1,"location_history":"[7,3,0,4]","action_history":"[0,0,1]","door_history":"[1,1,0]","location_rts":"[17498,304,285]","trial_type":"two-door-navigation","trial_index":38,"time_elapsed":780922,"internal_node_id":"0.0-2.0-36.0"},{"group":"square cycles (cube, non-group)","room_assignment":["red","green","grey","brown","blue","purple","yellow","pink"],"door_color_assignment":["white","black"],"door_generator_assignment":[1,0],"goal":5,"start":4,"action_noise":0.1,"location_history":"[4,5]","action_history":"[1]","door_history":"[0]","location_rts":"[1195]","trial_type":"two-door-navigation","trial_index":39,"time_elapsed":786620,"internal_node_id":"0.0-2.0-37.0"},{"group":"square cycles (cube, non-group)","room_assignment":["red","green","grey","brown","blue","purple","yellow","pink"],"door_color_assignment":["white","black"],"door_generator_assignment":[1,0],"goal":0,"start":5,"action_noise":0.1,"location_history":"[5,1,2,3,0]","action_history":"[1,0,0,0]","door_history":"[0,1,1,1]","location_rts":"[1249,1156,384,449]","trial_type":"two-door-navigation","trial_index":40,"time_elapsed":797365,"internal_node_id":"0.0-2.0-38.0"},{"group":"square cycles (cube, non-group)","room_assignment":["red","green","grey","brown","blue","purple","yellow","pink"],"door_color_assignment":["white","black"],"door_generator_assignment":[1,0],"goal":4,"start":0,"action_noise":0.1,"location_history":"[0,1,2,3,2,3,0,1,0,4]","action_history":"[0,0,1,1,0,0,0,1,1]","door_history":"[1,1,0,0,1,1,1,0,0]","location_rts":"[2690,359,453,361,333,415,325,126,256]","trial_type":"two-door-navigation","trial_index":41,"time_elapsed":815194,"internal_node_id":"0.0-2.0-39.0"},{"group":"square cycles (cube, non-group)","room_assignment":["red","green","grey","brown","blue","purple","yellow","pink"],"door_color_assignment":["white","black"],"door_generator_assignment":[1,0],"goal":0,"start":4,"action_noise":0.1,"location_history":"[4,7,3,2,6,7,6,5,4,7,3,0]","action_history":"[0,1,1,1,1,0,0,0,0,0,0]","door_history":"[1,0,0,0,0,1,1,1,1,1,1]","location_rts":"[2234,1189,823,441,358,288,223,614,248,512,356]","trial_type":"two-door-navigation","trial_index":42,"time_elapsed":836994,"internal_node_id":"0.0-2.0-40.0"},{"group":"square cycles (cube, non-group)","room_assignment":["red","green","grey","brown","blue","purple","yellow","pink"],"door_color_assignment":["white","black"],"door_generator_assignment":[1,0],"goal":2,"start":0,"action_noise":0.1,"location_history":"[0,1,2]","action_history":"[0,0]","door_history":"[1,1]","location_rts":"[2198,144]","trial_type":"two-door-navigation","trial_index":43,"time_elapsed":844841,"internal_node_id":"0.0-2.0-41.0"},{"group":"square cycles (cube, non-group)","room_assignment":["red","green","grey","brown","blue","purple","yellow","pink"],"door_color_assignment":["white","black"],"door_generator_assignment":[1,0],"goal":3,"start":2,"action_noise":0.1,"location_history":"[2,6,7,3]","action_history":"[1,1,1]","door_history":"[0,0,0]","location_rts":"[1315,317,288]","trial_type":"two-door-navigation","trial_index":44,"time_elapsed":853266,"internal_node_id":"0.0-2.0-42.0"},{"group":"square cycles (cube, non-group)","room_assignment":["red","green","grey","brown","blue","purple","yellow","pink"],"door_color_assignment":["white","black"],"door_generator_assignment":[1,0],"goal":5,"start":3,"action_noise":0.1,"location_history":"[3,0,1,2,6,7,3,0,4,7,3,0,4,5]","action_history":"[0,0,0,1,1,1,0,1,0,1,0,1,1]","door_history":"[1,1,1,0,0,0,1,0,1,0,1,0,0]","location_rts":"[2017,752,367,788,400,336,720,320,496,336,838,307,720]","trial_type":"two-door-navigation","trial_index":45,"time_elapsed":878177,"internal_node_id":"0.0-2.0-43.0"},{"group":"square cycles (cube, non-group)","room_assignment":["red","green","grey","brown","blue","purple","yellow","pink"],"door_color_assignment":["white","black"],"door_generator_assignment":[1,0],"goal":1,"start":5,"action_noise":0.1,"location_history":"[5,4,7,6,7,3,2,3,2,3,0,1]","action_history":"[0,0,0,1,1,1,1,1,0,0,0]","door_history":"[1,1,1,0,0,0,0,0,1,1,1]","location_rts":"[1316,1600,688,373,239,245,1367,223,272,225,263]","trial_type":"two-door-navigation","trial_index":46,"time_elapsed":899508,"internal_node_id":"0.0-2.0-44.0"},{"group":"square cycles (cube, non-group)","room_assignment":["red","green","grey","brown","blue","purple","yellow","pink"],"door_color_assignment":["white","black"],"door_generator_assignment":[1,0],"goal":7,"start":1,"action_noise":0.1,"location_history":"[1,0,1,0,1,2,6,7]","action_history":"[1,1,1,0,0,1,1]","door_history":"[0,0,0,1,1,0,0]","location_rts":"[1894,1311,255,311,1720,560,318]","trial_type":"two-door-navigation","trial_index":47,"time_elapsed":916386,"internal_node_id":"0.0-2.0-45.0"},{"group":"square cycles (cube, non-group)","room_assignment":["red","green","grey","brown","blue","purple","yellow","pink"],"door_color_assignment":["white","black"],"door_generator_assignment":[1,0],"goal":6,"start":7,"action_noise":0.1,"location_history":"[7,3,2,3,0,1,0,4,7,6]","action_history":"[1,1,0,0,0,1,1,0,0]","door_history":"[0,0,1,1,1,0,0,1,1]","location_rts":"[4957,304,126,434,1136,5279,1387,340,317]","trial_type":"two-door-navigation","trial_index":48,"time_elapsed":943179,"internal_node_id":"0.0-2.0-46.0"},{"group":"square cycles (cube, non-group)","room_assignment":["red","green","grey","brown","blue","purple","yellow","pink"],"door_color_assignment":["white","black"],"door_generator_assignment":[1,0],"goal":3,"start":6,"action_noise":0.1,"location_history":"[6,7,6,7,3]","action_history":"[1,1,1,1]","door_history":"[0,0,0,0]","location_rts":"[874,272,307,1158]","trial_type":"two-door-navigation","trial_index":49,"time_elapsed":953297,"internal_node_id":"0.0-2.0-47.0"},{"group":"square cycles (cube, non-group)","room_assignment":["red","green","grey","brown","blue","purple","yellow","pink"],"door_color_assignment":["white","black"],"door_generator_assignment":[1,0],"goal":0,"start":3,"action_noise":0.1,"location_history":"[3,0]","action_history":"[0]","door_history":"[1]","location_rts":"[1397]","trial_type":"two-door-navigation","trial_index":50,"time_elapsed":959196,"internal_node_id":"0.0-2.0-48.0"},{"group":"square cycles (cube, non-group)","room_assignment":["red","green","grey","brown","blue","purple","yellow","pink"],"door_color_assignment":["white","black"],"door_generator_assignment":[1,0],"goal":2,"start":0,"action_noise":0.1,"location_history":"[0,4,7,6,7,3,2]","action_history":"[1,0,0,1,1,1]","door_history":"[0,1,1,0,0,0]","location_rts":"[3650,1124,1455,511,279,303]","trial_type":"two-door-navigation","trial_index":51,"time_elapsed":976026,"internal_node_id":"0.0-2.0-49.0"},{"view_history":"[{\"page_index\":0,\"viewing_time\":3315}]","rt":3315,"trial_type":"instructions","trial_index":52,"time_elapsed":980342,"internal_node_id":"0.0-3.0"},{"view_history":"[{\"page_index\":0,\"viewing_time\":1815},{\"page_index\":1,\"viewing_time\":26473}]","rt":28288,"trial_type":"instructions","trial_index":53,"time_elapsed":1009630,"internal_node_id":"0.0-4.0"},{"group":"square cycles (cube, non-group)","fractal_assignment":["../images/blu_wht.png","../images/org_blu.png","../images/cyn_red.png","../images/grn_red.png","../images/pnk_blu.png","../images/gry_blk.png","../images/ylw_pnk.png","../images/ylw_slt.png"],"mutagen_generator_assignment":[0,1],"goal":3,"start":0,"action_noise":0.1,"location_history":"[0,1,0,4,5,1,2,3]","action_history":"[0,1,1,1,1,0,1]","mutagen_history":"[0,1,1,1,1,0,1]","location_rts":"[5132,2348,1214,1083,500,650,1195]","trial_type":"fractal-mutation","trial_index":54,"time_elapsed":1032356,"internal_node_id":"0.0-5.0-0.0"},{"group":"square cycles (cube, non-group)","fractal_assignment":["../images/blu_wht.png","../images/org_blu.png","../images/cyn_red.png","../images/grn_red.png","../images/pnk_blu.png","../images/gry_blk.png","../images/ylw_pnk.png","../images/ylw_slt.png"],"mutagen_generator_assignment":[0,1],"goal":1,"start":3,"action_noise":0.1,"location_history":"[3,0,1]","action_history":"[0,0]","mutagen_history":"[0,0]","location_rts":"[5125,874]","trial_type":"fractal-mutation","trial_index":55,"time_elapsed":1043866,"internal_node_id":"0.0-5.0-1.0"},{"group":"square cycles (cube, non-group)","fractal_assignment":["../images/blu_wht.png","../images/org_blu.png","../images/cyn_red.png","../images/grn_red.png","../images/pnk_blu.png","../images/gry_blk.png","../images/ylw_pnk.png","../images/ylw_slt.png"],"mutagen_generator_assignment":[0,1],"goal":2,"start":1,"action_noise":0.1,"location_history":"[1,0,4,5,4,7,6,7,3,2]","action_history":"[0,1,1,0,0,0,1,1,1]","mutagen_history":"[0,1,1,0,0,0,1,1,1]","location_rts":"[2085,489,861,452,510,1844,664,403,890]","trial_type":"fractal-mutation","trial_index":56,"time_elapsed":1064667,"internal_node_id":"0.0-5.0-2.0"},{"group":"square cycles (cube, non-group)","fractal_assignment":["../images/blu_wht.png","../images/org_blu.png","../images/cyn_red.png","../images/grn_red.png","../images/pnk_blu.png","../images/gry_blk.png","../images/ylw_pnk.png","../images/ylw_slt.png"],"mutagen_generator_assignment":[0,1],"goal":6,"start":2,"action_noise":0.1,"location_history":"[2,6]","action_history":"[0]","mutagen_history":"[0]","location_rts":"[1468]","trial_type":"fractal-mutation","trial_index":57,"time_elapsed":1070643,"internal_node_id":"0.0-5.0-3.0"},{"group":"square cycles (cube, non-group)","fractal_assignment":["../images/blu_wht.png","../images/org_blu.png","../images/cyn_red.png","../images/grn_red.png","../images/pnk_blu.png","../images/gry_blk.png","../images/ylw_pnk.png","../images/ylw_slt.png"],"mutagen_generator_assignment":[0,1],"goal":5,"start":6,"action_noise":0.1,"location_history":"[6,5]","action_history":"[0]","mutagen_history":"[0]","location_rts":"[1231]","trial_type":"fractal-mutation","trial_index":58,"time_elapsed":1076375,"internal_node_id":"0.0-5.0-4.0"},{"group":"square cycles (cube, non-group)","fractal_assignment":["../images/blu_wht.png","../images/org_blu.png","../images/cyn_red.png","../images/grn_red.png","../images/pnk_blu.png","../images/gry_blk.png","../images/ylw_pnk.png","../images/ylw_slt.png"],"mutagen_generator_assignment":[0,1],"goal":4,"start":5,"action_noise":0.1,"location_history":"[5,4]","action_history":"[0]","mutagen_history":"[0]","location_rts":"[1345]","trial_type":"fractal-mutation","trial_index":59,"time_elapsed":1082223,"internal_node_id":"0.0-5.0-5.0"},{"group":"square cycles (cube, non-group)","fractal_assignment":["../images/blu_wht.png","../images/org_blu.png","../images/cyn_red.png","../images/grn_red.png","../images/pnk_blu.png","../images/gry_blk.png","../images/ylw_pnk.png","../images/ylw_slt.png"],"mutagen_generator_assignment":[0,1],"goal":7,"start":4,"action_noise":0.1,"location_history":"[4,7]","action_history":"[0]","mutagen_history":"[0]","location_rts":"[963]","trial_type":"fractal-mutation","trial_index":60,"time_elapsed":1087694,"internal_node_id":"0.0-5.0-6.0"},{"group":"square cycles (cube, non-group)","fractal_assignment":["../images/blu_wht.png","../images/org_blu.png","../images/cyn_red.png","../images/grn_red.png","../images/pnk_blu.png","../images/gry_blk.png","../images/ylw_pnk.png","../images/ylw_slt.png"],"mutagen_generator_assignment":[0,1],"goal":4,"start":7,"action_noise":0.1,"location_history":"[7,3,2,6,5,1,0,4]","action_history":"[1,1,1,0,1,1,1]","mutagen_history":"[1,1,1,0,1,1,1]","location_rts":"[1642,3299,886,2268,527,940,2084]","trial_type":"fractal-mutation","trial_index":61,"time_elapsed":1109895,"internal_node_id":"0.0-5.0-7.0"},{"group":"square cycles (cube, non-group)","fractal_assignment":["../images/blu_wht.png","../images/org_blu.png","../images/cyn_red.png","../images/grn_red.png","../images/pnk_blu.png","../images/gry_blk.png","../images/ylw_pnk.png","../images/ylw_slt.png"],"mutagen_generator_assignment":[0,1],"goal":6,"start":4,"action_noise":0.1,"location_history":"[4,7,6]","action_history":"[0,0]","mutagen_history":"[0,0]","location_rts":"[1491,1508]","trial_type":"fractal-mutation","trial_index":62,"time_elapsed":1118406,"internal_node_id":"0.0-5.0-8.0"},{"group":"square cycles (cube, non-group)","fractal_assignment":["../images/blu_wht.png","../images/org_blu.png","../images/cyn_red.png","../images/grn_red.png","../images/pnk_blu.png","../images/gry_blk.png","../images/ylw_pnk.png","../images/ylw_slt.png"],"mutagen_generator_assignment":[0,1],"goal":0,"start":6,"action_noise":0.1,"location_history":"[6,7,3,2,3,0]","action_history":"[1,1,1,0,0]","mutagen_history":"[1,1,1,0,0]","location_rts":"[1787,550,777,1892,926]","trial_type":"fractal-mutation","trial_index":63,"time_elapsed":1132880,"internal_node_id":"0.0-5.0-9.0"},{"group":"square cycles (cube, non-group)","fractal_assignment":["../images/blu_wht.png","../images/org_blu.png","../images/cyn_red.png","../images/grn_red.png","../images/pnk_blu.png","../images/gry_blk.png","../images/ylw_pnk.png","../images/ylw_slt.png"],"mutagen_generator_assignment":[0,1],"goal":1,"start":0,"action_noise":0.1,"location_history":"[0,1]","action_history":"[0]","mutagen_history":"[0]","location_rts":"[2024]","trial_type":"fractal-mutation","trial_index":64,"time_elapsed":1139407,"internal_node_id":"0.0-5.0-10.0"},{"group":"square cycles (cube, non-group)","fractal_assignment":["../images/blu_wht.png","../images/org_blu.png","../images/cyn_red.png","../images/grn_red.png","../images/pnk_blu.png","../images/gry_blk.png","../images/ylw_pnk.png","../images/ylw_slt.png"],"mutagen_generator_assignment":[0,1],"goal":3,"start":1,"action_noise":0.1,"location_history":"[1,0,4,5,1,0,1,0,1,2,6,7,6,7,3]","action_history":"[1,1,1,1,1,0,1,0,0,1,1,1,1,1]","mutagen_history":"[1,1,1,1,1,0,1,0,0,1,1,1,1,1]","location_rts":"[2070,335,376,519,1564,1325,391,995,343,383,907,808,389,399]","trial_type":"fractal-mutation","trial_index":65,"time_elapsed":1167850,"internal_node_id":"0.0-5.0-11.0"},{"group":"square cycles (cube, non-group)","fractal_assignment":["../images/blu_wht.png","../images/org_blu.png","../images/cyn_red.png","../images/grn_red.png","../images/pnk_blu.png","../images/gry_blk.png","../images/ylw_pnk.png","../images/ylw_slt.png"],"mutagen_generator_assignment":[0,1],"goal":7,"start":3,"action_noise":0.1,"location_history":"[3,0,1,2,3,0,1,0,1,0,4,5,4,5,1,2,3,2,3,0,1,2,3,0,4,7]","action_history":"[0,0,0,0,0,0,1,0,0,1,1,0,1,1,0,0,1,0,0,0,0,0,0,1,0]","mutagen_history":"[0,0,0,0,0,0,1,0,0,1,1,0,1,1,0,0,1,0,0,0,0,0,0,1,0]","location_rts":"[1606,461,346,380,942,548,1166,524,1139,480,443,349,1286,524,255,1001,488,431,280,283,1200,337,440,882,1475]","trial_type":"fractal-mutation","trial_index":66,"time_elapsed":1213782,"internal_node_id":"0.0-5.0-12.0"},{"group":"square cycles (cube, non-group)","fractal_assignment":["../images/blu_wht.png","../images/org_blu.png","../images/cyn_red.png","../images/grn_red.png","../images/pnk_blu.png","../images/gry_blk.png","../images/ylw_pnk.png","../images/ylw_slt.png"],"mutagen_generator_assignment":[0,1],"goal":5,"start":7,"action_noise":0.1,"location_history":"[7,6,7,6,5]","action_history":"[0,1,0,0]","mutagen_history":"[0,1,0,0]","location_rts":"[2994,938,466,396]","trial_type":"fractal-mutation","trial_index":67,"time_elapsed":1226097,"internal_node_id":"0.0-5.0-13.0"},{"group":"square cycles (cube, non-group)","fractal_assignment":["../images/blu_wht.png","../images/org_blu.png","../images/cyn_red.png","../images/grn_red.png","../images/pnk_blu.png","../images/gry_blk.png","../images/ylw_pnk.png","../images/ylw_slt.png"],"mutagen_generator_assignment":[0,1],"goal":2,"start":5,"action_noise":0.1,"location_history":"[5,4,7,6,7,6,5,4,7,6,7,3,0,4,5,1,2]","action_history":"[0,0,1,1,0,0,0,0,0,1,1,0,0,0,0,0]","mutagen_history":"[0,0,1,1,0,0,0,0,0,1,1,0,0,0,0,0]","location_rts":"[1695,469,1885,1094,558,326,457,948,1292,1411,987,1010,1407,314,283,451]","trial_type":"fractal-mutation","trial_index":68,"time_elapsed":1260280,"internal_node_id":"0.0-5.0-14.0"},{"group":"square cycles (cube, non-group)","fractal_assignment":["../images/blu_wht.png","../images/org_blu.png","../images/cyn_red.png","../images/grn_red.png","../images/pnk_blu.png","../images/gry_blk.png","../images/ylw_pnk.png","../images/ylw_slt.png"],"mutagen_generator_assignment":[0,1],"goal":7,"start":2,"action_noise":0.1,"location_history":"[2,6,5,1,2,3,0,4,5,4,7]","action_history":"[1,0,1,0,0,0,1,1,0,0]","mutagen_history":"[1,0,1,0,0,0,1,1,0,0]","location_rts":"[5624,1532,611,422,283,425,1600,312,1133,576]","trial_type":"fractal-mutation","trial_index":69,"time_elapsed":1286360,"internal_node_id":"0.0-5.0-15.0"},{"group":"square cycles (cube, non-group)","fractal_assignment":["../images/blu_wht.png","../images/org_blu.png","../images/cyn_red.png","../images/grn_red.png","../images/pnk_blu.png","../images/gry_blk.png","../images/ylw_pnk.png","../images/ylw_slt.png"],"mutagen_generator_assignment":[0,1],"goal":4,"start":7,"action_noise":0.1,"location_history":"[7,3,2,3,0,1,2,3,0,1,0,4]","action_history":"[1,1,0,0,0,0,0,0,0,1,1]","mutagen_history":"[1,1,0,0,0,0,0,0,0,1,1]","location_rts":"[2897,348,534,201,462,510,412,431,724,405,710]","trial_type":"fractal-mutation","trial_index":70,"time_elapsed":1308552,"internal_node_id":"0.0-5.0-16.0"},{"group":"square cycles (cube, non-group)","fractal_assignment":["../images/blu_wht.png","../images/org_blu.png","../images/cyn_red.png","../images/grn_red.png","../images/pnk_blu.png","../images/gry_blk.png","../images/ylw_pnk.png","../images/ylw_slt.png"],"mutagen_generator_assignment":[0,1],"goal":2,"start":4,"action_noise":0.1,"location_history":"[4,7,6,7,6,5,4,7,3,0,4,7,6,5,1,2]","action_history":"[0,0,1,0,0,0,0,0,0,1,0,0,0,1,0]","mutagen_history":"[0,0,1,0,0,0,0,0,0,1,0,0,0,1,0]","location_rts":"[1071,275,743,408,388,350,350,459,968,421,290,443,581,480,1272]","trial_type":"fractal-mutation","trial_index":71,"time_elapsed":1335617,"internal_node_id":"0.0-5.0-17.0"},{"group":"square cycles (cube, non-group)","fractal_assignment":["../images/blu_wht.png","../images/org_blu.png","../images/cyn_red.png","../images/grn_red.png","../images/pnk_blu.png","../images/gry_blk.png","../images/ylw_pnk.png","../images/ylw_slt.png"],"mutagen_generator_assignment":[0,1],"goal":3,"start":2,"action_noise":0.1,"location_history":"[2,6,7,6,7,3]","action_history":"[1,1,0,1,1]","mutagen_history":"[1,1,0,1,1]","location_rts":"[2809,1209,475,374,597]","trial_type":"fractal-mutation","trial_index":72,"time_elapsed":1349622,"internal_node_id":"0.0-5.0-18.0"},{"group":"square cycles (cube, non-group)","fractal_assignment":["../images/blu_wht.png","../images/org_blu.png","../images/cyn_red.png","../images/grn_red.png","../images/pnk_blu.png","../images/gry_blk.png","../images/ylw_pnk.png","../images/ylw_slt.png"],"mutagen_generator_assignment":[0,1],"goal":6,"start":3,"action_noise":0.1,"location_history":"[3,0,4,5,1,2,6]","action_history":"[0,0,1,0,0,1]","mutagen_history":"[0,0,1,0,0,1]","location_rts":"[1908,165,541,247,415,605]","trial_type":"fractal-mutation","trial_index":73,"time_elapsed":1363047,"internal_node_id":"0.0-5.0-19.0"},{"group":"square cycles (cube, non-group)","fractal_assignment":["../images/blu_wht.png","../images/org_blu.png","../images/cyn_red.png","../images/grn_red.png","../images/pnk_blu.png","../images/gry_blk.png","../images/ylw_pnk.png","../images/ylw_slt.png"],"mutagen_generator_assignment":[0,1],"goal":5,"start":6,"action_noise":0.1,"location_history":"[6,5]","action_history":"[0]","mutagen_history":"[0]","location_rts":"[1617]","trial_type":"fractal-mutation","trial_index":74,"time_elapsed":1369170,"internal_node_id":"0.0-5.0-20.0"},{"group":"square cycles (cube, non-group)","fractal_assignment":["../images/blu_wht.png","../images/org_blu.png","../images/cyn_red.png","../images/grn_red.png","../images/pnk_blu.png","../images/gry_blk.png","../images/ylw_pnk.png","../images/ylw_slt.png"],"mutagen_generator_assignment":[0,1],"goal":1,"start":5,"action_noise":0.1,"location_history":"[5,4,7,3,2,3,0,1]","action_history":"[0,1,1,1,0,0,0]","mutagen_history":"[0,1,1,1,0,0,0]","location_rts":"[823,477,341,340,844,365,462]","trial_type":"fractal-mutation","trial_index":75,"time_elapsed":1383370,"internal_node_id":"0.0-5.0-21.0"},{"group":"square cycles (cube, non-group)","fractal_assignment":["../images/blu_wht.png","../images/org_blu.png","../images/cyn_red.png","../images/grn_red.png","../images/pnk_blu.png","../images/gry_blk.png","../images/ylw_pnk.png","../images/ylw_slt.png"],"mutagen_generator_assignment":[0,1],"goal":0,"start":1,"action_noise":0.1,"location_history":"[1,0]","action_history":"[1]","mutagen_history":"[1]","location_rts":"[1779]","trial_type":"fractal-mutation","trial_index":76,"time_elapsed":1389662,"internal_node_id":"0.0-5.0-22.0"},{"group":"square cycles (cube, non-group)","fractal_assignment":["../images/blu_wht.png","../images/org_blu.png","../images/cyn_red.png","../images/grn_red.png","../images/pnk_blu.png","../images/gry_blk.png","../images/ylw_pnk.png","../images/ylw_slt.png"],"mutagen_generator_assignment":[0,1],"goal":2,"start":0,"action_noise":0.1,"location_history":"[0,4,5,4,5,1,2]","action_history":"[1,1,0,1,1,0]","mutagen_history":"[1,1,0,1,1,0]","location_rts":"[2389,526,1080,624,318,434]","trial_type":"fractal-mutation","trial_index":77,"time_elapsed":1404574,"internal_node_id":"0.0-5.0-23.0"},{"group":"square cycles (cube, non-group)","fractal_assignment":["../images/blu_wht.png","../images/org_blu.png","../images/cyn_red.png","../images/grn_red.png","../images/pnk_blu.png","../images/gry_blk.png","../images/ylw_pnk.png","../images/ylw_slt.png"],"mutagen_generator_assignment":[0,1],"goal":6,"start":2,"action_noise":0.1,"location_history":"[2,3,0,4,7,6]","action_history":"[0,0,1,0,0]","mutagen_history":"[0,0,1,0,0]","location_rts":"[1666,1038,509,798,302]","trial_type":"fractal-mutation","trial_index":78,"time_elapsed":1417410,"internal_node_id":"0.0-5.0-24.0"},{"group":"square cycles (cube, non-group)","fractal_assignment":["../images/blu_wht.png","../images/org_blu.png","../images/cyn_red.png","../images/grn_red.png","../images/pnk_blu.png","../images/gry_blk.png","../images/ylw_pnk.png","../images/ylw_slt.png"],"mutagen_generator_assignment":[0,1],"goal":1,"start":6,"action_noise":0.1,"location_history":"[6,5,4,7,6,5,4,7,6,5,4,5,4,7,3,2,6,7,3,0,1]","action_history":"[1,0,0,0,0,0,1,0,0,0,0,0,0,1,1,1,1,1,0,0]","mutagen_history":"[1,0,0,0,0,0,1,0,0,0,0,0,0,1,1,1,1,1,0,0]","location_rts":"[7974,394,130,517,954,1314,847,412,270,660,235,599,581,583,588,478,1018,864,420,666]","trial_type":"fractal-mutation","trial_index":79,"time_elapsed":1460541,"internal_node_id":"0.0-5.0-25.0"},{"group":"square cycles (cube, non-group)","fractal_assignment":["../images/blu_wht.png","../images/org_blu.png","../images/cyn_red.png","../images/grn_red.png","../images/pnk_blu.png","../images/gry_blk.png","../images/ylw_pnk.png","../images/ylw_slt.png"],"mutagen_generator_assignment":[0,1],"goal":3,"start":1,"action_noise":0.1,"location_history":"[1,0,4,7,6,7,6,5,4,7,3]","action_history":"[1,0,0,0,1,0,0,0,1,1]","mutagen_history":"[1,0,0,0,1,0,0,0,1,1]","location_rts":"[10413,441,285,340,933,366,507,333,334,305]","trial_type":"fractal-mutation","trial_index":80,"time_elapsed":1488361,"internal_node_id":"0.0-5.0-26.0"},{"group":"square cycles (cube, non-group)","fractal_assignment":["../images/blu_wht.png","../images/org_blu.png","../images/cyn_red.png","../images/grn_red.png","../images/pnk_blu.png","../images/gry_blk.png","../images/ylw_pnk.png","../images/ylw_slt.png"],"mutagen_generator_assignment":[0,1],"goal":7,"start":3,"action_noise":0.1,"location_history":"[3,0,1,0,4,5,1,2,3,2,3,0,1,0,1,2,6,5,4,5,4,5,1,2,6,7]","action_history":"[0,0,1,1,1,1,1,0,1,0,0,0,1,0,0,1,0,0,1,1,1,0,0,0,0]","mutagen_history":"[0,0,1,1,1,1,1,0,1,0,0,0,1,0,0,1,0,0,1,1,1,0,0,0,0]","location_rts":"[365,781,947,518,254,755,432,404,524,582,282,287,647,671,252,466,2936,557,279,322,1093,335,467,550,793]","trial_type":"fractal-mutation","trial_index":81,"time_elapsed":1532527,"internal_node_id":"0.0-5.0-27.0"},{"group":"square cycles (cube, non-group)","fractal_assignment":["../images/blu_wht.png","../images/org_blu.png","../images/cyn_red.png","../images/grn_red.png","../images/pnk_blu.png","../images/gry_blk.png","../images/ylw_pnk.png","../images/ylw_slt.png"],"mutagen_generator_assignment":[0,1],"goal":4,"start":7,"action_noise":0.1,"location_history":"[7,3,2,6,5,4]","action_history":"[1,1,0,0,0]","mutagen_history":"[1,1,0,0,0]","location_rts":"[179121,633,441,739,469]","trial_type":"fractal-mutation","trial_index":82,"time_elapsed":1722455,"internal_node_id":"0.0-5.0-28.0"},{"group":"square cycles (cube, non-group)","fractal_assignment":["../images/blu_wht.png","../images/org_blu.png","../images/cyn_red.png","../images/grn_red.png","../images/pnk_blu.png","../images/gry_blk.png","../images/ylw_pnk.png","../images/ylw_slt.png"],"mutagen_generator_assignment":[0,1],"goal":0,"start":4,"action_noise":0.1,"location_history":"[4,7,6,5,4,7,3,0]","action_history":"[0,0,0,0,0,1,0]","mutagen_history":"[0,0,0,0,0,1,0]","location_rts":"[1628,789,382,383,414,729,842]","trial_type":"fractal-mutation","trial_index":83,"time_elapsed":1738141,"internal_node_id":"0.0-5.0-29.0"},{"group":"square cycles (cube, non-group)","fractal_assignment":["../images/blu_wht.png","../images/org_blu.png","../images/cyn_red.png","../images/grn_red.png","../images/pnk_blu.png","../images/gry_blk.png","../images/ylw_pnk.png","../images/ylw_slt.png"],"mutagen_generator_assignment":[0,1],"goal":5,"start":0,"action_noise":0.1,"location_history":"[0,1,2,3,2,6,5]","action_history":"[0,0,0,0,1,0]","mutagen_history":"[0,0,0,0,1,0]","location_rts":"[1451,358,405,446,421,618]","trial_type":"fractal-mutation","trial_index":84,"time_elapsed":1751362,"internal_node_id":"0.0-5.0-30.0"},{"group":"square cycles (cube, non-group)","fractal_assignment":["../images/blu_wht.png","../images/org_blu.png","../images/cyn_red.png","../images/grn_red.png","../images/pnk_blu.png","../images/gry_blk.png","../images/ylw_pnk.png","../images/ylw_slt.png"],"mutagen_generator_assignment":[0,1],"goal":3,"start":5,"action_noise":0.1,"location_history":"[5,4,5,1,2,3]","action_history":"[0,1,1,0,0]","mutagen_history":"[0,1,1,0,0]","location_rts":"[2167,608,610,437,327]","trial_type":"fractal-mutation","trial_index":85,"time_elapsed":1764046,"internal_node_id":"0.0-5.0-31.0"},{"group":"square cycles (cube, non-group)","fractal_assignment":["../images/blu_wht.png","../images/org_blu.png","../images/cyn_red.png","../images/grn_red.png","../images/pnk_blu.png","../images/gry_blk.png","../images/ylw_pnk.png","../images/ylw_slt.png"],"mutagen_generator_assignment":[0,1],"goal":2,"start":3,"action_noise":0.1,"location_history":"[3,0,1,2]","action_history":"[0,0,0]","mutagen_history":"[0,0,0]","location_rts":"[1114,358,646]","trial_type":"fractal-mutation","trial_index":86,"time_elapsed":1772672,"internal_node_id":"0.0-5.0-32.0"},{"group":"square cycles (cube, non-group)","fractal_assignment":["../images/blu_wht.png","../images/org_blu.png","../images/cyn_red.png","../images/grn_red.png","../images/pnk_blu.png","../images/gry_blk.png","../images/ylw_pnk.png","../images/ylw_slt.png"],"mutagen_generator_assignment":[0,1],"goal":6,"start":2,"action_noise":0.1,"location_history":"[2,3,0,4,7,6]","action_history":"[0,0,1,0,0]","mutagen_history":"[0,0,1,0,0]","location_rts":"[801,443,346,453,309]","trial_type":"fractal-mutation","trial_index":87,"time_elapsed":1783545,"internal_node_id":"0.0-5.0-33.0"},{"group":"square cycles (cube, non-group)","fractal_assignment":["../images/blu_wht.png","../images/org_blu.png","../images/cyn_red.png","../images/grn_red.png","../images/pnk_blu.png","../images/gry_blk.png","../images/ylw_pnk.png","../images/ylw_slt.png"],"mutagen_generator_assignment":[0,1],"goal":1,"start":6,"action_noise":0.1,"location_history":"[6,5,4,7,6,5,1]","action_history":"[0,1,0,0,0,1]","mutagen_history":"[0,1,0,0,0,1]","location_rts":"[470,509,1320,256,326,1303]","trial_type":"fractal-mutation","trial_index":88,"time_elapsed":1797254,"internal_node_id":"0.0-5.0-34.0"},{"group":"square cycles (cube, non-group)","fractal_assignment":["../images/blu_wht.png","../images/org_blu.png","../images/cyn_red.png","../images/grn_red.png","../images/pnk_blu.png","../images/gry_blk.png","../images/ylw_pnk.png","../images/ylw_slt.png"],"mutagen_generator_assignment":[0,1],"goal":7,"start":1,"action_noise":0.1,"location_history":"[1,0,4,7]","action_history":"[1,1,0]","mutagen_history":"[1,1,0]","location_rts":"[1602,1063,447]","trial_type":"fractal-mutation","trial_index":89,"time_elapsed":1806895,"internal_node_id":"0.0-5.0-35.0"},{"group":"square cycles (cube, non-group)","fractal_assignment":["../images/blu_wht.png","../images/org_blu.png","../images/cyn_red.png","../images/grn_red.png","../images/pnk_blu.png","../images/gry_blk.png","../images/ylw_pnk.png","../images/ylw_slt.png"],"mutagen_generator_assignment":[0,1],"goal":4,"start":7,"action_noise":0.1,"location_history":"[7,6,5,4]","action_history":"[0,0,0]","mutagen_history":"[0,0,0]","location_rts":"[2234,1027,703]","trial_type":"fractal-mutation","trial_index":90,"time_elapsed":1817371,"internal_node_id":"0.0-5.0-36.0"},{"group":"square cycles (cube, non-group)","fractal_assignment":["../images/blu_wht.png","../images/org_blu.png","../images/cyn_red.png","../images/grn_red.png","../images/pnk_blu.png","../images/gry_blk.png","../images/ylw_pnk.png","../images/ylw_slt.png"],"mutagen_generator_assignment":[0,1],"goal":5,"start":4,"action_noise":0.1,"location_history":"[4,5]","action_history":"[1]","mutagen_history":"[1]","location_rts":"[1492]","trial_type":"fractal-mutation","trial_index":91,"time_elapsed":1823375,"internal_node_id":"0.0-5.0-37.0"},{"group":"square cycles (cube, non-group)","fractal_assignment":["../images/blu_wht.png","../images/org_blu.png","../images/cyn_red.png","../images/grn_red.png","../images/pnk_blu.png","../images/gry_blk.png","../images/ylw_pnk.png","../images/ylw_slt.png"],"mutagen_generator_assignment":[0,1],"goal":0,"start":5,"action_noise":0.1,"location_history":"[5,1,2,6,7,6,5,1,2,6,5,4,7,6,7,3,2,3,2,6,7,3,2,3,0]","action_history":"[1,0,1,1,0,0,1,0,0,0,0,0,0,1,1,0,0,1,1,1,1,1,1,0]","mutagen_history":"[1,0,1,1,0,0,1,0,0,0,0,0,0,1,1,0,0,1,1,1,1,1,1,0]","location_rts":"[2027,391,276,241,808,431,929,1045,141,302,631,604,851,718,646,513,885,608,539,255,440,586,1476,298]","trial_type":"fractal-mutation","trial_index":92,"time_elapsed":1866715,"internal_node_id":"0.0-5.0-38.0"},{"group":"square cycles (cube, non-group)","fractal_assignment":["../images/blu_wht.png","../images/org_blu.png","../images/cyn_red.png","../images/grn_red.png","../images/pnk_blu.png","../images/gry_blk.png","../images/ylw_pnk.png","../images/ylw_slt.png"],"mutagen_generator_assignment":[0,1],"goal":4,"start":0,"action_noise":0.1,"location_history":"[0,4]","action_history":"[1]","mutagen_history":"[1]","location_rts":"[2167]","trial_type":"fractal-mutation","trial_index":93,"time_elapsed":1873389,"internal_node_id":"0.0-5.0-39.0"},{"group":"square cycles (cube, non-group)","fractal_assignment":["../images/blu_wht.png","../images/org_blu.png","../images/cyn_red.png","../images/grn_red.png","../images/pnk_blu.png","../images/gry_blk.png","../images/ylw_pnk.png","../images/ylw_slt.png"],"mutagen_generator_assignment":[0,1],"goal":0,"start":4,"action_noise":0.1,"location_history":"[4,7,3,2,6,5,1,2,6,7,3,0]","action_history":"[0,1,1,1,0,1,0,1,1,1,0]","mutagen_history":"[0,1,1,1,0,1,0,1,1,1,0]","location_rts":"[1763,695,482,681,543,2269,389,3992,926,273,382]","trial_type":"fractal-mutation","trial_index":94,"time_elapsed":1900368,"internal_node_id":"0.0-5.0-40.0"},{"group":"square cycles (cube, non-group)","fractal_assignment":["../images/blu_wht.png","../images/org_blu.png","../images/cyn_red.png","../images/grn_red.png","../images/pnk_blu.png","../images/gry_blk.png","../images/ylw_pnk.png","../images/ylw_slt.png"],"mutagen_generator_assignment":[0,1],"goal":2,"start":0,"action_noise":0.1,"location_history":"[0,1,2]","action_history":"[0,0]","mutagen_history":"[0,0]","location_rts":"[1632,301]","trial_type":"fractal-mutation","trial_index":95,"time_elapsed":1907810,"internal_node_id":"0.0-5.0-41.0"},{"group":"square cycles (cube, non-group)","fractal_assignment":["../images/blu_wht.png","../images/org_blu.png","../images/cyn_red.png","../images/grn_red.png","../images/pnk_blu.png","../images/gry_blk.png","../images/ylw_pnk.png","../images/ylw_slt.png"],"mutagen_generator_assignment":[0,1],"goal":3,"start":2,"action_noise":0.1,"location_history":"[2,3]","action_history":"[0]","mutagen_history":"[0]","location_rts":"[2173]","trial_type":"fractal-mutation","trial_index":96,"time_elapsed":1914491,"internal_node_id":"0.0-5.0-42.0"},{"group":"square cycles (cube, non-group)","fractal_assignment":["../images/blu_wht.png","../images/org_blu.png","../images/cyn_red.png","../images/grn_red.png","../images/pnk_blu.png","../images/gry_blk.png","../images/ylw_pnk.png","../images/ylw_slt.png"],"mutagen_generator_assignment":[0,1],"goal":5,"start":3,"action_noise":0.1,"location_history":"[3,0,4,5]","action_history":"[0,1,1]","mutagen_history":"[0,1,1]","location_rts":"[1317,1310,296]","trial_type":"fractal-mutation","trial_index":97,"time_elapsed":1923931,"internal_node_id":"0.0-5.0-43.0"},{"group":"square cycles (cube, non-group)","fractal_assignment":["../images/blu_wht.png","../images/org_blu.png","../images/cyn_red.png","../images/grn_red.png","../images/pnk_blu.png","../images/gry_blk.png","../images/ylw_pnk.png","../images/ylw_slt.png"],"mutagen_generator_assignment":[0,1],"goal":1,"start":5,"action_noise":0.1,"location_history":"[5,1]","action_history":"[0]","mutagen_history":"[0]","location_rts":"[2574]","trial_type":"fractal-mutation","trial_index":98,"time_elapsed":1931008,"internal_node_id":"0.0-5.0-44.0"},{"group":"square cycles (cube, non-group)","fractal_assignment":["../images/blu_wht.png","../images/org_blu.png","../images/cyn_red.png","../images/grn_red.png","../images/pnk_blu.png","../images/gry_blk.png","../images/ylw_pnk.png","../images/ylw_slt.png"],"mutagen_generator_assignment":[0,1],"goal":7,"start":1,"action_noise":0.1,"location_history":"[1,0,1,2,3,0,4,7]","action_history":"[1,1,1,0,1,1,0]","mutagen_history":"[1,1,1,0,1,1,0]","location_rts":"[1385,739,457,235,668,426,281]","trial_type":"fractal-mutation","trial_index":99,"time_elapsed":1945753,"internal_node_id":"0.0-5.0-45.0"},{"group":"square cycles (cube, non-group)","fractal_assignment":["../images/blu_wht.png","../images/org_blu.png","../images/cyn_red.png","../images/grn_red.png","../images/pnk_blu.png","../images/gry_blk.png","../images/ylw_pnk.png","../images/ylw_slt.png"],"mutagen_generator_assignment":[0,1],"goal":6,"start":7,"action_noise":0.1,"location_history":"[7,3,0,1,0,4,7,6]","action_history":"[1,0,0,1,0,0,0]","mutagen_history":"[1,0,0,1,0,0,0]","location_rts":"[8823,650,311,652,383,171,28]","trial_type":"fractal-mutation","trial_index":100,"time_elapsed":1967302,"internal_node_id":"0.0-5.0-46.0"},{"group":"square cycles (cube, non-group)","fractal_assignment":["../images/blu_wht.png","../images/org_blu.png","../images/cyn_red.png","../images/grn_red.png","../images/pnk_blu.png","../images/gry_blk.png","../images/ylw_pnk.png","../images/ylw_slt.png"],"mutagen_generator_assignment":[0,1],"goal":3,"start":6,"action_noise":0.1,"location_history":"[6,5,1,0,4,5,4,7,6,5,4,5,4,7,6,5,4,5,1,2,3]","action_history":"[0,1,1,0,0,0,0,0,0,0,1,0,0,0,0,0,1,1,0,0]","mutagen_history":"[0,1,1,0,0,0,0,0,0,0,1,0,0,0,0,0,1,1,0,0]","location_rts":"[482,318,80,57,348,254,171,301,334,1545,516,270,367,302,1721,735,852,1173,655,334]","trial_type":"fractal-mutation","trial_index":101,"time_elapsed":2001720,"internal_node_id":"0.0-5.0-47.0"},{"group":"square cycles (cube, non-group)","fractal_assignment":["../images/blu_wht.png","../images/org_blu.png","../images/cyn_red.png","../images/grn_red.png","../images/pnk_blu.png","../images/gry_blk.png","../images/ylw_pnk.png","../images/ylw_slt.png"],"mutagen_generator_assignment":[0,1],"goal":0,"start":3,"action_noise":0.1,"location_history":"[3,2,6,7,6,7,3,0]","action_history":"[1,1,1,0,1,1,0]","mutagen_history":"[1,1,1,0,1,1,0]","location_rts":"[4249,470,252,495,1229,457,462]","trial_type":"fractal-mutation","trial_index":102,"time_elapsed":2019906,"internal_node_id":"0.0-5.0-48.0"},{"group":"square cycles (cube, non-group)","fractal_assignment":["../images/blu_wht.png","../images/org_blu.png","../images/cyn_red.png","../images/grn_red.png","../images/pnk_blu.png","../images/gry_blk.png","../images/ylw_pnk.png","../images/ylw_slt.png"],"mutagen_generator_assignment":[0,1],"goal":2,"start":0,"action_noise":0.1,"location_history":"[0,1,2]","action_history":"[0,0]","mutagen_history":"[0,0]","location_rts":"[3346,309]","trial_type":"fractal-mutation","trial_index":103,"time_elapsed":2029077,"internal_node_id":"0.0-5.0-49.0"},{"view_history":"[{\"page_index\":0,\"viewing_time\":6473}]","rt":6473,"trial_type":"instructions","trial_index":104,"time_elapsed":2036551,"internal_node_id":"0.0-6.0"},{"rt":4494,"responses":"{\"Q0\":\"no\"}","trial_type":"survey-text","trial_index":105,"time_elapsed":2042049,"internal_node_id":"0.0-7.0"}]