[{"view_history":"[{\"page_index\":0,\"viewing_time\":1976},{\"page_index\":1,\"viewing_time\":16023},{\"page_index\":2,\"viewing_time\":17239},{\"page_index\":3,\"viewing_time\":44607}]","rt":79847,"trial_type":"instructions","trial_index":0,"time_elapsed":79849,"internal_node_id":"0.0-0.0"},{"view_history":"[{\"page_index\":0,\"viewing_time\":2019},{\"page_index\":1,\"viewing_time\":29928}]","rt":31948,"trial_type":"instructions","trial_index":1,"time_elapsed":112799,"internal_node_id":"0.0-1.0"},{"group":"tri cycles (cube, non-group)","room_assignment":["purple","green","yellow","pink","blue","grey","brown","red"],"door_color_assignment":["black","white"],"door_generator_assignment":[1,0],"goal":3,"start":0,"action_noise":0.1,"location_history":"[0,3]","action_history":"[0]","door_history":"[1]","location_rts":"[3120]","trial_type":"two-door-navigation","trial_index":2,"time_elapsed":120475,"internal_node_id":"0.0-2.0-0.0"},{"group":"tri cycles (cube, non-group)","room_assignment":["purple","green","yellow","pink","blue","grey","brown","red"],"door_color_assignment":["black","white"],"door_generator_assignment":[1,0],"goal":1,"start":3,"action_noise":0.1,"location_history":"[3,4,7,3,7,6,4,7,3,7,6,4,7,3,4,0,3,4,0,2,1]","action_history":"[0,0,0,0,0,0,0,0,0,0,0,0,1,1,1,1,1,1,0,0]","door_history":"[1,1,1,1,1,1,1,1,1,1,1,1,0,0,0,0,0,0,1,1]","location_rts":"[2299,1164,681,569,539,517,966,515,540,577,480,502,581,872,652,579,925,601,1195,1363]","trial_type":"two-door-navigation","trial_index":3,"time_elapsed":160937,"internal_node_id":"0.0-2.0-1.0"},{"group":"tri cycles (cube, non-group)","room_assignment":["purple","green","yellow","pink","blue","grey","brown","red"],"door_color_assignment":["black","white"],"door_generator_assignment":[1,0],"goal":2,"start":1,"action_noise":0.1,"location_history":"[1,5,2]","action_history":"[1,1]","door_history":"[0,0]","location_rts":"[2685,1167]","trial_type":"two-door-navigation","trial_index":4,"time_elapsed":170355,"internal_node_id":"0.0-2.0-2.0"},{"group":"tri cycles (cube, non-group)","room_assignment":["purple","green","yellow","pink","blue","grey","brown","red"],"door_color_assignment":["black","white"],"door_generator_assignment":[1,0],"goal":6,"start":2,"action_noise":0.1,"location_history":"[2,6]","action_history":"[1]","door_history":"[0]","location_rts":"[2256]","trial_type":"two-door-navigation","trial_index":5,"time_elapsed":177150,"internal_node_id":"0.0-2.0-3.0"},{"group":"tri cycles (cube, non-group)","room_assignment":["purple","green","yellow","pink","blue","grey","brown","red"],"door_color_assignment":["black","white"],"door_generator_assignment":[1,0],"goal":5,"start":6,"action_noise":0.1,"location_history":"[6,4,0,2,6,5]","action_history":"[0,0,0,1,1]","door_history":"[1,1,1,0,0]","location_rts":"[2059,849,690,866,735]","trial_type":"two-door-navigation","trial_index":6,"time_elapsed":191066,"internal_node_id":"0.0-2.0-4.0"},{"group":"tri cycles (cube, non-group)","room_assignment":["purple","green","yellow","pink","blue","grey","brown","red"],"door_color_assignment":["black","white"],"door_generator_assignment":[1,0],"goal":4,"start":5,"action_noise":0.1,"location_history":"[5,1,5,2,6,4]","action_history":"[0,1,1,1,0]","door_history":"[1,0,0,0,1]","location_rts":"[1910,892,719,850,730]","trial_type":"two-door-navigation","trial_index":7,"time_elapsed":204823,"internal_node_id":"0.0-2.0-5.0"},{"group":"tri cycles (cube, non-group)","room_assignment":["purple","green","yellow","pink","blue","grey","brown","red"],"door_color_assignment":["black","white"],"door_generator_assignment":[1,0],"goal":7,"start":4,"action_noise":0.1,"location_history":"[4,0,2,1,0,3,4,7]","action_history":"[0,0,0,0,1,1,0]","door_history":"[1,1,1,1,0,0,1]","location_rts":"[1736,645,793,1374,945,472,1225]","trial_type":"two-door-navigation","trial_index":8,"time_elapsed":222801,"internal_node_id":"0.0-2.0-6.0"},{"group":"tri cycles (cube, non-group)","room_assignment":["purple","green","yellow","pink","blue","grey","brown","red"],"door_color_assignment":["black","white"],"door_generator_assignment":[1,0],"goal":4,"start":7,"action_noise":0.1,"location_history":"[7,6,4]","action_history":"[0,0]","door_history":"[1,1]","location_rts":"[8458,986]","trial_type":"two-door-navigation","trial_index":9,"time_elapsed":237836,"internal_node_id":"0.0-2.0-7.0"},{"group":"tri cycles (cube, non-group)","room_assignment":["purple","green","yellow","pink","blue","grey","brown","red"],"door_color_assignment":["black","white"],"door_generator_assignment":[1,0],"goal":6,"start":4,"action_noise":0.1,"location_history":"[4,0,3,7,3,4,0,2,1,0,3,4,0,2,6]","action_history":"[1,1,0,1,1,1,0,0,0,1,1,1,0,1]","door_history":"[0,0,1,0,0,0,1,1,1,0,0,0,1,0]","location_rts":"[2302,999,1343,602,828,821,718,609,798,770,444,1766,576,909]","trial_type":"two-door-navigation","trial_index":10,"time_elapsed":269333,"internal_node_id":"0.0-2.0-8.0"},{"group":"tri cycles (cube, non-group)","room_assignment":["purple","green","yellow","pink","blue","grey","brown","red"],"door_color_assignment":["black","white"],"door_generator_assignment":[1,0],"goal":0,"start":6,"action_noise":0.1,"location_history":"[6,4,0]","action_history":"[0,1]","door_history":"[1,0]","location_rts":"[1940,1019]","trial_type":"two-door-navigation","trial_index":11,"time_elapsed":277877,"internal_node_id":"0.0-2.0-9.0"},{"group":"tri cycles (cube, non-group)","room_assignment":["purple","green","yellow","pink","blue","grey","brown","red"],"door_color_assignment":["black","white"],"door_generator_assignment":[1,0],"goal":1,"start":0,"action_noise":0.1,"location_history":"[0,3,4,7,3,4,0,2,1]","action_history":"[1,1,0,1,1,1,0,0]","door_history":"[0,0,1,0,0,0,1,1]","location_rts":"[2342,809,616,558,541,926,1231,547]","trial_type":"two-door-navigation","trial_index":12,"time_elapsed":297244,"internal_node_id":"0.0-2.0-10.0"},{"group":"tri cycles (cube, non-group)","room_assignment":["purple","green","yellow","pink","blue","grey","brown","red"],"door_color_assignment":["black","white"],"door_generator_assignment":[1,0],"goal":3,"start":1,"action_noise":0.1,"location_history":"[1,0,3]","action_history":"[0,1]","door_history":"[1,0]","location_rts":"[2079,1327]","trial_type":"two-door-navigation","trial_index":13,"time_elapsed":306221,"internal_node_id":"0.0-2.0-11.0"},{"group":"tri cycles (cube, non-group)","room_assignment":["purple","green","yellow","pink","blue","grey","brown","red"],"door_color_assignment":["black","white"],"door_generator_assignment":[1,0],"goal":7,"start":3,"action_noise":0.1,"location_history":"[3,7]","action_history":"[0]","door_history":"[1]","location_rts":"[2085]","trial_type":"two-door-navigation","trial_index":14,"time_elapsed":312850,"internal_node_id":"0.0-2.0-12.0"},{"group":"tri cycles (cube, non-group)","room_assignment":["purple","green","yellow","pink","blue","grey","brown","red"],"door_color_assignment":["black","white"],"door_generator_assignment":[1,0],"goal":5,"start":7,"action_noise":0.1,"location_history":"[7,3,4,7,3,4,0,2,6,5]","action_history":"[1,1,0,1,1,0,0,1,1]","door_history":"[0,0,1,0,0,1,1,0,0]","location_rts":"[2158,1006,919,739,1033,666,700,765,518]","trial_type":"two-door-navigation","trial_index":15,"time_elapsed":334190,"internal_node_id":"0.0-2.0-13.0"},{"group":"tri cycles (cube, non-group)","room_assignment":["purple","green","yellow","pink","blue","grey","brown","red"],"door_color_assignment":["black","white"],"door_generator_assignment":[1,0],"goal":2,"start":5,"action_noise":0.1,"location_history":"[5,2]","action_history":"[0]","door_history":"[1]","location_rts":"[1538]","trial_type":"two-door-navigation","trial_index":16,"time_elapsed":340279,"internal_node_id":"0.0-2.0-14.0"},{"group":"tri cycles (cube, non-group)","room_assignment":["purple","green","yellow","pink","blue","grey","brown","red"],"door_color_assignment":["black","white"],"door_generator_assignment":[1,0],"goal":7,"start":2,"action_noise":0.1,"location_history":"[2,1,5,1,0,3,4,7]","action_history":"[0,1,0,0,1,1,0]","door_history":"[1,0,1,1,0,0,1]","location_rts":"[2177,1401,777,519,953,658,538]","trial_type":"two-door-navigation","trial_index":17,"time_elapsed":358046,"internal_node_id":"0.0-2.0-15.0"},{"group":"tri cycles (cube, non-group)","room_assignment":["purple","green","yellow","pink","blue","grey","brown","red"],"door_color_assignment":["black","white"],"door_generator_assignment":[1,0],"goal":4,"start":7,"action_noise":0.1,"location_history":"[7,3,4]","action_history":"[1,1]","door_history":"[0,0]","location_rts":"[2403,531]","trial_type":"two-door-navigation","trial_index":18,"time_elapsed":366564,"internal_node_id":"0.0-2.0-16.0"},{"group":"tri cycles (cube, non-group)","room_assignment":["purple","green","yellow","pink","blue","grey","brown","red"],"door_color_assignment":["black","white"],"door_generator_assignment":[1,0],"goal":2,"start":4,"action_noise":0.1,"location_history":"[4,7,6,4,0,3,4,7,3,7,6,4,0,2]","action_history":"[0,0,0,1,1,0,0,1,0,1,0,1,0]","door_history":"[1,1,1,0,0,1,1,0,1,0,1,0,1]","location_rts":"[1542,816,929,2537,499,503,746,1506,703,896,1570,1367,937]","trial_type":"two-door-navigation","trial_index":19,"time_elapsed":398034,"internal_node_id":"0.0-2.0-17.0"},{"group":"tri cycles (cube, non-group)","room_assignment":["purple","green","yellow","pink","blue","grey","brown","red"],"door_color_assignment":["black","white"],"door_generator_assignment":[1,0],"goal":3,"start":2,"action_noise":0.1,"location_history":"[2,1,5,2,6,4,7,6,4,7,6,4,0,2,6,4,0,2,6,5,1,0,2,1,5,1,0,3]","action_history":"[0,0,1,1,0,0,0,0,0,0,0,1,0,1,0,1,0,0,1,1,0,0,0,1,0,0,1]","door_history":"[1,1,0,0,1,1,1,1,1,1,1,0,1,0,1,0,1,1,0,0,1,1,1,0,1,1,0]","location_rts":"[6607,982,1503,1976,969,756,1774,1325,668,850,1067,452,1269,1623,1640,967,733,1039,1242,1620,488,668,648,784,711,627,575]","trial_type":"two-door-navigation","trial_index":20,"time_elapsed":463093,"internal_node_id":"0.0-2.0-18.0"},{"group":"tri cycles (cube, non-group)","room_assignment":["purple","green","yellow","pink","blue","grey","brown","red"],"door_color_assignment":["black","white"],"door_generator_assignment":[1,0],"goal":6,"start":3,"action_noise":0.1,"location_history":"[3,4,7,3,4,0,2,6]","action_history":"[1,0,1,1,1,0,1]","door_history":"[0,1,0,0,0,1,0]","location_rts":"[2340,1681,756,1660,1989,1012,1809]","trial_type":"two-door-navigation","trial_index":21,"time_elapsed":485099,"internal_node_id":"0.0-2.0-19.0"},{"group":"tri cycles (cube, non-group)","room_assignment":["purple","green","yellow","pink","blue","grey","brown","red"],"door_color_assignment":["black","white"],"door_generator_assignment":[1,0],"goal":5,"start":6,"action_noise":0.1,"location_history":"[6,5]","action_history":"[1]","door_history":"[0]","location_rts":"[2340]","trial_type":"two-door-navigation","trial_index":22,"time_elapsed":491980,"internal_node_id":"0.0-2.0-20.0"},{"group":"tri cycles (cube, non-group)","room_assignment":["purple","green","yellow","pink","blue","grey","brown","red"],"door_color_assignment":["black","white"],"door_generator_assignment":[1,0],"goal":1,"start":5,"action_noise":0.1,"location_history":"[5,1]","action_history":"[0]","door_history":"[1]","location_rts":"[2364]","trial_type":"two-door-navigation","trial_index":23,"time_elapsed":498885,"internal_node_id":"0.0-2.0-21.0"},{"group":"tri cycles (cube, non-group)","room_assignment":["purple","green","yellow","pink","blue","grey","brown","red"],"door_color_assignment":["black","white"],"door_generator_assignment":[1,0],"goal":0,"start":1,"action_noise":0.1,"location_history":"[1,5,2,1,0]","action_history":"[1,1,0,0]","door_history":"[0,0,1,1]","location_rts":"[1870,1622,1038,1495]","trial_type":"two-door-navigation","trial_index":24,"time_elapsed":512555,"internal_node_id":"0.0-2.0-22.0"},{"group":"tri cycles (cube, non-group)","room_assignment":["purple","green","yellow","pink","blue","grey","brown","red"],"door_color_assignment":["black","white"],"door_generator_assignment":[1,0],"goal":2,"start":0,"action_noise":0.1,"location_history":"[0,2]","action_history":"[0]","door_history":"[1]","location_rts":"[2370]","trial_type":"two-door-navigation","trial_index":25,"time_elapsed":519475,"internal_node_id":"0.0-2.0-23.0"},{"group":"tri cycles (cube, non-group)","room_assignment":["purple","green","yellow","pink","blue","grey","brown","red"],"door_color_assignment":["black","white"],"door_generator_assignment":[1,0],"goal":6,"start":2,"action_noise":0.1,"location_history":"[2,6]","action_history":"[1]","door_history":"[0]","location_rts":"[1921]","trial_type":"two-door-navigation","trial_index":26,"time_elapsed":525942,"internal_node_id":"0.0-2.0-24.0"},{"group":"tri cycles (cube, non-group)","room_assignment":["purple","green","yellow","pink","blue","grey","brown","red"],"door_color_assignment":["black","white"],"door_generator_assignment":[1,0],"goal":1,"start":6,"action_noise":0.1,"location_history":"[6,4,7,3,7,6,5,1]","action_history":"[0,0,1,0,0,1,0]","door_history":"[1,1,0,1,1,0,1]","location_rts":"[2420,938,1131,885,691,705,1069]","trial_type":"two-door-navigation","trial_index":27,"time_elapsed":544546,"internal_node_id":"0.0-2.0-25.0"},{"group":"tri cycles (cube, non-group)","room_assignment":["purple","green","yellow","pink","blue","grey","brown","red"],"door_color_assignment":["black","white"],"door_generator_assignment":[1,0],"goal":3,"start":1,"action_noise":0.1,"location_history":"[1,5,1,5,1,5,1,5,2,1,0,2,6,5,1,0,3]","action_history":"[1,0,1,0,1,0,1,1,0,0,0,1,1,0,0,1]","door_history":"[0,1,0,1,0,1,0,0,1,1,1,0,0,1,1,0]","location_rts":"[1812,742,537,869,991,1081,974,635,2551,790,1048,1015,800,510,1220,1138]","trial_type":"two-door-navigation","trial_index":28,"time_elapsed":581361,"internal_node_id":"0.0-2.0-26.0"},{"group":"tri cycles (cube, non-group)","room_assignment":["purple","green","yellow","pink","blue","grey","brown","red"],"door_color_assignment":["black","white"],"door_generator_assignment":[1,0],"goal":7,"start":3,"action_noise":0.1,"location_history":"[3,7]","action_history":"[0]","door_history":"[1]","location_rts":"[3455]","trial_type":"two-door-navigation","trial_index":29,"time_elapsed":589365,"internal_node_id":"0.0-2.0-27.0"},{"group":"tri cycles (cube, non-group)","room_assignment":["purple","green","yellow","pink","blue","grey","brown","red"],"door_color_assignment":["black","white"],"door_generator_assignment":[1,0],"goal":4,"start":7,"action_noise":0.1,"location_history":"[7,3,7,6,4]","action_history":"[1,0,0,0]","door_history":"[0,1,1,1]","location_rts":"[2659,963,1501,765]","trial_type":"two-door-navigation","trial_index":30,"time_elapsed":602910,"internal_node_id":"0.0-2.0-28.0"},{"group":"tri cycles (cube, non-group)","room_assignment":["purple","green","yellow","pink","blue","grey","brown","red"],"door_color_assignment":["black","white"],"door_generator_assignment":[1,0],"goal":0,"start":4,"action_noise":0.1,"location_history":"[4,0]","action_history":"[1]","door_history":"[0]","location_rts":"[1734]","trial_type":"two-door-navigation","trial_index":31,"time_elapsed":609175,"internal_node_id":"0.0-2.0-29.0"},{"group":"tri cycles (cube, non-group)","room_assignment":["purple","green","yellow","pink","blue","grey","brown","red"],"door_color_assignment":["black","white"],"door_generator_assignment":[1,0],"goal":5,"start":0,"action_noise":0.1,"location_history":"[0,3,7,3,4,0,2,6,5]","action_history":"[1,0,1,0,1,0,1,1]","door_history":"[0,1,0,1,0,1,0,0]","location_rts":"[1804,1343,1137,1421,1686,2359,979,887]","trial_type":"two-door-navigation","trial_index":32,"time_elapsed":632588,"internal_node_id":"0.0-2.0-30.0"},{"group":"tri cycles (cube, non-group)","room_assignment":["purple","green","yellow","pink","blue","grey","brown","red"],"door_color_assignment":["black","white"],"door_generator_assignment":[1,0],"goal":3,"start":5,"action_noise":0.1,"location_history":"[5,2,6,4,7,3]","action_history":"[1,1,0,0,1]","door_history":"[0,0,1,1,0]","location_rts":"[2418,1480,1863,778,1522]","trial_type":"two-door-navigation","trial_index":33,"time_elapsed":649339,"internal_node_id":"0.0-2.0-31.0"},{"group":"tri cycles (cube, non-group)","room_assignment":["purple","green","yellow","pink","blue","grey","brown","red"],"door_color_assignment":["black","white"],"door_generator_assignment":[1,0],"goal":2,"start":3,"action_noise":0.1,"location_history":"[3,7,3,7,6,5,1,0,2]","action_history":"[0,1,0,0,1,0,0,0]","door_history":"[1,0,1,1,0,1,1,1]","location_rts":"[1279,1422,1374,703,1643,462,1003,860]","trial_type":"two-door-navigation","trial_index":34,"time_elapsed":669878,"internal_node_id":"0.0-2.0-32.0"},{"group":"tri cycles (cube, non-group)","room_assignment":["purple","green","yellow","pink","blue","grey","brown","red"],"door_color_assignment":["black","white"],"door_generator_assignment":[1,0],"goal":6,"start":2,"action_noise":0.1,"location_history":"[2,6]","action_history":"[1]","door_history":"[0]","location_rts":"[3363]","trial_type":"two-door-navigation","trial_index":35,"time_elapsed":677780,"internal_node_id":"0.0-2.0-33.0"},{"group":"tri cycles (cube, non-group)","room_assignment":["purple","green","yellow","pink","blue","grey","brown","red"],"door_color_assignment":["black","white"],"door_generator_assignment":[1,0],"goal":1,"start":6,"action_noise":0.1,"location_history":"[6,5,1]","action_history":"[0,0]","door_history":"[1,1]","location_rts":"[3363,1881]","trial_type":"two-door-navigation","trial_index":36,"time_elapsed":688606,"internal_node_id":"0.0-2.0-34.0"},{"group":"tri cycles (cube, non-group)","room_assignment":["purple","green","yellow","pink","blue","grey","brown","red"],"door_color_assignment":["black","white"],"door_generator_assignment":[1,0],"goal":7,"start":1,"action_noise":0.1,"location_history":"[1,5,1,5,2,6,4,7]","action_history":"[1,0,1,1,0,0,0]","door_history":"[0,1,0,0,1,1,1]","location_rts":"[3067,1313,1740,1618,1462,1094,967]","trial_type":"two-door-navigation","trial_index":37,"time_elapsed":710631,"internal_node_id":"0.0-2.0-35.0"},{"group":"tri cycles (cube, non-group)","room_assignment":["purple","green","yellow","pink","blue","grey","brown","red"],"door_color_assignment":["black","white"],"door_generator_assignment":[1,0],"goal":4,"start":7,"action_noise":0.1,"location_history":"[7,3,7,3,4]","action_history":"[1,0,1,1]","door_history":"[0,1,0,0]","location_rts":"[1688,1074,1005,583]","trial_type":"two-door-navigation","trial_index":38,"time_elapsed":722636,"internal_node_id":"0.0-2.0-36.0"},{"group":"tri cycles (cube, non-group)","room_assignment":["purple","green","yellow","pink","blue","grey","brown","red"],"door_color_assignment":["black","white"],"door_generator_assignment":[1,0],"goal":5,"start":4,"action_noise":0.1,"location_history":"[4,7,6,5]","action_history":"[0,0,1]","door_history":"[1,1,0]","location_rts":"[11415,1027,641]","trial_type":"two-door-navigation","trial_index":39,"time_elapsed":742350,"internal_node_id":"0.0-2.0-37.0"},{"group":"tri cycles (cube, non-group)","room_assignment":["purple","green","yellow","pink","blue","grey","brown","red"],"door_color_assignment":["black","white"],"door_generator_assignment":[1,0],"goal":0,"start":5,"action_noise":0.1,"location_history":"[5,1,5,2,1,5,2,6,4,0]","action_history":"[0,1,1,0,1,1,1,0,1]","door_history":"[1,0,0,1,0,0,0,1,0]","location_rts":"[2685,505,686,806,521,696,790,1165,1054]","trial_type":"two-door-navigation","trial_index":40,"time_elapsed":764068,"internal_node_id":"0.0-2.0-38.0"},{"group":"tri cycles (cube, non-group)","room_assignment":["purple","green","yellow","pink","blue","grey","brown","red"],"door_color_assignment":["black","white"],"door_generator_assignment":[1,0],"goal":4,"start":0,"action_noise":0.1,"location_history":"[0,2,6,4]","action_history":"[0,1,0]","door_history":"[1,0,1]","location_rts":"[1369,1716,742]","trial_type":"two-door-navigation","trial_index":41,"time_elapsed":774533,"internal_node_id":"0.0-2.0-39.0"},{"group":"tri cycles (cube, non-group)","room_assignment":["purple","green","yellow","pink","blue","grey","brown","red"],"door_color_assignment":["black","white"],"door_generator_assignment":[1,0],"goal":0,"start":4,"action_noise":0.1,"location_history":"[4,0]","action_history":"[1]","door_history":"[0]","location_rts":"[1643]","trial_type":"two-door-navigation","trial_index":42,"time_elapsed":780722,"internal_node_id":"0.0-2.0-40.0"},{"group":"tri cycles (cube, non-group)","room_assignment":["purple","green","yellow","pink","blue","grey","brown","red"],"door_color_assignment":["black","white"],"door_generator_assignment":[1,0],"goal":2,"start":0,"action_noise":0.1,"location_history":"[0,3,7,3,7,3,4,7,6,5,2]","action_history":"[1,0,1,0,0,1,0,0,0,1]","door_history":"[0,1,0,1,1,0,1,1,1,0]","location_rts":"[1848,870,1540,1229,480,1714,1066,721,788,1347]","trial_type":"two-door-navigation","trial_index":43,"time_elapsed":806172,"internal_node_id":"0.0-2.0-41.0"},{"group":"tri cycles (cube, non-group)","room_assignment":["purple","green","yellow","pink","blue","grey","brown","red"],"door_color_assignment":["black","white"],"door_generator_assignment":[1,0],"goal":3,"start":2,"action_noise":0.1,"location_history":"[2,1,5,2,1,5,2,6,5,1,0,2,1,5,2,1,5,1,0,3]","action_history":"[0,1,1,0,1,1,1,0,0,0,0,0,1,1,0,1,1,0,0]","door_history":"[1,0,0,1,0,0,0,1,1,1,1,1,0,0,1,0,0,1,1]","location_rts":"[1428,751,679,542,1810,686,730,669,560,536,626,654,608,559,398,781,819,822,475]","trial_type":"two-door-navigation","trial_index":44,"time_elapsed":843465,"internal_node_id":"0.0-2.0-42.0"},{"group":"tri cycles (cube, non-group)","room_assignment":["purple","green","yellow","pink","blue","grey","brown","red"],"door_color_assignment":["black","white"],"door_generator_assignment":[1,0],"goal":5,"start":3,"action_noise":0.1,"location_history":"[3,4,7,3,7,6,5]","action_history":"[1,0,1,0,0,1]","door_history":"[0,1,0,1,1,0]","location_rts":"[2053,652,934,984,439,1413]","trial_type":"two-door-navigation","trial_index":45,"time_elapsed":859657,"internal_node_id":"0.0-2.0-43.0"},{"group":"tri cycles (cube, non-group)","room_assignment":["purple","green","yellow","pink","blue","grey","brown","red"],"door_color_assignment":["black","white"],"door_generator_assignment":[1,0],"goal":1,"start":5,"action_noise":0.1,"location_history":"[5,1]","action_history":"[0]","door_history":"[1]","location_rts":"[2362]","trial_type":"two-door-navigation","trial_index":46,"time_elapsed":866580,"internal_node_id":"0.0-2.0-44.0"},{"group":"tri cycles (cube, non-group)","room_assignment":["purple","green","yellow","pink","blue","grey","brown","red"],"door_color_assignment":["black","white"],"door_generator_assignment":[1,0],"goal":7,"start":1,"action_noise":0.1,"location_history":"[1,5,1,5,1,0,2,6,5,1,0,3,7]","action_history":"[1,1,1,0,0,0,0,0,0,0,1,0]","door_history":"[0,0,0,1,1,1,1,1,1,1,0,1]","location_rts":"[2034,1334,1415,634,836,1246,1213,987,733,718,506,811]","trial_type":"two-door-navigation","trial_index":47,"time_elapsed":894967,"internal_node_id":"0.0-2.0-45.0"},{"group":"tri cycles (cube, non-group)","room_assignment":["purple","green","yellow","pink","blue","grey","brown","red"],"door_color_assignment":["black","white"],"door_generator_assignment":[1,0],"goal":6,"start":7,"action_noise":0.1,"location_history":"[7,6]","action_history":"[1]","door_history":"[0]","location_rts":"[2210]","trial_type":"two-door-navigation","trial_index":48,"time_elapsed":901710,"internal_node_id":"0.0-2.0-46.0"},{"group":"tri cycles (cube, non-group)","room_assignment":["purple","green","yellow","pink","blue","grey","brown","red"],"door_color_assignment":["black","white"],"door_generator_assignment":[1,0],"goal":3,"start":6,"action_noise":0.1,"location_history":"[6,4,0,2,6,4,0,2,6,5,2,1,5,2,1,0,2,6,4,7,3]","action_history":"[0,1,0,1,0,0,0,1,1,1,0,1,1,0,0,0,1,0,0,1]","door_history":"[1,0,1,0,1,1,1,0,0,0,1,0,0,1,1,1,0,1,1,0]","location_rts":"[3296,1186,770,1134,970,1335,811,3458,759,1318,1495,1045,1481,387,642,863,970,666,721,1046]","trial_type":"two-door-navigation","trial_index":49,"time_elapsed":950264,"internal_node_id":"0.0-2.0-47.0"},{"group":"tri cycles (cube, non-group)","room_assignment":["purple","green","yellow","pink","blue","grey","brown","red"],"door_color_assignment":["black","white"],"door_generator_assignment":[1,0],"goal":0,"start":3,"action_noise":0.1,"location_history":"[3,4,7,6,5,1,0]","action_history":"[1,0,0,1,0,0]","door_history":"[0,1,1,0,1,1]","location_rts":"[2711,545,1066,877,539,701]","trial_type":"two-door-navigation","trial_index":50,"time_elapsed":966449,"internal_node_id":"0.0-2.0-48.0"},{"group":"tri cycles (cube, non-group)","room_assignment":["purple","green","yellow","pink","blue","grey","brown","red"],"door_color_assignment":["black","white"],"door_generator_assignment":[1,0],"goal":2,"start":0,"action_noise":0.1,"location_history":"[0,3,7,6,5,2]","action_history":"[1,0,0,1,1]","door_history":"[0,1,1,0,0]","location_rts":"[1922,688,395,794,467]","trial_type":"two-door-navigation","trial_index":51,"time_elapsed":979405,"internal_node_id":"0.0-2.0-49.0"},{"view_history":"[{\"page_index\":0,\"viewing_time\":4223}]","rt":4223,"trial_type":"instructions","trial_index":52,"time_elapsed":984631,"internal_node_id":"0.0-3.0"},{"view_history":"[{\"page_index\":0,\"viewing_time\":6638},{\"page_index\":1,\"viewing_time\":23302}]","rt":29941,"trial_type":"instructions","trial_index":53,"time_elapsed":1015574,"internal_node_id":"0.0-4.0"},{"group":"square cycles (cube, non-group)","fractal_assignment":["../images/pnk_blu.png","../images/grn_red.png","../images/gry_blk.png","../images/ylw_slt.png","../images/ylw_pnk.png","../images/blu_wht.png","../images/org_blu.png","../images/cyn_red.png"],"mutagen_generator_assignment":[1,0],"goal":3,"start":0,"action_noise":0.1,"location_history":"[0,1,2,3]","action_history":"[0,0,0]","mutagen_history":"[1,1,1]","location_rts":"[7175,1327,884]","trial_type":"fractal-mutation","trial_index":54,"time_elapsed":1032067,"internal_node_id":"0.0-5.0-0.0"},{"group":"square cycles (cube, non-group)","fractal_assignment":["../images/pnk_blu.png","../images/grn_red.png","../images/gry_blk.png","../images/ylw_slt.png","../images/ylw_pnk.png","../images/blu_wht.png","../images/org_blu.png","../images/cyn_red.png"],"mutagen_generator_assignment":[1,0],"goal":1,"start":3,"action_noise":0.1,"location_history":"[3,2,3,2,3,0,1]","action_history":"[1,0,1,0,0,0]","mutagen_history":"[0,1,0,1,1,1]","location_rts":"[3086,771,1619,735,1259,747]","trial_type":"fractal-mutation","trial_index":55,"time_elapsed":1050532,"internal_node_id":"0.0-5.0-1.0"},{"group":"square cycles (cube, non-group)","fractal_assignment":["../images/pnk_blu.png","../images/grn_red.png","../images/gry_blk.png","../images/ylw_slt.png","../images/ylw_pnk.png","../images/blu_wht.png","../images/org_blu.png","../images/cyn_red.png"],"mutagen_generator_assignment":[1,0],"goal":2,"start":1,"action_noise":0.1,"location_history":"[1,0,4,7,6,7,3,2]","action_history":"[1,1,0,0,1,1,1]","mutagen_history":"[0,0,1,1,0,0,0]","location_rts":"[3181,905,698,702,725,1131,1265]","trial_type":"fractal-mutation","trial_index":56,"time_elapsed":1070371,"internal_node_id":"0.0-5.0-2.0"},{"group":"square cycles (cube, non-group)","fractal_assignment":["../images/pnk_blu.png","../images/grn_red.png","../images/gry_blk.png","../images/ylw_slt.png","../images/ylw_pnk.png","../images/blu_wht.png","../images/org_blu.png","../images/cyn_red.png"],"mutagen_generator_assignment":[1,0],"goal":6,"start":2,"action_noise":0.1,"location_history":"[2,3,0,1,2,6]","action_history":"[0,0,0,0,1]","mutagen_history":"[1,1,1,1,0]","location_rts":"[2308,889,608,781,840]","trial_type":"fractal-mutation","trial_index":57,"time_elapsed":1084949,"internal_node_id":"0.0-5.0-3.0"},{"group":"square cycles (cube, non-group)","fractal_assignment":["../images/pnk_blu.png","../images/grn_red.png","../images/gry_blk.png","../images/ylw_slt.png","../images/ylw_pnk.png","../images/blu_wht.png","../images/org_blu.png","../images/cyn_red.png"],"mutagen_generator_assignment":[1,0],"goal":5,"start":6,"action_noise":0.1,"location_history":"[6,5]","action_history":"[0]","mutagen_history":"[1]","location_rts":"[3297]","trial_type":"fractal-mutation","trial_index":58,"time_elapsed":1092895,"internal_node_id":"0.0-5.0-4.0"},{"group":"square cycles (cube, non-group)","fractal_assignment":["../images/pnk_blu.png","../images/grn_red.png","../images/gry_blk.png","../images/ylw_slt.png","../images/ylw_pnk.png","../images/blu_wht.png","../images/org_blu.png","../images/cyn_red.png"],"mutagen_generator_assignment":[1,0],"goal":4,"start":5,"action_noise":0.1,"location_history":"[5,4]","action_history":"[1]","mutagen_history":"[0]","location_rts":"[1826]","trial_type":"fractal-mutation","trial_index":59,"time_elapsed":1099321,"internal_node_id":"0.0-5.0-5.0"},{"group":"square cycles (cube, non-group)","fractal_assignment":["../images/pnk_blu.png","../images/grn_red.png","../images/gry_blk.png","../images/ylw_slt.png","../images/ylw_pnk.png","../images/blu_wht.png","../images/org_blu.png","../images/cyn_red.png"],"mutagen_generator_assignment":[1,0],"goal":7,"start":4,"action_noise":0.1,"location_history":"[4,7]","action_history":"[0]","mutagen_history":"[1]","location_rts":"[1070]","trial_type":"fractal-mutation","trial_index":60,"time_elapsed":1105039,"internal_node_id":"0.0-5.0-6.0"},{"group":"square cycles (cube, non-group)","fractal_assignment":["../images/pnk_blu.png","../images/grn_red.png","../images/gry_blk.png","../images/ylw_slt.png","../images/ylw_pnk.png","../images/blu_wht.png","../images/org_blu.png","../images/cyn_red.png"],"mutagen_generator_assignment":[1,0],"goal":4,"start":7,"action_noise":0.1,"location_history":"[7,3,0,1,0,4]","action_history":"[1,0,0,1,1]","mutagen_history":"[0,1,1,0,0]","location_rts":"[1232,963,595,706,710]","trial_type":"fractal-mutation","trial_index":61,"time_elapsed":1118326,"internal_node_id":"0.0-5.0-7.0"},{"group":"square cycles (cube, non-group)","fractal_assignment":["../images/pnk_blu.png","../images/grn_red.png","../images/gry_blk.png","../images/ylw_slt.png","../images/ylw_pnk.png","../images/blu_wht.png","../images/org_blu.png","../images/cyn_red.png"],"mutagen_generator_assignment":[1,0],"goal":6,"start":4,"action_noise":0.1,"location_history":"[4,7,3,2,6]","action_history":"[0,1,1,1]","mutagen_history":"[1,0,0,0]","location_rts":"[2073,656,595,819]","trial_type":"fractal-mutation","trial_index":62,"time_elapsed":1130406,"internal_node_id":"0.0-5.0-8.0"},{"group":"square cycles (cube, non-group)","fractal_assignment":["../images/pnk_blu.png","../images/grn_red.png","../images/gry_blk.png","../images/ylw_slt.png","../images/ylw_pnk.png","../images/blu_wht.png","../images/org_blu.png","../images/cyn_red.png"],"mutagen_generator_assignment":[1,0],"goal":0,"start":6,"action_noise":0.1,"location_history":"[6,5,4,7,6,7,6,5,1,2,6,5,1,2,3,2,3,2,6,5,4,5,4,7,6,7,6,5,4,7,3,2,6,7,6,5,1,2,3,0]","action_history":"[0,0,0,0,1,1,0,1,0,0,0,1,0,0,1,0,0,0,1,0,1,0,0,0,1,0,0,0,0,1,1,1,1,0,0,1,0,1,0]","mutagen_history":"[1,1,1,1,0,0,1,0,1,1,1,0,1,1,0,1,1,1,0,1,0,1,1,1,0,1,1,1,1,0,0,0,0,1,1,0,1,0,1]","location_rts":"[1296,1137,777,820,1038,1045,387,1179,499,592,1084,1172,592,735,954,723,499,646,594,1122,741,647,687,947,807,647,444,612,724,607,587,541,747,1008,602,854,467,792,366]","trial_type":"fractal-mutation","trial_index":63,"time_elapsed":1207576,"internal_node_id":"0.0-5.0-9.0"},{"group":"square cycles (cube, non-group)","fractal_assignment":["../images/pnk_blu.png","../images/grn_red.png","../images/gry_blk.png","../images/ylw_slt.png","../images/ylw_pnk.png","../images/blu_wht.png","../images/org_blu.png","../images/cyn_red.png"],"mutagen_generator_assignment":[1,0],"goal":1,"start":0,"action_noise":0.1,"location_history":"[0,1]","action_history":"[0]","mutagen_history":"[1]","location_rts":"[1468]","trial_type":"fractal-mutation","trial_index":64,"time_elapsed":1213683,"internal_node_id":"0.0-5.0-10.0"},{"group":"square cycles (cube, non-group)","fractal_assignment":["../images/pnk_blu.png","../images/grn_red.png","../images/gry_blk.png","../images/ylw_slt.png","../images/ylw_pnk.png","../images/blu_wht.png","../images/org_blu.png","../images/cyn_red.png"],"mutagen_generator_assignment":[1,0],"goal":3,"start":1,"action_noise":0.1,"location_history":"[1,0,1,2,3]","action_history":"[1,0,0,0]","mutagen_history":"[0,1,1,1]","location_rts":"[1192,900,523,1043]","trial_type":"fractal-mutation","trial_index":65,"time_elapsed":1225356,"internal_node_id":"0.0-5.0-11.0"},{"group":"square cycles (cube, non-group)","fractal_assignment":["../images/pnk_blu.png","../images/grn_red.png","../images/gry_blk.png","../images/ylw_slt.png","../images/ylw_pnk.png","../images/blu_wht.png","../images/org_blu.png","../images/cyn_red.png"],"mutagen_generator_assignment":[1,0],"goal":7,"start":3,"action_noise":0.1,"location_history":"[3,0,1,2,6,5,4,7]","action_history":"[0,1,0,1,0,0,0]","mutagen_history":"[1,0,1,0,1,1,1]","location_rts":"[1680,1086,688,533,443,560,799]","trial_type":"fractal-mutation","trial_index":66,"time_elapsed":1242550,"internal_node_id":"0.0-5.0-12.0"},{"group":"square cycles (cube, non-group)","fractal_assignment":["../images/pnk_blu.png","../images/grn_red.png","../images/gry_blk.png","../images/ylw_slt.png","../images/ylw_pnk.png","../images/blu_wht.png","../images/org_blu.png","../images/cyn_red.png"],"mutagen_generator_assignment":[1,0],"goal":5,"start":7,"action_noise":0.1,"location_history":"[7,3,0,1,2,3,2,3,0,4,5]","action_history":"[1,0,0,0,0,1,0,0,1,1]","mutagen_history":"[0,1,1,1,1,0,1,1,0,0]","location_rts":"[11257,887,539,479,492,494,940,580,329,659]","trial_type":"fractal-mutation","trial_index":67,"time_elapsed":1273866,"internal_node_id":"0.0-5.0-13.0"},{"group":"square cycles (cube, non-group)","fractal_assignment":["../images/pnk_blu.png","../images/grn_red.png","../images/gry_blk.png","../images/ylw_slt.png","../images/ylw_pnk.png","../images/blu_wht.png","../images/org_blu.png","../images/cyn_red.png"],"mutagen_generator_assignment":[1,0],"goal":2,"start":5,"action_noise":0.1,"location_history":"[5,4,5,1,0,1,2]","action_history":"[0,1,1,1,0,0]","mutagen_history":"[1,0,0,0,1,1]","location_rts":"[1044,655,892,923,745,682]","trial_type":"fractal-mutation","trial_index":68,"time_elapsed":1289053,"internal_node_id":"0.0-5.0-14.0"},{"group":"square cycles (cube, non-group)","fractal_assignment":["../images/pnk_blu.png","../images/grn_red.png","../images/gry_blk.png","../images/ylw_slt.png","../images/ylw_pnk.png","../images/blu_wht.png","../images/org_blu.png","../images/cyn_red.png"],"mutagen_generator_assignment":[1,0],"goal":7,"start":2,"action_noise":0.1,"location_history":"[2,3,0,1,0,4,7]","action_history":"[0,0,0,1,1,0]","mutagen_history":"[1,1,1,0,0,1]","location_rts":"[1311,769,856,862,688,938]","trial_type":"fractal-mutation","trial_index":69,"time_elapsed":1304754,"internal_node_id":"0.0-5.0-15.0"},{"group":"square cycles (cube, non-group)","fractal_assignment":["../images/pnk_blu.png","../images/grn_red.png","../images/gry_blk.png","../images/ylw_slt.png","../images/ylw_pnk.png","../images/blu_wht.png","../images/org_blu.png","../images/cyn_red.png"],"mutagen_generator_assignment":[1,0],"goal":4,"start":7,"action_noise":0.1,"location_history":"[7,6,5,4]","action_history":"[0,0,0]","mutagen_history":"[1,1,1]","location_rts":"[16885,615,633]","trial_type":"fractal-mutation","trial_index":70,"time_elapsed":1329837,"internal_node_id":"0.0-5.0-16.0"},{"group":"square cycles (cube, non-group)","fractal_assignment":["../images/pnk_blu.png","../images/grn_red.png","../images/gry_blk.png","../images/ylw_slt.png","../images/ylw_pnk.png","../images/blu_wht.png","../images/org_blu.png","../images/cyn_red.png"],"mutagen_generator_assignment":[1,0],"goal":2,"start":4,"action_noise":0.1,"location_history":"[4,5,1,2]","action_history":"[1,1,0]","mutagen_history":"[0,0,1]","location_rts":"[1502,624,783]","trial_type":"fractal-mutation","trial_index":71,"time_elapsed":1339572,"internal_node_id":"0.0-5.0-17.0"},{"group":"square cycles (cube, non-group)","fractal_assignment":["../images/pnk_blu.png","../images/grn_red.png","../images/gry_blk.png","../images/ylw_slt.png","../images/ylw_pnk.png","../images/blu_wht.png","../images/org_blu.png","../images/cyn_red.png"],"mutagen_generator_assignment":[1,0],"goal":3,"start":2,"action_noise":0.1,"location_history":"[2,3]","action_history":"[0]","mutagen_history":"[1]","location_rts":"[1412]","trial_type":"fractal-mutation","trial_index":72,"time_elapsed":1345627,"internal_node_id":"0.0-5.0-18.0"},{"group":"square cycles (cube, non-group)","fractal_assignment":["../images/pnk_blu.png","../images/grn_red.png","../images/gry_blk.png","../images/ylw_slt.png","../images/ylw_pnk.png","../images/blu_wht.png","../images/org_blu.png","../images/cyn_red.png"],"mutagen_generator_assignment":[1,0],"goal":6,"start":3,"action_noise":0.1,"location_history":"[3,0,1,0,4,5,4,7,3,0,4,5,1,0,1,2,6]","action_history":"[0,0,1,1,1,0,1,1,0,1,1,1,1,0,0,1]","mutagen_history":"[1,1,0,0,0,1,0,0,1,0,0,0,0,1,1,0]","location_rts":"[2135,855,743,879,731,684,846,570,755,661,557,673,987,1000,3074,721]","trial_type":"fractal-mutation","trial_index":73,"time_elapsed":1382734,"internal_node_id":"0.0-5.0-19.0"},{"group":"square cycles (cube, non-group)","fractal_assignment":["../images/pnk_blu.png","../images/grn_red.png","../images/gry_blk.png","../images/ylw_slt.png","../images/ylw_pnk.png","../images/blu_wht.png","../images/org_blu.png","../images/cyn_red.png"],"mutagen_generator_assignment":[1,0],"goal":5,"start":6,"action_noise":0.1,"location_history":"[6,5]","action_history":"[0]","mutagen_history":"[1]","location_rts":"[1094]","trial_type":"fractal-mutation","trial_index":74,"time_elapsed":1388472,"internal_node_id":"0.0-5.0-20.0"},{"group":"square cycles (cube, non-group)","fractal_assignment":["../images/pnk_blu.png","../images/grn_red.png","../images/gry_blk.png","../images/ylw_slt.png","../images/ylw_pnk.png","../images/blu_wht.png","../images/org_blu.png","../images/cyn_red.png"],"mutagen_generator_assignment":[1,0],"goal":1,"start":5,"action_noise":0.1,"location_history":"[5,4,5,4,7,6,7,6,7,6,7,6,5,4,5,4,5,1]","action_history":"[0,1,1,0,0,1,0,1,1,1,0,0,0,1,0,1,1]","mutagen_history":"[1,0,0,1,1,0,1,0,0,0,1,1,1,0,1,0,0]","location_rts":"[1080,1117,702,831,659,783,736,622,567,1117,622,632,811,696,595,481,540]","trial_type":"fractal-mutation","trial_index":75,"time_elapsed":1423475,"internal_node_id":"0.0-5.0-21.0"},{"group":"square cycles (cube, non-group)","fractal_assignment":["../images/pnk_blu.png","../images/grn_red.png","../images/gry_blk.png","../images/ylw_slt.png","../images/ylw_pnk.png","../images/blu_wht.png","../images/org_blu.png","../images/cyn_red.png"],"mutagen_generator_assignment":[1,0],"goal":0,"start":1,"action_noise":0.1,"location_history":"[1,2,3,0]","action_history":"[0,0,0]","mutagen_history":"[1,1,1]","location_rts":"[1060,732,928]","trial_type":"fractal-mutation","trial_index":76,"time_elapsed":1433169,"internal_node_id":"0.0-5.0-22.0"},{"group":"square cycles (cube, non-group)","fractal_assignment":["../images/pnk_blu.png","../images/grn_red.png","../images/gry_blk.png","../images/ylw_slt.png","../images/ylw_pnk.png","../images/blu_wht.png","../images/org_blu.png","../images/cyn_red.png"],"mutagen_generator_assignment":[1,0],"goal":2,"start":0,"action_noise":0.1,"location_history":"[0,4,7,6,5,1,2]","action_history":"[1,1,0,0,1,0]","mutagen_history":"[0,0,1,1,0,1]","location_rts":"[1702,747,1093,14230,901,572]","trial_type":"fractal-mutation","trial_index":77,"time_elapsed":1462562,"internal_node_id":"0.0-5.0-23.0"},{"group":"square cycles (cube, non-group)","fractal_assignment":["../images/pnk_blu.png","../images/grn_red.png","../images/gry_blk.png","../images/ylw_slt.png","../images/ylw_pnk.png","../images/blu_wht.png","../images/org_blu.png","../images/cyn_red.png"],"mutagen_generator_assignment":[1,0],"goal":6,"start":2,"action_noise":0.1,"location_history":"[2,6]","action_history":"[1]","mutagen_history":"[0]","location_rts":"[911]","trial_type":"fractal-mutation","trial_index":78,"time_elapsed":1468075,"internal_node_id":"0.0-5.0-24.0"},{"group":"square cycles (cube, non-group)","fractal_assignment":["../images/pnk_blu.png","../images/grn_red.png","../images/gry_blk.png","../images/ylw_slt.png","../images/ylw_pnk.png","../images/blu_wht.png","../images/org_blu.png","../images/cyn_red.png"],"mutagen_generator_assignment":[1,0],"goal":1,"start":6,"action_noise":0.1,"location_history":"[6,5,4,5,4,7,6,7,6,7,3,0,1]","action_history":"[0,0,1,0,0,0,1,0,1,1,0,0]","mutagen_history":"[1,1,0,1,1,1,0,1,0,0,1,1]","location_rts":"[2948,1205,1039,497,965,542,556,525,555,375,986,1468]","trial_type":"fractal-mutation","trial_index":79,"time_elapsed":1496824,"internal_node_id":"0.0-5.0-25.0"},{"group":"square cycles (cube, non-group)","fractal_assignment":["../images/pnk_blu.png","../images/grn_red.png","../images/gry_blk.png","../images/ylw_slt.png","../images/ylw_pnk.png","../images/blu_wht.png","../images/org_blu.png","../images/cyn_red.png"],"mutagen_generator_assignment":[1,0],"goal":3,"start":1,"action_noise":0.1,"location_history":"[1,2,3]","action_history":"[0,0]","mutagen_history":"[1,1]","location_rts":"[1605,957]","trial_type":"fractal-mutation","trial_index":80,"time_elapsed":1505169,"internal_node_id":"0.0-5.0-26.0"},{"group":"square cycles (cube, non-group)","fractal_assignment":["../images/pnk_blu.png","../images/grn_red.png","../images/gry_blk.png","../images/ylw_slt.png","../images/ylw_pnk.png","../images/blu_wht.png","../images/org_blu.png","../images/cyn_red.png"],"mutagen_generator_assignment":[1,0],"goal":7,"start":3,"action_noise":0.1,"location_history":"[3,0,4,5,4,7]","action_history":"[0,1,1,1,0]","mutagen_history":"[1,0,0,0,1]","location_rts":"[2172,1217,613,721,530]","trial_type":"fractal-mutation","trial_index":81,"time_elapsed":1519482,"internal_node_id":"0.0-5.0-27.0"},{"group":"square cycles (cube, non-group)","fractal_assignment":["../images/pnk_blu.png","../images/grn_red.png","../images/gry_blk.png","../images/ylw_slt.png","../images/ylw_pnk.png","../images/blu_wht.png","../images/org_blu.png","../images/cyn_red.png"],"mutagen_generator_assignment":[1,0],"goal":4,"start":7,"action_noise":0.1,"location_history":"[7,3,0,4]","action_history":"[1,0,1]","mutagen_history":"[0,1,0]","location_rts":"[1365,744,776]","trial_type":"fractal-mutation","trial_index":82,"time_elapsed":1529362,"internal_node_id":"0.0-5.0-28.0"},{"group":"square cycles (cube, non-group)","fractal_assignment":["../images/pnk_blu.png","../images/grn_red.png","../images/gry_blk.png","../images/ylw_slt.png","../images/ylw_pnk.png","../images/blu_wht.png","../images/org_blu.png","../images/cyn_red.png"],"mutagen_generator_assignment":[1,0],"goal":0,"start":4,"action_noise":0.1,"location_history":"[4,7,6,5,4,5,1,2,3,2,3,0]","action_history":"[0,0,0,0,1,1,0,0,0,0,0]","mutagen_history":"[1,1,1,1,0,0,1,1,1,1,1]","location_rts":"[2092,650,975,718,926,744,611,1004,805,1169,490]","trial_type":"fractal-mutation","trial_index":83,"time_elapsed":1555524,"internal_node_id":"0.0-5.0-29.0"},{"group":"square cycles (cube, non-group)","fractal_assignment":["../images/pnk_blu.png","../images/grn_red.png","../images/gry_blk.png","../images/ylw_slt.png","../images/ylw_pnk.png","../images/blu_wht.png","../images/org_blu.png","../images/cyn_red.png"],"mutagen_generator_assignment":[1,0],"goal":5,"start":0,"action_noise":0.1,"location_history":"[0,4,5]","action_history":"[1,1]","mutagen_history":"[0,0]","location_rts":"[1243,1111]","trial_type":"fractal-mutation","trial_index":84,"time_elapsed":1563569,"internal_node_id":"0.0-5.0-30.0"},{"group":"square cycles (cube, non-group)","fractal_assignment":["../images/pnk_blu.png","../images/grn_red.png","../images/gry_blk.png","../images/ylw_slt.png","../images/ylw_pnk.png","../images/blu_wht.png","../images/org_blu.png","../images/cyn_red.png"],"mutagen_generator_assignment":[1,0],"goal":3,"start":5,"action_noise":0.1,"location_history":"[5,1,2,3]","action_history":"[0,0,0]","mutagen_history":"[1,1,1]","location_rts":"[1589,659,1117]","trial_type":"fractal-mutation","trial_index":85,"time_elapsed":1573850,"internal_node_id":"0.0-5.0-31.0"},{"group":"square cycles (cube, non-group)","fractal_assignment":["../images/pnk_blu.png","../images/grn_red.png","../images/gry_blk.png","../images/ylw_slt.png","../images/ylw_pnk.png","../images/blu_wht.png","../images/org_blu.png","../images/cyn_red.png"],"mutagen_generator_assignment":[1,0],"goal":2,"start":3,"action_noise":0.1,"location_history":"[3,2]","action_history":"[1]","mutagen_history":"[0]","location_rts":"[3935]","trial_type":"fractal-mutation","trial_index":86,"time_elapsed":1582395,"internal_node_id":"0.0-5.0-32.0"},{"group":"square cycles (cube, non-group)","fractal_assignment":["../images/pnk_blu.png","../images/grn_red.png","../images/gry_blk.png","../images/ylw_slt.png","../images/ylw_pnk.png","../images/blu_wht.png","../images/org_blu.png","../images/cyn_red.png"],"mutagen_generator_assignment":[1,0],"goal":6,"start":2,"action_noise":0.1,"location_history":"[2,3,0,4,5,1,0,1,2,6]","action_history":"[1,0,1,1,1,1,0,0,1]","mutagen_history":"[0,1,0,0,0,0,1,1,0]","location_rts":"[1090,2937,633,646,678,937,591,853,909]","trial_type":"fractal-mutation","trial_index":87,"time_elapsed":1605173,"internal_node_id":"0.0-5.0-33.0"},{"group":"square cycles (cube, non-group)","fractal_assignment":["../images/pnk_blu.png","../images/grn_red.png","../images/gry_blk.png","../images/ylw_slt.png","../images/ylw_pnk.png","../images/blu_wht.png","../images/org_blu.png","../images/cyn_red.png"],"mutagen_generator_assignment":[1,0],"goal":1,"start":6,"action_noise":0.1,"location_history":"[6,5,4,5,4,5,4,5,1]","action_history":"[0,0,0,0,1,0,1,1]","mutagen_history":"[1,1,1,1,0,1,0,0]","location_rts":"[1014,700,500,748,455,783,420,370]","trial_type":"fractal-mutation","trial_index":88,"time_elapsed":1622663,"internal_node_id":"0.0-5.0-34.0"},{"group":"square cycles (cube, non-group)","fractal_assignment":["../images/pnk_blu.png","../images/grn_red.png","../images/gry_blk.png","../images/ylw_slt.png","../images/ylw_pnk.png","../images/blu_wht.png","../images/org_blu.png","../images/cyn_red.png"],"mutagen_generator_assignment":[1,0],"goal":7,"start":1,"action_noise":0.1,"location_history":"[1,2,3,0,1,0,4,5,4,5,1,2,6,5,4,7]","action_history":"[0,0,0,0,1,1,1,0,1,1,0,1,0,0,0]","mutagen_history":"[1,1,1,1,0,0,0,1,0,0,1,0,1,1,1]","location_rts":"[1967,858,747,1508,704,810,874,755,853,487,629,641,403,698,610]","trial_type":"fractal-mutation","trial_index":89,"time_elapsed":1655484,"internal_node_id":"0.0-5.0-35.0"},{"group":"square cycles (cube, non-group)","fractal_assignment":["../images/pnk_blu.png","../images/grn_red.png","../images/gry_blk.png","../images/ylw_slt.png","../images/ylw_pnk.png","../images/blu_wht.png","../images/org_blu.png","../images/cyn_red.png"],"mutagen_generator_assignment":[1,0],"goal":4,"start":7,"action_noise":0.1,"location_history":"[7,3,0,4]","action_history":"[1,0,1]","mutagen_history":"[0,1,0]","location_rts":"[1878,783,905]","trial_type":"fractal-mutation","trial_index":90,"time_elapsed":1665857,"internal_node_id":"0.0-5.0-36.0"},{"group":"square cycles (cube, non-group)","fractal_assignment":["../images/pnk_blu.png","../images/grn_red.png","../images/gry_blk.png","../images/ylw_slt.png","../images/ylw_pnk.png","../images/blu_wht.png","../images/org_blu.png","../images/cyn_red.png"],"mutagen_generator_assignment":[1,0],"goal":5,"start":4,"action_noise":0.1,"location_history":"[4,5]","action_history":"[1]","mutagen_history":"[0]","location_rts":"[1497]","trial_type":"fractal-mutation","trial_index":91,"time_elapsed":1671952,"internal_node_id":"0.0-5.0-37.0"},{"group":"square cycles (cube, non-group)","fractal_assignment":["../images/pnk_blu.png","../images/grn_red.png","../images/gry_blk.png","../images/ylw_slt.png","../images/ylw_pnk.png","../images/blu_wht.png","../images/org_blu.png","../images/cyn_red.png"],"mutagen_generator_assignment":[1,0],"goal":0,"start":5,"action_noise":0.1,"location_history":"[5,4,7,6,5,4,5,4,5,1,2,3,0]","action_history":"[0,0,0,0,0,1,0,1,1,0,0,0]","mutagen_history":"[1,1,1,1,1,0,1,0,0,1,1,1]","location_rts":"[1138,638,756,703,750,796,589,613,573,893,837,638]","trial_type":"fractal-mutation","trial_index":92,"time_elapsed":1697957,"internal_node_id":"0.0-5.0-38.0"},{"group":"square cycles (cube, non-group)","fractal_assignment":["../images/pnk_blu.png","../images/grn_red.png","../images/gry_blk.png","../images/ylw_slt.png","../images/ylw_pnk.png","../images/blu_wht.png","../images/org_blu.png","../images/cyn_red.png"],"mutagen_generator_assignment":[1,0],"goal":4,"start":0,"action_noise":0.1,"location_history":"[0,4]","action_history":"[1]","mutagen_history":"[0]","location_rts":"[1219]","trial_type":"fractal-mutation","trial_index":93,"time_elapsed":1703771,"internal_node_id":"0.0-5.0-39.0"},{"group":"square cycles (cube, non-group)","fractal_assignment":["../images/pnk_blu.png","../images/grn_red.png","../images/gry_blk.png","../images/ylw_slt.png","../images/ylw_pnk.png","../images/blu_wht.png","../images/org_blu.png","../images/cyn_red.png"],"mutagen_generator_assignment":[1,0],"goal":0,"start":4,"action_noise":0.1,"location_history":"[4,5,4,7,6,5,4,7,6,5,1,0]","action_history":"[1,0,0,0,0,0,0,0,0,1,1]","mutagen_history":"[0,1,1,1,1,1,1,1,1,0,0]","location_rts":"[2402,759,582,695,1044,715,635,612,842,779,636]","trial_type":"fractal-mutation","trial_index":94,"time_elapsed":1729385,"internal_node_id":"0.0-5.0-40.0"},{"group":"square cycles (cube, non-group)","fractal_assignment":["../images/pnk_blu.png","../images/grn_red.png","../images/gry_blk.png","../images/ylw_slt.png","../images/ylw_pnk.png","../images/blu_wht.png","../images/org_blu.png","../images/cyn_red.png"],"mutagen_generator_assignment":[1,0],"goal":2,"start":0,"action_noise":0.1,"location_history":"[0,1,0,4,7,6,7,6,7,6,5,1,2]","action_history":"[1,1,1,0,0,1,0,0,0,0,1,1]","mutagen_history":"[0,0,0,1,1,0,1,1,1,1,0,0]","location_rts":"[1502,1185,955,480,654,536,630,856,525,1425,591,757]","trial_type":"fractal-mutation","trial_index":95,"time_elapsed":1756296,"internal_node_id":"0.0-5.0-41.0"},{"group":"square cycles (cube, non-group)","fractal_assignment":["../images/pnk_blu.png","../images/grn_red.png","../images/gry_blk.png","../images/ylw_slt.png","../images/ylw_pnk.png","../images/blu_wht.png","../images/org_blu.png","../images/cyn_red.png"],"mutagen_generator_assignment":[1,0],"goal":3,"start":2,"action_noise":0.1,"location_history":"[2,3]","action_history":"[0]","mutagen_history":"[1]","location_rts":"[2773]","trial_type":"fractal-mutation","trial_index":96,"time_elapsed":1763749,"internal_node_id":"0.0-5.0-42.0"},{"group":"square cycles (cube, non-group)","fractal_assignment":["../images/pnk_blu.png","../images/grn_red.png","../images/gry_blk.png","../images/ylw_slt.png","../images/ylw_pnk.png","../images/blu_wht.png","../images/org_blu.png","../images/cyn_red.png"],"mutagen_generator_assignment":[1,0],"goal":5,"start":3,"action_noise":0.1,"location_history":"[3,0,4,5]","action_history":"[0,0,1]","mutagen_history":"[1,1,0]","location_rts":"[1276,974,876]","trial_type":"fractal-mutation","trial_index":97,"time_elapsed":1773728,"internal_node_id":"0.0-5.0-43.0"},{"group":"square cycles (cube, non-group)","fractal_assignment":["../images/pnk_blu.png","../images/grn_red.png","../images/gry_blk.png","../images/ylw_slt.png","../images/ylw_pnk.png","../images/blu_wht.png","../images/org_blu.png","../images/cyn_red.png"],"mutagen_generator_assignment":[1,0],"goal":1,"start":5,"action_noise":0.1,"location_history":"[5,4,5,1]","action_history":"[0,1,1]","mutagen_history":"[1,0,0]","location_rts":"[2959,789,971]","trial_type":"fractal-mutation","trial_index":98,"time_elapsed":1785267,"internal_node_id":"0.0-5.0-44.0"},{"group":"square cycles (cube, non-group)","fractal_assignment":["../images/pnk_blu.png","../images/grn_red.png","../images/gry_blk.png","../images/ylw_slt.png","../images/ylw_pnk.png","../images/blu_wht.png","../images/org_blu.png","../images/cyn_red.png"],"mutagen_generator_assignment":[1,0],"goal":7,"start":1,"action_noise":0.1,"location_history":"[1,2,3,0,4,5,4,7]","action_history":"[0,0,0,1,1,0,0]","mutagen_history":"[1,1,1,0,0,1,1]","location_rts":"[1309,1017,818,1118,1100,1149,1065]","trial_type":"fractal-mutation","trial_index":99,"time_elapsed":1804163,"internal_node_id":"0.0-5.0-45.0"},{"group":"square cycles (cube, non-group)","fractal_assignment":["../images/pnk_blu.png","../images/grn_red.png","../images/gry_blk.png","../images/ylw_slt.png","../images/ylw_pnk.png","../images/blu_wht.png","../images/org_blu.png","../images/cyn_red.png"],"mutagen_generator_assignment":[1,0],"goal":6,"start":7,"action_noise":0.1,"location_history":"[7,3,2,6]","action_history":"[0,1,1]","mutagen_history":"[1,0,0]","location_rts":"[859,1236,755]","trial_type":"fractal-mutation","trial_index":100,"time_elapsed":1813857,"internal_node_id":"0.0-5.0-46.0"},{"group":"square cycles (cube, non-group)","fractal_assignment":["../images/pnk_blu.png","../images/grn_red.png","../images/gry_blk.png","../images/ylw_slt.png","../images/ylw_pnk.png","../images/blu_wht.png","../images/org_blu.png","../images/cyn_red.png"],"mutagen_generator_assignment":[1,0],"goal":3,"start":6,"action_noise":0.1,"location_history":"[6,5,4,5,4,7,6,5,1,0,4,7,6,5,4,7,6,7,3]","action_history":"[0,0,1,0,0,0,0,1,1,1,0,0,0,0,0,1,1,1]","mutagen_history":"[1,1,0,1,1,1,1,0,0,0,1,1,1,1,1,0,0,0]","location_rts":"[1218,790,751,911,650,842,1095,509,626,971,602,581,1076,978,735,553,980,1074]","trial_type":"fractal-mutation","trial_index":101,"time_elapsed":1852570,"internal_node_id":"0.0-5.0-47.0"},{"group":"square cycles (cube, non-group)","fractal_assignment":["../images/pnk_blu.png","../images/grn_red.png","../images/gry_blk.png","../images/ylw_slt.png","../images/ylw_pnk.png","../images/blu_wht.png","../images/org_blu.png","../images/cyn_red.png"],"mutagen_generator_assignment":[1,0],"goal":0,"start":3,"action_noise":0.1,"location_history":"[3,0]","action_history":"[0]","mutagen_history":"[1]","location_rts":"[6763]","trial_type":"fractal-mutation","trial_index":102,"time_elapsed":1863976,"internal_node_id":"0.0-5.0-48.0"},{"group":"square cycles (cube, non-group)","fractal_assignment":["../images/pnk_blu.png","../images/grn_red.png","../images/gry_blk.png","../images/ylw_slt.png","../images/ylw_pnk.png","../images/blu_wht.png","../images/org_blu.png","../images/cyn_red.png"],"mutagen_generator_assignment":[1,0],"goal":2,"start":0,"action_noise":0.1,"location_history":"[0,4,7,3,0,4,7,3,0,4,7,3,2]","action_history":"[1,0,1,0,0,0,1,0,1,1,1,1]","mutagen_history":"[0,1,0,1,1,1,0,1,0,0,0,0]","location_rts":"[1933,810,495,529,888,1086,806,644,510,599,730,1047]","trial_type":"fractal-mutation","trial_index":103,"time_elapsed":1890916,"internal_node_id":"0.0-5.0-49.0"},{"view_history":"[{\"page_index\":0,\"viewing_time\":21112}]","rt":21112,"trial_type":"instructions","trial_index":104,"time_elapsed":1913032,"internal_node_id":"0.0-6.0"},{"rt":7884,"responses":"{\"Q0\":\"nope\"}","trial_type":"survey-text","trial_index":105,"time_elapsed":1921923,"internal_node_id":"0.0-7.0"}]