[{"view_history":"[{\"page_index\":0,\"viewing_time\":10858},{\"page_index\":1,\"viewing_time\":7363},{\"page_index\":2,\"viewing_time\":104657},{\"page_index\":3,\"viewing_time\":5651}]","rt":128531,"trial_type":"instructions","trial_index":0,"time_elapsed":128531,"internal_node_id":"0.0-0.0"},{"view_history":"[{\"page_index\":0,\"viewing_time\":34266},{\"page_index\":1,\"viewing_time\":121061}]","rt":155328,"trial_type":"instructions","trial_index":1,"time_elapsed":284860,"internal_node_id":"0.0-1.0"},{"group":"square cycles (cube, non-group)","room_assignment":["blue","green","yellow","purple","grey","pink","brown","red"],"door_color_assignment":["white","black"],"door_generator_assignment":[0,1],"goal":3,"start":0,"action_noise":0.1,"location_history":"[0,1,0,4,7,3]","action_history":"[0,0,0,0,0]","door_history":"[0,0,0,0,0]","location_rts":"[3890,2611,5536,2305,2153]","trial_type":"two-door-navigation","trial_index":2,"time_elapsed":309926,"internal_node_id":"0.0-2.0-0.0"},{"group":"square cycles (cube, non-group)","room_assignment":["blue","green","yellow","purple","grey","pink","brown","red"],"door_color_assignment":["white","black"],"door_generator_assignment":[0,1],"goal":1,"start":3,"action_noise":0.1,"location_history":"[3,2,6,7,3,0,4,5,1]","action_history":"[1,1,1,1,1,1,1,1]","door_history":"[1,1,1,1,1,1,1,1]","location_rts":"[3051,935,828,644,2609,558,603,692]","trial_type":"two-door-navigation","trial_index":3,"time_elapsed":331448,"internal_node_id":"0.0-2.0-1.0"},{"group":"square cycles (cube, non-group)","room_assignment":["blue","green","yellow","purple","grey","pink","brown","red"],"door_color_assignment":["white","black"],"door_generator_assignment":[0,1],"goal":2,"start":1,"action_noise":0.1,"location_history":"[1,2]","action_history":"[0]","door_history":"[0]","location_rts":"[29048]","trial_type":"two-door-navigation","trial_index":4,"time_elapsed":365018,"internal_node_id":"0.0-2.0-2.0"},{"group":"square cycles (cube, non-group)","room_assignment":["blue","green","yellow","purple","grey","pink","brown","red"],"door_color_assignment":["white","black"],"door_generator_assignment":[0,1],"goal":6,"start":2,"action_noise":0.1,"location_history":"[2,6]","action_history":"[1]","door_history":"[1]","location_rts":"[1966]","trial_type":"two-door-navigation","trial_index":5,"time_elapsed":371502,"internal_node_id":"0.0-2.0-3.0"},{"group":"square cycles (cube, non-group)","room_assignment":["blue","green","yellow","purple","grey","pink","brown","red"],"door_color_assignment":["white","black"],"door_generator_assignment":[0,1],"goal":5,"start":6,"action_noise":0.1,"location_history":"[6,5]","action_history":"[0]","door_history":"[0]","location_rts":"[2278]","trial_type":"two-door-navigation","trial_index":6,"time_elapsed":378292,"internal_node_id":"0.0-2.0-4.0"},{"group":"square cycles (cube, non-group)","room_assignment":["blue","green","yellow","purple","grey","pink","brown","red"],"door_color_assignment":["white","black"],"door_generator_assignment":[0,1],"goal":4,"start":5,"action_noise":0.1,"location_history":"[5,1,0,4]","action_history":"[1,1,1]","door_history":"[1,1,1]","location_rts":"[1470,467,470]","trial_type":"two-door-navigation","trial_index":7,"time_elapsed":387232,"internal_node_id":"0.0-2.0-5.0"},{"group":"square cycles (cube, non-group)","room_assignment":["blue","green","yellow","purple","grey","pink","brown","red"],"door_color_assignment":["white","black"],"door_generator_assignment":[0,1],"goal":7,"start":4,"action_noise":0.1,"location_history":"[4,7]","action_history":"[0]","door_history":"[0]","location_rts":"[36113]","trial_type":"two-door-navigation","trial_index":8,"time_elapsed":427855,"internal_node_id":"0.0-2.0-6.0"},{"group":"square cycles (cube, non-group)","room_assignment":["blue","green","yellow","purple","grey","pink","brown","red"],"door_color_assignment":["white","black"],"door_generator_assignment":[0,1],"goal":4,"start":7,"action_noise":0.1,"location_history":"[7,3,2,3,2,6,5,4]","action_history":"[1,1,1,1,1,0,0]","door_history":"[1,1,1,1,1,0,0]","location_rts":"[1511,495,447,520,713,766,754]","trial_type":"two-door-navigation","trial_index":9,"time_elapsed":443619,"internal_node_id":"0.0-2.0-7.0"},{"group":"square cycles (cube, non-group)","room_assignment":["blue","green","yellow","purple","grey","pink","brown","red"],"door_color_assignment":["white","black"],"door_generator_assignment":[0,1],"goal":6,"start":4,"action_noise":0.1,"location_history":"[4,7,6]","action_history":"[0,0]","door_history":"[0,0]","location_rts":"[2994,577]","trial_type":"two-door-navigation","trial_index":10,"time_elapsed":452717,"internal_node_id":"0.0-2.0-8.0"},{"group":"square cycles (cube, non-group)","room_assignment":["blue","green","yellow","purple","grey","pink","brown","red"],"door_color_assignment":["white","black"],"door_generator_assignment":[0,1],"goal":0,"start":6,"action_noise":0.1,"location_history":"[6,7,3,2,6,7,3,0]","action_history":"[1,1,1,1,1,0,0]","door_history":"[1,1,1,1,1,0,0]","location_rts":"[3196,595,588,991,857,1146,472]","trial_type":"two-door-navigation","trial_index":11,"time_elapsed":471126,"internal_node_id":"0.0-2.0-9.0"},{"group":"square cycles (cube, non-group)","room_assignment":["blue","green","yellow","purple","grey","pink","brown","red"],"door_color_assignment":["white","black"],"door_generator_assignment":[0,1],"goal":1,"start":0,"action_noise":0.1,"location_history":"[0,1]","action_history":"[0]","door_history":"[0]","location_rts":"[1260]","trial_type":"two-door-navigation","trial_index":12,"time_elapsed":476901,"internal_node_id":"0.0-2.0-10.0"},{"group":"square cycles (cube, non-group)","room_assignment":["blue","green","yellow","purple","grey","pink","brown","red"],"door_color_assignment":["white","black"],"door_generator_assignment":[0,1],"goal":3,"start":1,"action_noise":0.1,"location_history":"[1,2,3]","action_history":"[0,0]","door_history":"[0,0]","location_rts":"[1470,350]","trial_type":"two-door-navigation","trial_index":13,"time_elapsed":484241,"internal_node_id":"0.0-2.0-11.0"},{"group":"square cycles (cube, non-group)","room_assignment":["blue","green","yellow","purple","grey","pink","brown","red"],"door_color_assignment":["white","black"],"door_generator_assignment":[0,1],"goal":7,"start":3,"action_noise":0.1,"location_history":"[3,0,1,2,3,2,6,7]","action_history":"[0,0,0,0,1,1,1]","door_history":"[0,0,0,0,1,1,1]","location_rts":"[4170,478,6170,470,552,755,899]","trial_type":"two-door-navigation","trial_index":14,"time_elapsed":508293,"internal_node_id":"0.0-2.0-12.0"},{"group":"square cycles (cube, non-group)","room_assignment":["blue","green","yellow","purple","grey","pink","brown","red"],"door_color_assignment":["white","black"],"door_generator_assignment":[0,1],"goal":5,"start":7,"action_noise":0.1,"location_history":"[7,3,2,6,7,3,2,3,0,1,2,3,0,1,0,4,5]","action_history":"[1,1,1,1,1,1,0,0,0,0,0,0,0,1,1,1]","door_history":"[1,1,1,1,1,1,0,0,0,0,0,0,0,1,1,1]","location_rts":"[17018,435,554,464,1529,447,2063,345,379,548,746,831,1571,701,471,421]","trial_type":"two-door-navigation","trial_index":15,"time_elapsed":556435,"internal_node_id":"0.0-2.0-13.0"},{"group":"square cycles (cube, non-group)","room_assignment":["blue","green","yellow","purple","grey","pink","brown","red"],"door_color_assignment":["white","black"],"door_generator_assignment":[0,1],"goal":2,"start":5,"action_noise":0.1,"location_history":"[5,1,2]","action_history":"[1,0]","door_history":"[1,0]","location_rts":"[1904,779]","trial_type":"two-door-navigation","trial_index":16,"time_elapsed":564640,"internal_node_id":"0.0-2.0-14.0"},{"group":"square cycles (cube, non-group)","room_assignment":["blue","green","yellow","purple","grey","pink","brown","red"],"door_color_assignment":["white","black"],"door_generator_assignment":[0,1],"goal":7,"start":2,"action_noise":0.1,"location_history":"[2,3,0,1,2,3,0,1,2,3,0,1,2,6,5,4,7]","action_history":"[0,0,0,0,0,0,0,0,0,0,0,0,1,0,0,0]","door_history":"[0,0,0,0,0,0,0,0,0,0,0,0,1,0,0,0]","location_rts":"[1579,400,428,481,440,402,357,10323,378,367,364,628,856,448,363,468]","trial_type":"two-door-navigation","trial_index":17,"time_elapsed":602550,"internal_node_id":"0.0-2.0-15.0"},{"group":"square cycles (cube, non-group)","room_assignment":["blue","green","yellow","purple","grey","pink","brown","red"],"door_color_assignment":["white","black"],"door_generator_assignment":[0,1],"goal":4,"start":7,"action_noise":0.1,"location_history":"[7,3,0,1,0,4]","action_history":"[1,0,0,1,1]","door_history":"[1,0,0,1,1]","location_rts":"[29328,827,355,643,728]","trial_type":"two-door-navigation","trial_index":18,"time_elapsed":642968,"internal_node_id":"0.0-2.0-16.0"},{"group":"square cycles (cube, non-group)","room_assignment":["blue","green","yellow","purple","grey","pink","brown","red"],"door_color_assignment":["white","black"],"door_generator_assignment":[0,1],"goal":2,"start":4,"action_noise":0.1,"location_history":"[4,7,6,5,4,7,6,5,4,5,1,0,1,2]","action_history":"[0,0,0,0,1,0,0,0,0,1,0,0,0]","door_history":"[0,0,0,0,1,0,0,0,0,1,0,0,0]","location_rts":"[12091,860,395,998,616,393,485,438,403,337,637,362,403]","trial_type":"two-door-navigation","trial_index":19,"time_elapsed":678017,"internal_node_id":"0.0-2.0-17.0"},{"group":"square cycles (cube, non-group)","room_assignment":["blue","green","yellow","purple","grey","pink","brown","red"],"door_color_assignment":["white","black"],"door_generator_assignment":[0,1],"goal":3,"start":2,"action_noise":0.1,"location_history":"[2,3]","action_history":"[0]","door_history":"[0]","location_rts":"[100392]","trial_type":"two-door-navigation","trial_index":20,"time_elapsed":782922,"internal_node_id":"0.0-2.0-18.0"},{"group":"square cycles (cube, non-group)","room_assignment":["blue","green","yellow","purple","grey","pink","brown","red"],"door_color_assignment":["white","black"],"door_generator_assignment":[0,1],"goal":6,"start":3,"action_noise":0.1,"location_history":"[3,2,3,2,6]","action_history":"[1,0,1,1]","door_history":"[1,0,1,1]","location_rts":"[1225,559,419,487]","trial_type":"two-door-navigation","trial_index":21,"time_elapsed":793149,"internal_node_id":"0.0-2.0-19.0"},{"group":"square cycles (cube, non-group)","room_assignment":["blue","green","yellow","purple","grey","pink","brown","red"],"door_color_assignment":["white","black"],"door_generator_assignment":[0,1],"goal":5,"start":6,"action_noise":0.1,"location_history":"[6,5]","action_history":"[0]","door_history":"[0]","location_rts":"[1239]","trial_type":"two-door-navigation","trial_index":22,"time_elapsed":798899,"internal_node_id":"0.0-2.0-20.0"},{"group":"square cycles (cube, non-group)","room_assignment":["blue","green","yellow","purple","grey","pink","brown","red"],"door_color_assignment":["white","black"],"door_generator_assignment":[0,1],"goal":1,"start":5,"action_noise":0.1,"location_history":"[5,1]","action_history":"[1]","door_history":"[1]","location_rts":"[1706]","trial_type":"two-door-navigation","trial_index":23,"time_elapsed":805115,"internal_node_id":"0.0-2.0-21.0"},{"group":"square cycles (cube, non-group)","room_assignment":["blue","green","yellow","purple","grey","pink","brown","red"],"door_color_assignment":["white","black"],"door_generator_assignment":[0,1],"goal":0,"start":1,"action_noise":0.1,"location_history":"[1,2,3,2,3,0]","action_history":"[0,0,0,0,0]","door_history":"[0,0,0,0,0]","location_rts":"[1443,447,369,337,459]","trial_type":"two-door-navigation","trial_index":24,"time_elapsed":816729,"internal_node_id":"0.0-2.0-22.0"},{"group":"square cycles (cube, non-group)","room_assignment":["blue","green","yellow","purple","grey","pink","brown","red"],"door_color_assignment":["white","black"],"door_generator_assignment":[0,1],"goal":2,"start":0,"action_noise":0.1,"location_history":"[0,1,2]","action_history":"[0,0]","door_history":"[0,0]","location_rts":"[1042,401]","trial_type":"two-door-navigation","trial_index":25,"time_elapsed":823693,"internal_node_id":"0.0-2.0-23.0"},{"group":"square cycles (cube, non-group)","room_assignment":["blue","green","yellow","purple","grey","pink","brown","red"],"door_color_assignment":["white","black"],"door_generator_assignment":[0,1],"goal":6,"start":2,"action_noise":0.1,"location_history":"[2,6]","action_history":"[1]","door_history":"[1]","location_rts":"[3119]","trial_type":"two-door-navigation","trial_index":26,"time_elapsed":831329,"internal_node_id":"0.0-2.0-24.0"},{"group":"square cycles (cube, non-group)","room_assignment":["blue","green","yellow","purple","grey","pink","brown","red"],"door_color_assignment":["white","black"],"door_generator_assignment":[0,1],"goal":1,"start":6,"action_noise":0.1,"location_history":"[6,5,1]","action_history":"[0,1]","door_history":"[0,1]","location_rts":"[10285,499]","trial_type":"two-door-navigation","trial_index":27,"time_elapsed":847628,"internal_node_id":"0.0-2.0-25.0"},{"group":"square cycles (cube, non-group)","room_assignment":["blue","green","yellow","purple","grey","pink","brown","red"],"door_color_assignment":["white","black"],"door_generator_assignment":[0,1],"goal":3,"start":1,"action_noise":0.1,"location_history":"[1,2,6,5,4,7,6,5,4,7,6,5,1,2,3]","action_history":"[0,1,0,0,0,0,0,0,1,0,0,1,0,0]","door_history":"[0,1,0,0,0,0,0,0,1,0,0,1,0,0]","location_rts":"[1683,346,886,511,424,360,499,504,523,349,443,325,375,381]","trial_type":"two-door-navigation","trial_index":28,"time_elapsed":872845,"internal_node_id":"0.0-2.0-26.0"},{"group":"square cycles (cube, non-group)","room_assignment":["blue","green","yellow","purple","grey","pink","brown","red"],"door_color_assignment":["white","black"],"door_generator_assignment":[0,1],"goal":7,"start":3,"action_noise":0.1,"location_history":"[3,0,1,2,3,0,1,2,3,0,4,5,1,2,6,5,1,2,3,0,1,2,3,0,1,0,4,7]","action_history":"[0,0,0,0,0,0,0,0,0,0,0,1,0,0,0,1,0,0,0,0,0,0,0,0,1,1,0]","door_history":"[0,0,0,0,0,0,0,0,0,0,0,1,0,0,0,1,0,0,0,0,0,0,0,0,1,1,0]","location_rts":"[2007,389,343,379,440,480,695,1215,1540,380,638,732,358,357,477,376,292,923,1287,505,494,379,451,759,334,1280,568]","trial_type":"two-door-navigation","trial_index":29,"time_elapsed":921623,"internal_node_id":"0.0-2.0-27.0"},{"group":"square cycles (cube, non-group)","room_assignment":["blue","green","yellow","purple","grey","pink","brown","red"],"door_color_assignment":["white","black"],"door_generator_assignment":[0,1],"goal":4,"start":7,"action_noise":0.1,"location_history":"[7,6,5,4]","action_history":"[0,0,0]","door_history":"[0,0,0]","location_rts":"[15467,506,442]","trial_type":"two-door-navigation","trial_index":30,"time_elapsed":944569,"internal_node_id":"0.0-2.0-28.0"},{"group":"square cycles (cube, non-group)","room_assignment":["blue","green","yellow","purple","grey","pink","brown","red"],"door_color_assignment":["white","black"],"door_generator_assignment":[0,1],"goal":0,"start":4,"action_noise":0.1,"location_history":"[4,5,1,2,3,0]","action_history":"[1,1,0,0,0]","door_history":"[1,1,0,0,0]","location_rts":"[5270,774,452,347,383]","trial_type":"two-door-navigation","trial_index":31,"time_elapsed":960333,"internal_node_id":"0.0-2.0-29.0"},{"group":"square cycles (cube, non-group)","room_assignment":["blue","green","yellow","purple","grey","pink","brown","red"],"door_color_assignment":["white","black"],"door_generator_assignment":[0,1],"goal":5,"start":0,"action_noise":0.1,"location_history":"[0,4,7,6,5]","action_history":"[1,0,0,0]","door_history":"[1,0,0,0]","location_rts":"[5774,516,350,450]","trial_type":"two-door-navigation","trial_index":32,"time_elapsed":974952,"internal_node_id":"0.0-2.0-30.0"},{"group":"square cycles (cube, non-group)","room_assignment":["blue","green","yellow","purple","grey","pink","brown","red"],"door_color_assignment":["white","black"],"door_generator_assignment":[0,1],"goal":3,"start":5,"action_noise":0.1,"location_history":"[5,1,2,3]","action_history":"[1,0,0]","door_history":"[1,0,0]","location_rts":"[3511,520,342]","trial_type":"two-door-navigation","trial_index":33,"time_elapsed":985857,"internal_node_id":"0.0-2.0-31.0"},{"group":"square cycles (cube, non-group)","room_assignment":["blue","green","yellow","purple","grey","pink","brown","red"],"door_color_assignment":["white","black"],"door_generator_assignment":[0,1],"goal":2,"start":3,"action_noise":0.1,"location_history":"[3,0,1,2]","action_history":"[0,0,0]","door_history":"[0,0,0]","location_rts":"[38478,370,1807]","trial_type":"two-door-navigation","trial_index":34,"time_elapsed":1033228,"internal_node_id":"0.0-2.0-32.0"},{"group":"square cycles (cube, non-group)","room_assignment":["blue","green","yellow","purple","grey","pink","brown","red"],"door_color_assignment":["white","black"],"door_generator_assignment":[0,1],"goal":6,"start":2,"action_noise":0.1,"location_history":"[2,6]","action_history":"[1]","door_history":"[1]","location_rts":"[113548]","trial_type":"two-door-navigation","trial_index":35,"time_elapsed":1152287,"internal_node_id":"0.0-2.0-33.0"},{"group":"square cycles (cube, non-group)","room_assignment":["blue","green","yellow","purple","grey","pink","brown","red"],"door_color_assignment":["white","black"],"door_generator_assignment":[0,1],"goal":1,"start":6,"action_noise":0.1,"location_history":"[6,5,4,5,4,5,4,5,1]","action_history":"[1,0,1,0,1,1,1,1]","door_history":"[1,0,1,0,1,1,1,1]","location_rts":"[25610,370,326,333,147,379,618,574]","trial_type":"two-door-navigation","trial_index":36,"time_elapsed":1192191,"internal_node_id":"0.0-2.0-34.0"},{"group":"square cycles (cube, non-group)","room_assignment":["blue","green","yellow","purple","grey","pink","brown","red"],"door_color_assignment":["white","black"],"door_generator_assignment":[0,1],"goal":7,"start":1,"action_noise":0.1,"location_history":"[1,2,6,5,4,7]","action_history":"[0,1,0,0,0]","door_history":"[0,1,0,0,0]","location_rts":"[1080,43,915,355,384]","trial_type":"two-door-navigation","trial_index":37,"time_elapsed":1204228,"internal_node_id":"0.0-2.0-35.0"},{"group":"square cycles (cube, non-group)","room_assignment":["blue","green","yellow","purple","grey","pink","brown","red"],"door_color_assignment":["white","black"],"door_generator_assignment":[0,1],"goal":4,"start":7,"action_noise":0.1,"location_history":"[7,3,0,1,2,6,5,4]","action_history":"[0,0,0,0,1,0,0]","door_history":"[0,0,0,0,1,0,0]","location_rts":"[1882,407,565,461,304,472,648]","trial_type":"two-door-navigation","trial_index":38,"time_elapsed":1219528,"internal_node_id":"0.0-2.0-36.0"},{"group":"square cycles (cube, non-group)","room_assignment":["blue","green","yellow","purple","grey","pink","brown","red"],"door_color_assignment":["white","black"],"door_generator_assignment":[0,1],"goal":5,"start":4,"action_noise":0.1,"location_history":"[4,7,3,2,3,2,3,2,6,7,6,5]","action_history":"[0,1,0,0,1,0,1,1,0,0,0]","door_history":"[0,1,0,0,1,0,1,1,0,0,0]","location_rts":"[2488,704,400,395,124,212,386,964,435,769,437]","trial_type":"two-door-navigation","trial_index":39,"time_elapsed":1241417,"internal_node_id":"0.0-2.0-37.0"},{"group":"square cycles (cube, non-group)","room_assignment":["blue","green","yellow","purple","grey","pink","brown","red"],"door_color_assignment":["white","black"],"door_generator_assignment":[0,1],"goal":0,"start":5,"action_noise":0.1,"location_history":"[5,1,2,3,0]","action_history":"[1,0,0,0]","door_history":"[1,0,0,0]","location_rts":"[1700,474,350,446]","trial_type":"two-door-navigation","trial_index":40,"time_elapsed":1251924,"internal_node_id":"0.0-2.0-38.0"},{"group":"square cycles (cube, non-group)","room_assignment":["blue","green","yellow","purple","grey","pink","brown","red"],"door_color_assignment":["white","black"],"door_generator_assignment":[0,1],"goal":4,"start":0,"action_noise":0.1,"location_history":"[0,4]","action_history":"[1]","door_history":"[1]","location_rts":"[1732]","trial_type":"two-door-navigation","trial_index":41,"time_elapsed":1258172,"internal_node_id":"0.0-2.0-39.0"},{"group":"square cycles (cube, non-group)","room_assignment":["blue","green","yellow","purple","grey","pink","brown","red"],"door_color_assignment":["white","black"],"door_generator_assignment":[0,1],"goal":0,"start":4,"action_noise":0.1,"location_history":"[4,7,6,5,4,5,4,5,1,2,3,0]","action_history":"[1,0,0,0,1,0,1,1,0,0,0]","door_history":"[1,0,0,0,1,0,1,1,0,0,0]","location_rts":"[6973,1357,334,403,549,458,452,419,533,359,373]","trial_type":"two-door-navigation","trial_index":42,"time_elapsed":1284971,"internal_node_id":"0.0-2.0-40.0"},{"group":"square cycles (cube, non-group)","room_assignment":["blue","green","yellow","purple","grey","pink","brown","red"],"door_color_assignment":["white","black"],"door_generator_assignment":[0,1],"goal":2,"start":0,"action_noise":0.1,"location_history":"[0,1,2]","action_history":"[0,0]","door_history":"[0,0]","location_rts":"[77304,418]","trial_type":"two-door-navigation","trial_index":43,"time_elapsed":1368227,"internal_node_id":"0.0-2.0-41.0"},{"group":"square cycles (cube, non-group)","room_assignment":["blue","green","yellow","purple","grey","pink","brown","red"],"door_color_assignment":["white","black"],"door_generator_assignment":[0,1],"goal":3,"start":2,"action_noise":0.1,"location_history":"[2,3]","action_history":"[1]","door_history":"[1]","location_rts":"[1198]","trial_type":"two-door-navigation","trial_index":44,"time_elapsed":1374228,"internal_node_id":"0.0-2.0-42.0"},{"group":"square cycles (cube, non-group)","room_assignment":["blue","green","yellow","purple","grey","pink","brown","red"],"door_color_assignment":["white","black"],"door_generator_assignment":[0,1],"goal":5,"start":3,"action_noise":0.1,"location_history":"[3,2,3,2,6,5]","action_history":"[1,0,1,1,0]","door_history":"[1,0,1,1,0]","location_rts":"[54315,681,162,417,409]","trial_type":"two-door-navigation","trial_index":45,"time_elapsed":1440227,"internal_node_id":"0.0-2.0-43.0"},{"group":"square cycles (cube, non-group)","room_assignment":["blue","green","yellow","purple","grey","pink","brown","red"],"door_color_assignment":["white","black"],"door_generator_assignment":[0,1],"goal":1,"start":5,"action_noise":0.1,"location_history":"[5,1]","action_history":"[1]","door_history":"[1]","location_rts":"[109743]","trial_type":"two-door-navigation","trial_index":46,"time_elapsed":1555228,"internal_node_id":"0.0-2.0-44.0"},{"group":"square cycles (cube, non-group)","room_assignment":["blue","green","yellow","purple","grey","pink","brown","red"],"door_color_assignment":["white","black"],"door_generator_assignment":[0,1],"goal":7,"start":1,"action_noise":0.1,"location_history":"[1,2,3,0,4,7]","action_history":"[0,0,0,1,0]","door_history":"[0,0,0,1,0]","location_rts":"[4544,327,389,304,213]","trial_type":"two-door-navigation","trial_index":47,"time_elapsed":1570227,"internal_node_id":"0.0-2.0-45.0"},{"group":"square cycles (cube, non-group)","room_assignment":["blue","green","yellow","purple","grey","pink","brown","red"],"door_color_assignment":["white","black"],"door_generator_assignment":[0,1],"goal":6,"start":7,"action_noise":0.1,"location_history":"[7,3,2,6]","action_history":"[1,1,1]","door_history":"[1,1,1]","location_rts":"[9916,587,617]","trial_type":"two-door-navigation","trial_index":48,"time_elapsed":1587875,"internal_node_id":"0.0-2.0-46.0"},{"group":"square cycles (cube, non-group)","room_assignment":["blue","green","yellow","purple","grey","pink","brown","red"],"door_color_assignment":["white","black"],"door_generator_assignment":[0,1],"goal":3,"start":6,"action_noise":0.1,"location_history":"[6,7,3]","action_history":"[1,1]","door_history":"[1,1]","location_rts":"[1142,829]","trial_type":"two-door-navigation","trial_index":49,"time_elapsed":1595367,"internal_node_id":"0.0-2.0-47.0"},{"group":"square cycles (cube, non-group)","room_assignment":["blue","green","yellow","purple","grey","pink","brown","red"],"door_color_assignment":["white","black"],"door_generator_assignment":[0,1],"goal":0,"start":3,"action_noise":0.1,"location_history":"[3,2,3,0]","action_history":"[1,0,0]","door_history":"[1,0,0]","location_rts":"[1551,293,353]","trial_type":"two-door-navigation","trial_index":50,"time_elapsed":1604228,"internal_node_id":"0.0-2.0-48.0"},{"group":"square cycles (cube, non-group)","room_assignment":["blue","green","yellow","purple","grey","pink","brown","red"],"door_color_assignment":["white","black"],"door_generator_assignment":[0,1],"goal":2,"start":0,"action_noise":0.1,"location_history":"[0,1,2]","action_history":"[0,0]","door_history":"[0,0]","location_rts":"[15551,521]","trial_type":"two-door-navigation","trial_index":51,"time_elapsed":1626820,"internal_node_id":"0.0-2.0-49.0"},{"view_history":"[{\"page_index\":0,\"viewing_time\":1555}]","rt":1555,"trial_type":"instructions","trial_index":52,"time_elapsed":1629376,"internal_node_id":"0.0-3.0"},{"view_history":"[{\"page_index\":0,\"viewing_time\":7827},{\"page_index\":1,\"viewing_time\":71803}]","rt":79630,"trial_type":"instructions","trial_index":53,"time_elapsed":1710007,"internal_node_id":"0.0-4.0"},{"group":"square cycles (cube, non-group)","fractal_assignment":["../images/ylw_pnk.png","../images/grn_red.png","../images/blu_wht.png","../images/pnk_blu.png","../images/gry_blk.png","../images/org_blu.png","../images/cyn_red.png","../images/ylw_slt.png"],"mutagen_generator_assignment":[1,0],"goal":3,"start":0,"action_noise":0.1,"location_history":"[0,4,7,3]","action_history":"[1,0,1]","mutagen_history":"[0,1,0]","location_rts":"[4659,1822,1764]","trial_type":"fractal-mutation","trial_index":54,"time_elapsed":1725239,"internal_node_id":"0.0-5.0-0.0"},{"group":"square cycles (cube, non-group)","fractal_assignment":["../images/ylw_pnk.png","../images/grn_red.png","../images/blu_wht.png","../images/pnk_blu.png","../images/gry_blk.png","../images/org_blu.png","../images/cyn_red.png","../images/ylw_slt.png"],"mutagen_generator_assignment":[1,0],"goal":1,"start":3,"action_noise":0.1,"location_history":"[3,0,4,5,1]","action_history":"[0,1,1,1]","mutagen_history":"[1,0,0,0]","location_rts":"[2648,877,659,503]","trial_type":"fractal-mutation","trial_index":55,"time_elapsed":1737973,"internal_node_id":"0.0-5.0-1.0"},{"group":"square cycles (cube, non-group)","fractal_assignment":["../images/ylw_pnk.png","../images/grn_red.png","../images/blu_wht.png","../images/pnk_blu.png","../images/gry_blk.png","../images/org_blu.png","../images/cyn_red.png","../images/ylw_slt.png"],"mutagen_generator_assignment":[1,0],"goal":2,"start":1,"action_noise":0.1,"location_history":"[1,2]","action_history":"[0]","mutagen_history":"[1]","location_rts":"[2077]","trial_type":"fractal-mutation","trial_index":56,"time_elapsed":1744778,"internal_node_id":"0.0-5.0-2.0"},{"group":"square cycles (cube, non-group)","fractal_assignment":["../images/ylw_pnk.png","../images/grn_red.png","../images/blu_wht.png","../images/pnk_blu.png","../images/gry_blk.png","../images/org_blu.png","../images/cyn_red.png","../images/ylw_slt.png"],"mutagen_generator_assignment":[1,0],"goal":6,"start":2,"action_noise":0.1,"location_history":"[2,6]","action_history":"[1]","mutagen_history":"[0]","location_rts":"[1452]","trial_type":"fractal-mutation","trial_index":57,"time_elapsed":1750875,"internal_node_id":"0.0-5.0-3.0"},{"group":"square cycles (cube, non-group)","fractal_assignment":["../images/ylw_pnk.png","../images/grn_red.png","../images/blu_wht.png","../images/pnk_blu.png","../images/gry_blk.png","../images/org_blu.png","../images/cyn_red.png","../images/ylw_slt.png"],"mutagen_generator_assignment":[1,0],"goal":5,"start":6,"action_noise":0.1,"location_history":"[6,7,3,2,6,7,3,0,4,5]","action_history":"[1,1,1,1,1,1,0,1,1]","mutagen_history":"[0,0,0,0,0,0,1,0,0]","location_rts":"[1608,510,2266,748,937,921,948,1047,836]","trial_type":"fractal-mutation","trial_index":58,"time_elapsed":1774305,"internal_node_id":"0.0-5.0-4.0"},{"group":"square cycles (cube, non-group)","fractal_assignment":["../images/ylw_pnk.png","../images/grn_red.png","../images/blu_wht.png","../images/pnk_blu.png","../images/gry_blk.png","../images/org_blu.png","../images/cyn_red.png","../images/ylw_slt.png"],"mutagen_generator_assignment":[1,0],"goal":4,"start":5,"action_noise":0.1,"location_history":"[5,4]","action_history":"[0]","mutagen_history":"[1]","location_rts":"[14668]","trial_type":"fractal-mutation","trial_index":59,"time_elapsed":1793696,"internal_node_id":"0.0-5.0-5.0"},{"group":"square cycles (cube, non-group)","fractal_assignment":["../images/ylw_pnk.png","../images/grn_red.png","../images/blu_wht.png","../images/pnk_blu.png","../images/gry_blk.png","../images/org_blu.png","../images/cyn_red.png","../images/ylw_slt.png"],"mutagen_generator_assignment":[1,0],"goal":7,"start":4,"action_noise":0.1,"location_history":"[4,7]","action_history":"[0]","mutagen_history":"[1]","location_rts":"[4438]","trial_type":"fractal-mutation","trial_index":60,"time_elapsed":1802852,"internal_node_id":"0.0-5.0-6.0"},{"group":"square cycles (cube, non-group)","fractal_assignment":["../images/ylw_pnk.png","../images/grn_red.png","../images/blu_wht.png","../images/pnk_blu.png","../images/gry_blk.png","../images/org_blu.png","../images/cyn_red.png","../images/ylw_slt.png"],"mutagen_generator_assignment":[1,0],"goal":4,"start":7,"action_noise":0.1,"location_history":"[7,3,2,6,7,6,7,3,2,6,7,6,5,1,0,4]","action_history":"[1,1,1,1,0,1,1,1,1,0,0,0,1,1,1]","mutagen_history":"[0,0,0,0,1,0,0,0,0,1,1,1,0,0,0]","location_rts":"[1009,589,514,845,404,605,707,818,823,385,494,583,417,461,388]","trial_type":"fractal-mutation","trial_index":61,"time_elapsed":1832472,"internal_node_id":"0.0-5.0-7.0"},{"group":"square cycles (cube, non-group)","fractal_assignment":["../images/ylw_pnk.png","../images/grn_red.png","../images/blu_wht.png","../images/pnk_blu.png","../images/gry_blk.png","../images/org_blu.png","../images/cyn_red.png","../images/ylw_slt.png"],"mutagen_generator_assignment":[1,0],"goal":6,"start":4,"action_noise":0.1,"location_history":"[4,7,6]","action_history":"[1,0]","mutagen_history":"[0,1]","location_rts":"[1360,375]","trial_type":"fractal-mutation","trial_index":62,"time_elapsed":1840038,"internal_node_id":"0.0-5.0-8.0"},{"group":"square cycles (cube, non-group)","fractal_assignment":["../images/ylw_pnk.png","../images/grn_red.png","../images/blu_wht.png","../images/pnk_blu.png","../images/gry_blk.png","../images/org_blu.png","../images/cyn_red.png","../images/ylw_slt.png"],"mutagen_generator_assignment":[1,0],"goal":0,"start":6,"action_noise":0.1,"location_history":"[6,7,3,0]","action_history":"[1,1,1]","mutagen_history":"[0,0,0]","location_rts":"[1233,840,612]","trial_type":"fractal-mutation","trial_index":63,"time_elapsed":1849565,"internal_node_id":"0.0-5.0-9.0"},{"group":"square cycles (cube, non-group)","fractal_assignment":["../images/ylw_pnk.png","../images/grn_red.png","../images/blu_wht.png","../images/pnk_blu.png","../images/gry_blk.png","../images/org_blu.png","../images/cyn_red.png","../images/ylw_slt.png"],"mutagen_generator_assignment":[1,0],"goal":1,"start":0,"action_noise":0.1,"location_history":"[0,4,5,1]","action_history":"[1,1,1]","mutagen_history":"[0,0,0]","location_rts":"[1093,696,768]","trial_type":"fractal-mutation","trial_index":64,"time_elapsed":1858979,"internal_node_id":"0.0-5.0-10.0"},{"group":"square cycles (cube, non-group)","fractal_assignment":["../images/ylw_pnk.png","../images/grn_red.png","../images/blu_wht.png","../images/pnk_blu.png","../images/gry_blk.png","../images/org_blu.png","../images/cyn_red.png","../images/ylw_slt.png"],"mutagen_generator_assignment":[1,0],"goal":3,"start":1,"action_noise":0.1,"location_history":"[1,0,4,5,1,2,6,7,3]","action_history":"[1,1,1,1,0,1,1,1]","mutagen_history":"[0,0,0,0,1,0,0,0]","location_rts":"[947,1421,600,854,451,658,608,757]","trial_type":"fractal-mutation","trial_index":65,"time_elapsed":1877864,"internal_node_id":"0.0-5.0-11.0"},{"group":"square cycles (cube, non-group)","fractal_assignment":["../images/ylw_pnk.png","../images/grn_red.png","../images/blu_wht.png","../images/pnk_blu.png","../images/gry_blk.png","../images/org_blu.png","../images/cyn_red.png","../images/ylw_slt.png"],"mutagen_generator_assignment":[1,0],"goal":7,"start":3,"action_noise":0.1,"location_history":"[3,2,6,5,4,7]","action_history":"[1,1,0,1,1]","mutagen_history":"[0,0,1,0,0]","location_rts":"[1085,744,510,470,447]","trial_type":"fractal-mutation","trial_index":66,"time_elapsed":1890273,"internal_node_id":"0.0-5.0-12.0"},{"group":"square cycles (cube, non-group)","fractal_assignment":["../images/ylw_pnk.png","../images/grn_red.png","../images/blu_wht.png","../images/pnk_blu.png","../images/gry_blk.png","../images/org_blu.png","../images/cyn_red.png","../images/ylw_slt.png"],"mutagen_generator_assignment":[1,0],"goal":5,"start":7,"action_noise":0.1,"location_history":"[7,3,2,6,7,6,7,6,7,3,0,1,0,1,2,3,2,6,7,3,2,6,7,3,2,6,5]","action_history":"[1,1,1,1,0,1,1,1,0,0,0,1,0,1,0,1,1,1,1,1,1,1,1,1,1,0]","mutagen_history":"[0,0,0,0,1,0,0,0,1,1,1,0,1,0,1,0,0,0,0,0,0,0,0,0,0,1]","location_rts":"[1301,643,701,873,800,644,466,558,16017,493,1365,418,760,283,473,505,365,405,399,407,457,34393,685,557,722,368]","trial_type":"fractal-mutation","trial_index":67,"time_elapsed":1989229,"internal_node_id":"0.0-5.0-13.0"},{"group":"square cycles (cube, non-group)","fractal_assignment":["../images/ylw_pnk.png","../images/grn_red.png","../images/blu_wht.png","../images/pnk_blu.png","../images/gry_blk.png","../images/org_blu.png","../images/cyn_red.png","../images/ylw_slt.png"],"mutagen_generator_assignment":[1,0],"goal":2,"start":5,"action_noise":0.1,"location_history":"[5,1,0,1,0,4,5,4,5,1,0,4,7,3,2]","action_history":"[1,1,1,1,1,1,0,1,1,1,1,0,1,1]","mutagen_history":"[0,0,0,0,0,0,1,0,0,0,0,1,0,0]","location_rts":"[67283,2287,385,802,869,687,538,451,469,520,1080,1378,662,959]","trial_type":"fractal-mutation","trial_index":68,"time_elapsed":2087852,"internal_node_id":"0.0-5.0-14.0"},{"group":"square cycles (cube, non-group)","fractal_assignment":["../images/ylw_pnk.png","../images/grn_red.png","../images/blu_wht.png","../images/pnk_blu.png","../images/gry_blk.png","../images/org_blu.png","../images/cyn_red.png","../images/ylw_slt.png"],"mutagen_generator_assignment":[1,0],"goal":7,"start":2,"action_noise":0.1,"location_history":"[2,3,0,4,7]","action_history":"[1,0,1,1]","mutagen_history":"[0,1,0,0]","location_rts":"[5283,412,426,742]","trial_type":"fractal-mutation","trial_index":69,"time_elapsed":2102755,"internal_node_id":"0.0-5.0-15.0"},{"group":"square cycles (cube, non-group)","fractal_assignment":["../images/ylw_pnk.png","../images/grn_red.png","../images/blu_wht.png","../images/pnk_blu.png","../images/gry_blk.png","../images/org_blu.png","../images/cyn_red.png","../images/ylw_slt.png"],"mutagen_generator_assignment":[1,0],"goal":4,"start":7,"action_noise":0.1,"location_history":"[7,3,2,6,5,4]","action_history":"[1,1,0,1,0]","mutagen_history":"[0,0,1,0,1]","location_rts":"[934,505,434,783,1439]","trial_type":"fractal-mutation","trial_index":70,"time_elapsed":2116071,"internal_node_id":"0.0-5.0-16.0"},{"group":"square cycles (cube, non-group)","fractal_assignment":["../images/ylw_pnk.png","../images/grn_red.png","../images/blu_wht.png","../images/pnk_blu.png","../images/gry_blk.png","../images/org_blu.png","../images/cyn_red.png","../images/ylw_slt.png"],"mutagen_generator_assignment":[1,0],"goal":2,"start":4,"action_noise":0.1,"location_history":"[4,5,4,5,4,5,1,0,4,5,4,7,3,2]","action_history":"[1,1,1,0,1,0,1,1,1,0,0,1,1]","mutagen_history":"[0,0,0,1,0,1,0,0,0,1,1,0,0]","location_rts":"[2023,609,553,541,757,807,913,745,644,710,1536,644,728]","trial_type":"fractal-mutation","trial_index":71,"time_elapsed":2145615,"internal_node_id":"0.0-5.0-17.0"},{"group":"square cycles (cube, non-group)","fractal_assignment":["../images/ylw_pnk.png","../images/grn_red.png","../images/blu_wht.png","../images/pnk_blu.png","../images/gry_blk.png","../images/org_blu.png","../images/cyn_red.png","../images/ylw_slt.png"],"mutagen_generator_assignment":[1,0],"goal":3,"start":2,"action_noise":0.1,"location_history":"[2,6,7,3]","action_history":"[1,1,1]","mutagen_history":"[0,0,0]","location_rts":"[5288,875,950]","trial_type":"fractal-mutation","trial_index":72,"time_elapsed":2159612,"internal_node_id":"0.0-5.0-18.0"},{"group":"square cycles (cube, non-group)","fractal_assignment":["../images/ylw_pnk.png","../images/grn_red.png","../images/blu_wht.png","../images/pnk_blu.png","../images/gry_blk.png","../images/org_blu.png","../images/cyn_red.png","../images/ylw_slt.png"],"mutagen_generator_assignment":[1,0],"goal":6,"start":3,"action_noise":0.1,"location_history":"[3,0,4,5,4,7,3,2,3,0,1,0,4,7,3,2,3,0,1,2,6]","action_history":"[0,1,1,1,0,1,1,0,0,0,1,1,0,1,1,0,0,0,0,1]","mutagen_history":"[1,0,0,0,1,0,0,1,1,1,0,0,1,0,0,1,1,1,1,0]","location_rts":"[1974,541,537,928,621,574,819,384,283,517,526,696,872,1021,807,657,576,992,728,852]","trial_type":"fractal-mutation","trial_index":73,"time_elapsed":2201195,"internal_node_id":"0.0-5.0-19.0"},{"group":"square cycles (cube, non-group)","fractal_assignment":["../images/ylw_pnk.png","../images/grn_red.png","../images/blu_wht.png","../images/pnk_blu.png","../images/gry_blk.png","../images/org_blu.png","../images/cyn_red.png","../images/ylw_slt.png"],"mutagen_generator_assignment":[1,0],"goal":5,"start":6,"action_noise":0.1,"location_history":"[6,7,3,2,6,5]","action_history":"[1,1,1,1,0]","mutagen_history":"[0,0,0,0,1]","location_rts":"[1289,583,856,740,752]","trial_type":"fractal-mutation","trial_index":74,"time_elapsed":2214589,"internal_node_id":"0.0-5.0-20.0"},{"group":"square cycles (cube, non-group)","fractal_assignment":["../images/ylw_pnk.png","../images/grn_red.png","../images/blu_wht.png","../images/pnk_blu.png","../images/gry_blk.png","../images/org_blu.png","../images/cyn_red.png","../images/ylw_slt.png"],"mutagen_generator_assignment":[1,0],"goal":1,"start":5,"action_noise":0.1,"location_history":"[5,1]","action_history":"[1]","mutagen_history":"[0]","location_rts":"[769]","trial_type":"fractal-mutation","trial_index":75,"time_elapsed":2220007,"internal_node_id":"0.0-5.0-21.0"},{"group":"square cycles (cube, non-group)","fractal_assignment":["../images/ylw_pnk.png","../images/grn_red.png","../images/blu_wht.png","../images/pnk_blu.png","../images/gry_blk.png","../images/org_blu.png","../images/cyn_red.png","../images/ylw_slt.png"],"mutagen_generator_assignment":[1,0],"goal":0,"start":1,"action_noise":0.1,"location_history":"[1,0]","action_history":"[1]","mutagen_history":"[0]","location_rts":"[1032]","trial_type":"fractal-mutation","trial_index":76,"time_elapsed":2225653,"internal_node_id":"0.0-5.0-22.0"},{"group":"square cycles (cube, non-group)","fractal_assignment":["../images/ylw_pnk.png","../images/grn_red.png","../images/blu_wht.png","../images/pnk_blu.png","../images/gry_blk.png","../images/org_blu.png","../images/cyn_red.png","../images/ylw_slt.png"],"mutagen_generator_assignment":[1,0],"goal":2,"start":0,"action_noise":0.1,"location_history":"[0,4,5,1,0,1,2]","action_history":"[1,1,1,1,0,0]","mutagen_history":"[0,0,0,0,1,1]","location_rts":"[921,748,466,811,916,708]","trial_type":"fractal-mutation","trial_index":77,"time_elapsed":2240593,"internal_node_id":"0.0-5.0-23.0"},{"group":"square cycles (cube, non-group)","fractal_assignment":["../images/ylw_pnk.png","../images/grn_red.png","../images/blu_wht.png","../images/pnk_blu.png","../images/gry_blk.png","../images/org_blu.png","../images/cyn_red.png","../images/ylw_slt.png"],"mutagen_generator_assignment":[1,0],"goal":6,"start":2,"action_noise":0.1,"location_history":"[2,6]","action_history":"[1]","mutagen_history":"[0]","location_rts":"[701]","trial_type":"fractal-mutation","trial_index":78,"time_elapsed":2245924,"internal_node_id":"0.0-5.0-24.0"},{"group":"square cycles (cube, non-group)","fractal_assignment":["../images/ylw_pnk.png","../images/grn_red.png","../images/blu_wht.png","../images/pnk_blu.png","../images/gry_blk.png","../images/org_blu.png","../images/cyn_red.png","../images/ylw_slt.png"],"mutagen_generator_assignment":[1,0],"goal":1,"start":6,"action_noise":0.1,"location_history":"[6,7,3,2,3,0,4,5,1]","action_history":"[1,1,1,1,0,1,1,1]","mutagen_history":"[0,0,0,0,1,0,0,0]","location_rts":"[765,475,824,926,817,746,910,1080]","trial_type":"fractal-mutation","trial_index":79,"time_elapsed":2264972,"internal_node_id":"0.0-5.0-25.0"},{"group":"square cycles (cube, non-group)","fractal_assignment":["../images/ylw_pnk.png","../images/grn_red.png","../images/blu_wht.png","../images/pnk_blu.png","../images/gry_blk.png","../images/org_blu.png","../images/cyn_red.png","../images/ylw_slt.png"],"mutagen_generator_assignment":[1,0],"goal":3,"start":1,"action_noise":0.1,"location_history":"[1,0,4,5,1,2,6,7,3]","action_history":"[1,1,1,1,0,0,1,1]","mutagen_history":"[0,0,0,0,1,1,0,0]","location_rts":"[797,435,437,723,537,548,742,571]","trial_type":"fractal-mutation","trial_index":80,"time_elapsed":2283228,"internal_node_id":"0.0-5.0-26.0"},{"group":"square cycles (cube, non-group)","fractal_assignment":["../images/ylw_pnk.png","../images/grn_red.png","../images/blu_wht.png","../images/pnk_blu.png","../images/gry_blk.png","../images/org_blu.png","../images/cyn_red.png","../images/ylw_slt.png"],"mutagen_generator_assignment":[1,0],"goal":7,"start":3,"action_noise":0.1,"location_history":"[3,2,6,7]","action_history":"[1,1,1]","mutagen_history":"[0,0,0]","location_rts":"[15543,753,429]","trial_type":"fractal-mutation","trial_index":81,"time_elapsed":2307762,"internal_node_id":"0.0-5.0-27.0"},{"group":"square cycles (cube, non-group)","fractal_assignment":["../images/ylw_pnk.png","../images/grn_red.png","../images/blu_wht.png","../images/pnk_blu.png","../images/gry_blk.png","../images/org_blu.png","../images/cyn_red.png","../images/ylw_slt.png"],"mutagen_generator_assignment":[1,0],"goal":4,"start":7,"action_noise":0.1,"location_history":"[7,6,7,3,2,6,7,3,0,4]","action_history":"[1,1,1,1,1,1,1,0,1]","mutagen_history":"[0,0,0,0,0,0,0,1,0]","location_rts":"[830,403,393,477,538,678,670,164,436]","trial_type":"fractal-mutation","trial_index":82,"time_elapsed":2325871,"internal_node_id":"0.0-5.0-28.0"},{"group":"square cycles (cube, non-group)","fractal_assignment":["../images/ylw_pnk.png","../images/grn_red.png","../images/blu_wht.png","../images/pnk_blu.png","../images/gry_blk.png","../images/org_blu.png","../images/cyn_red.png","../images/ylw_slt.png"],"mutagen_generator_assignment":[1,0],"goal":0,"start":4,"action_noise":0.1,"location_history":"[4,5,1,0]","action_history":"[1,1,1]","mutagen_history":"[0,0,0]","location_rts":"[1413,1028,889]","trial_type":"fractal-mutation","trial_index":83,"time_elapsed":2336029,"internal_node_id":"0.0-5.0-29.0"},{"group":"square cycles (cube, non-group)","fractal_assignment":["../images/ylw_pnk.png","../images/grn_red.png","../images/blu_wht.png","../images/pnk_blu.png","../images/gry_blk.png","../images/org_blu.png","../images/cyn_red.png","../images/ylw_slt.png"],"mutagen_generator_assignment":[1,0],"goal":5,"start":0,"action_noise":0.1,"location_history":"[0,1,2,6,7,3,2,6,7,6,7,3,2,3,0,1,0,1,2,6,7,3,2,3,0,1,2,3,2,6,7,3,2,3,2,3,0,1,2,6,7,3,0,4,7,6,5]","action_history":"[0,0,1,1,1,1,1,1,1,1,1,0,0,0,0,1,0,0,1,1,1,1,0,0,0,0,1,1,1,0,1,1,0,0,0,0,0,0,1,1,1,0,1,0,0,0]","mutagen_history":"[1,1,0,0,0,0,0,0,0,0,0,1,1,1,1,0,1,1,0,0,0,0,1,1,1,1,0,0,0,1,0,0,1,1,1,1,1,1,0,0,0,1,0,1,1,1]","location_rts":"[1467,762,560,411,665,475,888,829,736,1625,739,662,496,542,1176,451,179,567,1590,530,472,613,445,549,574,550,415,797,482,272,769,684,395,554,17483,1436,559,464,979,895,528,713,921,426,2168,843]","trial_type":"fractal-mutation","trial_index":84,"time_elapsed":2442377,"internal_node_id":"0.0-5.0-30.0"},{"group":"square cycles (cube, non-group)","fractal_assignment":["../images/ylw_pnk.png","../images/grn_red.png","../images/blu_wht.png","../images/pnk_blu.png","../images/gry_blk.png","../images/org_blu.png","../images/cyn_red.png","../images/ylw_slt.png"],"mutagen_generator_assignment":[1,0],"goal":3,"start":5,"action_noise":0.1,"location_history":"[5,1,2,3]","action_history":"[1,0,0]","mutagen_history":"[0,1,1]","location_rts":"[1083,508,556]","trial_type":"fractal-mutation","trial_index":85,"time_elapsed":2451567,"internal_node_id":"0.0-5.0-31.0"},{"group":"square cycles (cube, non-group)","fractal_assignment":["../images/ylw_pnk.png","../images/grn_red.png","../images/blu_wht.png","../images/pnk_blu.png","../images/gry_blk.png","../images/org_blu.png","../images/cyn_red.png","../images/ylw_slt.png"],"mutagen_generator_assignment":[1,0],"goal":2,"start":3,"action_noise":0.1,"location_history":"[3,2]","action_history":"[1]","mutagen_history":"[0]","location_rts":"[3372]","trial_type":"fractal-mutation","trial_index":86,"time_elapsed":2459565,"internal_node_id":"0.0-5.0-32.0"},{"group":"square cycles (cube, non-group)","fractal_assignment":["../images/ylw_pnk.png","../images/grn_red.png","../images/blu_wht.png","../images/pnk_blu.png","../images/gry_blk.png","../images/org_blu.png","../images/cyn_red.png","../images/ylw_slt.png"],"mutagen_generator_assignment":[1,0],"goal":6,"start":2,"action_noise":0.1,"location_history":"[2,6]","action_history":"[0]","mutagen_history":"[1]","location_rts":"[1545]","trial_type":"fractal-mutation","trial_index":87,"time_elapsed":2465800,"internal_node_id":"0.0-5.0-33.0"},{"group":"square cycles (cube, non-group)","fractal_assignment":["../images/ylw_pnk.png","../images/grn_red.png","../images/blu_wht.png","../images/pnk_blu.png","../images/gry_blk.png","../images/org_blu.png","../images/cyn_red.png","../images/ylw_slt.png"],"mutagen_generator_assignment":[1,0],"goal":1,"start":6,"action_noise":0.1,"location_history":"[6,5,1]","action_history":"[0,0]","mutagen_history":"[1,1]","location_rts":"[2845,1444]","trial_type":"fractal-mutation","trial_index":88,"time_elapsed":2475960,"internal_node_id":"0.0-5.0-34.0"},{"group":"square cycles (cube, non-group)","fractal_assignment":["../images/ylw_pnk.png","../images/grn_red.png","../images/blu_wht.png","../images/pnk_blu.png","../images/gry_blk.png","../images/org_blu.png","../images/cyn_red.png","../images/ylw_slt.png"],"mutagen_generator_assignment":[1,0],"goal":7,"start":1,"action_noise":0.1,"location_history":"[1,0,1,2,6,7]","action_history":"[1,0,0,1,1]","mutagen_history":"[0,1,1,0,0]","location_rts":"[5207,11273,877,741,748]","trial_type":"fractal-mutation","trial_index":89,"time_elapsed":2504033,"internal_node_id":"0.0-5.0-35.0"},{"group":"square cycles (cube, non-group)","fractal_assignment":["../images/ylw_pnk.png","../images/grn_red.png","../images/blu_wht.png","../images/pnk_blu.png","../images/gry_blk.png","../images/org_blu.png","../images/cyn_red.png","../images/ylw_slt.png"],"mutagen_generator_assignment":[1,0],"goal":4,"start":7,"action_noise":0.1,"location_history":"[7,3,2,6,7,3,2,6,5,1,2,6,7,3,2,6,5,1,0,1,0,4]","action_history":"[1,1,1,1,1,1,1,0,1,0,1,1,1,1,1,0,1,1,0,1,1]","mutagen_history":"[0,0,0,0,0,0,0,1,0,1,0,0,0,0,0,1,0,0,1,0,0]","location_rts":"[4822,1286,613,594,838,725,605,510,987,1189,1335,452,424,782,548,243,781,766,416,549,429]","trial_type":"fractal-mutation","trial_index":90,"time_elapsed":2550185,"internal_node_id":"0.0-5.0-36.0"},{"group":"square cycles (cube, non-group)","fractal_assignment":["../images/ylw_pnk.png","../images/grn_red.png","../images/blu_wht.png","../images/pnk_blu.png","../images/gry_blk.png","../images/org_blu.png","../images/cyn_red.png","../images/ylw_slt.png"],"mutagen_generator_assignment":[1,0],"goal":5,"start":4,"action_noise":0.1,"location_history":"[4,5]","action_history":"[1]","mutagen_history":"[0]","location_rts":"[11247]","trial_type":"fractal-mutation","trial_index":91,"time_elapsed":2566040,"internal_node_id":"0.0-5.0-37.0"},{"group":"square cycles (cube, non-group)","fractal_assignment":["../images/ylw_pnk.png","../images/grn_red.png","../images/blu_wht.png","../images/pnk_blu.png","../images/gry_blk.png","../images/org_blu.png","../images/cyn_red.png","../images/ylw_slt.png"],"mutagen_generator_assignment":[1,0],"goal":0,"start":5,"action_noise":0.1,"location_history":"[5,4,5,1,0]","action_history":"[0,1,1,1]","mutagen_history":"[1,0,0,0]","location_rts":"[1214,922,986,758]","trial_type":"fractal-mutation","trial_index":92,"time_elapsed":2577928,"internal_node_id":"0.0-5.0-38.0"},{"group":"square cycles (cube, non-group)","fractal_assignment":["../images/ylw_pnk.png","../images/grn_red.png","../images/blu_wht.png","../images/pnk_blu.png","../images/gry_blk.png","../images/org_blu.png","../images/cyn_red.png","../images/ylw_slt.png"],"mutagen_generator_assignment":[1,0],"goal":4,"start":0,"action_noise":0.1,"location_history":"[0,1,2,6,7,3,2,3,2,6,7,3,2,3,2,3,2,6,7,3,0,4]","action_history":"[0,0,1,1,1,0,0,1,1,1,1,1,0,0,0,1,1,1,1,0,1]","mutagen_history":"[1,1,0,0,0,1,1,0,0,0,0,0,1,1,1,0,0,0,0,1,0]","location_rts":"[974,580,509,405,667,442,591,271,392,418,388,376,875,569,551,393,392,561,415,564,869]","trial_type":"fractal-mutation","trial_index":93,"time_elapsed":2616603,"internal_node_id":"0.0-5.0-39.0"},{"group":"square cycles (cube, non-group)","fractal_assignment":["../images/ylw_pnk.png","../images/grn_red.png","../images/blu_wht.png","../images/pnk_blu.png","../images/gry_blk.png","../images/org_blu.png","../images/cyn_red.png","../images/ylw_slt.png"],"mutagen_generator_assignment":[1,0],"goal":0,"start":4,"action_noise":0.1,"location_history":"[4,5,1,0]","action_history":"[1,1,1]","mutagen_history":"[0,0,0]","location_rts":"[1031,787,797]","trial_type":"fractal-mutation","trial_index":94,"time_elapsed":2626059,"internal_node_id":"0.0-5.0-40.0"},{"group":"square cycles (cube, non-group)","fractal_assignment":["../images/ylw_pnk.png","../images/grn_red.png","../images/blu_wht.png","../images/pnk_blu.png","../images/gry_blk.png","../images/org_blu.png","../images/cyn_red.png","../images/ylw_slt.png"],"mutagen_generator_assignment":[1,0],"goal":2,"start":0,"action_noise":0.1,"location_history":"[0,1,2]","action_history":"[0,0]","mutagen_history":"[1,1]","location_rts":"[849,691]","trial_type":"fractal-mutation","trial_index":95,"time_elapsed":2633426,"internal_node_id":"0.0-5.0-41.0"},{"group":"square cycles (cube, non-group)","fractal_assignment":["../images/ylw_pnk.png","../images/grn_red.png","../images/blu_wht.png","../images/pnk_blu.png","../images/gry_blk.png","../images/org_blu.png","../images/cyn_red.png","../images/ylw_slt.png"],"mutagen_generator_assignment":[1,0],"goal":3,"start":2,"action_noise":0.1,"location_history":"[2,6,7,3]","action_history":"[1,1,1]","mutagen_history":"[0,0,0]","location_rts":"[823,716,605]","trial_type":"fractal-mutation","trial_index":96,"time_elapsed":2642438,"internal_node_id":"0.0-5.0-42.0"},{"group":"square cycles (cube, non-group)","fractal_assignment":["../images/ylw_pnk.png","../images/grn_red.png","../images/blu_wht.png","../images/pnk_blu.png","../images/gry_blk.png","../images/org_blu.png","../images/cyn_red.png","../images/ylw_slt.png"],"mutagen_generator_assignment":[1,0],"goal":5,"start":3,"action_noise":0.1,"location_history":"[3,2,6,7,3,0,4,5]","action_history":"[1,1,1,1,0,1,0]","mutagen_history":"[0,0,0,0,1,0,1]","location_rts":"[1488,372,450,530,730,623,0]","trial_type":"fractal-mutation","trial_index":97,"time_elapsed":2658039,"internal_node_id":"0.0-5.0-43.0"},{"group":"square cycles (cube, non-group)","fractal_assignment":["../images/ylw_pnk.png","../images/grn_red.png","../images/blu_wht.png","../images/pnk_blu.png","../images/gry_blk.png","../images/org_blu.png","../images/cyn_red.png","../images/ylw_slt.png"],"mutagen_generator_assignment":[1,0],"goal":1,"start":5,"action_noise":0.1,"location_history":"[5,1]","action_history":"[1]","mutagen_history":"[0]","location_rts":"[771]","trial_type":"fractal-mutation","trial_index":98,"time_elapsed":2663420,"internal_node_id":"0.0-5.0-44.0"},{"group":"square cycles (cube, non-group)","fractal_assignment":["../images/ylw_pnk.png","../images/grn_red.png","../images/blu_wht.png","../images/pnk_blu.png","../images/gry_blk.png","../images/org_blu.png","../images/cyn_red.png","../images/ylw_slt.png"],"mutagen_generator_assignment":[1,0],"goal":7,"start":1,"action_noise":0.1,"location_history":"[1,2,6,7]","action_history":"[0,1,1]","mutagen_history":"[1,0,0]","location_rts":"[1035,350,653]","trial_type":"fractal-mutation","trial_index":99,"time_elapsed":2672427,"internal_node_id":"0.0-5.0-45.0"},{"group":"square cycles (cube, non-group)","fractal_assignment":["../images/ylw_pnk.png","../images/grn_red.png","../images/blu_wht.png","../images/pnk_blu.png","../images/gry_blk.png","../images/org_blu.png","../images/cyn_red.png","../images/ylw_slt.png"],"mutagen_generator_assignment":[1,0],"goal":6,"start":7,"action_noise":0.1,"location_history":"[7,3,2,6]","action_history":"[1,1,1]","mutagen_history":"[0,0,0]","location_rts":"[843,733,825]","trial_type":"fractal-mutation","trial_index":100,"time_elapsed":2681700,"internal_node_id":"0.0-5.0-46.0"},{"group":"square cycles (cube, non-group)","fractal_assignment":["../images/ylw_pnk.png","../images/grn_red.png","../images/blu_wht.png","../images/pnk_blu.png","../images/gry_blk.png","../images/org_blu.png","../images/cyn_red.png","../images/ylw_slt.png"],"mutagen_generator_assignment":[1,0],"goal":3,"start":6,"action_noise":0.1,"location_history":"[6,7,3]","action_history":"[1,1]","mutagen_history":"[0,0]","location_rts":"[522,432]","trial_type":"fractal-mutation","trial_index":101,"time_elapsed":2688355,"internal_node_id":"0.0-5.0-47.0"},{"group":"square cycles (cube, non-group)","fractal_assignment":["../images/ylw_pnk.png","../images/grn_red.png","../images/blu_wht.png","../images/pnk_blu.png","../images/gry_blk.png","../images/org_blu.png","../images/cyn_red.png","../images/ylw_slt.png"],"mutagen_generator_assignment":[1,0],"goal":0,"start":3,"action_noise":0.1,"location_history":"[3,2,6,5,1,0]","action_history":"[1,1,0,1,1]","mutagen_history":"[0,0,1,0,0]","location_rts":"[1036,423,545,451,686]","trial_type":"fractal-mutation","trial_index":102,"time_elapsed":2700653,"internal_node_id":"0.0-5.0-48.0"},{"group":"square cycles (cube, non-group)","fractal_assignment":["../images/ylw_pnk.png","../images/grn_red.png","../images/blu_wht.png","../images/pnk_blu.png","../images/gry_blk.png","../images/org_blu.png","../images/cyn_red.png","../images/ylw_slt.png"],"mutagen_generator_assignment":[1,0],"goal":2,"start":0,"action_noise":0.1,"location_history":"[0,4,7,3,2]","action_history":"[1,1,1,1]","mutagen_history":"[0,0,0,0]","location_rts":"[777,388,504,2428]","trial_type":"fractal-mutation","trial_index":103,"time_elapsed":2712725,"internal_node_id":"0.0-5.0-49.0"},{"view_history":"[{\"page_index\":0,\"viewing_time\":11287}]","rt":11288,"trial_type":"instructions","trial_index":104,"time_elapsed":2725013,"internal_node_id":"0.0-6.0"},{"rt":73484,"responses":"{\"Q0\":\"I propose that the doors can be grouped two groups of different colored rooms, and the alien cultures can be grouped into 2 and a half to 3 groups of different alien cultures, but that was just the way I perceived the easiest way to find the solution.\"}","trial_type":"survey-text","trial_index":105,"time_elapsed":2799504,"internal_node_id":"0.0-7.0"}]