[{"view_history":"[{\"page_index\":0,\"viewing_time\":3321},{\"page_index\":1,\"viewing_time\":4065},{\"page_index\":2,\"viewing_time\":15015},{\"page_index\":3,\"viewing_time\":18327}]","rt":40728,"trial_type":"instructions","trial_index":0,"time_elapsed":40729,"internal_node_id":"0.0-0.0"},{"view_history":"[{\"page_index\":0,\"viewing_time\":7486},{\"page_index\":1,\"viewing_time\":15063}]","rt":22549,"trial_type":"instructions","trial_index":1,"time_elapsed":64280,"internal_node_id":"0.0-1.0"},{"group":"tri cycles (cube, non-group)","room_assignment":["brown","pink","grey","green","blue","purple","red","yellow"],"door_color_assignment":["black","white"],"door_generator_assignment":[1,0],"goal":3,"start":0,"action_noise":0.1,"location_history":"[0,3]","action_history":"[1]","door_history":"[0]","location_rts":"[2861]","trial_type":"two-door-navigation","trial_index":2,"time_elapsed":71670,"internal_node_id":"0.0-2.0-0.0"},{"group":"tri cycles (cube, non-group)","room_assignment":["brown","pink","grey","green","blue","purple","red","yellow"],"door_color_assignment":["black","white"],"door_generator_assignment":[1,0],"goal":1,"start":3,"action_noise":0.1,"location_history":"[3,7,3,7,6,4,7,6,5,2,6,5,2,1]","action_history":"[0,1,1,0,0,0,0,1,1,1,1,1,1]","door_history":"[1,0,0,1,1,1,1,0,0,0,0,0,0]","location_rts":"[2242,1046,575,1131,1046,420,395,1157,485,383,349,336,421]","trial_type":"two-door-navigation","trial_index":3,"time_elapsed":98393,"internal_node_id":"0.0-2.0-1.0"},{"group":"tri cycles (cube, non-group)","room_assignment":["brown","pink","grey","green","blue","purple","red","yellow"],"door_color_assignment":["black","white"],"door_generator_assignment":[1,0],"goal":2,"start":1,"action_noise":0.1,"location_history":"[1,5,1,0,2]","action_history":"[1,0,0,0]","door_history":"[0,1,1,1]","location_rts":"[2073,802,454,347]","trial_type":"two-door-navigation","trial_index":4,"time_elapsed":109654,"internal_node_id":"0.0-2.0-2.0"},{"group":"tri cycles (cube, non-group)","room_assignment":["brown","pink","grey","green","blue","purple","red","yellow"],"door_color_assignment":["black","white"],"door_generator_assignment":[1,0],"goal":6,"start":2,"action_noise":0.1,"location_history":"[2,6]","action_history":"[1]","door_history":"[0]","location_rts":"[1650]","trial_type":"two-door-navigation","trial_index":5,"time_elapsed":115824,"internal_node_id":"0.0-2.0-3.0"},{"group":"tri cycles (cube, non-group)","room_assignment":["brown","pink","grey","green","blue","purple","red","yellow"],"door_color_assignment":["black","white"],"door_generator_assignment":[1,0],"goal":5,"start":6,"action_noise":0.1,"location_history":"[6,5]","action_history":"[1]","door_history":"[0]","location_rts":"[1599]","trial_type":"two-door-navigation","trial_index":6,"time_elapsed":121944,"internal_node_id":"0.0-2.0-4.0"},{"group":"tri cycles (cube, non-group)","room_assignment":["brown","pink","grey","green","blue","purple","red","yellow"],"door_color_assignment":["black","white"],"door_generator_assignment":[1,0],"goal":4,"start":5,"action_noise":0.1,"location_history":"[5,2,1,0,2,1,5,2,6,5,2,1,0,3,4]","action_history":"[1,0,0,0,0,1,1,1,1,1,0,1,1,1]","door_history":"[0,1,1,1,1,0,0,0,0,0,1,0,0,0]","location_rts":"[1993,326,316,339,320,547,307,324,350,349,2142,295,788,756]","trial_type":"two-door-navigation","trial_index":7,"time_elapsed":148855,"internal_node_id":"0.0-2.0-5.0"},{"group":"tri cycles (cube, non-group)","room_assignment":["brown","pink","grey","green","blue","purple","red","yellow"],"door_color_assignment":["black","white"],"door_generator_assignment":[1,0],"goal":7,"start":4,"action_noise":0.1,"location_history":"[4,0,2,6,5,1,5,1,0,3,7]","action_history":"[1,1,1,1,0,0,0,0,0,0]","door_history":"[0,0,0,0,1,1,1,1,1,1]","location_rts":"[498,157,247,273,1148,117,213,299,1007,286]","trial_type":"two-door-navigation","trial_index":8,"time_elapsed":166792,"internal_node_id":"0.0-2.0-6.0"},{"group":"tri cycles (cube, non-group)","room_assignment":["brown","pink","grey","green","blue","purple","red","yellow"],"door_color_assignment":["black","white"],"door_generator_assignment":[1,0],"goal":4,"start":7,"action_noise":0.1,"location_history":"[7,3,4]","action_history":"[1,1]","door_history":"[0,0]","location_rts":"[2007,519]","trial_type":"two-door-navigation","trial_index":9,"time_elapsed":174852,"internal_node_id":"0.0-2.0-7.0"},{"group":"tri cycles (cube, non-group)","room_assignment":["brown","pink","grey","green","blue","purple","red","yellow"],"door_color_assignment":["black","white"],"door_generator_assignment":[1,0],"goal":6,"start":4,"action_noise":0.1,"location_history":"[4,0,3,4,7,3,4,0,3,4,7,6]","action_history":"[1,1,1,0,1,1,1,1,1,0,0]","door_history":"[0,0,0,1,0,0,0,0,0,1,1]","location_rts":"[4649,579,156872,264,33,398,23,417,354,23,214]","trial_type":"two-door-navigation","trial_index":10,"time_elapsed":353370,"internal_node_id":"0.0-2.0-8.0"},{"group":"tri cycles (cube, non-group)","room_assignment":["brown","pink","grey","green","blue","purple","red","yellow"],"door_color_assignment":["black","white"],"door_generator_assignment":[1,0],"goal":0,"start":6,"action_noise":0.1,"location_history":"[6,5,1,5,2,6,4,7,6,4,7,6,5,2,6,5,1,0]","action_history":"[1,1,1,1,1,0,0,0,0,0,0,1,1,1,1,0,0]","door_history":"[0,0,0,0,0,1,1,1,1,1,1,0,0,0,0,1,1]","location_rts":"[6012,8691,423,10887,116,1564,492,38,207,272,275,48,196,359,310,924,279]","trial_type":"two-door-navigation","trial_index":11,"time_elapsed":405271,"internal_node_id":"0.0-2.0-9.0"},{"group":"tri cycles (cube, non-group)","room_assignment":["brown","pink","grey","green","blue","purple","red","yellow"],"door_color_assignment":["black","white"],"door_generator_assignment":[1,0],"goal":1,"start":0,"action_noise":0.1,"location_history":"[0,3,4,0,2,1]","action_history":"[1,1,1,0,0]","door_history":"[0,0,0,1,1]","location_rts":"[9571,408,761,211,118]","trial_type":"two-door-navigation","trial_index":12,"time_elapsed":424924,"internal_node_id":"0.0-2.0-10.0"},{"group":"tri cycles (cube, non-group)","room_assignment":["brown","pink","grey","green","blue","purple","red","yellow"],"door_color_assignment":["black","white"],"door_generator_assignment":[1,0],"goal":3,"start":1,"action_noise":0.1,"location_history":"[1,5,2,6,5,2,6,5,2,1,5,1,5,2,6,4,7,6,4,0,3]","action_history":"[1,1,1,1,1,1,0,0,0,1,1,0,0,0,0,0,0,0,1,1]","door_history":"[0,0,0,0,0,0,1,1,1,0,0,1,1,1,1,1,1,1,0,0]","location_rts":"[8510,547,30958,108,46,583,71,271,195,466,311,583,201,208,285,287,997,269,313,346]","trial_type":"two-door-navigation","trial_index":13,"time_elapsed":494334,"internal_node_id":"0.0-2.0-11.0"},{"group":"tri cycles (cube, non-group)","room_assignment":["brown","pink","grey","green","blue","purple","red","yellow"],"door_color_assignment":["black","white"],"door_generator_assignment":[1,0],"goal":7,"start":3,"action_noise":0.1,"location_history":"[3,7]","action_history":"[0]","door_history":"[1]","location_rts":"[53586]","trial_type":"two-door-navigation","trial_index":14,"time_elapsed":552441,"internal_node_id":"0.0-2.0-12.0"},{"group":"tri cycles (cube, non-group)","room_assignment":["brown","pink","grey","green","blue","purple","red","yellow"],"door_color_assignment":["black","white"],"door_generator_assignment":[1,0],"goal":5,"start":7,"action_noise":0.1,"location_history":"[7,3,4,0,2,6,5]","action_history":"[1,1,1,1,1,1]","door_history":"[0,0,0,0,0,0]","location_rts":"[1499,249,213,255,310,326]","trial_type":"two-door-navigation","trial_index":15,"time_elapsed":564898,"internal_node_id":"0.0-2.0-13.0"},{"group":"tri cycles (cube, non-group)","room_assignment":["brown","pink","grey","green","blue","purple","red","yellow"],"door_color_assignment":["black","white"],"door_generator_assignment":[1,0],"goal":2,"start":5,"action_noise":0.1,"location_history":"[5,1,5,2]","action_history":"[0,1,1]","door_history":"[1,0,0]","location_rts":"[32910,440,80]","trial_type":"two-door-navigation","trial_index":16,"time_elapsed":604888,"internal_node_id":"0.0-2.0-14.0"},{"group":"tri cycles (cube, non-group)","room_assignment":["brown","pink","grey","green","blue","purple","red","yellow"],"door_color_assignment":["black","white"],"door_generator_assignment":[1,0],"goal":7,"start":2,"action_noise":0.1,"location_history":"[2,1,0,2,1,0,2,1,0,2,1,0,2,1,0,2,1,0,2,1,0,2,6,4,7]","action_history":"[0,0,0,0,0,0,0,0,0,0,0,0,0,0,0,0,0,0,0,0,0,1,0,0]","door_history":"[1,1,1,1,1,1,1,1,1,1,1,1,1,1,1,1,1,1,1,1,1,0,1,1]","location_rts":"[1268,335,201,164,111,45,285,289,261,1284,79888,132,91,174,93,89,208,226,168,268,281,282,193,311]","trial_type":"two-door-navigation","trial_index":17,"time_elapsed":719443,"internal_node_id":"0.0-2.0-15.0"},{"group":"tri cycles (cube, non-group)","room_assignment":["brown","pink","grey","green","blue","purple","red","yellow"],"door_color_assignment":["black","white"],"door_generator_assignment":[1,0],"goal":4,"start":7,"action_noise":0.1,"location_history":"[7,6,4]","action_history":"[0,0]","door_history":"[1,1]","location_rts":"[9287,274]","trial_type":"two-door-navigation","trial_index":18,"time_elapsed":734539,"internal_node_id":"0.0-2.0-16.0"},{"group":"tri cycles (cube, non-group)","room_assignment":["brown","pink","grey","green","blue","purple","red","yellow"],"door_color_assignment":["black","white"],"door_generator_assignment":[1,0],"goal":2,"start":4,"action_noise":0.1,"location_history":"[4,0,2]","action_history":"[1,1]","door_history":"[0,0]","location_rts":"[21049,23]","trial_type":"two-door-navigation","trial_index":19,"time_elapsed":761143,"internal_node_id":"0.0-2.0-17.0"},{"group":"tri cycles (cube, non-group)","room_assignment":["brown","pink","grey","green","blue","purple","red","yellow"],"door_color_assignment":["black","white"],"door_generator_assignment":[1,0],"goal":3,"start":2,"action_noise":0.1,"location_history":"[2,6,5,2,6,5,1,5,1,0,3]","action_history":"[1,1,1,1,1,0,1,1,1,1]","door_history":"[0,0,0,0,0,1,0,0,0,0]","location_rts":"[499,44,88,292,311,382,195,266,253,303]","trial_type":"two-door-navigation","trial_index":20,"time_elapsed":777443,"internal_node_id":"0.0-2.0-18.0"},{"group":"tri cycles (cube, non-group)","room_assignment":["brown","pink","grey","green","blue","purple","red","yellow"],"door_color_assignment":["black","white"],"door_generator_assignment":[1,0],"goal":6,"start":3,"action_noise":0.1,"location_history":"[3,4,0,3,4,0,3,7,3,4,0,3,7,6]","action_history":"[1,1,1,1,1,1,0,1,1,1,1,0,0]","door_history":"[0,0,0,0,0,0,1,0,0,0,0,1,1]","location_rts":"[1905,39,349,140,831,331,110,151,136,259,329,79,191]","trial_type":"two-door-navigation","trial_index":21,"time_elapsed":799036,"internal_node_id":"0.0-2.0-19.0"},{"group":"tri cycles (cube, non-group)","room_assignment":["brown","pink","grey","green","blue","purple","red","yellow"],"door_color_assignment":["black","white"],"door_generator_assignment":[1,0],"goal":5,"start":6,"action_noise":0.1,"location_history":"[6,5]","action_history":"[1]","door_history":"[0]","location_rts":"[21521]","trial_type":"two-door-navigation","trial_index":22,"time_elapsed":825079,"internal_node_id":"0.0-2.0-20.0"},{"group":"tri cycles (cube, non-group)","room_assignment":["brown","pink","grey","green","blue","purple","red","yellow"],"door_color_assignment":["black","white"],"door_generator_assignment":[1,0],"goal":1,"start":5,"action_noise":0.1,"location_history":"[5,2,1]","action_history":"[1,0]","door_history":"[0,1]","location_rts":"[54228,115]","trial_type":"two-door-navigation","trial_index":23,"time_elapsed":884964,"internal_node_id":"0.0-2.0-21.0"},{"group":"tri cycles (cube, non-group)","room_assignment":["brown","pink","grey","green","blue","purple","red","yellow"],"door_color_assignment":["black","white"],"door_generator_assignment":[1,0],"goal":0,"start":1,"action_noise":0.1,"location_history":"[1,5,2,6,5,1,0]","action_history":"[1,1,1,1,1,0]","door_history":"[0,0,0,0,0,1]","location_rts":"[5641,318,183,295,298,3915]","trial_type":"two-door-navigation","trial_index":24,"time_elapsed":905208,"internal_node_id":"0.0-2.0-22.0"},{"group":"tri cycles (cube, non-group)","room_assignment":["brown","pink","grey","green","blue","purple","red","yellow"],"door_color_assignment":["black","white"],"door_generator_assignment":[1,0],"goal":2,"start":0,"action_noise":0.1,"location_history":"[0,2]","action_history":"[0]","door_history":"[1]","location_rts":"[1968]","trial_type":"two-door-navigation","trial_index":25,"time_elapsed":911695,"internal_node_id":"0.0-2.0-23.0"},{"group":"tri cycles (cube, non-group)","room_assignment":["brown","pink","grey","green","blue","purple","red","yellow"],"door_color_assignment":["black","white"],"door_generator_assignment":[1,0],"goal":6,"start":2,"action_noise":0.1,"location_history":"[2,6]","action_history":"[1]","door_history":"[0]","location_rts":"[1692]","trial_type":"two-door-navigation","trial_index":26,"time_elapsed":917905,"internal_node_id":"0.0-2.0-24.0"},{"group":"tri cycles (cube, non-group)","room_assignment":["brown","pink","grey","green","blue","purple","red","yellow"],"door_color_assignment":["black","white"],"door_generator_assignment":[1,0],"goal":1,"start":6,"action_noise":0.1,"location_history":"[6,4,7,6,4,0,3,4,0,2,6,4,7,3,4,0,3,7,6,4,7,3,4,0,2,6,5,2,6,5,2,1]","action_history":"[0,0,0,1,1,1,1,1,0,0,0,0,1,1,1,1,0,0,0,0,1,1,1,0,0,1,1,1,1,1,0]","door_history":"[1,1,1,0,0,0,0,0,1,1,1,1,0,0,0,0,1,1,1,1,0,0,0,1,1,0,0,0,0,0,1]","location_rts":"[1255,334,311,431,304,301,327,326,346,831,289,265,301,245,306,300,322,327,295,341,729,43,298,368,317,933,344,485,426,522,1155]","trial_type":"two-door-navigation","trial_index":27,"time_elapsed":966284,"internal_node_id":"0.0-2.0-25.0"},{"group":"tri cycles (cube, non-group)","room_assignment":["brown","pink","grey","green","blue","purple","red","yellow"],"door_color_assignment":["black","white"],"door_generator_assignment":[1,0],"goal":3,"start":1,"action_noise":0.1,"location_history":"[1,0,2,6,5,2,6,5,2,1,0,2,6,5,1,5,2,6,5,2,6,5,1,5,2,1,0,3]","action_history":"[0,0,1,1,1,1,1,1,0,0,0,1,1,0,1,1,1,1,1,1,1,0,1,1,0,0,1]","door_history":"[1,1,0,0,0,0,0,0,1,1,1,0,0,1,0,0,0,0,0,0,0,1,0,0,1,1,0]","location_rts":"[2037,337,331,241,330,343,275,292,385,169,377,408,142,319,239,337,370,342,336,424,312,425,458,360,192,348,815]","trial_type":"two-door-navigation","trial_index":28,"time_elapsed":1008160,"internal_node_id":"0.0-2.0-26.0"},{"group":"tri cycles (cube, non-group)","room_assignment":["brown","pink","grey","green","blue","purple","red","yellow"],"door_color_assignment":["black","white"],"door_generator_assignment":[1,0],"goal":7,"start":3,"action_noise":0.1,"location_history":"[3,7]","action_history":"[0]","door_history":"[1]","location_rts":"[1608]","trial_type":"two-door-navigation","trial_index":29,"time_elapsed":1014289,"internal_node_id":"0.0-2.0-27.0"},{"group":"tri cycles (cube, non-group)","room_assignment":["brown","pink","grey","green","blue","purple","red","yellow"],"door_color_assignment":["black","white"],"door_generator_assignment":[1,0],"goal":4,"start":7,"action_noise":0.1,"location_history":"[7,6,5,2,6,5,1,5,1,5,2,1,5,1,0,2,6,5,2,6,4]","action_history":"[1,1,1,1,1,0,1,1,1,1,0,1,0,0,1,1,1,1,1,0]","door_history":"[0,0,0,0,0,1,0,0,0,0,1,0,1,1,0,0,0,0,0,1]","location_rts":"[1947,323,389,317,385,365,343,329,459,381,496,103,372,47,753,370,310,433,351,727]","trial_type":"two-door-navigation","trial_index":30,"time_elapsed":1047327,"internal_node_id":"0.0-2.0-28.0"},{"group":"tri cycles (cube, non-group)","room_assignment":["brown","pink","grey","green","blue","purple","red","yellow"],"door_color_assignment":["black","white"],"door_generator_assignment":[1,0],"goal":0,"start":4,"action_noise":0.1,"location_history":"[4,0]","action_history":"[1]","door_history":"[0]","location_rts":"[2186]","trial_type":"two-door-navigation","trial_index":31,"time_elapsed":1054033,"internal_node_id":"0.0-2.0-29.0"},{"group":"tri cycles (cube, non-group)","room_assignment":["brown","pink","grey","green","blue","purple","red","yellow"],"door_color_assignment":["black","white"],"door_generator_assignment":[1,0],"goal":5,"start":0,"action_noise":0.1,"location_history":"[0,3,4,0,3,7,3,4,0,3,7,3,4,0,2,1,0,2,6,5]","action_history":"[1,1,1,1,0,1,1,1,0,0,0,1,1,0,0,0,0,1,1]","door_history":"[0,0,0,0,1,0,0,0,1,1,1,0,0,1,1,1,1,0,0]","location_rts":"[2085,338,529,335,632,327,344,416,478,215,471,987,394,296,101,192,381,646,527]","trial_type":"two-door-navigation","trial_index":32,"time_elapsed":1086543,"internal_node_id":"0.0-2.0-30.0"},{"group":"tri cycles (cube, non-group)","room_assignment":["brown","pink","grey","green","blue","purple","red","yellow"],"door_color_assignment":["black","white"],"door_generator_assignment":[1,0],"goal":3,"start":5,"action_noise":0.1,"location_history":"[5,1,5,2,6,5,1,0,2,6,5,2,1,5,1,0,3]","action_history":"[0,1,1,1,1,0,0,0,1,1,1,1,1,0,0,1]","door_history":"[1,0,0,0,0,1,1,1,0,0,0,0,0,1,1,0]","location_rts":"[1851,557,199,232,359,546,439,417,657,298,475,212,215,232,5984,303]","trial_type":"two-door-navigation","trial_index":33,"time_elapsed":1119272,"internal_node_id":"0.0-2.0-31.0"},{"group":"tri cycles (cube, non-group)","room_assignment":["brown","pink","grey","green","blue","purple","red","yellow"],"door_color_assignment":["black","white"],"door_generator_assignment":[1,0],"goal":2,"start":3,"action_noise":0.1,"location_history":"[3,7,3,4,0,3,4,7,6,4,7,3,4,0,2]","action_history":"[0,1,1,1,1,1,0,0,0,1,1,1,1,0]","door_history":"[1,0,0,0,0,0,1,1,1,0,0,0,0,1]","location_rts":"[1568,620,337,309,281,302,304,849,525,487,330,288,311,172]","trial_type":"two-door-navigation","trial_index":34,"time_elapsed":1143689,"internal_node_id":"0.0-2.0-32.0"},{"group":"tri cycles (cube, non-group)","room_assignment":["brown","pink","grey","green","blue","purple","red","yellow"],"door_color_assignment":["black","white"],"door_generator_assignment":[1,0],"goal":6,"start":2,"action_noise":0.1,"location_history":"[2,6]","action_history":"[1]","door_history":"[0]","location_rts":"[1808]","trial_type":"two-door-navigation","trial_index":35,"time_elapsed":1150013,"internal_node_id":"0.0-2.0-33.0"},{"group":"tri cycles (cube, non-group)","room_assignment":["brown","pink","grey","green","blue","purple","red","yellow"],"door_color_assignment":["black","white"],"door_generator_assignment":[1,0],"goal":1,"start":6,"action_noise":0.1,"location_history":"[6,4,7,6,4,7,6,4,0,3,4,7,3,4,0,2,6,4,7,3,4,7,3,7,3,4,0,2,1]","action_history":"[0,0,0,0,1,0,0,1,1,1,1,1,1,1,0,0,0,0,1,1,0,0,0,0,1,1,0,0]","door_history":"[1,1,1,1,0,1,1,0,0,0,0,0,0,0,1,1,1,1,0,0,1,1,1,1,0,0,1,1]","location_rts":"[1298,376,311,355,155,470,392,161,125,455,281,419,784,351,760,586,623,374,528,382,375,304,275,361,347,209,333,280]","trial_type":"two-door-navigation","trial_index":36,"time_elapsed":1193632,"internal_node_id":"0.0-2.0-34.0"},{"group":"tri cycles (cube, non-group)","room_assignment":["brown","pink","grey","green","blue","purple","red","yellow"],"door_color_assignment":["black","white"],"door_generator_assignment":[1,0],"goal":7,"start":1,"action_noise":0.1,"location_history":"[1,5,1,0,2,1,5,1,5,2,6,5,1,0,2,6,4,0,3,7]","action_history":"[1,0,0,0,0,1,1,1,1,1,1,0,0,0,1,1,1,1,0]","door_history":"[0,1,1,1,1,0,0,0,0,0,0,1,1,1,0,0,0,0,1]","location_rts":"[1558,597,313,289,297,633,111,257,602,670,436,364,135,211,277,180,287,295,456]","trial_type":"two-door-navigation","trial_index":37,"time_elapsed":1224420,"internal_node_id":"0.0-2.0-35.0"},{"group":"tri cycles (cube, non-group)","room_assignment":["brown","pink","grey","green","blue","purple","red","yellow"],"door_color_assignment":["black","white"],"door_generator_assignment":[1,0],"goal":4,"start":7,"action_noise":0.1,"location_history":"[7,3,4]","action_history":"[1,1]","door_history":"[0,0]","location_rts":"[1082,55]","trial_type":"two-door-navigation","trial_index":38,"time_elapsed":1231094,"internal_node_id":"0.0-2.0-36.0"},{"group":"tri cycles (cube, non-group)","room_assignment":["brown","pink","grey","green","blue","purple","red","yellow"],"door_color_assignment":["black","white"],"door_generator_assignment":[1,0],"goal":5,"start":4,"action_noise":0.1,"location_history":"[4,0,3,4,0,2,1,5]","action_history":"[1,1,1,0,0,0,1]","door_history":"[0,0,0,1,1,1,0]","location_rts":"[1265,250,312,630,335,489,577]","trial_type":"two-door-navigation","trial_index":39,"time_elapsed":1245566,"internal_node_id":"0.0-2.0-37.0"},{"group":"tri cycles (cube, non-group)","room_assignment":["brown","pink","grey","green","blue","purple","red","yellow"],"door_color_assignment":["black","white"],"door_generator_assignment":[1,0],"goal":0,"start":5,"action_noise":0.1,"location_history":"[5,2,6,5,1,0]","action_history":"[1,1,1,1,0]","door_history":"[0,0,0,0,1]","location_rts":"[1569,300,360,314,327]","trial_type":"two-door-navigation","trial_index":40,"time_elapsed":1257025,"internal_node_id":"0.0-2.0-38.0"},{"group":"tri cycles (cube, non-group)","room_assignment":["brown","pink","grey","green","blue","purple","red","yellow"],"door_color_assignment":["black","white"],"door_generator_assignment":[1,0],"goal":4,"start":0,"action_noise":0.1,"location_history":"[0,3,4]","action_history":"[1,1]","door_history":"[0,0]","location_rts":"[1865,242]","trial_type":"two-door-navigation","trial_index":41,"time_elapsed":1264667,"internal_node_id":"0.0-2.0-39.0"},{"group":"tri cycles (cube, non-group)","room_assignment":["brown","pink","grey","green","blue","purple","red","yellow"],"door_color_assignment":["black","white"],"door_generator_assignment":[1,0],"goal":0,"start":4,"action_noise":0.1,"location_history":"[4,0]","action_history":"[1]","door_history":"[0]","location_rts":"[754]","trial_type":"two-door-navigation","trial_index":42,"time_elapsed":1269944,"internal_node_id":"0.0-2.0-40.0"},{"group":"tri cycles (cube, non-group)","room_assignment":["brown","pink","grey","green","blue","purple","red","yellow"],"door_color_assignment":["black","white"],"door_generator_assignment":[1,0],"goal":2,"start":0,"action_noise":0.1,"location_history":"[0,3,4,0,2]","action_history":"[1,1,1,0]","door_history":"[0,0,0,1]","location_rts":"[432,229,295,344]","trial_type":"two-door-navigation","trial_index":43,"time_elapsed":1278812,"internal_node_id":"0.0-2.0-41.0"},{"group":"tri cycles (cube, non-group)","room_assignment":["brown","pink","grey","green","blue","purple","red","yellow"],"door_color_assignment":["black","white"],"door_generator_assignment":[1,0],"goal":3,"start":2,"action_noise":0.1,"location_history":"[2,6,5,1,0,2,1,5,2,6,5,1,0,3]","action_history":"[1,1,1,0,0,1,1,1,1,1,0,0,1]","door_history":"[0,0,0,1,1,0,0,0,0,0,1,1,0]","location_rts":"[1250,226,250,317,338,320,290,319,384,934,459,326,376]","trial_type":"two-door-navigation","trial_index":44,"time_elapsed":1301312,"internal_node_id":"0.0-2.0-42.0"},{"group":"tri cycles (cube, non-group)","room_assignment":["brown","pink","grey","green","blue","purple","red","yellow"],"door_color_assignment":["black","white"],"door_generator_assignment":[1,0],"goal":5,"start":3,"action_noise":0.1,"location_history":"[3,4,0,3,4,7,6,4,0,2,6,4,0,3,4,0,3,7,3,4,0,2,1,0,2,6,5]","action_history":"[1,1,1,1,0,0,0,1,1,1,0,1,1,1,1,1,0,1,1,1,0,0,0,0,1,1]","door_history":"[0,0,0,0,1,1,1,0,0,0,1,0,0,0,0,0,1,0,0,0,1,1,1,1,0,0]","location_rts":"[1025,455,130,26,328,239,272,304,216,167,145,282,258,250,297,357,260,368,307,420,274,57,251,926,520,304]","trial_type":"two-door-navigation","trial_index":45,"time_elapsed":1339646,"internal_node_id":"0.0-2.0-43.0"},{"group":"tri cycles (cube, non-group)","room_assignment":["brown","pink","grey","green","blue","purple","red","yellow"],"door_color_assignment":["black","white"],"door_generator_assignment":[1,0],"goal":1,"start":5,"action_noise":0.1,"location_history":"[5,1]","action_history":"[0]","door_history":"[1]","location_rts":"[1526]","trial_type":"two-door-navigation","trial_index":46,"time_elapsed":1345692,"internal_node_id":"0.0-2.0-44.0"},{"group":"tri cycles (cube, non-group)","room_assignment":["brown","pink","grey","green","blue","purple","red","yellow"],"door_color_assignment":["black","white"],"door_generator_assignment":[1,0],"goal":7,"start":1,"action_noise":0.1,"location_history":"[1,5,2,6,5,1,0,2,6,5,2,1,0,2,6,5,2,1,0,3,4,0,3,7]","action_history":"[0,1,1,1,0,0,0,0,1,1,0,0,0,1,1,1,1,0,1,1,1,1,0]","door_history":"[1,0,0,0,1,1,1,1,0,0,1,1,1,0,0,0,0,1,0,0,0,0,1]","location_rts":"[1226,394,309,296,355,314,344,673,429,319,410,351,265,510,320,305,327,445,209,260,290,287,295]","trial_type":"two-door-navigation","trial_index":47,"time_elapsed":1381492,"internal_node_id":"0.0-2.0-45.0"},{"group":"tri cycles (cube, non-group)","room_assignment":["brown","pink","grey","green","blue","purple","red","yellow"],"door_color_assignment":["black","white"],"door_generator_assignment":[1,0],"goal":6,"start":7,"action_noise":0.1,"location_history":"[7,6]","action_history":"[0]","door_history":"[1]","location_rts":"[449]","trial_type":"two-door-navigation","trial_index":48,"time_elapsed":1386461,"internal_node_id":"0.0-2.0-46.0"},{"group":"tri cycles (cube, non-group)","room_assignment":["brown","pink","grey","green","blue","purple","red","yellow"],"door_color_assignment":["black","white"],"door_generator_assignment":[1,0],"goal":3,"start":6,"action_noise":0.1,"location_history":"[6,4,0,3]","action_history":"[0,1,1]","door_history":"[1,0,0]","location_rts":"[1201,760,272]","trial_type":"two-door-navigation","trial_index":49,"time_elapsed":1395246,"internal_node_id":"0.0-2.0-47.0"},{"group":"tri cycles (cube, non-group)","room_assignment":["brown","pink","grey","green","blue","purple","red","yellow"],"door_color_assignment":["black","white"],"door_generator_assignment":[1,0],"goal":0,"start":3,"action_noise":0.1,"location_history":"[3,7,6,4,7,6,5,2,6,5,2,1,0]","action_history":"[1,0,0,0,0,1,1,1,1,0,0,0]","door_history":"[0,1,1,1,1,0,0,0,0,1,1,1]","location_rts":"[630,398,33,148,294,336,307,281,323,382,294,312]","trial_type":"two-door-navigation","trial_index":50,"time_elapsed":1414674,"internal_node_id":"0.0-2.0-48.0"},{"group":"tri cycles (cube, non-group)","room_assignment":["brown","pink","grey","green","blue","purple","red","yellow"],"door_color_assignment":["black","white"],"door_generator_assignment":[1,0],"goal":2,"start":0,"action_noise":0.1,"location_history":"[0,2]","action_history":"[0]","door_history":"[1]","location_rts":"[1463]","trial_type":"two-door-navigation","trial_index":51,"time_elapsed":1420655,"internal_node_id":"0.0-2.0-49.0"},{"view_history":"[{\"page_index\":0,\"viewing_time\":3702}]","rt":3702,"trial_type":"instructions","trial_index":52,"time_elapsed":1425358,"internal_node_id":"0.0-3.0"},{"view_history":"[{\"page_index\":0,\"viewing_time\":3055},{\"page_index\":1,\"viewing_time\":28520}]","rt":31575,"trial_type":"instructions","trial_index":53,"time_elapsed":1457934,"internal_node_id":"0.0-4.0"},{"group":"square cycles (cube, non-group)","fractal_assignment":["../images/pnk_blu.png","../images/gry_blk.png","../images/org_blu.png","../images/ylw_slt.png","../images/cyn_red.png","../images/grn_red.png","../images/ylw_pnk.png","../images/blu_wht.png"],"mutagen_generator_assignment":[0,1],"goal":3,"start":0,"action_noise":0.1,"location_history":"[0,1,2,6,7,6,5,4,7,6,5,1,0,4,5,1,2,6,5,4,7,6,7,6,7,3]","action_history":"[0,1,1,1,0,0,0,0,0,1,1,1,1,1,1,0,0,0,0,0,0,1,0,1,1]","mutagen_history":"[0,1,1,1,0,0,0,0,0,1,1,1,1,1,1,0,0,0,0,0,0,1,0,1,1]","location_rts":"[3895,990,1036,568,546,489,431,815,482,613,474,467,605,581,469,508,512,685,745,619,1022,1248,425,598,312]","trial_type":"fractal-mutation","trial_index":54,"time_elapsed":1506379,"internal_node_id":"0.0-5.0-0.0"},{"group":"square cycles (cube, non-group)","fractal_assignment":["../images/pnk_blu.png","../images/gry_blk.png","../images/org_blu.png","../images/ylw_slt.png","../images/cyn_red.png","../images/grn_red.png","../images/ylw_pnk.png","../images/blu_wht.png"],"mutagen_generator_assignment":[0,1],"goal":1,"start":3,"action_noise":0.1,"location_history":"[3,0,1]","action_history":"[0,0]","mutagen_history":"[0,0]","location_rts":"[1301,506]","trial_type":"fractal-mutation","trial_index":55,"time_elapsed":1513742,"internal_node_id":"0.0-5.0-1.0"},{"group":"square cycles (cube, non-group)","fractal_assignment":["../images/pnk_blu.png","../images/gry_blk.png","../images/org_blu.png","../images/ylw_slt.png","../images/cyn_red.png","../images/grn_red.png","../images/ylw_pnk.png","../images/blu_wht.png"],"mutagen_generator_assignment":[0,1],"goal":2,"start":1,"action_noise":0.1,"location_history":"[1,0,4,5,1,0,4,5,1,2]","action_history":"[1,1,1,1,1,1,1,0,0]","mutagen_history":"[1,1,1,1,1,1,1,0,0]","location_rts":"[779,403,346,366,366,378,468,370,385]","trial_type":"fractal-mutation","trial_index":56,"time_elapsed":1530380,"internal_node_id":"0.0-5.0-2.0"},{"group":"square cycles (cube, non-group)","fractal_assignment":["../images/pnk_blu.png","../images/gry_blk.png","../images/org_blu.png","../images/ylw_slt.png","../images/cyn_red.png","../images/grn_red.png","../images/ylw_pnk.png","../images/blu_wht.png"],"mutagen_generator_assignment":[0,1],"goal":6,"start":2,"action_noise":0.1,"location_history":"[2,6]","action_history":"[1]","mutagen_history":"[1]","location_rts":"[789]","trial_type":"fractal-mutation","trial_index":57,"time_elapsed":1535702,"internal_node_id":"0.0-5.0-3.0"},{"group":"square cycles (cube, non-group)","fractal_assignment":["../images/pnk_blu.png","../images/gry_blk.png","../images/org_blu.png","../images/ylw_slt.png","../images/cyn_red.png","../images/grn_red.png","../images/ylw_pnk.png","../images/blu_wht.png"],"mutagen_generator_assignment":[0,1],"goal":5,"start":6,"action_noise":0.1,"location_history":"[6,5]","action_history":"[0]","mutagen_history":"[0]","location_rts":"[1068]","trial_type":"fractal-mutation","trial_index":58,"time_elapsed":1541300,"internal_node_id":"0.0-5.0-4.0"},{"group":"square cycles (cube, non-group)","fractal_assignment":["../images/pnk_blu.png","../images/gry_blk.png","../images/org_blu.png","../images/ylw_slt.png","../images/cyn_red.png","../images/grn_red.png","../images/ylw_pnk.png","../images/blu_wht.png"],"mutagen_generator_assignment":[0,1],"goal":4,"start":5,"action_noise":0.1,"location_history":"[5,1,0,4]","action_history":"[1,1,1]","mutagen_history":"[1,1,1]","location_rts":"[965,422,291]","trial_type":"fractal-mutation","trial_index":59,"time_elapsed":1549579,"internal_node_id":"0.0-5.0-5.0"},{"group":"square cycles (cube, non-group)","fractal_assignment":["../images/pnk_blu.png","../images/gry_blk.png","../images/org_blu.png","../images/ylw_slt.png","../images/cyn_red.png","../images/grn_red.png","../images/ylw_pnk.png","../images/blu_wht.png"],"mutagen_generator_assignment":[0,1],"goal":7,"start":4,"action_noise":0.1,"location_history":"[4,5,1,0,4,5,1,0,4,7]","action_history":"[1,1,1,1,1,1,1,1,0]","mutagen_history":"[1,1,1,1,1,1,1,1,0]","location_rts":"[666,297,306,357,325,372,389,402,530]","trial_type":"fractal-mutation","trial_index":60,"time_elapsed":1566004,"internal_node_id":"0.0-5.0-6.0"},{"group":"square cycles (cube, non-group)","fractal_assignment":["../images/pnk_blu.png","../images/gry_blk.png","../images/org_blu.png","../images/ylw_slt.png","../images/cyn_red.png","../images/grn_red.png","../images/ylw_pnk.png","../images/blu_wht.png"],"mutagen_generator_assignment":[0,1],"goal":4,"start":7,"action_noise":0.1,"location_history":"[7,6,7,3,2,6,7,3,0,4]","action_history":"[1,1,1,1,1,1,1,0,1]","mutagen_history":"[1,1,1,1,1,1,1,0,1]","location_rts":"[1266,385,407,427,531,440,422,359,483]","trial_type":"fractal-mutation","trial_index":61,"time_elapsed":1583529,"internal_node_id":"0.0-5.0-7.0"},{"group":"square cycles (cube, non-group)","fractal_assignment":["../images/pnk_blu.png","../images/gry_blk.png","../images/org_blu.png","../images/ylw_slt.png","../images/cyn_red.png","../images/grn_red.png","../images/ylw_pnk.png","../images/blu_wht.png"],"mutagen_generator_assignment":[0,1],"goal":6,"start":4,"action_noise":0.1,"location_history":"[4,7,6]","action_history":"[0,0]","mutagen_history":"[0,0]","location_rts":"[1086,433]","trial_type":"fractal-mutation","trial_index":62,"time_elapsed":1590604,"internal_node_id":"0.0-5.0-8.0"},{"group":"square cycles (cube, non-group)","fractal_assignment":["../images/pnk_blu.png","../images/gry_blk.png","../images/org_blu.png","../images/ylw_slt.png","../images/cyn_red.png","../images/grn_red.png","../images/ylw_pnk.png","../images/blu_wht.png"],"mutagen_generator_assignment":[0,1],"goal":0,"start":6,"action_noise":0.1,"location_history":"[6,7,3,2,6,7,6,5,4,7,6,7,6,7,6,5,1,2,6,5,1,0]","action_history":"[1,1,1,1,1,1,0,0,0,0,0,0,1,0,0,1,1,1,1,1,1]","mutagen_history":"[1,1,1,1,1,1,0,0,0,0,0,0,1,0,0,1,1,1,1,1,1]","location_rts":"[1018,464,396,441,637,356,285,215,260,318,260,263,250,306,186,135,339,331,351,362,540]","trial_type":"fractal-mutation","trial_index":63,"time_elapsed":1623458,"internal_node_id":"0.0-5.0-9.0"},{"group":"square cycles (cube, non-group)","fractal_assignment":["../images/pnk_blu.png","../images/gry_blk.png","../images/org_blu.png","../images/ylw_slt.png","../images/cyn_red.png","../images/grn_red.png","../images/ylw_pnk.png","../images/blu_wht.png"],"mutagen_generator_assignment":[0,1],"goal":1,"start":0,"action_noise":0.1,"location_history":"[0,1]","action_history":"[0]","mutagen_history":"[0]","location_rts":"[540]","trial_type":"fractal-mutation","trial_index":64,"time_elapsed":1628525,"internal_node_id":"0.0-5.0-10.0"},{"group":"square cycles (cube, non-group)","fractal_assignment":["../images/pnk_blu.png","../images/gry_blk.png","../images/org_blu.png","../images/ylw_slt.png","../images/cyn_red.png","../images/grn_red.png","../images/ylw_pnk.png","../images/blu_wht.png"],"mutagen_generator_assignment":[0,1],"goal":3,"start":1,"action_noise":0.1,"location_history":"[1,2,6,7,6,5,4,5,4,7,6,7,6,7,3]","action_history":"[0,1,1,0,0,0,0,0,0,1,1,0,1,1]","mutagen_history":"[0,1,1,0,0,0,0,0,0,1,1,0,1,1]","location_rts":"[1436,477,336,338,393,378,361,379,580,357,241,241,531,357]","trial_type":"fractal-mutation","trial_index":65,"time_elapsed":1652867,"internal_node_id":"0.0-5.0-11.0"},{"group":"square cycles (cube, non-group)","fractal_assignment":["../images/pnk_blu.png","../images/gry_blk.png","../images/org_blu.png","../images/ylw_slt.png","../images/cyn_red.png","../images/grn_red.png","../images/ylw_pnk.png","../images/blu_wht.png"],"mutagen_generator_assignment":[0,1],"goal":7,"start":3,"action_noise":0.1,"location_history":"[3,0,4,5,4,7]","action_history":"[0,1,1,0,0]","mutagen_history":"[0,1,1,0,0]","location_rts":"[1260,350,336,380,394]","trial_type":"fractal-mutation","trial_index":66,"time_elapsed":1664215,"internal_node_id":"0.0-5.0-12.0"},{"group":"square cycles (cube, non-group)","fractal_assignment":["../images/pnk_blu.png","../images/gry_blk.png","../images/org_blu.png","../images/ylw_slt.png","../images/cyn_red.png","../images/grn_red.png","../images/ylw_pnk.png","../images/blu_wht.png"],"mutagen_generator_assignment":[0,1],"goal":5,"start":7,"action_noise":0.1,"location_history":"[7,3,0,4,7,3,0,4,7,6,7,6,7,6,7,3,2,6,5]","action_history":"[1,0,1,0,1,0,1,0,0,1,0,1,0,1,1,1,0,1]","mutagen_history":"[1,0,1,0,1,0,1,0,0,1,0,1,0,1,1,1,0,1]","location_rts":"[784,274,198,276,388,313,215,255,301,173,327,272,325,295,246,304,667,365]","trial_type":"fractal-mutation","trial_index":67,"time_elapsed":1692215,"internal_node_id":"0.0-5.0-13.0"},{"group":"square cycles (cube, non-group)","fractal_assignment":["../images/pnk_blu.png","../images/gry_blk.png","../images/org_blu.png","../images/ylw_slt.png","../images/cyn_red.png","../images/grn_red.png","../images/ylw_pnk.png","../images/blu_wht.png"],"mutagen_generator_assignment":[0,1],"goal":2,"start":5,"action_noise":0.1,"location_history":"[5,4,7,3,0,4,5,1,0,4,7,6,5,4,7,6,7,3,2]","action_history":"[0,0,0,0,1,1,1,1,1,0,0,0,0,0,0,1,1,1]","mutagen_history":"[0,0,0,0,1,1,1,1,1,0,0,0,0,0,0,1,1,1]","location_rts":"[275,363,238,222,208,172,275,310,337,310,345,509,349,435,358,586,221,260]","trial_type":"fractal-mutation","trial_index":68,"time_elapsed":1720015,"internal_node_id":"0.0-5.0-14.0"},{"group":"square cycles (cube, non-group)","fractal_assignment":["../images/pnk_blu.png","../images/gry_blk.png","../images/org_blu.png","../images/ylw_slt.png","../images/cyn_red.png","../images/grn_red.png","../images/ylw_pnk.png","../images/blu_wht.png"],"mutagen_generator_assignment":[0,1],"goal":7,"start":2,"action_noise":0.1,"location_history":"[2,6,5,4,7]","action_history":"[1,0,0,0]","mutagen_history":"[1,0,0,0]","location_rts":"[417,314,270,368]","trial_type":"fractal-mutation","trial_index":69,"time_elapsed":1729002,"internal_node_id":"0.0-5.0-15.0"},{"group":"square cycles (cube, non-group)","fractal_assignment":["../images/pnk_blu.png","../images/gry_blk.png","../images/org_blu.png","../images/ylw_slt.png","../images/cyn_red.png","../images/grn_red.png","../images/ylw_pnk.png","../images/blu_wht.png"],"mutagen_generator_assignment":[0,1],"goal":4,"start":7,"action_noise":0.1,"location_history":"[7,3,2,6,5,1,2,6,7,3,2,6,5,4]","action_history":"[1,1,1,0,0,0,1,1,1,1,1,0,0]","mutagen_history":"[1,1,1,0,0,0,1,1,1,1,1,0,0]","location_rts":"[736,334,306,450,488,315,279,449,413,298,368,276,263]","trial_type":"fractal-mutation","trial_index":70,"time_elapsed":1750838,"internal_node_id":"0.0-5.0-16.0"},{"group":"square cycles (cube, non-group)","fractal_assignment":["../images/pnk_blu.png","../images/gry_blk.png","../images/org_blu.png","../images/ylw_slt.png","../images/cyn_red.png","../images/grn_red.png","../images/ylw_pnk.png","../images/blu_wht.png"],"mutagen_generator_assignment":[0,1],"goal":2,"start":4,"action_noise":0.1,"location_history":"[4,5,4,5,1,0,4,7,3,2]","action_history":"[1,0,1,1,1,1,1,0,1]","mutagen_history":"[1,0,1,1,1,1,1,0,1]","location_rts":"[312,222,329,295,269,344,317,354,153]","trial_type":"fractal-mutation","trial_index":71,"time_elapsed":1766189,"internal_node_id":"0.0-5.0-17.0"},{"group":"square cycles (cube, non-group)","fractal_assignment":["../images/pnk_blu.png","../images/gry_blk.png","../images/org_blu.png","../images/ylw_slt.png","../images/cyn_red.png","../images/grn_red.png","../images/ylw_pnk.png","../images/blu_wht.png"],"mutagen_generator_assignment":[0,1],"goal":3,"start":2,"action_noise":0.1,"location_history":"[2,6,5,1,0,4,5,4,5,1,0,1,0,4,7,6,7,3]","action_history":"[1,0,1,1,1,1,0,1,1,1,1,1,1,0,0,1,1]","mutagen_history":"[1,0,1,1,1,1,0,1,1,1,1,1,1,0,0,1,1]","location_rts":"[707,335,317,339,315,318,401,133,360,249,280,242,369,165,258,254,279]","trial_type":"fractal-mutation","trial_index":72,"time_elapsed":1792525,"internal_node_id":"0.0-5.0-18.0"},{"group":"square cycles (cube, non-group)","fractal_assignment":["../images/pnk_blu.png","../images/gry_blk.png","../images/org_blu.png","../images/ylw_slt.png","../images/cyn_red.png","../images/grn_red.png","../images/ylw_pnk.png","../images/blu_wht.png"],"mutagen_generator_assignment":[0,1],"goal":6,"start":3,"action_noise":0.1,"location_history":"[3,2,3,0,1,2,3,2,3,2,3,2,3,0,4,5,1,2,6]","action_history":"[1,0,0,0,0,0,1,1,1,1,1,0,0,1,1,1,1,0]","mutagen_history":"[1,0,0,0,0,0,1,1,1,1,1,0,0,1,1,1,1,0]","location_rts":"[525,204,334,358,338,813,422,225,331,276,432,104,266,430,580,400,430,893]","trial_type":"fractal-mutation","trial_index":73,"time_elapsed":1821949,"internal_node_id":"0.0-5.0-19.0"},{"group":"square cycles (cube, non-group)","fractal_assignment":["../images/pnk_blu.png","../images/gry_blk.png","../images/org_blu.png","../images/ylw_slt.png","../images/cyn_red.png","../images/grn_red.png","../images/ylw_pnk.png","../images/blu_wht.png"],"mutagen_generator_assignment":[0,1],"goal":5,"start":6,"action_noise":0.1,"location_history":"[6,7,6,5]","action_history":"[1,0,0]","mutagen_history":"[1,0,0]","location_rts":"[381,237,294]","trial_type":"fractal-mutation","trial_index":74,"time_elapsed":1829443,"internal_node_id":"0.0-5.0-20.0"},{"group":"square cycles (cube, non-group)","fractal_assignment":["../images/pnk_blu.png","../images/gry_blk.png","../images/org_blu.png","../images/ylw_slt.png","../images/cyn_red.png","../images/grn_red.png","../images/ylw_pnk.png","../images/blu_wht.png"],"mutagen_generator_assignment":[0,1],"goal":1,"start":5,"action_noise":0.1,"location_history":"[5,1]","action_history":"[1]","mutagen_history":"[1]","location_rts":"[254]","trial_type":"fractal-mutation","trial_index":75,"time_elapsed":1834239,"internal_node_id":"0.0-5.0-21.0"},{"group":"square cycles (cube, non-group)","fractal_assignment":["../images/pnk_blu.png","../images/gry_blk.png","../images/org_blu.png","../images/ylw_slt.png","../images/cyn_red.png","../images/grn_red.png","../images/ylw_pnk.png","../images/blu_wht.png"],"mutagen_generator_assignment":[0,1],"goal":0,"start":1,"action_noise":0.1,"location_history":"[1,0]","action_history":"[1]","mutagen_history":"[1]","location_rts":"[1013]","trial_type":"fractal-mutation","trial_index":76,"time_elapsed":1839797,"internal_node_id":"0.0-5.0-22.0"},{"group":"square cycles (cube, non-group)","fractal_assignment":["../images/pnk_blu.png","../images/gry_blk.png","../images/org_blu.png","../images/ylw_slt.png","../images/cyn_red.png","../images/grn_red.png","../images/ylw_pnk.png","../images/blu_wht.png"],"mutagen_generator_assignment":[0,1],"goal":2,"start":0,"action_noise":0.1,"location_history":"[0,4,7,3,2]","action_history":"[1,0,1,1]","mutagen_history":"[1,0,1,1]","location_rts":"[490,201,277,413]","trial_type":"fractal-mutation","trial_index":77,"time_elapsed":1848792,"internal_node_id":"0.0-5.0-23.0"},{"group":"square cycles (cube, non-group)","fractal_assignment":["../images/pnk_blu.png","../images/gry_blk.png","../images/org_blu.png","../images/ylw_slt.png","../images/cyn_red.png","../images/grn_red.png","../images/ylw_pnk.png","../images/blu_wht.png"],"mutagen_generator_assignment":[0,1],"goal":6,"start":2,"action_noise":0.1,"location_history":"[2,6]","action_history":"[1]","mutagen_history":"[1]","location_rts":"[377]","trial_type":"fractal-mutation","trial_index":78,"time_elapsed":1853709,"internal_node_id":"0.0-5.0-24.0"},{"group":"square cycles (cube, non-group)","fractal_assignment":["../images/pnk_blu.png","../images/gry_blk.png","../images/org_blu.png","../images/ylw_slt.png","../images/cyn_red.png","../images/grn_red.png","../images/ylw_pnk.png","../images/blu_wht.png"],"mutagen_generator_assignment":[0,1],"goal":1,"start":6,"action_noise":0.1,"location_history":"[6,7,6,7,3,2,6,5,1]","action_history":"[1,0,1,1,0,0,0,0]","mutagen_history":"[1,0,1,1,0,0,0,0]","location_rts":"[601,418,297,367,209,248,318,422]","trial_type":"fractal-mutation","trial_index":79,"time_elapsed":1868312,"internal_node_id":"0.0-5.0-25.0"},{"group":"square cycles (cube, non-group)","fractal_assignment":["../images/pnk_blu.png","../images/gry_blk.png","../images/org_blu.png","../images/ylw_slt.png","../images/cyn_red.png","../images/grn_red.png","../images/ylw_pnk.png","../images/blu_wht.png"],"mutagen_generator_assignment":[0,1],"goal":3,"start":1,"action_noise":0.1,"location_history":"[1,0,4,5,4,7,3]","action_history":"[1,1,1,0,0,1]","mutagen_history":"[1,1,1,0,0,1]","location_rts":"[427,638,602,532,412,491]","trial_type":"fractal-mutation","trial_index":80,"time_elapsed":1881075,"internal_node_id":"0.0-5.0-26.0"},{"group":"square cycles (cube, non-group)","fractal_assignment":["../images/pnk_blu.png","../images/gry_blk.png","../images/org_blu.png","../images/ylw_slt.png","../images/cyn_red.png","../images/grn_red.png","../images/ylw_pnk.png","../images/blu_wht.png"],"mutagen_generator_assignment":[0,1],"goal":7,"start":3,"action_noise":0.1,"location_history":"[3,2,3,0,1,2,6,7]","action_history":"[1,0,0,0,0,1,1]","mutagen_history":"[1,0,0,0,0,1,1]","location_rts":"[452,301,357,411,434,369,321]","trial_type":"fractal-mutation","trial_index":81,"time_elapsed":1894430,"internal_node_id":"0.0-5.0-27.0"},{"group":"square cycles (cube, non-group)","fractal_assignment":["../images/pnk_blu.png","../images/gry_blk.png","../images/org_blu.png","../images/ylw_slt.png","../images/cyn_red.png","../images/grn_red.png","../images/ylw_pnk.png","../images/blu_wht.png"],"mutagen_generator_assignment":[0,1],"goal":4,"start":7,"action_noise":0.1,"location_history":"[7,3,2,3,0,1,2,3,2,3,2,6,5,4]","action_history":"[1,1,0,0,0,0,0,0,0,1,1,0,0]","mutagen_history":"[1,1,0,0,0,0,0,0,0,1,1,0,0]","location_rts":"[627,292,212,366,364,414,524,321,293,146,319,289,388]","trial_type":"fractal-mutation","trial_index":82,"time_elapsed":1915836,"internal_node_id":"0.0-5.0-28.0"},{"group":"square cycles (cube, non-group)","fractal_assignment":["../images/pnk_blu.png","../images/gry_blk.png","../images/org_blu.png","../images/ylw_slt.png","../images/cyn_red.png","../images/grn_red.png","../images/ylw_pnk.png","../images/blu_wht.png"],"mutagen_generator_assignment":[0,1],"goal":0,"start":4,"action_noise":0.1,"location_history":"[4,5,1,2,6,7,3,2,6,7,3,0]","action_history":"[1,1,1,1,1,1,1,1,0,1,0]","mutagen_history":"[1,1,1,1,1,1,1,1,0,1,0]","location_rts":"[871,266,284,247,351,436,411,331,367,277,197]","trial_type":"fractal-mutation","trial_index":83,"time_elapsed":1934721,"internal_node_id":"0.0-5.0-29.0"},{"group":"square cycles (cube, non-group)","fractal_assignment":["../images/pnk_blu.png","../images/gry_blk.png","../images/org_blu.png","../images/ylw_slt.png","../images/cyn_red.png","../images/grn_red.png","../images/ylw_pnk.png","../images/blu_wht.png"],"mutagen_generator_assignment":[0,1],"goal":5,"start":0,"action_noise":0.1,"location_history":"[0,4,7,6,5]","action_history":"[1,0,0,0]","mutagen_history":"[1,0,0,0]","location_rts":"[566,119,407,489]","trial_type":"fractal-mutation","trial_index":84,"time_elapsed":1943911,"internal_node_id":"0.0-5.0-30.0"},{"group":"square cycles (cube, non-group)","fractal_assignment":["../images/pnk_blu.png","../images/gry_blk.png","../images/org_blu.png","../images/ylw_slt.png","../images/cyn_red.png","../images/grn_red.png","../images/ylw_pnk.png","../images/blu_wht.png"],"mutagen_generator_assignment":[0,1],"goal":3,"start":5,"action_noise":0.1,"location_history":"[5,1,0,4,5,1,0,4,5,1,2,6,7,3]","action_history":"[0,1,1,1,1,1,1,1,1,0,1,1,1]","mutagen_history":"[0,1,1,1,1,1,1,1,1,0,1,1,1]","location_rts":"[1765,502,511,362,301,382,472,312,497,234,638,237,297]","trial_type":"fractal-mutation","trial_index":85,"time_elapsed":1967336,"internal_node_id":"0.0-5.0-31.0"},{"group":"square cycles (cube, non-group)","fractal_assignment":["../images/pnk_blu.png","../images/gry_blk.png","../images/org_blu.png","../images/ylw_slt.png","../images/cyn_red.png","../images/grn_red.png","../images/ylw_pnk.png","../images/blu_wht.png"],"mutagen_generator_assignment":[0,1],"goal":2,"start":3,"action_noise":0.1,"location_history":"[3,2]","action_history":"[1]","mutagen_history":"[1]","location_rts":"[1414]","trial_type":"fractal-mutation","trial_index":86,"time_elapsed":1973285,"internal_node_id":"0.0-5.0-32.0"},{"group":"square cycles (cube, non-group)","fractal_assignment":["../images/pnk_blu.png","../images/gry_blk.png","../images/org_blu.png","../images/ylw_slt.png","../images/cyn_red.png","../images/grn_red.png","../images/ylw_pnk.png","../images/blu_wht.png"],"mutagen_generator_assignment":[0,1],"goal":6,"start":2,"action_noise":0.1,"location_history":"[2,6]","action_history":"[1]","mutagen_history":"[1]","location_rts":"[647]","trial_type":"fractal-mutation","trial_index":87,"time_elapsed":1978487,"internal_node_id":"0.0-5.0-33.0"},{"group":"square cycles (cube, non-group)","fractal_assignment":["../images/pnk_blu.png","../images/gry_blk.png","../images/org_blu.png","../images/ylw_slt.png","../images/cyn_red.png","../images/grn_red.png","../images/ylw_pnk.png","../images/blu_wht.png"],"mutagen_generator_assignment":[0,1],"goal":1,"start":6,"action_noise":0.1,"location_history":"[6,5,4,7,6,5,4,7,3,0,1]","action_history":"[0,0,0,0,0,0,0,1,0,0]","mutagen_history":"[0,0,0,0,0,0,0,1,0,0]","location_rts":"[995,345,319,333,263,464,527,321,146,230]","trial_type":"fractal-mutation","trial_index":88,"time_elapsed":1996184,"internal_node_id":"0.0-5.0-34.0"},{"group":"square cycles (cube, non-group)","fractal_assignment":["../images/pnk_blu.png","../images/gry_blk.png","../images/org_blu.png","../images/ylw_slt.png","../images/cyn_red.png","../images/grn_red.png","../images/ylw_pnk.png","../images/blu_wht.png"],"mutagen_generator_assignment":[0,1],"goal":7,"start":1,"action_noise":0.1,"location_history":"[1,0,1,0,4,7]","action_history":"[1,0,1,1,0]","mutagen_history":"[1,0,1,1,0]","location_rts":"[1723,432,223,246,542]","trial_type":"fractal-mutation","trial_index":89,"time_elapsed":2008017,"internal_node_id":"0.0-5.0-35.0"},{"group":"square cycles (cube, non-group)","fractal_assignment":["../images/pnk_blu.png","../images/gry_blk.png","../images/org_blu.png","../images/ylw_slt.png","../images/cyn_red.png","../images/grn_red.png","../images/ylw_pnk.png","../images/blu_wht.png"],"mutagen_generator_assignment":[0,1],"goal":4,"start":7,"action_noise":0.1,"location_history":"[7,6,5,4]","action_history":"[1,0,0]","mutagen_history":"[1,0,0]","location_rts":"[834,416,698]","trial_type":"fractal-mutation","trial_index":90,"time_elapsed":2016545,"internal_node_id":"0.0-5.0-36.0"},{"group":"square cycles (cube, non-group)","fractal_assignment":["../images/pnk_blu.png","../images/gry_blk.png","../images/org_blu.png","../images/ylw_slt.png","../images/cyn_red.png","../images/grn_red.png","../images/ylw_pnk.png","../images/blu_wht.png"],"mutagen_generator_assignment":[0,1],"goal":5,"start":4,"action_noise":0.1,"location_history":"[4,5]","action_history":"[1]","mutagen_history":"[1]","location_rts":"[740]","trial_type":"fractal-mutation","trial_index":91,"time_elapsed":2021815,"internal_node_id":"0.0-5.0-37.0"},{"group":"square cycles (cube, non-group)","fractal_assignment":["../images/pnk_blu.png","../images/gry_blk.png","../images/org_blu.png","../images/ylw_slt.png","../images/cyn_red.png","../images/grn_red.png","../images/ylw_pnk.png","../images/blu_wht.png"],"mutagen_generator_assignment":[0,1],"goal":0,"start":5,"action_noise":0.1,"location_history":"[5,1,0]","action_history":"[1,1]","mutagen_history":"[1,1]","location_rts":"[728,269]","trial_type":"fractal-mutation","trial_index":92,"time_elapsed":2028382,"internal_node_id":"0.0-5.0-38.0"},{"group":"square cycles (cube, non-group)","fractal_assignment":["../images/pnk_blu.png","../images/gry_blk.png","../images/org_blu.png","../images/ylw_slt.png","../images/cyn_red.png","../images/grn_red.png","../images/ylw_pnk.png","../images/blu_wht.png"],"mutagen_generator_assignment":[0,1],"goal":4,"start":0,"action_noise":0.1,"location_history":"[0,4]","action_history":"[1]","mutagen_history":"[1]","location_rts":"[541]","trial_type":"fractal-mutation","trial_index":93,"time_elapsed":2033472,"internal_node_id":"0.0-5.0-39.0"},{"group":"square cycles (cube, non-group)","fractal_assignment":["../images/pnk_blu.png","../images/gry_blk.png","../images/org_blu.png","../images/ylw_slt.png","../images/cyn_red.png","../images/grn_red.png","../images/ylw_pnk.png","../images/blu_wht.png"],"mutagen_generator_assignment":[0,1],"goal":0,"start":4,"action_noise":0.1,"location_history":"[4,5,1,2,3,0]","action_history":"[1,1,0,1,0]","mutagen_history":"[1,1,0,1,0]","location_rts":"[854,488,291,229,267]","trial_type":"fractal-mutation","trial_index":94,"time_elapsed":2044240,"internal_node_id":"0.0-5.0-40.0"},{"group":"square cycles (cube, non-group)","fractal_assignment":["../images/pnk_blu.png","../images/gry_blk.png","../images/org_blu.png","../images/ylw_slt.png","../images/cyn_red.png","../images/grn_red.png","../images/ylw_pnk.png","../images/blu_wht.png"],"mutagen_generator_assignment":[0,1],"goal":2,"start":0,"action_noise":0.1,"location_history":"[0,4,7,3,2]","action_history":"[1,0,1,1]","mutagen_history":"[1,0,1,1]","location_rts":"[351,519,443,308]","trial_type":"fractal-mutation","trial_index":95,"time_elapsed":2053456,"internal_node_id":"0.0-5.0-41.0"},{"group":"square cycles (cube, non-group)","fractal_assignment":["../images/pnk_blu.png","../images/gry_blk.png","../images/org_blu.png","../images/ylw_slt.png","../images/cyn_red.png","../images/grn_red.png","../images/ylw_pnk.png","../images/blu_wht.png"],"mutagen_generator_assignment":[0,1],"goal":3,"start":2,"action_noise":0.1,"location_history":"[2,6,7,3]","action_history":"[1,1,1]","mutagen_history":"[1,1,1]","location_rts":"[1227,95,161]","trial_type":"fractal-mutation","trial_index":96,"time_elapsed":2061560,"internal_node_id":"0.0-5.0-42.0"},{"group":"square cycles (cube, non-group)","fractal_assignment":["../images/pnk_blu.png","../images/gry_blk.png","../images/org_blu.png","../images/ylw_slt.png","../images/cyn_red.png","../images/grn_red.png","../images/ylw_pnk.png","../images/blu_wht.png"],"mutagen_generator_assignment":[0,1],"goal":5,"start":3,"action_noise":0.1,"location_history":"[3,2,3,0,1,2,3,2,6,7,6,5]","action_history":"[1,0,0,0,0,0,1,1,1,0,0]","mutagen_history":"[1,0,0,0,0,0,1,1,1,0,0]","location_rts":"[966,457,322,598,529,308,160,211,170,182,394]","trial_type":"fractal-mutation","trial_index":97,"time_elapsed":2080649,"internal_node_id":"0.0-5.0-43.0"},{"group":"square cycles (cube, non-group)","fractal_assignment":["../images/pnk_blu.png","../images/gry_blk.png","../images/org_blu.png","../images/ylw_slt.png","../images/cyn_red.png","../images/grn_red.png","../images/ylw_pnk.png","../images/blu_wht.png"],"mutagen_generator_assignment":[0,1],"goal":1,"start":5,"action_noise":0.1,"location_history":"[5,1]","action_history":"[1]","mutagen_history":"[1]","location_rts":"[453]","trial_type":"fractal-mutation","trial_index":98,"time_elapsed":2085639,"internal_node_id":"0.0-5.0-44.0"},{"group":"square cycles (cube, non-group)","fractal_assignment":["../images/pnk_blu.png","../images/gry_blk.png","../images/org_blu.png","../images/ylw_slt.png","../images/cyn_red.png","../images/grn_red.png","../images/ylw_pnk.png","../images/blu_wht.png"],"mutagen_generator_assignment":[0,1],"goal":7,"start":1,"action_noise":0.1,"location_history":"[1,2,6,7]","action_history":"[0,1,1]","mutagen_history":"[0,1,1]","location_rts":"[1247,625,100]","trial_type":"fractal-mutation","trial_index":99,"time_elapsed":2094217,"internal_node_id":"0.0-5.0-45.0"},{"group":"square cycles (cube, non-group)","fractal_assignment":["../images/pnk_blu.png","../images/gry_blk.png","../images/org_blu.png","../images/ylw_slt.png","../images/cyn_red.png","../images/grn_red.png","../images/ylw_pnk.png","../images/blu_wht.png"],"mutagen_generator_assignment":[0,1],"goal":6,"start":7,"action_noise":0.1,"location_history":"[7,3,2,3,2,6]","action_history":"[1,1,0,1,1]","mutagen_history":"[1,1,0,1,1]","location_rts":"[1062,360,617,534,379]","trial_type":"fractal-mutation","trial_index":100,"time_elapsed":2105849,"internal_node_id":"0.0-5.0-46.0"},{"group":"square cycles (cube, non-group)","fractal_assignment":["../images/pnk_blu.png","../images/gry_blk.png","../images/org_blu.png","../images/ylw_slt.png","../images/cyn_red.png","../images/grn_red.png","../images/ylw_pnk.png","../images/blu_wht.png"],"mutagen_generator_assignment":[0,1],"goal":3,"start":6,"action_noise":0.1,"location_history":"[6,7,3]","action_history":"[1,1]","mutagen_history":"[1,1]","location_rts":"[1119,217]","trial_type":"fractal-mutation","trial_index":101,"time_elapsed":2112741,"internal_node_id":"0.0-5.0-47.0"},{"group":"square cycles (cube, non-group)","fractal_assignment":["../images/pnk_blu.png","../images/gry_blk.png","../images/org_blu.png","../images/ylw_slt.png","../images/cyn_red.png","../images/grn_red.png","../images/ylw_pnk.png","../images/blu_wht.png"],"mutagen_generator_assignment":[0,1],"goal":0,"start":3,"action_noise":0.1,"location_history":"[3,2,3,0]","action_history":"[1,0,0]","mutagen_history":"[1,0,0]","location_rts":"[631,125,291]","trial_type":"fractal-mutation","trial_index":102,"time_elapsed":2120399,"internal_node_id":"0.0-5.0-48.0"},{"group":"square cycles (cube, non-group)","fractal_assignment":["../images/pnk_blu.png","../images/gry_blk.png","../images/org_blu.png","../images/ylw_slt.png","../images/cyn_red.png","../images/grn_red.png","../images/ylw_pnk.png","../images/blu_wht.png"],"mutagen_generator_assignment":[0,1],"goal":2,"start":0,"action_noise":0.1,"location_history":"[0,1,0,4,5,4,7,3,2]","action_history":"[0,1,1,1,0,0,1,1]","mutagen_history":"[0,1,1,1,0,0,1,1]","location_rts":"[1850,292,504,417,336,704,568,198]","trial_type":"fractal-mutation","trial_index":103,"time_elapsed":2137026,"internal_node_id":"0.0-5.0-49.0"},{"view_history":"[{\"page_index\":0,\"viewing_time\":12333}]","rt":12333,"trial_type":"instructions","trial_index":104,"time_elapsed":2150360,"internal_node_id":"0.0-6.0"},{"rt":4399,"responses":"{\"Q0\":\"\"}","trial_type":"survey-text","trial_index":105,"time_elapsed":2155762,"internal_node_id":"0.0-7.0"}]