[{"view_history":"[{\"page_index\":0,\"viewing_time\":7963},{\"page_index\":1,\"viewing_time\":170832},{\"page_index\":2,\"viewing_time\":15546},{\"page_index\":3,\"viewing_time\":4568}]","rt":198909,"trial_type":"instructions","trial_index":0,"time_elapsed":198909,"internal_node_id":"0.0-0.0"},{"view_history":"[{\"page_index\":0,\"viewing_time\":1142},{\"page_index\":1,\"viewing_time\":849665}]","rt":850807,"trial_type":"instructions","trial_index":1,"time_elapsed":1050717,"internal_node_id":"0.0-1.0"},{"group":"tri cycles (cube, non-group)","room_assignment":["grey","green","red","yellow","brown","purple","pink","blue"],"door_color_assignment":["black","white"],"door_generator_assignment":[1,0],"goal":3,"start":0,"action_noise":0.1,"location_history":"[0,3]","action_history":"[1]","door_history":"[0]","location_rts":"[2214]","trial_type":"two-door-navigation","trial_index":2,"time_elapsed":1057487,"internal_node_id":"0.0-2.0-0.0"},{"group":"tri cycles (cube, non-group)","room_assignment":["grey","green","red","yellow","brown","purple","pink","blue"],"door_color_assignment":["black","white"],"door_generator_assignment":[1,0],"goal":1,"start":3,"action_noise":0.1,"location_history":"[3,4,7,6,5,1]","action_history":"[1,0,0,1,0]","door_history":"[0,1,1,0,1]","location_rts":"[1883,676,651,741,924]","trial_type":"two-door-navigation","trial_index":3,"time_elapsed":1070966,"internal_node_id":"0.0-2.0-1.0"},{"group":"tri cycles (cube, non-group)","room_assignment":["grey","green","red","yellow","brown","purple","pink","blue"],"door_color_assignment":["black","white"],"door_generator_assignment":[1,0],"goal":2,"start":1,"action_noise":0.1,"location_history":"[1,0,2]","action_history":"[0,0]","door_history":"[1,1]","location_rts":"[7629,916]","trial_type":"two-door-navigation","trial_index":4,"time_elapsed":1085051,"internal_node_id":"0.0-2.0-2.0"},{"group":"tri cycles (cube, non-group)","room_assignment":["grey","green","red","yellow","brown","purple","pink","blue"],"door_color_assignment":["black","white"],"door_generator_assignment":[1,0],"goal":6,"start":2,"action_noise":0.1,"location_history":"[2,6]","action_history":"[1]","door_history":"[0]","location_rts":"[2583]","trial_type":"two-door-navigation","trial_index":5,"time_elapsed":1092156,"internal_node_id":"0.0-2.0-3.0"},{"group":"tri cycles (cube, non-group)","room_assignment":["grey","green","red","yellow","brown","purple","pink","blue"],"door_color_assignment":["black","white"],"door_generator_assignment":[1,0],"goal":5,"start":6,"action_noise":0.1,"location_history":"[6,5]","action_history":"[1]","door_history":"[0]","location_rts":"[1649]","trial_type":"two-door-navigation","trial_index":6,"time_elapsed":1098327,"internal_node_id":"0.0-2.0-4.0"},{"group":"tri cycles (cube, non-group)","room_assignment":["grey","green","red","yellow","brown","purple","pink","blue"],"door_color_assignment":["black","white"],"door_generator_assignment":[1,0],"goal":4,"start":5,"action_noise":0.1,"location_history":"[5,2,1,0,2,6,5,2,6,5,2,6,5,1,5,1,0,3,7,3,4]","action_history":"[0,0,0,0,1,1,1,1,1,1,0,1,0,1,0,0,1,0,1,1]","door_history":"[1,1,1,1,0,0,0,0,0,0,1,0,1,0,1,1,0,1,0,0]","location_rts":"[1494,419,971,540,562,467,251,332,820,371,484,411,403,2515,733,228,748,1164,1011,699]","trial_type":"two-door-navigation","trial_index":7,"time_elapsed":1136862,"internal_node_id":"0.0-2.0-5.0"},{"group":"tri cycles (cube, non-group)","room_assignment":["grey","green","red","yellow","brown","purple","pink","blue"],"door_color_assignment":["black","white"],"door_generator_assignment":[1,0],"goal":7,"start":4,"action_noise":0.1,"location_history":"[4,7]","action_history":"[0]","door_history":"[1]","location_rts":"[2661]","trial_type":"two-door-navigation","trial_index":8,"time_elapsed":1144046,"internal_node_id":"0.0-2.0-6.0"},{"group":"tri cycles (cube, non-group)","room_assignment":["grey","green","red","yellow","brown","purple","pink","blue"],"door_color_assignment":["black","white"],"door_generator_assignment":[1,0],"goal":4,"start":7,"action_noise":0.1,"location_history":"[7,3,4]","action_history":"[1,1]","door_history":"[0,0]","location_rts":"[10592,1362]","trial_type":"two-door-navigation","trial_index":9,"time_elapsed":1161544,"internal_node_id":"0.0-2.0-7.0"},{"group":"tri cycles (cube, non-group)","room_assignment":["grey","green","red","yellow","brown","purple","pink","blue"],"door_color_assignment":["black","white"],"door_generator_assignment":[1,0],"goal":6,"start":4,"action_noise":0.1,"location_history":"[4,0,2,1,0,2,6]","action_history":"[1,0,0,0,0,1]","door_history":"[0,1,1,1,1,0]","location_rts":"[1925,802,453,331,355,572]","trial_type":"two-door-navigation","trial_index":10,"time_elapsed":1175607,"internal_node_id":"0.0-2.0-8.0"},{"group":"tri cycles (cube, non-group)","room_assignment":["grey","green","red","yellow","brown","purple","pink","blue"],"door_color_assignment":["black","white"],"door_generator_assignment":[1,0],"goal":0,"start":6,"action_noise":0.1,"location_history":"[6,4,0]","action_history":"[0,1]","door_history":"[1,0]","location_rts":"[1717,258]","trial_type":"two-door-navigation","trial_index":11,"time_elapsed":1183127,"internal_node_id":"0.0-2.0-9.0"},{"group":"tri cycles (cube, non-group)","room_assignment":["grey","green","red","yellow","brown","purple","pink","blue"],"door_color_assignment":["black","white"],"door_generator_assignment":[1,0],"goal":1,"start":0,"action_noise":0.1,"location_history":"[0,3,7,3,7,3,4,0,2,1]","action_history":"[1,0,1,0,1,1,0,0,0]","door_history":"[0,1,0,1,0,0,1,1,1]","location_rts":"[1076,331,267,372,339,35,259,435,260]","trial_type":"two-door-navigation","trial_index":12,"time_elapsed":1199190,"internal_node_id":"0.0-2.0-10.0"},{"group":"tri cycles (cube, non-group)","room_assignment":["grey","green","red","yellow","brown","purple","pink","blue"],"door_color_assignment":["black","white"],"door_generator_assignment":[1,0],"goal":3,"start":1,"action_noise":0.1,"location_history":"[1,0,3]","action_history":"[1,1]","door_history":"[0,0]","location_rts":"[5557,331]","trial_type":"two-door-navigation","trial_index":13,"time_elapsed":1210621,"internal_node_id":"0.0-2.0-11.0"},{"group":"tri cycles (cube, non-group)","room_assignment":["grey","green","red","yellow","brown","purple","pink","blue"],"door_color_assignment":["black","white"],"door_generator_assignment":[1,0],"goal":7,"start":3,"action_noise":0.1,"location_history":"[3,4,7]","action_history":"[0,0]","door_history":"[1,1]","location_rts":"[3791,940]","trial_type":"two-door-navigation","trial_index":14,"time_elapsed":1220897,"internal_node_id":"0.0-2.0-12.0"},{"group":"tri cycles (cube, non-group)","room_assignment":["grey","green","red","yellow","brown","purple","pink","blue"],"door_color_assignment":["black","white"],"door_generator_assignment":[1,0],"goal":5,"start":7,"action_noise":0.1,"location_history":"[7,6,5]","action_history":"[1,1]","door_history":"[0,0]","location_rts":"[29812,539]","trial_type":"two-door-navigation","trial_index":15,"time_elapsed":1256790,"internal_node_id":"0.0-2.0-13.0"},{"group":"tri cycles (cube, non-group)","room_assignment":["grey","green","red","yellow","brown","purple","pink","blue"],"door_color_assignment":["black","white"],"door_generator_assignment":[1,0],"goal":2,"start":5,"action_noise":0.1,"location_history":"[5,1,5,1,5,2]","action_history":"[0,0,0,1,1]","door_history":"[1,1,1,0,0]","location_rts":"[1373,315,348,1100,876]","trial_type":"two-door-navigation","trial_index":16,"time_elapsed":1269405,"internal_node_id":"0.0-2.0-14.0"},{"group":"tri cycles (cube, non-group)","room_assignment":["grey","green","red","yellow","brown","purple","pink","blue"],"door_color_assignment":["black","white"],"door_generator_assignment":[1,0],"goal":7,"start":2,"action_noise":0.1,"location_history":"[2,6,4,7]","action_history":"[1,0,0]","door_history":"[0,1,1]","location_rts":"[5127,9748,378]","trial_type":"two-door-navigation","trial_index":17,"time_elapsed":1291223,"internal_node_id":"0.0-2.0-15.0"},{"group":"tri cycles (cube, non-group)","room_assignment":["grey","green","red","yellow","brown","purple","pink","blue"],"door_color_assignment":["black","white"],"door_generator_assignment":[1,0],"goal":4,"start":7,"action_noise":0.1,"location_history":"[7,3,4]","action_history":"[1,1]","door_history":"[0,0]","location_rts":"[748,396]","trial_type":"two-door-navigation","trial_index":18,"time_elapsed":1297911,"internal_node_id":"0.0-2.0-16.0"},{"group":"tri cycles (cube, non-group)","room_assignment":["grey","green","red","yellow","brown","purple","pink","blue"],"door_color_assignment":["black","white"],"door_generator_assignment":[1,0],"goal":2,"start":4,"action_noise":0.1,"location_history":"[4,0,3,7,3,7,3,4,7,3,4,0,3,4,7,3,4,0,2]","action_history":"[1,0,0,1,1,1,1,0,1,1,1,1,0,0,1,1,1,0]","door_history":"[0,1,1,0,0,0,0,1,0,0,0,0,1,1,0,0,0,1]","location_rts":"[1253,405,228,307,578,78,51,243,291,172,67,620,1011,549,292,212,251,226]","trial_type":"two-door-navigation","trial_index":19,"time_elapsed":1326613,"internal_node_id":"0.0-2.0-17.0"},{"group":"tri cycles (cube, non-group)","room_assignment":["grey","green","red","yellow","brown","purple","pink","blue"],"door_color_assignment":["black","white"],"door_generator_assignment":[1,0],"goal":3,"start":2,"action_noise":0.1,"location_history":"[2,1,0,3]","action_history":"[1,0,1]","door_history":"[0,1,0]","location_rts":"[6548,414,6275]","trial_type":"two-door-navigation","trial_index":20,"time_elapsed":1346415,"internal_node_id":"0.0-2.0-18.0"},{"group":"tri cycles (cube, non-group)","room_assignment":["grey","green","red","yellow","brown","purple","pink","blue"],"door_color_assignment":["black","white"],"door_generator_assignment":[1,0],"goal":6,"start":3,"action_noise":0.1,"location_history":"[3,4,0,2,1,5,2,1,5,2,1,0,3,4,0,2,6]","action_history":"[1,1,0,1,1,1,0,1,1,0,0,0,1,1,0,1]","door_history":"[0,0,1,0,0,0,1,0,0,1,1,1,0,0,1,0]","location_rts":"[3134,611,845,748,763,476,1228,636,363,437,332,940,490,827,923,1274]","trial_type":"two-door-navigation","trial_index":21,"time_elapsed":1380270,"internal_node_id":"0.0-2.0-19.0"},{"group":"tri cycles (cube, non-group)","room_assignment":["grey","green","red","yellow","brown","purple","pink","blue"],"door_color_assignment":["black","white"],"door_generator_assignment":[1,0],"goal":5,"start":6,"action_noise":0.1,"location_history":"[6,4,7,6,5]","action_history":"[0,0,0,1]","door_history":"[1,1,1,0]","location_rts":"[10684,356,646,597]","trial_type":"two-door-navigation","trial_index":22,"time_elapsed":1400136,"internal_node_id":"0.0-2.0-20.0"},{"group":"tri cycles (cube, non-group)","room_assignment":["grey","green","red","yellow","brown","purple","pink","blue"],"door_color_assignment":["black","white"],"door_generator_assignment":[1,0],"goal":1,"start":5,"action_noise":0.1,"location_history":"[5,2,1]","action_history":"[0,0]","door_history":"[1,1]","location_rts":"[7083,332]","trial_type":"two-door-navigation","trial_index":23,"time_elapsed":1413096,"internal_node_id":"0.0-2.0-21.0"},{"group":"tri cycles (cube, non-group)","room_assignment":["grey","green","red","yellow","brown","purple","pink","blue"],"door_color_assignment":["black","white"],"door_generator_assignment":[1,0],"goal":0,"start":1,"action_noise":0.1,"location_history":"[1,0]","action_history":"[0]","door_history":"[1]","location_rts":"[2109]","trial_type":"two-door-navigation","trial_index":24,"time_elapsed":1419727,"internal_node_id":"0.0-2.0-22.0"},{"group":"tri cycles (cube, non-group)","room_assignment":["grey","green","red","yellow","brown","purple","pink","blue"],"door_color_assignment":["black","white"],"door_generator_assignment":[1,0],"goal":2,"start":0,"action_noise":0.1,"location_history":"[0,2]","action_history":"[0]","door_history":"[1]","location_rts":"[24748]","trial_type":"two-door-navigation","trial_index":25,"time_elapsed":1448997,"internal_node_id":"0.0-2.0-23.0"},{"group":"tri cycles (cube, non-group)","room_assignment":["grey","green","red","yellow","brown","purple","pink","blue"],"door_color_assignment":["black","white"],"door_generator_assignment":[1,0],"goal":6,"start":2,"action_noise":0.1,"location_history":"[2,6]","action_history":"[1]","door_history":"[0]","location_rts":"[5582]","trial_type":"two-door-navigation","trial_index":26,"time_elapsed":1459105,"internal_node_id":"0.0-2.0-24.0"},{"group":"tri cycles (cube, non-group)","room_assignment":["grey","green","red","yellow","brown","purple","pink","blue"],"door_color_assignment":["black","white"],"door_generator_assignment":[1,0],"goal":1,"start":6,"action_noise":0.1,"location_history":"[6,5,1]","action_history":"[0,0]","door_history":"[1,1]","location_rts":"[8724,314]","trial_type":"two-door-navigation","trial_index":27,"time_elapsed":1473687,"internal_node_id":"0.0-2.0-25.0"},{"group":"tri cycles (cube, non-group)","room_assignment":["grey","green","red","yellow","brown","purple","pink","blue"],"door_color_assignment":["black","white"],"door_generator_assignment":[1,0],"goal":3,"start":1,"action_noise":0.1,"location_history":"[1,5,2,6,4,0,3]","action_history":"[1,1,1,1,1,0]","door_history":"[0,0,0,0,0,1]","location_rts":"[5565,282,371,500,333,469]","trial_type":"two-door-navigation","trial_index":28,"time_elapsed":1490830,"internal_node_id":"0.0-2.0-26.0"},{"group":"tri cycles (cube, non-group)","room_assignment":["grey","green","red","yellow","brown","purple","pink","blue"],"door_color_assignment":["black","white"],"door_generator_assignment":[1,0],"goal":7,"start":3,"action_noise":0.1,"location_history":"[3,7]","action_history":"[0]","door_history":"[1]","location_rts":"[7516]","trial_type":"two-door-navigation","trial_index":29,"time_elapsed":1502870,"internal_node_id":"0.0-2.0-27.0"},{"group":"tri cycles (cube, non-group)","room_assignment":["grey","green","red","yellow","brown","purple","pink","blue"],"door_color_assignment":["black","white"],"door_generator_assignment":[1,0],"goal":4,"start":7,"action_noise":0.1,"location_history":"[7,3,4]","action_history":"[1,1]","door_history":"[0,0]","location_rts":"[916,363]","trial_type":"two-door-navigation","trial_index":30,"time_elapsed":1509692,"internal_node_id":"0.0-2.0-28.0"},{"group":"tri cycles (cube, non-group)","room_assignment":["grey","green","red","yellow","brown","purple","pink","blue"],"door_color_assignment":["black","white"],"door_generator_assignment":[1,0],"goal":0,"start":4,"action_noise":0.1,"location_history":"[4,0]","action_history":"[1]","door_history":"[0]","location_rts":"[1470]","trial_type":"two-door-navigation","trial_index":31,"time_elapsed":1515688,"internal_node_id":"0.0-2.0-29.0"},{"group":"tri cycles (cube, non-group)","room_assignment":["grey","green","red","yellow","brown","purple","pink","blue"],"door_color_assignment":["black","white"],"door_generator_assignment":[1,0],"goal":5,"start":0,"action_noise":0.1,"location_history":"[0,2,6,5]","action_history":"[0,1,1]","door_history":"[1,0,0]","location_rts":"[1940,284,779]","trial_type":"two-door-navigation","trial_index":32,"time_elapsed":1525595,"internal_node_id":"0.0-2.0-30.0"},{"group":"tri cycles (cube, non-group)","room_assignment":["grey","green","red","yellow","brown","purple","pink","blue"],"door_color_assignment":["black","white"],"door_generator_assignment":[1,0],"goal":3,"start":5,"action_noise":0.1,"location_history":"[5,1,0,2,1,5,2,6,5,1,5,1,0,3]","action_history":"[0,1,0,0,1,1,1,1,1,1,0,0,1]","door_history":"[1,0,1,1,0,0,0,0,0,0,1,1,0]","location_rts":"[13608,770,604,474,332,227,354,395,387,380,252,331,555]","trial_type":"two-door-navigation","trial_index":33,"time_elapsed":1562037,"internal_node_id":"0.0-2.0-31.0"},{"group":"tri cycles (cube, non-group)","room_assignment":["grey","green","red","yellow","brown","purple","pink","blue"],"door_color_assignment":["black","white"],"door_generator_assignment":[1,0],"goal":2,"start":3,"action_noise":0.1,"location_history":"[3,4,0,2]","action_history":"[1,1,0]","door_history":"[0,0,1]","location_rts":"[3325,909,571]","trial_type":"two-door-navigation","trial_index":34,"time_elapsed":1573595,"internal_node_id":"0.0-2.0-32.0"},{"group":"tri cycles (cube, non-group)","room_assignment":["grey","green","red","yellow","brown","purple","pink","blue"],"door_color_assignment":["black","white"],"door_generator_assignment":[1,0],"goal":6,"start":2,"action_noise":0.1,"location_history":"[2,6]","action_history":"[1]","door_history":"[0]","location_rts":"[3642]","trial_type":"two-door-navigation","trial_index":35,"time_elapsed":1581759,"internal_node_id":"0.0-2.0-33.0"},{"group":"tri cycles (cube, non-group)","room_assignment":["grey","green","red","yellow","brown","purple","pink","blue"],"door_color_assignment":["black","white"],"door_generator_assignment":[1,0],"goal":1,"start":6,"action_noise":0.1,"location_history":"[6,4,7,6,4,7,3,7,3,4,7,6,5,1]","action_history":"[0,0,0,0,0,1,0,1,1,0,0,1,0]","door_history":"[1,1,1,1,1,0,1,0,0,1,1,0,1]","location_rts":"[16988,251,235,347,572,604,387,492,300,755,572,907,491]","trial_type":"two-door-navigation","trial_index":36,"time_elapsed":1621430,"internal_node_id":"0.0-2.0-34.0"},{"group":"tri cycles (cube, non-group)","room_assignment":["grey","green","red","yellow","brown","purple","pink","blue"],"door_color_assignment":["black","white"],"door_generator_assignment":[1,0],"goal":7,"start":1,"action_noise":0.1,"location_history":"[1,5,1,0,2,6,4,7]","action_history":"[1,0,0,0,1,0,0]","door_history":"[0,1,1,1,0,1,1]","location_rts":"[1701,619,364,491,538,403,283]","trial_type":"two-door-navigation","trial_index":37,"time_elapsed":1636601,"internal_node_id":"0.0-2.0-35.0"},{"group":"tri cycles (cube, non-group)","room_assignment":["grey","green","red","yellow","brown","purple","pink","blue"],"door_color_assignment":["black","white"],"door_generator_assignment":[1,0],"goal":4,"start":7,"action_noise":0.1,"location_history":"[7,3,4]","action_history":"[1,1]","door_history":"[0,0]","location_rts":"[3941,404]","trial_type":"two-door-navigation","trial_index":38,"time_elapsed":1647487,"internal_node_id":"0.0-2.0-36.0"},{"group":"tri cycles (cube, non-group)","room_assignment":["grey","green","red","yellow","brown","purple","pink","blue"],"door_color_assignment":["black","white"],"door_generator_assignment":[1,0],"goal":5,"start":4,"action_noise":0.1,"location_history":"[4,0,3,4,0,2,6,4,7,3,4,7,3,4,0,2,1,5]","action_history":"[1,1,1,1,0,1,0,0,1,1,0,1,1,1,0,0,0]","door_history":"[0,0,0,0,1,0,1,1,0,0,1,0,0,0,1,1,1]","location_rts":"[38772,714,556,397,635,1319,317,347,508,443,931,555,46371,762,371,732,349]","trial_type":"two-door-navigation","trial_index":39,"time_elapsed":1762415,"internal_node_id":"0.0-2.0-37.0"},{"group":"tri cycles (cube, non-group)","room_assignment":["grey","green","red","yellow","brown","purple","pink","blue"],"door_color_assignment":["black","white"],"door_generator_assignment":[1,0],"goal":0,"start":5,"action_noise":0.1,"location_history":"[5,2,6,5,2,1,5,2,1,0]","action_history":"[1,1,1,1,0,1,1,0,0]","door_history":"[0,0,0,0,1,0,0,1,1]","location_rts":"[3164,466,435,1115,372,772,419,629,292]","trial_type":"two-door-navigation","trial_index":40,"time_elapsed":1782766,"internal_node_id":"0.0-2.0-38.0"},{"group":"tri cycles (cube, non-group)","room_assignment":["grey","green","red","yellow","brown","purple","pink","blue"],"door_color_assignment":["black","white"],"door_generator_assignment":[1,0],"goal":4,"start":0,"action_noise":0.1,"location_history":"[0,3,7,3,7,3,7,3,7,3,7,6,4]","action_history":"[1,1,1,0,0,0,1,0,1,1,0,0]","door_history":"[0,0,0,1,1,1,0,1,0,0,1,1]","location_rts":"[933,652,259,725,444,331,579,321,235,363,796,267]","trial_type":"two-door-navigation","trial_index":41,"time_elapsed":1804422,"internal_node_id":"0.0-2.0-39.0"},{"group":"tri cycles (cube, non-group)","room_assignment":["grey","green","red","yellow","brown","purple","pink","blue"],"door_color_assignment":["black","white"],"door_generator_assignment":[1,0],"goal":0,"start":4,"action_noise":0.1,"location_history":"[4,0]","action_history":"[1]","door_history":"[0]","location_rts":"[22918]","trial_type":"two-door-navigation","trial_index":42,"time_elapsed":1831862,"internal_node_id":"0.0-2.0-40.0"},{"group":"tri cycles (cube, non-group)","room_assignment":["grey","green","red","yellow","brown","purple","pink","blue"],"door_color_assignment":["black","white"],"door_generator_assignment":[1,0],"goal":2,"start":0,"action_noise":0.1,"location_history":"[0,3,4,0,3,7,3,7,6,5,1,0,2]","action_history":"[1,1,1,0,0,1,0,0,1,0,0,0]","door_history":"[0,0,0,1,1,0,1,1,0,1,1,1]","location_rts":"[27926,723,523,548,299,514,371,101,250,787,324,332]","trial_type":"two-door-navigation","trial_index":43,"time_elapsed":1880312,"internal_node_id":"0.0-2.0-41.0"},{"group":"tri cycles (cube, non-group)","room_assignment":["grey","green","red","yellow","brown","purple","pink","blue"],"door_color_assignment":["black","white"],"door_generator_assignment":[1,0],"goal":3,"start":2,"action_noise":0.1,"location_history":"[2,6,5,2,6,4,7,6,5,1,5,2,6,5,1,5,2,6,4,0,3]","action_history":"[1,1,1,1,0,0,0,1,0,1,1,1,1,0,1,1,1,0,1,1]","door_history":"[0,0,0,0,1,1,1,0,1,0,0,0,0,1,0,0,0,1,0,0]","location_rts":"[1693,972,595,532,650,436,445,612,677,483,395,548,370,636,451,388,467,515,907,341]","trial_type":"two-door-navigation","trial_index":44,"time_elapsed":1916334,"internal_node_id":"0.0-2.0-42.0"},{"group":"tri cycles (cube, non-group)","room_assignment":["grey","green","red","yellow","brown","purple","pink","blue"],"door_color_assignment":["black","white"],"door_generator_assignment":[1,0],"goal":5,"start":3,"action_noise":0.1,"location_history":"[3,4,7,3,4,7,3,4,0,3,4,0,2,6,4,7,6,5]","action_history":"[1,0,1,0,0,1,1,1,1,1,1,0,1,0,0,0,1]","door_history":"[0,1,0,1,1,0,0,0,0,0,0,1,0,1,1,1,0]","location_rts":"[28038,491,443,340,66,524,410,403,613,427,596,538,955,1004,387,259,443]","trial_type":"two-door-navigation","trial_index":45,"time_elapsed":1973126,"internal_node_id":"0.0-2.0-43.0"},{"group":"tri cycles (cube, non-group)","room_assignment":["grey","green","red","yellow","brown","purple","pink","blue"],"door_color_assignment":["black","white"],"door_generator_assignment":[1,0],"goal":1,"start":5,"action_noise":0.1,"location_history":"[5,1]","action_history":"[0]","door_history":"[1]","location_rts":"[16884]","trial_type":"two-door-navigation","trial_index":46,"time_elapsed":1994534,"internal_node_id":"0.0-2.0-44.0"},{"group":"tri cycles (cube, non-group)","room_assignment":["grey","green","red","yellow","brown","purple","pink","blue"],"door_color_assignment":["black","white"],"door_generator_assignment":[1,0],"goal":7,"start":1,"action_noise":0.1,"location_history":"[1,5,2,6,5,2,6,5,2,1,5,1,0,2,6,4,7]","action_history":"[1,1,1,0,1,1,1,1,0,1,0,0,0,1,0,0]","door_history":"[0,0,0,1,0,0,0,0,1,0,1,1,1,0,1,1]","location_rts":"[2256,594,660,667,749,571,27,555,787,643,531,188,955,707,699,331]","trial_type":"two-door-navigation","trial_index":47,"time_elapsed":2025286,"internal_node_id":"0.0-2.0-45.0"},{"group":"tri cycles (cube, non-group)","room_assignment":["grey","green","red","yellow","brown","purple","pink","blue"],"door_color_assignment":["black","white"],"door_generator_assignment":[1,0],"goal":6,"start":7,"action_noise":0.1,"location_history":"[7,3,4,7,3,4,0,2,6]","action_history":"[1,1,0,1,1,1,0,1]","door_history":"[0,0,1,0,0,0,1,0]","location_rts":"[1094,330,524,410,219,204,435,547]","trial_type":"two-door-navigation","trial_index":48,"time_elapsed":2040718,"internal_node_id":"0.0-2.0-46.0"},{"group":"tri cycles (cube, non-group)","room_assignment":["grey","green","red","yellow","brown","purple","pink","blue"],"door_color_assignment":["black","white"],"door_generator_assignment":[1,0],"goal":3,"start":6,"action_noise":0.1,"location_history":"[6,5,2,6,5,1,0,2,1,0,2,1,0,2,6,4,0,3]","action_history":"[1,1,1,1,0,0,0,0,0,0,0,0,0,1,0,1,0]","door_history":"[0,0,0,0,1,1,1,1,1,1,1,1,1,0,1,0,1]","location_rts":"[1557,330,339,341,428,354,715,396,281,373,396,379,371,508,611,378,556]","trial_type":"two-door-navigation","trial_index":49,"time_elapsed":2069887,"internal_node_id":"0.0-2.0-47.0"},{"group":"tri cycles (cube, non-group)","room_assignment":["grey","green","red","yellow","brown","purple","pink","blue"],"door_color_assignment":["black","white"],"door_generator_assignment":[1,0],"goal":0,"start":3,"action_noise":0.1,"location_history":"[3,7,3,4,0]","action_history":"[0,1,1,1]","door_history":"[1,0,0,0]","location_rts":"[3245,338,355,364]","trial_type":"two-door-navigation","trial_index":50,"time_elapsed":2081774,"internal_node_id":"0.0-2.0-48.0"},{"group":"tri cycles (cube, non-group)","room_assignment":["grey","green","red","yellow","brown","purple","pink","blue"],"door_color_assignment":["black","white"],"door_generator_assignment":[1,0],"goal":2,"start":0,"action_noise":0.1,"location_history":"[0,3,7,3,4,0,2]","action_history":"[1,0,1,1,1,0]","door_history":"[0,1,0,0,0,1]","location_rts":"[40062,667,628,565,188,379]","trial_type":"two-door-navigation","trial_index":51,"time_elapsed":2133887,"internal_node_id":"0.0-2.0-49.0"},{"view_history":"[{\"page_index\":0,\"viewing_time\":10483}]","rt":10483,"trial_type":"instructions","trial_index":52,"time_elapsed":2145372,"internal_node_id":"0.0-3.0"},{"view_history":"[{\"page_index\":0,\"viewing_time\":1888},{\"page_index\":1,\"viewing_time\":14591}]","rt":16479,"trial_type":"instructions","trial_index":53,"time_elapsed":2162851,"internal_node_id":"0.0-4.0"},{"group":"square cycles (cube, non-group)","fractal_assignment":["../images/ylw_pnk.png","../images/org_blu.png","../images/gry_blk.png","../images/ylw_slt.png","../images/pnk_blu.png","../images/cyn_red.png","../images/blu_wht.png","../images/grn_red.png"],"mutagen_generator_assignment":[1,0],"goal":3,"start":0,"action_noise":0.1,"location_history":"[0,1,2,6,7,3]","action_history":"[1,0,0,1,1]","mutagen_history":"[0,1,1,0,0]","location_rts":"[18625,209,3,394,612]","trial_type":"fractal-mutation","trial_index":54,"time_elapsed":2191306,"internal_node_id":"0.0-5.0-0.0"},{"group":"square cycles (cube, non-group)","fractal_assignment":["../images/ylw_pnk.png","../images/org_blu.png","../images/gry_blk.png","../images/ylw_slt.png","../images/pnk_blu.png","../images/cyn_red.png","../images/blu_wht.png","../images/grn_red.png"],"mutagen_generator_assignment":[1,0],"goal":1,"start":3,"action_noise":0.1,"location_history":"[3,2,3,2,6,7,3,0,1]","action_history":"[1,0,1,1,1,1,0,1]","mutagen_history":"[0,1,0,0,0,0,1,0]","location_rts":"[53315,675,576,555,587,508,682,218]","trial_type":"fractal-mutation","trial_index":55,"time_elapsed":2260630,"internal_node_id":"0.0-5.0-1.0"},{"group":"square cycles (cube, non-group)","fractal_assignment":["../images/ylw_pnk.png","../images/org_blu.png","../images/gry_blk.png","../images/ylw_slt.png","../images/pnk_blu.png","../images/cyn_red.png","../images/blu_wht.png","../images/grn_red.png"],"mutagen_generator_assignment":[1,0],"goal":2,"start":1,"action_noise":0.1,"location_history":"[1,0,4,7,6,7,3,2]","action_history":"[0,1,0,0,1,1,1]","mutagen_history":"[1,0,1,1,0,0,0]","location_rts":"[1486,419,827,467,651,851,1220]","trial_type":"fractal-mutation","trial_index":56,"time_elapsed":2278198,"internal_node_id":"0.0-5.0-2.0"},{"group":"square cycles (cube, non-group)","fractal_assignment":["../images/ylw_pnk.png","../images/org_blu.png","../images/gry_blk.png","../images/ylw_slt.png","../images/pnk_blu.png","../images/cyn_red.png","../images/blu_wht.png","../images/grn_red.png"],"mutagen_generator_assignment":[1,0],"goal":6,"start":2,"action_noise":0.1,"location_history":"[2,3,2,6]","action_history":"[1,1,1]","mutagen_history":"[0,0,0]","location_rts":"[40245,1180,443]","trial_type":"fractal-mutation","trial_index":57,"time_elapsed":2326631,"internal_node_id":"0.0-5.0-3.0"},{"group":"square cycles (cube, non-group)","fractal_assignment":["../images/ylw_pnk.png","../images/org_blu.png","../images/gry_blk.png","../images/ylw_slt.png","../images/pnk_blu.png","../images/cyn_red.png","../images/blu_wht.png","../images/grn_red.png"],"mutagen_generator_assignment":[1,0],"goal":5,"start":6,"action_noise":0.1,"location_history":"[6,5]","action_history":"[0]","mutagen_history":"[1]","location_rts":"[19610]","trial_type":"fractal-mutation","trial_index":58,"time_elapsed":2350766,"internal_node_id":"0.0-5.0-4.0"},{"group":"square cycles (cube, non-group)","fractal_assignment":["../images/ylw_pnk.png","../images/org_blu.png","../images/gry_blk.png","../images/ylw_slt.png","../images/pnk_blu.png","../images/cyn_red.png","../images/blu_wht.png","../images/grn_red.png"],"mutagen_generator_assignment":[1,0],"goal":4,"start":5,"action_noise":0.1,"location_history":"[5,4]","action_history":"[0]","mutagen_history":"[1]","location_rts":"[2348]","trial_type":"fractal-mutation","trial_index":59,"time_elapsed":2357640,"internal_node_id":"0.0-5.0-5.0"},{"group":"square cycles (cube, non-group)","fractal_assignment":["../images/ylw_pnk.png","../images/org_blu.png","../images/gry_blk.png","../images/ylw_slt.png","../images/pnk_blu.png","../images/cyn_red.png","../images/blu_wht.png","../images/grn_red.png"],"mutagen_generator_assignment":[1,0],"goal":7,"start":4,"action_noise":0.1,"location_history":"[4,5,1,2,6,7]","action_history":"[1,1,1,1,1]","mutagen_history":"[0,0,0,0,0]","location_rts":"[1532,435,691,403,370]","trial_type":"fractal-mutation","trial_index":60,"time_elapsed":2369679,"internal_node_id":"0.0-5.0-6.0"},{"group":"square cycles (cube, non-group)","fractal_assignment":["../images/ylw_pnk.png","../images/org_blu.png","../images/gry_blk.png","../images/ylw_slt.png","../images/pnk_blu.png","../images/cyn_red.png","../images/blu_wht.png","../images/grn_red.png"],"mutagen_generator_assignment":[1,0],"goal":4,"start":7,"action_noise":0.1,"location_history":"[7,6,7,6,7,6,7,6,5,1,2,3,2,3,0,1,2,6,5,4]","action_history":"[0,0,0,0,0,1,0,0,1,0,0,0,0,0,0,0,1,0,0]","mutagen_history":"[1,1,1,1,1,0,1,1,0,1,1,1,1,1,1,1,0,1,1]","location_rts":"[1564,267,282,347,419,331,250,259,244,490,371,420,348,371,426,363,659,754,644]","trial_type":"fractal-mutation","trial_index":61,"time_elapsed":2401391,"internal_node_id":"0.0-5.0-7.0"},{"group":"square cycles (cube, non-group)","fractal_assignment":["../images/ylw_pnk.png","../images/org_blu.png","../images/gry_blk.png","../images/ylw_slt.png","../images/pnk_blu.png","../images/cyn_red.png","../images/blu_wht.png","../images/grn_red.png"],"mutagen_generator_assignment":[1,0],"goal":6,"start":4,"action_noise":0.1,"location_history":"[4,5,1,0,1,0,4,5,4,7,6]","action_history":"[1,1,1,0,1,1,1,0,0,0]","mutagen_history":"[0,0,0,1,0,0,0,1,1,1]","location_rts":"[6284,387,395,668,362,298,540,244,562,418]","trial_type":"fractal-mutation","trial_index":62,"time_elapsed":2425263,"internal_node_id":"0.0-5.0-8.0"},{"group":"square cycles (cube, non-group)","fractal_assignment":["../images/ylw_pnk.png","../images/org_blu.png","../images/gry_blk.png","../images/ylw_slt.png","../images/pnk_blu.png","../images/cyn_red.png","../images/blu_wht.png","../images/grn_red.png"],"mutagen_generator_assignment":[1,0],"goal":0,"start":6,"action_noise":0.1,"location_history":"[6,5,4,7,3,0]","action_history":"[0,0,0,1,0]","mutagen_history":"[1,1,1,0,1]","location_rts":"[15923,714,387,173,444]","trial_type":"fractal-mutation","trial_index":63,"time_elapsed":2451519,"internal_node_id":"0.0-5.0-9.0"},{"group":"square cycles (cube, non-group)","fractal_assignment":["../images/ylw_pnk.png","../images/org_blu.png","../images/gry_blk.png","../images/ylw_slt.png","../images/pnk_blu.png","../images/cyn_red.png","../images/blu_wht.png","../images/grn_red.png"],"mutagen_generator_assignment":[1,0],"goal":1,"start":0,"action_noise":0.1,"location_history":"[0,4,7,3,0,1]","action_history":"[1,0,0,0,0]","mutagen_history":"[0,1,1,1,1]","location_rts":"[1572,843,562,659,1051]","trial_type":"fractal-mutation","trial_index":64,"time_elapsed":2464814,"internal_node_id":"0.0-5.0-10.0"},{"group":"square cycles (cube, non-group)","fractal_assignment":["../images/ylw_pnk.png","../images/org_blu.png","../images/gry_blk.png","../images/ylw_slt.png","../images/pnk_blu.png","../images/cyn_red.png","../images/blu_wht.png","../images/grn_red.png"],"mutagen_generator_assignment":[1,0],"goal":3,"start":1,"action_noise":0.1,"location_history":"[1,0,4,5,4,7,6,7,3]","action_history":"[1,1,1,0,0,0,0,1]","mutagen_history":"[0,0,0,1,1,1,1,0]","location_rts":"[8618,332,421,1036,427,411,236,476]","trial_type":"fractal-mutation","trial_index":65,"time_elapsed":2488440,"internal_node_id":"0.0-5.0-11.0"},{"group":"square cycles (cube, non-group)","fractal_assignment":["../images/ylw_pnk.png","../images/org_blu.png","../images/gry_blk.png","../images/ylw_slt.png","../images/pnk_blu.png","../images/cyn_red.png","../images/blu_wht.png","../images/grn_red.png"],"mutagen_generator_assignment":[1,0],"goal":7,"start":3,"action_noise":0.1,"location_history":"[3,0,4,5,1,0,4,7]","action_history":"[0,1,1,1,1,1,0]","mutagen_history":"[1,0,0,0,0,0,1]","location_rts":"[8460,954,347,427,443,378,404]","trial_type":"fractal-mutation","trial_index":66,"time_elapsed":2510702,"internal_node_id":"0.0-5.0-12.0"},{"group":"square cycles (cube, non-group)","fractal_assignment":["../images/ylw_pnk.png","../images/org_blu.png","../images/gry_blk.png","../images/ylw_slt.png","../images/pnk_blu.png","../images/cyn_red.png","../images/blu_wht.png","../images/grn_red.png"],"mutagen_generator_assignment":[1,0],"goal":5,"start":7,"action_noise":0.1,"location_history":"[7,6,7,6,5]","action_history":"[0,0,0,1]","mutagen_history":"[1,1,1,0]","location_rts":"[12452,595,491,892]","trial_type":"fractal-mutation","trial_index":67,"time_elapsed":2532717,"internal_node_id":"0.0-5.0-13.0"},{"group":"square cycles (cube, non-group)","fractal_assignment":["../images/ylw_pnk.png","../images/org_blu.png","../images/gry_blk.png","../images/ylw_slt.png","../images/pnk_blu.png","../images/cyn_red.png","../images/blu_wht.png","../images/grn_red.png"],"mutagen_generator_assignment":[1,0],"goal":2,"start":5,"action_noise":0.1,"location_history":"[5,4,5,4,5,4,5,4,7,3,2]","action_history":"[1,0,0,1,0,0,0,0,1,1]","mutagen_history":"[0,1,1,0,1,1,1,1,0,0]","location_rts":"[6246,459,83,451,146,90,3443,683,267,707]","trial_type":"fractal-mutation","trial_index":68,"time_elapsed":2559009,"internal_node_id":"0.0-5.0-14.0"},{"group":"square cycles (cube, non-group)","fractal_assignment":["../images/ylw_pnk.png","../images/org_blu.png","../images/gry_blk.png","../images/ylw_slt.png","../images/pnk_blu.png","../images/cyn_red.png","../images/blu_wht.png","../images/grn_red.png"],"mutagen_generator_assignment":[1,0],"goal":7,"start":2,"action_noise":0.1,"location_history":"[2,3,0,1,2,3,2,6,5,1,0,4,7]","action_history":"[0,0,0,0,0,1,1,0,1,1,1,0]","mutagen_history":"[1,1,1,1,1,0,0,1,0,0,0,1]","location_rts":"[14067,418,403,331,387,387,411,356,626,443,475,603]","trial_type":"fractal-mutation","trial_index":69,"time_elapsed":2593670,"internal_node_id":"0.0-5.0-15.0"},{"group":"square cycles (cube, non-group)","fractal_assignment":["../images/ylw_pnk.png","../images/org_blu.png","../images/gry_blk.png","../images/ylw_slt.png","../images/pnk_blu.png","../images/cyn_red.png","../images/blu_wht.png","../images/grn_red.png"],"mutagen_generator_assignment":[1,0],"goal":4,"start":7,"action_noise":0.1,"location_history":"[7,6,5,4]","action_history":"[0,0,0]","mutagen_history":"[1,1,1]","location_rts":"[3864,395,34]","trial_type":"fractal-mutation","trial_index":70,"time_elapsed":2604528,"internal_node_id":"0.0-5.0-16.0"},{"group":"square cycles (cube, non-group)","fractal_assignment":["../images/ylw_pnk.png","../images/org_blu.png","../images/gry_blk.png","../images/ylw_slt.png","../images/pnk_blu.png","../images/cyn_red.png","../images/blu_wht.png","../images/grn_red.png"],"mutagen_generator_assignment":[1,0],"goal":2,"start":4,"action_noise":0.1,"location_history":"[4,5,1,0,4,7,6,5,4,5,1,0,1,0,4,5,1,2]","action_history":"[1,1,1,1,0,0,0,0,1,1,0,0,0,1,1,1,0]","mutagen_history":"[0,0,0,0,1,1,1,1,0,0,1,1,1,0,0,0,1]","location_rts":"[7690,131,338,691,843,699,483,508,458,363,1331,1020,555,483,411,515,484]","trial_type":"fractal-mutation","trial_index":71,"time_elapsed":2642390,"internal_node_id":"0.0-5.0-17.0"},{"group":"square cycles (cube, non-group)","fractal_assignment":["../images/ylw_pnk.png","../images/org_blu.png","../images/gry_blk.png","../images/ylw_slt.png","../images/pnk_blu.png","../images/cyn_red.png","../images/blu_wht.png","../images/grn_red.png"],"mutagen_generator_assignment":[1,0],"goal":3,"start":2,"action_noise":0.1,"location_history":"[2,3]","action_history":"[0]","mutagen_history":"[1]","location_rts":"[2572]","trial_type":"fractal-mutation","trial_index":72,"time_elapsed":2649485,"internal_node_id":"0.0-5.0-18.0"},{"group":"square cycles (cube, non-group)","fractal_assignment":["../images/ylw_pnk.png","../images/org_blu.png","../images/gry_blk.png","../images/ylw_slt.png","../images/pnk_blu.png","../images/cyn_red.png","../images/blu_wht.png","../images/grn_red.png"],"mutagen_generator_assignment":[1,0],"goal":6,"start":3,"action_noise":0.1,"location_history":"[3,0,4,5,1,0,4,5,4,5,1,0,4,7,6]","action_history":"[0,1,1,1,1,1,1,0,1,1,1,1,0,0]","mutagen_history":"[1,0,0,0,0,0,0,1,0,0,0,0,1,1]","location_rts":"[804,691,515,275,419,387,429,499,515,227,356,348,482,298]","trial_type":"fractal-mutation","trial_index":73,"time_elapsed":2673527,"internal_node_id":"0.0-5.0-19.0"},{"group":"square cycles (cube, non-group)","fractal_assignment":["../images/ylw_pnk.png","../images/org_blu.png","../images/gry_blk.png","../images/ylw_slt.png","../images/pnk_blu.png","../images/cyn_red.png","../images/blu_wht.png","../images/grn_red.png"],"mutagen_generator_assignment":[1,0],"goal":5,"start":6,"action_noise":0.1,"location_history":"[6,5]","action_history":"[0]","mutagen_history":"[1]","location_rts":"[15490]","trial_type":"fractal-mutation","trial_index":74,"time_elapsed":2693543,"internal_node_id":"0.0-5.0-20.0"},{"group":"square cycles (cube, non-group)","fractal_assignment":["../images/ylw_pnk.png","../images/org_blu.png","../images/gry_blk.png","../images/ylw_slt.png","../images/pnk_blu.png","../images/cyn_red.png","../images/blu_wht.png","../images/grn_red.png"],"mutagen_generator_assignment":[1,0],"goal":1,"start":5,"action_noise":0.1,"location_history":"[5,1]","action_history":"[1]","mutagen_history":"[0]","location_rts":"[19555]","trial_type":"fractal-mutation","trial_index":75,"time_elapsed":2717621,"internal_node_id":"0.0-5.0-21.0"},{"group":"square cycles (cube, non-group)","fractal_assignment":["../images/ylw_pnk.png","../images/org_blu.png","../images/gry_blk.png","../images/ylw_slt.png","../images/pnk_blu.png","../images/cyn_red.png","../images/blu_wht.png","../images/grn_red.png"],"mutagen_generator_assignment":[1,0],"goal":0,"start":1,"action_noise":0.1,"location_history":"[1,0]","action_history":"[1]","mutagen_history":"[0]","location_rts":"[50314]","trial_type":"fractal-mutation","trial_index":76,"time_elapsed":2772462,"internal_node_id":"0.0-5.0-22.0"},{"group":"square cycles (cube, non-group)","fractal_assignment":["../images/ylw_pnk.png","../images/org_blu.png","../images/gry_blk.png","../images/ylw_slt.png","../images/pnk_blu.png","../images/cyn_red.png","../images/blu_wht.png","../images/grn_red.png"],"mutagen_generator_assignment":[1,0],"goal":2,"start":0,"action_noise":0.1,"location_history":"[0,4,7,6,5,4,5,1,2]","action_history":"[0,0,0,0,0,1,1,0]","mutagen_history":"[1,1,1,1,1,0,0,1]","location_rts":"[820,299,322,291,330,24210,285,2124]","trial_type":"fractal-mutation","trial_index":77,"time_elapsed":2812814,"internal_node_id":"0.0-5.0-23.0"},{"group":"square cycles (cube, non-group)","fractal_assignment":["../images/ylw_pnk.png","../images/org_blu.png","../images/gry_blk.png","../images/ylw_slt.png","../images/pnk_blu.png","../images/cyn_red.png","../images/blu_wht.png","../images/grn_red.png"],"mutagen_generator_assignment":[1,0],"goal":6,"start":2,"action_noise":0.1,"location_history":"[2,6]","action_history":"[1]","mutagen_history":"[0]","location_rts":"[304539]","trial_type":"fractal-mutation","trial_index":78,"time_elapsed":3121877,"internal_node_id":"0.0-5.0-24.0"},{"group":"square cycles (cube, non-group)","fractal_assignment":["../images/ylw_pnk.png","../images/org_blu.png","../images/gry_blk.png","../images/ylw_slt.png","../images/pnk_blu.png","../images/cyn_red.png","../images/blu_wht.png","../images/grn_red.png"],"mutagen_generator_assignment":[1,0],"goal":1,"start":6,"action_noise":0.1,"location_history":"[6,7,3,2,3,0,1]","action_history":"[1,1,1,1,0,0]","mutagen_history":"[0,0,0,0,1,1]","location_rts":"[7315,419,738,418,411,754]","trial_type":"fractal-mutation","trial_index":79,"time_elapsed":3141568,"internal_node_id":"0.0-5.0-25.0"},{"group":"square cycles (cube, non-group)","fractal_assignment":["../images/ylw_pnk.png","../images/org_blu.png","../images/gry_blk.png","../images/ylw_slt.png","../images/pnk_blu.png","../images/cyn_red.png","../images/blu_wht.png","../images/grn_red.png"],"mutagen_generator_assignment":[1,0],"goal":3,"start":1,"action_noise":0.1,"location_history":"[1,2,3]","action_history":"[1,0]","mutagen_history":"[0,1]","location_rts":"[57308,3147]","trial_type":"fractal-mutation","trial_index":80,"time_elapsed":3207568,"internal_node_id":"0.0-5.0-26.0"},{"group":"square cycles (cube, non-group)","fractal_assignment":["../images/ylw_pnk.png","../images/org_blu.png","../images/gry_blk.png","../images/ylw_slt.png","../images/pnk_blu.png","../images/cyn_red.png","../images/blu_wht.png","../images/grn_red.png"],"mutagen_generator_assignment":[1,0],"goal":7,"start":3,"action_noise":0.1,"location_history":"[3,2,6,7]","action_history":"[1,1,1]","mutagen_history":"[0,0,0]","location_rts":"[412,315,332]","trial_type":"fractal-mutation","trial_index":81,"time_elapsed":3215191,"internal_node_id":"0.0-5.0-27.0"},{"group":"square cycles (cube, non-group)","fractal_assignment":["../images/ylw_pnk.png","../images/org_blu.png","../images/gry_blk.png","../images/ylw_slt.png","../images/pnk_blu.png","../images/cyn_red.png","../images/blu_wht.png","../images/grn_red.png"],"mutagen_generator_assignment":[1,0],"goal":4,"start":7,"action_noise":0.1,"location_history":"[7,6,7,6,5,1,2,3,0,4]","action_history":"[0,0,0,0,1,0,0,0,1]","mutagen_history":"[1,1,1,1,0,1,1,1,0]","location_rts":"[277,235,324,377,355,227,323,298,475]","trial_type":"fractal-mutation","trial_index":82,"time_elapsed":3230775,"internal_node_id":"0.0-5.0-28.0"},{"group":"square cycles (cube, non-group)","fractal_assignment":["../images/ylw_pnk.png","../images/org_blu.png","../images/gry_blk.png","../images/ylw_slt.png","../images/pnk_blu.png","../images/cyn_red.png","../images/blu_wht.png","../images/grn_red.png"],"mutagen_generator_assignment":[1,0],"goal":0,"start":4,"action_noise":0.1,"location_history":"[4,5,1,0]","action_history":"[1,1,1]","mutagen_history":"[0,0,0]","location_rts":"[28085,148,59]","trial_type":"fractal-mutation","trial_index":83,"time_elapsed":3265632,"internal_node_id":"0.0-5.0-29.0"},{"group":"square cycles (cube, non-group)","fractal_assignment":["../images/ylw_pnk.png","../images/org_blu.png","../images/gry_blk.png","../images/ylw_slt.png","../images/pnk_blu.png","../images/cyn_red.png","../images/blu_wht.png","../images/grn_red.png"],"mutagen_generator_assignment":[1,0],"goal":5,"start":0,"action_noise":0.1,"location_history":"[0,1,2,3,2,3,2,3,2,3,2,3,0,4,5]","action_history":"[0,0,0,0,0,1,0,0,0,1,0,0,0,1]","mutagen_history":"[1,1,1,1,1,0,1,1,1,0,1,1,1,0]","location_rts":"[1324,363,315,338,395,709,331,236,410,219,59,187,99,178]","trial_type":"fractal-mutation","trial_index":84,"time_elapsed":3288590,"internal_node_id":"0.0-5.0-30.0"},{"group":"square cycles (cube, non-group)","fractal_assignment":["../images/ylw_pnk.png","../images/org_blu.png","../images/gry_blk.png","../images/ylw_slt.png","../images/pnk_blu.png","../images/cyn_red.png","../images/blu_wht.png","../images/grn_red.png"],"mutagen_generator_assignment":[1,0],"goal":3,"start":5,"action_noise":0.1,"location_history":"[5,4,7,6,5,1,0,4,5,4,7,3]","action_history":"[0,0,0,1,1,1,1,1,0,0,1]","mutagen_history":"[1,1,1,0,0,0,0,0,1,1,0]","location_rts":"[24139,404,442,675,388,523,451,603,490,482,476]","trial_type":"fractal-mutation","trial_index":85,"time_elapsed":3332399,"internal_node_id":"0.0-5.0-31.0"},{"group":"square cycles (cube, non-group)","fractal_assignment":["../images/ylw_pnk.png","../images/org_blu.png","../images/gry_blk.png","../images/ylw_slt.png","../images/pnk_blu.png","../images/cyn_red.png","../images/blu_wht.png","../images/grn_red.png"],"mutagen_generator_assignment":[1,0],"goal":2,"start":3,"action_noise":0.1,"location_history":"[3,2]","action_history":"[1]","mutagen_history":"[0]","location_rts":"[34739]","trial_type":"fractal-mutation","trial_index":86,"time_elapsed":3371662,"internal_node_id":"0.0-5.0-32.0"},{"group":"square cycles (cube, non-group)","fractal_assignment":["../images/ylw_pnk.png","../images/org_blu.png","../images/gry_blk.png","../images/ylw_slt.png","../images/pnk_blu.png","../images/cyn_red.png","../images/blu_wht.png","../images/grn_red.png"],"mutagen_generator_assignment":[1,0],"goal":6,"start":2,"action_noise":0.1,"location_history":"[2,6]","action_history":"[1]","mutagen_history":"[0]","location_rts":"[924]","trial_type":"fractal-mutation","trial_index":87,"time_elapsed":3377109,"internal_node_id":"0.0-5.0-33.0"},{"group":"square cycles (cube, non-group)","fractal_assignment":["../images/ylw_pnk.png","../images/org_blu.png","../images/gry_blk.png","../images/ylw_slt.png","../images/pnk_blu.png","../images/cyn_red.png","../images/blu_wht.png","../images/grn_red.png"],"mutagen_generator_assignment":[1,0],"goal":1,"start":6,"action_noise":0.1,"location_history":"[6,5,4,5,4,7,6,5,4,5,1]","action_history":"[0,0,0,0,0,0,0,0,1,1]","mutagen_history":"[1,1,1,1,1,1,1,1,0,0]","location_rts":"[34174,251,307,291,331,337,290,451,76,299]","trial_type":"fractal-mutation","trial_index":88,"time_elapsed":3427630,"internal_node_id":"0.0-5.0-34.0"},{"group":"square cycles (cube, non-group)","fractal_assignment":["../images/ylw_pnk.png","../images/org_blu.png","../images/gry_blk.png","../images/ylw_slt.png","../images/pnk_blu.png","../images/cyn_red.png","../images/blu_wht.png","../images/grn_red.png"],"mutagen_generator_assignment":[1,0],"goal":7,"start":1,"action_noise":0.1,"location_history":"[1,2,3,2,3,2,6,7]","action_history":"[0,0,0,0,1,1,1]","mutagen_history":"[1,1,1,1,0,0,0]","location_rts":"[324,332,476,402,714,378,354]","trial_type":"fractal-mutation","trial_index":89,"time_elapsed":3441264,"internal_node_id":"0.0-5.0-35.0"},{"group":"square cycles (cube, non-group)","fractal_assignment":["../images/ylw_pnk.png","../images/org_blu.png","../images/gry_blk.png","../images/ylw_slt.png","../images/pnk_blu.png","../images/cyn_red.png","../images/blu_wht.png","../images/grn_red.png"],"mutagen_generator_assignment":[1,0],"goal":4,"start":7,"action_noise":0.1,"location_history":"[7,6,5,4]","action_history":"[0,0,0]","mutagen_history":"[1,1,1]","location_rts":"[1058,347,444]","trial_type":"fractal-mutation","trial_index":90,"time_elapsed":3449943,"internal_node_id":"0.0-5.0-36.0"},{"group":"square cycles (cube, non-group)","fractal_assignment":["../images/ylw_pnk.png","../images/org_blu.png","../images/gry_blk.png","../images/ylw_slt.png","../images/pnk_blu.png","../images/cyn_red.png","../images/blu_wht.png","../images/grn_red.png"],"mutagen_generator_assignment":[1,0],"goal":5,"start":4,"action_noise":0.1,"location_history":"[4,5]","action_history":"[1]","mutagen_history":"[0]","location_rts":"[20115]","trial_type":"fractal-mutation","trial_index":91,"time_elapsed":3474582,"internal_node_id":"0.0-5.0-37.0"},{"group":"square cycles (cube, non-group)","fractal_assignment":["../images/ylw_pnk.png","../images/org_blu.png","../images/gry_blk.png","../images/ylw_slt.png","../images/pnk_blu.png","../images/cyn_red.png","../images/blu_wht.png","../images/grn_red.png"],"mutagen_generator_assignment":[1,0],"goal":0,"start":5,"action_noise":0.1,"location_history":"[5,1,2,3,2,6,5,4,7,3,0]","action_history":"[1,0,0,1,1,0,0,0,1,0]","mutagen_history":"[0,1,1,0,0,1,1,1,0,1]","location_rts":"[540,387,284,723,241,443,235,292,275,331]","trial_type":"fractal-mutation","trial_index":92,"time_elapsed":3492046,"internal_node_id":"0.0-5.0-38.0"},{"group":"square cycles (cube, non-group)","fractal_assignment":["../images/ylw_pnk.png","../images/org_blu.png","../images/gry_blk.png","../images/ylw_slt.png","../images/pnk_blu.png","../images/cyn_red.png","../images/blu_wht.png","../images/grn_red.png"],"mutagen_generator_assignment":[1,0],"goal":4,"start":0,"action_noise":0.1,"location_history":"[0,4]","action_history":"[1]","mutagen_history":"[0]","location_rts":"[8871]","trial_type":"fractal-mutation","trial_index":93,"time_elapsed":3505438,"internal_node_id":"0.0-5.0-39.0"},{"group":"square cycles (cube, non-group)","fractal_assignment":["../images/ylw_pnk.png","../images/org_blu.png","../images/gry_blk.png","../images/ylw_slt.png","../images/pnk_blu.png","../images/cyn_red.png","../images/blu_wht.png","../images/grn_red.png"],"mutagen_generator_assignment":[1,0],"goal":0,"start":4,"action_noise":0.1,"location_history":"[4,5,4,7,3,2,6,7,3,0]","action_history":"[1,0,0,1,0,1,1,1,0]","mutagen_history":"[0,1,1,0,1,0,0,0,1]","location_rts":"[14348,452,611,131,779,8715,9179,243,195]","trial_type":"fractal-mutation","trial_index":94,"time_elapsed":3552781,"internal_node_id":"0.0-5.0-40.0"},{"group":"square cycles (cube, non-group)","fractal_assignment":["../images/ylw_pnk.png","../images/org_blu.png","../images/gry_blk.png","../images/ylw_slt.png","../images/pnk_blu.png","../images/cyn_red.png","../images/blu_wht.png","../images/grn_red.png"],"mutagen_generator_assignment":[1,0],"goal":2,"start":0,"action_noise":0.1,"location_history":"[0,4,7,6,5,1,2]","action_history":"[1,0,0,0,1,0]","mutagen_history":"[0,1,1,1,0,1]","location_rts":"[3947,163,3,11,460,451]","trial_type":"fractal-mutation","trial_index":95,"time_elapsed":3567447,"internal_node_id":"0.0-5.0-41.0"},{"group":"square cycles (cube, non-group)","fractal_assignment":["../images/ylw_pnk.png","../images/org_blu.png","../images/gry_blk.png","../images/ylw_slt.png","../images/pnk_blu.png","../images/cyn_red.png","../images/blu_wht.png","../images/grn_red.png"],"mutagen_generator_assignment":[1,0],"goal":3,"start":2,"action_noise":0.1,"location_history":"[2,3]","action_history":"[1]","mutagen_history":"[0]","location_rts":"[2012]","trial_type":"fractal-mutation","trial_index":96,"time_elapsed":3573982,"internal_node_id":"0.0-5.0-42.0"},{"group":"square cycles (cube, non-group)","fractal_assignment":["../images/ylw_pnk.png","../images/org_blu.png","../images/gry_blk.png","../images/ylw_slt.png","../images/pnk_blu.png","../images/cyn_red.png","../images/blu_wht.png","../images/grn_red.png"],"mutagen_generator_assignment":[1,0],"goal":5,"start":3,"action_noise":0.1,"location_history":"[3,2,6,7,6,7,6,5]","action_history":"[1,1,1,1,1,0,0]","mutagen_history":"[0,0,0,0,0,1,1]","location_rts":"[5725,323,844,172,58,139,116]","trial_type":"fractal-mutation","trial_index":97,"time_elapsed":3592007,"internal_node_id":"0.0-5.0-43.0"},{"group":"square cycles (cube, non-group)","fractal_assignment":["../images/ylw_pnk.png","../images/org_blu.png","../images/gry_blk.png","../images/ylw_slt.png","../images/pnk_blu.png","../images/cyn_red.png","../images/blu_wht.png","../images/grn_red.png"],"mutagen_generator_assignment":[1,0],"goal":1,"start":5,"action_noise":0.1,"location_history":"[5,4,5,4,7,6,5,4,5,1]","action_history":"[0,1,0,0,0,0,0,1,1]","mutagen_history":"[1,0,1,1,1,1,1,0,0]","location_rts":"[4003,67,8322,3,9194,171,68,19,427]","trial_type":"fractal-mutation","trial_index":98,"time_elapsed":3626976,"internal_node_id":"0.0-5.0-44.0"},{"group":"square cycles (cube, non-group)","fractal_assignment":["../images/ylw_pnk.png","../images/org_blu.png","../images/gry_blk.png","../images/ylw_slt.png","../images/pnk_blu.png","../images/cyn_red.png","../images/blu_wht.png","../images/grn_red.png"],"mutagen_generator_assignment":[1,0],"goal":7,"start":1,"action_noise":0.1,"location_history":"[1,2,6,7]","action_history":"[0,1,1]","mutagen_history":"[1,0,0]","location_rts":"[13035,1451,155]","trial_type":"fractal-mutation","trial_index":99,"time_elapsed":3648182,"internal_node_id":"0.0-5.0-45.0"},{"group":"square cycles (cube, non-group)","fractal_assignment":["../images/ylw_pnk.png","../images/org_blu.png","../images/gry_blk.png","../images/ylw_slt.png","../images/pnk_blu.png","../images/cyn_red.png","../images/blu_wht.png","../images/grn_red.png"],"mutagen_generator_assignment":[1,0],"goal":6,"start":7,"action_noise":0.1,"location_history":"[7,6]","action_history":"[0]","mutagen_history":"[1]","location_rts":"[19203]","trial_type":"fractal-mutation","trial_index":100,"time_elapsed":3671910,"internal_node_id":"0.0-5.0-46.0"},{"group":"square cycles (cube, non-group)","fractal_assignment":["../images/ylw_pnk.png","../images/org_blu.png","../images/gry_blk.png","../images/ylw_slt.png","../images/pnk_blu.png","../images/cyn_red.png","../images/blu_wht.png","../images/grn_red.png"],"mutagen_generator_assignment":[1,0],"goal":3,"start":6,"action_noise":0.1,"location_history":"[6,5,1,2,3]","action_history":"[1,1,0,0]","mutagen_history":"[0,0,1,1]","location_rts":"[300,34,451,347]","trial_type":"fractal-mutation","trial_index":101,"time_elapsed":3680632,"internal_node_id":"0.0-5.0-47.0"},{"group":"square cycles (cube, non-group)","fractal_assignment":["../images/ylw_pnk.png","../images/org_blu.png","../images/gry_blk.png","../images/ylw_slt.png","../images/pnk_blu.png","../images/cyn_red.png","../images/blu_wht.png","../images/grn_red.png"],"mutagen_generator_assignment":[1,0],"goal":0,"start":3,"action_noise":0.1,"location_history":"[3,2,3,2,6,5,4,5,4,5,4,7,6,5,1,0]","action_history":"[0,0,1,1,0,0,1,0,1,0,0,0,0,0,1]","mutagen_history":"[1,1,0,0,1,1,0,1,0,1,1,1,1,1,0]","location_rts":"[812,315,2164,738,580,660,36977,243,5763,475,301,18,212,11,34]","trial_type":"fractal-mutation","trial_index":102,"time_elapsed":3748752,"internal_node_id":"0.0-5.0-48.0"},{"group":"square cycles (cube, non-group)","fractal_assignment":["../images/ylw_pnk.png","../images/org_blu.png","../images/gry_blk.png","../images/ylw_slt.png","../images/pnk_blu.png","../images/cyn_red.png","../images/blu_wht.png","../images/grn_red.png"],"mutagen_generator_assignment":[1,0],"goal":2,"start":0,"action_noise":0.1,"location_history":"[0,4,7,3,0,4,5,1,0,4,5,1,0,1,0,1,2]","action_history":"[0,0,1,0,1,1,1,1,1,1,1,1,0,1,0,0]","mutagen_history":"[1,1,0,1,0,0,0,0,0,0,0,0,1,0,1,1]","location_rts":"[6580,115,443,340,226,19,412,187,451,267,659,187,4,522,218,59]","trial_type":"fractal-mutation","trial_index":103,"time_elapsed":3779278,"internal_node_id":"0.0-5.0-49.0"},{"view_history":"[{\"page_index\":0,\"viewing_time\":5156}]","rt":5156,"trial_type":"instructions","trial_index":104,"time_elapsed":3785435,"internal_node_id":"0.0-6.0"},{"rt":3439,"responses":"{\"Q0\":\"no\"}","trial_type":"survey-text","trial_index":105,"time_elapsed":3789876,"internal_node_id":"0.0-7.0"}]