[{"view_history":"[{\"page_index\":0,\"viewing_time\":2760},{\"page_index\":1,\"viewing_time\":2792}]","rt":5553,"trial_type":"instructions","trial_index":0,"time_elapsed":5555,"internal_node_id":"0.0-0.0"},{"view_history":"[{\"page_index\":0,\"viewing_time\":4066},{\"page_index\":1,\"viewing_time\":3024}]","rt":7090,"trial_type":"instructions","trial_index":1,"time_elapsed":13650,"internal_node_id":"0.0-1.0"},{"group":"dicyclic group of order 12","room_assignment":["purple","brown","ivory","olive","yellow","blue","red","cyan","pink","orange","grey","green"],"door_color_assignment":["white","black"],"door_generator_assignment":[0,1],"goal":7,"start":3,"action_noise":0.15,"location_history":"[3,7]","action_history":"[1]","door_history":"[1]","location_rts":"[3313]","trial_type":"two-door-navigation","trial_index":2,"time_elapsed":21511,"internal_node_id":"0.0-2.0-0.0"},{"group":"dicyclic group of order 12","room_assignment":["purple","brown","ivory","olive","yellow","blue","red","cyan","pink","orange","grey","green"],"door_color_assignment":["white","black"],"door_generator_assignment":[0,1],"goal":5,"start":7,"action_noise":0.15,"location_history":"[7,8,5]","action_history":"[0,0]","door_history":"[0,0]","location_rts":"[2569,830]","trial_type":"two-door-navigation","trial_index":3,"time_elapsed":30504,"internal_node_id":"0.0-2.0-1.0"},{"group":"dicyclic group of order 12","room_assignment":["purple","brown","ivory","olive","yellow","blue","red","cyan","pink","orange","grey","green"],"door_color_assignment":["white","black"],"door_generator_assignment":[0,1],"goal":0,"start":5,"action_noise":0.15,"location_history":"[5,9,1,2,6,11,3,7,8,5,10,7,11,3,7,8,0]","action_history":"[1,0,0,1,1,1,0,1,0,0,0,1,1,1,0,1]","door_history":"[1,0,0,1,1,1,0,1,0,0,0,1,1,1,0,1]","location_rts":"[1890,627,399,732,349,384,964,895,1535,473,348,649,424,353,673,1066]","trial_type":"two-door-navigation","trial_index":4,"time_elapsed":62096,"internal_node_id":"0.0-2.0-2.0"},{"group":"dicyclic group of order 12","room_assignment":["purple","brown","ivory","olive","yellow","blue","red","cyan","pink","orange","grey","green"],"door_color_assignment":["white","black"],"door_generator_assignment":[0,1],"goal":2,"start":0,"action_noise":0.15,"location_history":"[0,1,5,9,1,2]","action_history":"[0,1,1,1,0]","door_history":"[0,1,1,1,0]","location_rts":"[1912,614,406,360,431]","trial_type":"two-door-navigation","trial_index":5,"time_elapsed":74396,"internal_node_id":"0.0-2.0-3.0"},{"group":"dicyclic group of order 12","room_assignment":["purple","brown","ivory","olive","yellow","blue","red","cyan","pink","orange","grey","green"],"door_color_assignment":["white","black"],"door_generator_assignment":[0,1],"goal":10,"start":2,"action_noise":0.15,"location_history":"[2,6,11,4,8,5,9,6,10]","action_history":"[1,0,0,0,0,1,0,1]","door_history":"[1,0,0,0,0,1,0,1]","location_rts":"[21381,391,365,341,1248,611,57979,470]","trial_type":"two-door-navigation","trial_index":6,"time_elapsed":169226,"internal_node_id":"0.0-2.0-4.0"},{"group":"dicyclic group of order 12","room_assignment":["purple","brown","ivory","olive","yellow","blue","red","cyan","pink","orange","grey","green"],"door_color_assignment":["white","black"],"door_generator_assignment":[0,1],"goal":8,"start":10,"action_noise":0.15,"location_history":"[10,7,8]","action_history":"[0,0]","door_history":"[0,0]","location_rts":"[12056,671]","trial_type":"two-door-navigation","trial_index":7,"time_elapsed":187522,"internal_node_id":"0.0-2.0-5.0"},{"group":"dicyclic group of order 12","room_assignment":["purple","brown","ivory","olive","yellow","blue","red","cyan","pink","orange","grey","green"],"door_color_assignment":["white","black"],"door_generator_assignment":[0,1],"goal":11,"start":8,"action_noise":0.15,"location_history":"[8,0,4,8,5,10,7,8,0,1,2,3,7,8,5,10,2,6,10,7,8,0,1,5,10,2,3,7,8,5,9,6,11]","action_history":"[1,1,1,0,0,0,1,1,0,0,0,1,0,1,0,1,1,1,0,0,1,0,1,0,1,0,0,0,0,1,0,0]","door_history":"[1,1,1,0,0,0,1,1,0,0,0,1,0,1,0,1,1,1,0,0,1,0,1,0,1,0,0,0,0,1,0,0]","location_rts":"[18799,324,354,419,850,333,631,765,533,359,309,922,480,336,230,344,407,284,758,375,949,379,432,376,263,339,2222,269,328,325,359,326]","trial_type":"two-door-navigation","trial_index":8,"time_elapsed":257945,"internal_node_id":"0.0-2.0-6.0"},{"group":"dicyclic group of order 12","room_assignment":["purple","brown","ivory","olive","yellow","blue","red","cyan","pink","orange","grey","green"],"door_color_assignment":["white","black"],"door_generator_assignment":[0,1],"goal":6,"start":11,"action_noise":0.15,"location_history":"[11,4,8,5,10,2,3,7,8,5,9,6]","action_history":"[0,1,1,0,1,1,1,0,0,1,0]","door_history":"[0,1,1,0,1,1,1,0,0,1,0]","location_rts":"[2191,391,384,387,895,373,260,293,601,743,774]","trial_type":"two-door-navigation","trial_index":9,"time_elapsed":279855,"internal_node_id":"0.0-2.0-7.0"},{"group":"dicyclic group of order 12","room_assignment":["purple","brown","ivory","olive","yellow","blue","red","cyan","pink","orange","grey","green"],"door_color_assignment":["white","black"],"door_generator_assignment":[0,1],"goal":4,"start":6,"action_noise":0.15,"location_history":"[6,11,4]","action_history":"[0,1]","door_history":"[0,1]","location_rts":"[881,629]","trial_type":"two-door-navigation","trial_index":10,"time_elapsed":286898,"internal_node_id":"0.0-2.0-8.0"},{"group":"dicyclic group of order 12","room_assignment":["purple","brown","ivory","olive","yellow","blue","red","cyan","pink","orange","grey","green"],"door_color_assignment":["white","black"],"door_generator_assignment":[0,1],"goal":1,"start":4,"action_noise":0.15,"location_history":"[4,9,6,11,4,9,1]","action_history":"[1,0,1,0,0,1]","door_history":"[1,0,1,0,0,1]","location_rts":"[1060,419,401,622,325,1128]","trial_type":"two-door-navigation","trial_index":11,"time_elapsed":300471,"internal_node_id":"0.0-2.0-9.0"},{"group":"dicyclic group of order 12","room_assignment":["purple","brown","ivory","olive","yellow","blue","red","cyan","pink","orange","grey","green"],"door_color_assignment":["white","black"],"door_generator_assignment":[0,1],"goal":9,"start":1,"action_noise":0.15,"location_history":"[1,2,6,11,4,9]","action_history":"[0,1,0,0,0]","door_history":"[0,1,0,0,0]","location_rts":"[705,473,593,333,391]","trial_type":"two-door-navigation","trial_index":12,"time_elapsed":311558,"internal_node_id":"0.0-2.0-10.0"},{"group":"dicyclic group of order 12","room_assignment":["purple","brown","ivory","olive","yellow","blue","red","cyan","pink","orange","grey","green"],"door_color_assignment":["white","black"],"door_generator_assignment":[0,1],"goal":10,"start":9,"action_noise":0.15,"location_history":"[9,1,2,3,0,4,9,1,2,6,10]","action_history":"[1,0,0,0,1,0,0,0,1,1]","door_history":"[1,0,0,0,1,0,0,0,1,1]","location_rts":"[491,1325,348,377,673,878,397,478,456,423]","trial_type":"two-door-navigation","trial_index":13,"time_elapsed":331020,"internal_node_id":"0.0-2.0-11.0"},{"group":"dicyclic group of order 12","room_assignment":["purple","brown","ivory","olive","yellow","blue","red","cyan","pink","orange","grey","green"],"door_color_assignment":["white","black"],"door_generator_assignment":[0,1],"goal":2,"start":10,"action_noise":0.15,"location_history":"[10,7,11,3,0,4,8,0,4,9,6,10,2]","action_history":"[0,1,0,0,0,1,1,1,0,0,1,1]","door_history":"[0,1,0,0,0,1,1,1,0,0,1,1]","location_rts":"[820,1074,476,291,517,329,399,269,1276,423,329,491]","trial_type":"two-door-navigation","trial_index":14,"time_elapsed":353519,"internal_node_id":"0.0-2.0-12.0"},{"group":"dicyclic group of order 12","room_assignment":["purple","brown","ivory","olive","yellow","blue","red","cyan","pink","orange","grey","green"],"door_color_assignment":["white","black"],"door_generator_assignment":[0,1],"goal":0,"start":2,"action_noise":0.15,"location_history":"[2,3,7,11,3,0]","action_history":"[0,1,1,1,0]","door_history":"[0,1,1,1,0]","location_rts":"[840,766,325,264,361]","trial_type":"two-door-navigation","trial_index":15,"time_elapsed":364649,"internal_node_id":"0.0-2.0-13.0"},{"group":"dicyclic group of order 12","room_assignment":["purple","brown","ivory","olive","yellow","blue","red","cyan","pink","orange","grey","green"],"door_color_assignment":["white","black"],"door_generator_assignment":[0,1],"goal":9,"start":0,"action_noise":0.15,"location_history":"[0,1,5,10,2,3,7,8,0,1,2,3,7,8,5,10,2,3,0,1,2,6,10,7,8,0,1,2,3,0,4,9]","action_history":"[0,1,1,1,0,0,0,1,0,0,0,1,0,0,1,1,0,0,0,1,1,1,0,0,1,1,0,0,0,1,0]","door_history":"[0,1,1,1,0,0,0,1,0,0,0,1,0,0,1,1,0,0,0,1,1,1,0,0,1,1,0,0,0,1,0]","location_rts":"[1143,536,351,352,385,534,313,857,719,371,322,4461,556,444,1810,11699,348,286,247,385,359,397,392,462,368,36452,883,399,302,741,900]","trial_type":"two-door-navigation","trial_index":16,"time_elapsed":467825,"internal_node_id":"0.0-2.0-14.0"},{"group":"dicyclic group of order 12","room_assignment":["purple","brown","ivory","olive","yellow","blue","red","cyan","pink","orange","grey","green"],"door_color_assignment":["white","black"],"door_generator_assignment":[0,1],"goal":8,"start":9,"action_noise":0.15,"location_history":"[9,6,11,4,9,1,5,10,7,8]","action_history":"[1,0,0,0,1,1,0,0,0]","door_history":"[1,0,0,0,1,1,0,0,0]","location_rts":"[1918,734,423,615,744,457,386,368,320]","trial_type":"two-door-navigation","trial_index":17,"time_elapsed":486570,"internal_node_id":"0.0-2.0-15.0"},{"group":"dicyclic group of order 12","room_assignment":["purple","brown","ivory","olive","yellow","blue","red","cyan","pink","orange","grey","green"],"door_color_assignment":["white","black"],"door_generator_assignment":[0,1],"goal":6,"start":8,"action_noise":0.15,"location_history":"[8,0,4,8,5,9,6]","action_history":"[0,1,1,1,0,0]","door_history":"[0,1,1,1,0,0]","location_rts":"[1141,611,855,321,369,447]","trial_type":"two-door-navigation","trial_index":18,"time_elapsed":499999,"internal_node_id":"0.0-2.0-16.0"},{"group":"dicyclic group of order 12","room_assignment":["purple","brown","ivory","olive","yellow","blue","red","cyan","pink","orange","grey","green"],"door_color_assignment":["white","black"],"door_generator_assignment":[0,1],"goal":1,"start":6,"action_noise":0.15,"location_history":"[6,10,2,6,10,7,8,0,4,9,6,11,3,0,4,8,0,4,8,0,1]","action_history":"[0,1,1,1,0,0,1,1,0,0,0,1,1,1,1,1,1,1,1,1]","door_history":"[0,1,1,1,0,0,1,1,0,0,0,1,1,1,1,1,1,1,1,1]","location_rts":"[976,550,401,353,457,369,672,434,772,2246,399,426,1871,499,489,1093,382,334,335,476]","trial_type":"two-door-navigation","trial_index":19,"time_elapsed":537604,"internal_node_id":"0.0-2.0-17.0"},{"group":"dicyclic group of order 12","room_assignment":["purple","brown","ivory","olive","yellow","blue","red","cyan","pink","orange","grey","green"],"door_color_assignment":["white","black"],"door_generator_assignment":[0,1],"goal":4,"start":1,"action_noise":0.15,"location_history":"[1,5,10,2,3,0,1,5,9,6,11,4]","action_history":"[1,0,1,0,0,0,1,1,1,0,0]","door_history":"[1,0,1,0,0,0,1,1,1,0,0]","location_rts":"[913,752,742,593,325,260,251,350,286,648,353]","trial_type":"two-door-navigation","trial_index":20,"time_elapsed":558087,"internal_node_id":"0.0-2.0-18.0"},{"group":"dicyclic group of order 12","room_assignment":["purple","brown","ivory","olive","yellow","blue","red","cyan","pink","orange","grey","green"],"door_color_assignment":["white","black"],"door_generator_assignment":[0,1],"goal":11,"start":4,"action_noise":0.15,"location_history":"[4,8,5,9,1,5,10,2,3,7,11]","action_history":"[1,0,0,0,1,1,1,0,1,1]","door_history":"[1,0,0,0,1,1,1,0,1,1]","location_rts":"[1233,783,346,251,382,391,396,536,1744,432]","trial_type":"two-door-navigation","trial_index":21,"time_elapsed":578331,"internal_node_id":"0.0-2.0-19.0"},{"group":"dicyclic group of order 12","room_assignment":["purple","brown","ivory","olive","yellow","blue","red","cyan","pink","orange","grey","green"],"door_color_assignment":["white","black"],"door_generator_assignment":[0,1],"goal":3,"start":11,"action_noise":0.15,"location_history":"[11,3]","action_history":"[0]","door_history":"[0]","location_rts":"[1189]","trial_type":"two-door-navigation","trial_index":22,"time_elapsed":584065,"internal_node_id":"0.0-2.0-20.0"},{"group":"dicyclic group of order 12","room_assignment":["purple","brown","ivory","olive","yellow","blue","red","cyan","pink","orange","grey","green"],"door_color_assignment":["white","black"],"door_generator_assignment":[0,1],"goal":5,"start":3,"action_noise":0.15,"location_history":"[3,0,1,2,3,0,1,2,3,7,8,5]","action_history":"[0,0,1,1,1,0,0,0,1,0,0]","door_history":"[0,0,1,1,1,0,0,0,1,0,0]","location_rts":"[2501,370,453,361,368,485,353,416,308,728,358]","trial_type":"two-door-navigation","trial_index":23,"time_elapsed":605517,"internal_node_id":"0.0-2.0-21.0"},{"group":"dicyclic group of order 12","room_assignment":["purple","brown","ivory","olive","yellow","blue","red","cyan","pink","orange","grey","green"],"door_color_assignment":["white","black"],"door_generator_assignment":[0,1],"goal":7,"start":5,"action_noise":0.15,"location_history":"[5,9,6,11,3,0,4,8,0,4,9,1,2,6,11,3,7]","action_history":"[1,0,0,1,1,0,1,1,1,0,1,0,0,0,1,1]","door_history":"[1,0,0,1,1,0,1,1,1,0,1,0,0,0,1,1]","location_rts":"[1181,639,404,704,431,361,342,421,1080,351,1450,460,470,302,419,330]","trial_type":"two-door-navigation","trial_index":24,"time_elapsed":634674,"internal_node_id":"0.0-2.0-22.0"},{"group":"dicyclic group of order 12","room_assignment":["purple","brown","ivory","olive","yellow","blue","red","cyan","pink","orange","grey","green"],"door_color_assignment":["white","black"],"door_generator_assignment":[0,1],"goal":3,"start":7,"action_noise":0.15,"location_history":"[7,8,5,10,2,6,10,7,8,5,9,1,2,3]","action_history":"[0,0,1,1,1,0,0,0,1,1,1,0,0]","door_history":"[0,0,1,1,1,0,0,0,1,1,1,0,0]","location_rts":"[1134,719,423,479,368,310,359,406,706,444,345,1076,670]","trial_type":"two-door-navigation","trial_index":25,"time_elapsed":658968,"internal_node_id":"0.0-2.0-23.0"},{"group":"dicyclic group of order 12","room_assignment":["purple","brown","ivory","olive","yellow","blue","red","cyan","pink","orange","grey","green"],"door_color_assignment":["white","black"],"door_generator_assignment":[0,1],"goal":4,"start":3,"action_noise":0.15,"location_history":"[3,7,8,5,10,2,3,7,11,3,7,11,3,7,8,0,4]","action_history":"[1,0,0,0,1,1,1,0,1,1,1,0,1,1,1,0]","door_history":"[1,0,0,0,1,1,1,0,1,1,1,0,1,1,1,0]","location_rts":"[1477,576,273,242,713,365,533,302,746,358,360,279,254,366,486,349]","trial_type":"two-door-navigation","trial_index":26,"time_elapsed":686462,"internal_node_id":"0.0-2.0-24.0"},{"group":"dicyclic group of order 12","room_assignment":["purple","brown","ivory","olive","yellow","blue","red","cyan","pink","orange","grey","green"],"door_color_assignment":["white","black"],"door_generator_assignment":[0,1],"goal":8,"start":4,"action_noise":0.15,"location_history":"[4,9,1,2,6,10,2,3,0,4,8]","action_history":"[0,0,0,1,1,1,0,1,1,1]","door_history":"[0,0,0,1,1,1,0,1,1,1]","location_rts":"[2530,383,507,372,1249,353,301,364,365,362]","trial_type":"two-door-navigation","trial_index":27,"time_elapsed":706952,"internal_node_id":"0.0-2.0-25.0"},{"group":"dicyclic group of order 12","room_assignment":["purple","brown","ivory","olive","yellow","blue","red","cyan","pink","orange","grey","green"],"door_color_assignment":["white","black"],"door_generator_assignment":[0,1],"goal":6,"start":8,"action_noise":0.15,"location_history":"[8,0,1,5,10,7,8,0,4,8,5,9,1,2,3,0,1,5,9,1,5,9,6]","action_history":"[1,1,1,0,0,0,1,0,0,0,1,1,1,0,1,0,1,0,1,1,1,0]","door_history":"[1,1,1,0,0,0,1,0,0,0,1,1,1,0,1,0,1,0,1,1,1,0]","location_rts":"[6062,1451,343,362,272,220,245,369,270,421,581,477,318,292,416,152,357,248,940,380,336,367]","trial_type":"two-door-navigation","trial_index":28,"time_elapsed":748035,"internal_node_id":"0.0-2.0-26.0"},{"group":"dicyclic group of order 12","room_assignment":["purple","brown","ivory","olive","yellow","blue","red","cyan","pink","orange","grey","green"],"door_color_assignment":["white","black"],"door_generator_assignment":[0,1],"goal":1,"start":6,"action_noise":0.15,"location_history":"[6,10,7,8,0,4,8,0,1]","action_history":"[1,0,0,0,1,1,1,0]","door_history":"[1,0,0,0,1,1,1,0]","location_rts":"[2875,836,482,291,271,318,287,250]","trial_type":"two-door-navigation","trial_index":29,"time_elapsed":765315,"internal_node_id":"0.0-2.0-27.0"},{"group":"dicyclic group of order 12","room_assignment":["purple","brown","ivory","olive","yellow","blue","red","cyan","pink","orange","grey","green"],"door_color_assignment":["white","black"],"door_generator_assignment":[0,1],"goal":5,"start":1,"action_noise":0.15,"location_history":"[1,5]","action_history":"[1]","door_history":"[1]","location_rts":"[923]","trial_type":"two-door-navigation","trial_index":30,"time_elapsed":770756,"internal_node_id":"0.0-2.0-28.0"},{"group":"dicyclic group of order 12","room_assignment":["purple","brown","ivory","olive","yellow","blue","red","cyan","pink","orange","grey","green"],"door_color_assignment":["white","black"],"door_generator_assignment":[0,1],"goal":9,"start":5,"action_noise":0.15,"location_history":"[5,10,7,11,4,9]","action_history":"[0,0,0,0,0]","door_history":"[0,0,0,0,0]","location_rts":"[1309,265,260,503,460]","trial_type":"two-door-navigation","trial_index":31,"time_elapsed":782209,"internal_node_id":"0.0-2.0-29.0"},{"group":"dicyclic group of order 12","room_assignment":["purple","brown","ivory","olive","yellow","blue","red","cyan","pink","orange","grey","green"],"door_color_assignment":["white","black"],"door_generator_assignment":[0,1],"goal":10,"start":9,"action_noise":0.15,"location_history":"[9,1,2,3,0,1,2,3,0,1,5,10]","action_history":"[1,0,0,0,0,0,0,0,0,1,0]","door_history":"[1,0,0,0,0,0,0,0,0,1,0]","location_rts":"[1015,581,296,463,291,226,278,246,198,302,555]","trial_type":"two-door-navigation","trial_index":32,"time_elapsed":801496,"internal_node_id":"0.0-2.0-30.0"},{"group":"dicyclic group of order 12","room_assignment":["purple","brown","ivory","olive","yellow","blue","red","cyan","pink","orange","grey","green"],"door_color_assignment":["white","black"],"door_generator_assignment":[0,1],"goal":0,"start":10,"action_noise":0.15,"location_history":"[10,7,11,4,9,6,11,3,7,11,3,7,11,3,7,11,4,8,5,9,6,10,2,6,10,2,6,10,7,8,5,10,7,11,4,8,0]","action_history":"[0,1,1,0,0,0,1,1,1,1,1,1,1,1,1,0,1,1,1,0,1,1,1,0,1,1,1,0,0,0,0,0,1,0,1,1]","door_history":"[0,1,1,0,0,0,1,1,1,1,1,1,1,1,1,0,1,1,1,0,1,1,1,0,1,1,1,0,0,0,0,0,1,0,1,1]","location_rts":"[709,448,320,554,453,320,665,292,269,273,356,411,312,342,256,381,334,406,425,672,1298,378,267,301,232,352,246,368,364,231,177,239,264,312,310,551]","trial_type":"two-door-navigation","trial_index":33,"time_elapsed":856233,"internal_node_id":"0.0-2.0-31.0"},{"group":"dicyclic group of order 12","room_assignment":["purple","brown","ivory","olive","yellow","blue","red","cyan","pink","orange","grey","green"],"door_color_assignment":["white","black"],"door_generator_assignment":[0,1],"goal":7,"start":0,"action_noise":0.15,"location_history":"[0,1,2,3,0,4,9,6,11,3,0,1,2,6,10,2,6,11,3,0,4,8,0,1,2,6,10,7]","action_history":"[0,1,0,0,0,0,0,0,0,0,0,0,0,1,1,1,1,1,0,1,1,1,1,1,1,1,1]","door_history":"[0,1,0,0,0,0,0,0,0,0,0,0,0,1,1,1,1,1,0,1,1,1,1,1,1,1,1]","location_rts":"[1286,728,725,243,202,235,251,246,236,244,248,251,208,369,143,245,253,187,266,344,269,367,292,246,202,142,233]","trial_type":"two-door-navigation","trial_index":34,"time_elapsed":895954,"internal_node_id":"0.0-2.0-32.0"},{"group":"dicyclic group of order 12","room_assignment":["purple","brown","ivory","olive","yellow","blue","red","cyan","pink","orange","grey","green"],"door_color_assignment":["white","black"],"door_generator_assignment":[0,1],"goal":11,"start":7,"action_noise":0.15,"location_history":"[7,11]","action_history":"[1]","door_history":"[1]","location_rts":"[1125]","trial_type":"two-door-navigation","trial_index":35,"time_elapsed":901593,"internal_node_id":"0.0-2.0-33.0"},{"group":"dicyclic group of order 12","room_assignment":["purple","brown","ivory","olive","yellow","blue","red","cyan","pink","orange","grey","green"],"door_color_assignment":["white","black"],"door_generator_assignment":[0,1],"goal":2,"start":11,"action_noise":0.15,"location_history":"[11,4,8,0,1,2]","action_history":"[0,0,0,0,0]","door_history":"[0,0,0,0,0]","location_rts":"[1407,318,273,301,244]","trial_type":"two-door-navigation","trial_index":36,"time_elapsed":912744,"internal_node_id":"0.0-2.0-34.0"},{"view_history":"[{\"page_index\":0,\"viewing_time\":25875}]","rt":25875,"trial_type":"instructions","trial_index":37,"time_elapsed":939619,"internal_node_id":"0.0-3.0"},{"view_history":"[{\"page_index\":0,\"viewing_time\":11061},{\"page_index\":1,\"viewing_time\":3534}]","rt":14596,"trial_type":"instructions","trial_index":38,"time_elapsed":955215,"internal_node_id":"0.0-4.0"},{"group":"dicyclic group of order 12","fractal_assignment":["../images/grn_red.png","../images/grn_blu.png","../images/grn_prp.png","../images/org_blu.png","../images/red_prp.png","../images/ylw_slt.png","../images/cyn_red.png","../images/wht_red.png","../images/ylw_pnk.png","../images/blu_wht.png","../images/gry_blk.png","../images/pnk_blu.png"],"mutagen_generator_assignment":[1,0],"goal":7,"start":3,"action_noise":0.15,"location_history":"[3,7]","action_history":"[1]","mutagen_history":"[0]","location_rts":"[1978]","trial_type":"fractal-mutation","trial_index":39,"time_elapsed":961868,"internal_node_id":"0.0-5.0-0.0"},{"group":"dicyclic group of order 12","fractal_assignment":["../images/grn_red.png","../images/grn_blu.png","../images/grn_prp.png","../images/org_blu.png","../images/red_prp.png","../images/ylw_slt.png","../images/cyn_red.png","../images/wht_red.png","../images/ylw_pnk.png","../images/blu_wht.png","../images/gry_blk.png","../images/pnk_blu.png"],"mutagen_generator_assignment":[1,0],"goal":5,"start":7,"action_noise":0.15,"location_history":"[7,11,4,9,1,2,6,10,7,11,3,7,8,5]","action_history":"[0,1,1,1,0,1,1,0,1,1,1,0,0]","mutagen_history":"[1,0,0,0,1,0,0,1,0,0,0,1,1]","location_rts":"[742,745,402,351,702,415,525,667,435,563,442,305,313]","trial_type":"fractal-mutation","trial_index":40,"time_elapsed":986545,"internal_node_id":"0.0-5.0-1.0"},{"group":"dicyclic group of order 12","fractal_assignment":["../images/grn_red.png","../images/grn_blu.png","../images/grn_prp.png","../images/org_blu.png","../images/red_prp.png","../images/ylw_slt.png","../images/cyn_red.png","../images/wht_red.png","../images/ylw_pnk.png","../images/blu_wht.png","../images/gry_blk.png","../images/pnk_blu.png"],"mutagen_generator_assignment":[1,0],"goal":0,"start":5,"action_noise":0.15,"location_history":"[5,9,6,11,4,8,5,10,2,3,0]","action_history":"[1,0,0,0,1,0,0,0,1,0]","mutagen_history":"[0,1,1,1,0,1,1,1,0,1]","location_rts":"[999,949,412,447,375,410,686,406,514,730]","trial_type":"fractal-mutation","trial_index":41,"time_elapsed":1007154,"internal_node_id":"0.0-5.0-2.0"},{"group":"dicyclic group of order 12","fractal_assignment":["../images/grn_red.png","../images/grn_blu.png","../images/grn_prp.png","../images/org_blu.png","../images/red_prp.png","../images/ylw_slt.png","../images/cyn_red.png","../images/wht_red.png","../images/ylw_pnk.png","../images/blu_wht.png","../images/gry_blk.png","../images/pnk_blu.png"],"mutagen_generator_assignment":[1,0],"goal":2,"start":0,"action_noise":0.15,"location_history":"[0,1,2]","action_history":"[0,1]","mutagen_history":"[1,0]","location_rts":"[1009,734]","trial_type":"fractal-mutation","trial_index":42,"time_elapsed":1014618,"internal_node_id":"0.0-5.0-3.0"},{"group":"dicyclic group of order 12","fractal_assignment":["../images/grn_red.png","../images/grn_blu.png","../images/grn_prp.png","../images/org_blu.png","../images/red_prp.png","../images/ylw_slt.png","../images/cyn_red.png","../images/wht_red.png","../images/ylw_pnk.png","../images/blu_wht.png","../images/gry_blk.png","../images/pnk_blu.png"],"mutagen_generator_assignment":[1,0],"goal":10,"start":2,"action_noise":0.15,"location_history":"[2,3,7,11,3,0,1,2,6,10]","action_history":"[0,0,0,1,0,0,0,1,1]","mutagen_history":"[1,1,1,0,1,1,1,0,0]","location_rts":"[871,415,453,482,334,510,496,462,339]","trial_type":"fractal-mutation","trial_index":43,"time_elapsed":1032354,"internal_node_id":"0.0-5.0-4.0"},{"group":"dicyclic group of order 12","fractal_assignment":["../images/grn_red.png","../images/grn_blu.png","../images/grn_prp.png","../images/org_blu.png","../images/red_prp.png","../images/ylw_slt.png","../images/cyn_red.png","../images/wht_red.png","../images/ylw_pnk.png","../images/blu_wht.png","../images/gry_blk.png","../images/pnk_blu.png"],"mutagen_generator_assignment":[1,0],"goal":8,"start":10,"action_noise":0.15,"location_history":"[10,2,6,10,2,6,11,3,0,4,8]","action_history":"[0,1,1,1,1,0,1,0,1,1]","mutagen_history":"[1,0,0,0,0,1,0,1,0,0]","location_rts":"[1002,479,415,527,893,864,546,454,463,472]","trial_type":"fractal-mutation","trial_index":44,"time_elapsed":1052880,"internal_node_id":"0.0-5.0-5.0"},{"group":"dicyclic group of order 12","fractal_assignment":["../images/grn_red.png","../images/grn_blu.png","../images/grn_prp.png","../images/org_blu.png","../images/red_prp.png","../images/ylw_slt.png","../images/cyn_red.png","../images/wht_red.png","../images/ylw_pnk.png","../images/blu_wht.png","../images/gry_blk.png","../images/pnk_blu.png"],"mutagen_generator_assignment":[1,0],"goal":11,"start":8,"action_noise":0.15,"location_history":"[8,5,9,1,5,9,1,5,9,6,11]","action_history":"[0,1,1,1,0,1,1,1,0,0]","mutagen_history":"[1,0,0,0,1,0,0,0,1,1]","location_rts":"[660,445,419,680,720,324,497,587,378,546]","trial_type":"fractal-mutation","trial_index":45,"time_elapsed":1072497,"internal_node_id":"0.0-5.0-6.0"},{"group":"dicyclic group of order 12","fractal_assignment":["../images/grn_red.png","../images/grn_blu.png","../images/grn_prp.png","../images/org_blu.png","../images/red_prp.png","../images/ylw_slt.png","../images/cyn_red.png","../images/wht_red.png","../images/ylw_pnk.png","../images/blu_wht.png","../images/gry_blk.png","../images/pnk_blu.png"],"mutagen_generator_assignment":[1,0],"goal":6,"start":11,"action_noise":0.15,"location_history":"[11,4,8,0,4,9,1,5,9,6]","action_history":"[0,1,1,1,0,1,1,1,0]","mutagen_history":"[1,0,0,0,1,0,0,0,1]","location_rts":"[2072,470,442,408,594,364,470,431,312]","trial_type":"fractal-mutation","trial_index":46,"time_elapsed":1091361,"internal_node_id":"0.0-5.0-7.0"},{"group":"dicyclic group of order 12","fractal_assignment":["../images/grn_red.png","../images/grn_blu.png","../images/grn_prp.png","../images/org_blu.png","../images/red_prp.png","../images/ylw_slt.png","../images/cyn_red.png","../images/wht_red.png","../images/ylw_pnk.png","../images/blu_wht.png","../images/gry_blk.png","../images/pnk_blu.png"],"mutagen_generator_assignment":[1,0],"goal":4,"start":6,"action_noise":0.15,"location_history":"[6,10,2,6,11,4]","action_history":"[1,1,0,0,0]","mutagen_history":"[0,0,1,1,1]","location_rts":"[1933,357,587,442,405]","trial_type":"fractal-mutation","trial_index":47,"time_elapsed":1104177,"internal_node_id":"0.0-5.0-8.0"},{"group":"dicyclic group of order 12","fractal_assignment":["../images/grn_red.png","../images/grn_blu.png","../images/grn_prp.png","../images/org_blu.png","../images/red_prp.png","../images/ylw_slt.png","../images/cyn_red.png","../images/wht_red.png","../images/ylw_pnk.png","../images/blu_wht.png","../images/gry_blk.png","../images/pnk_blu.png"],"mutagen_generator_assignment":[1,0],"goal":1,"start":4,"action_noise":0.15,"location_history":"[4,9,1]","action_history":"[0,1]","mutagen_history":"[1,0]","location_rts":"[1053,478]","trial_type":"fractal-mutation","trial_index":48,"time_elapsed":1111300,"internal_node_id":"0.0-5.0-9.0"},{"group":"dicyclic group of order 12","fractal_assignment":["../images/grn_red.png","../images/grn_blu.png","../images/grn_prp.png","../images/org_blu.png","../images/red_prp.png","../images/ylw_slt.png","../images/cyn_red.png","../images/wht_red.png","../images/ylw_pnk.png","../images/blu_wht.png","../images/gry_blk.png","../images/pnk_blu.png"],"mutagen_generator_assignment":[1,0],"goal":9,"start":1,"action_noise":0.15,"location_history":"[1,2,3,7,8,5,9]","action_history":"[0,1,1,1,0,1]","mutagen_history":"[1,0,0,0,1,0]","location_rts":"[1189,365,419,472,363,1107]","trial_type":"fractal-mutation","trial_index":49,"time_elapsed":1125204,"internal_node_id":"0.0-5.0-10.0"},{"group":"dicyclic group of order 12","fractal_assignment":["../images/grn_red.png","../images/grn_blu.png","../images/grn_prp.png","../images/org_blu.png","../images/red_prp.png","../images/ylw_slt.png","../images/cyn_red.png","../images/wht_red.png","../images/ylw_pnk.png","../images/blu_wht.png","../images/gry_blk.png","../images/pnk_blu.png"],"mutagen_generator_assignment":[1,0],"goal":10,"start":9,"action_noise":0.15,"location_history":"[9,6,10]","action_history":"[0,1]","mutagen_history":"[1,0]","location_rts":"[955,524]","trial_type":"fractal-mutation","trial_index":50,"time_elapsed":1132393,"internal_node_id":"0.0-5.0-11.0"},{"group":"dicyclic group of order 12","fractal_assignment":["../images/grn_red.png","../images/grn_blu.png","../images/grn_prp.png","../images/org_blu.png","../images/red_prp.png","../images/ylw_slt.png","../images/cyn_red.png","../images/wht_red.png","../images/ylw_pnk.png","../images/blu_wht.png","../images/gry_blk.png","../images/pnk_blu.png"],"mutagen_generator_assignment":[1,0],"goal":2,"start":10,"action_noise":0.15,"location_history":"[10,2]","action_history":"[0]","mutagen_history":"[1]","location_rts":"[1043]","trial_type":"fractal-mutation","trial_index":51,"time_elapsed":1138085,"internal_node_id":"0.0-5.0-12.0"},{"group":"dicyclic group of order 12","fractal_assignment":["../images/grn_red.png","../images/grn_blu.png","../images/grn_prp.png","../images/org_blu.png","../images/red_prp.png","../images/ylw_slt.png","../images/cyn_red.png","../images/wht_red.png","../images/ylw_pnk.png","../images/blu_wht.png","../images/gry_blk.png","../images/pnk_blu.png"],"mutagen_generator_assignment":[1,0],"goal":0,"start":2,"action_noise":0.15,"location_history":"[2,3,7,8,5,10,2,6,10,2,3,7,8,5,9,1,2,3,7,8,5,10,7,8,0]","action_history":"[1,1,0,0,0,1,0,1,1,0,0,0,0,1,0,0,0,1,1,1,0,0,0,1]","mutagen_history":"[0,0,1,1,1,0,1,0,0,1,1,1,1,0,1,1,1,0,0,0,1,1,1,0]","location_rts":"[1084,426,763,653,586,612,657,654,693,513,581,477,728,609,466,725,829,355,493,532,426,666,487,441]","trial_type":"fractal-mutation","trial_index":52,"time_elapsed":1183137,"internal_node_id":"0.0-5.0-13.0"},{"group":"dicyclic group of order 12","fractal_assignment":["../images/grn_red.png","../images/grn_blu.png","../images/grn_prp.png","../images/org_blu.png","../images/red_prp.png","../images/ylw_slt.png","../images/cyn_red.png","../images/wht_red.png","../images/ylw_pnk.png","../images/blu_wht.png","../images/gry_blk.png","../images/pnk_blu.png"],"mutagen_generator_assignment":[1,0],"goal":9,"start":0,"action_noise":0.15,"location_history":"[0,1,5,10,2,6,11,4,8,0,1,2,3,7,11,4,8,5,9]","action_history":"[0,1,0,1,1,0,1,1,1,0,0,0,1,1,0,1,0,1]","mutagen_history":"[1,0,1,0,0,1,0,0,0,1,1,1,0,0,1,0,1,0]","location_rts":"[806,1087,433,396,620,560,394,490,428,461,430,635,459,660,365,421,449,355]","trial_type":"fractal-mutation","trial_index":53,"time_elapsed":1215534,"internal_node_id":"0.0-5.0-14.0"},{"group":"dicyclic group of order 12","fractal_assignment":["../images/grn_red.png","../images/grn_blu.png","../images/grn_prp.png","../images/org_blu.png","../images/red_prp.png","../images/ylw_slt.png","../images/cyn_red.png","../images/wht_red.png","../images/ylw_pnk.png","../images/blu_wht.png","../images/gry_blk.png","../images/pnk_blu.png"],"mutagen_generator_assignment":[1,0],"goal":8,"start":9,"action_noise":0.15,"location_history":"[9,1,2,6,11,3,7,8]","action_history":"[1,1,1,0,1,1,1]","mutagen_history":"[0,0,0,1,0,0,0]","location_rts":"[2363,456,801,602,673,571,423]","trial_type":"fractal-mutation","trial_index":54,"time_elapsed":1232601,"internal_node_id":"0.0-5.0-15.0"},{"group":"dicyclic group of order 12","fractal_assignment":["../images/grn_red.png","../images/grn_blu.png","../images/grn_prp.png","../images/org_blu.png","../images/red_prp.png","../images/ylw_slt.png","../images/cyn_red.png","../images/wht_red.png","../images/ylw_pnk.png","../images/blu_wht.png","../images/gry_blk.png","../images/pnk_blu.png"],"mutagen_generator_assignment":[1,0],"goal":6,"start":8,"action_noise":0.15,"location_history":"[8,5,9,1,2,6]","action_history":"[0,1,1,1,1]","mutagen_history":"[1,0,0,0,0]","location_rts":"[1785,914,406,427,1053]","trial_type":"fractal-mutation","trial_index":55,"time_elapsed":1246188,"internal_node_id":"0.0-5.0-16.0"},{"group":"dicyclic group of order 12","fractal_assignment":["../images/grn_red.png","../images/grn_blu.png","../images/grn_prp.png","../images/org_blu.png","../images/red_prp.png","../images/ylw_slt.png","../images/cyn_red.png","../images/wht_red.png","../images/ylw_pnk.png","../images/blu_wht.png","../images/gry_blk.png","../images/pnk_blu.png"],"mutagen_generator_assignment":[1,0],"goal":1,"start":6,"action_noise":0.15,"location_history":"[6,10,7,8,0,4,8,0,4,9,6,10,7,8,5,10,7,11,4,8,5,9,1]","action_history":"[1,0,0,1,1,1,1,1,0,0,0,0,0,0,0,0,1,1,1,1,1,1]","mutagen_history":"[0,1,1,0,0,0,0,0,1,1,1,1,1,1,1,1,0,0,0,0,0,0]","location_rts":"[738,412,391,443,683,533,375,200,348,429,313,374,292,461,339,253,1223,302,315,683,571,595]","trial_type":"fractal-mutation","trial_index":56,"time_elapsed":1283675,"internal_node_id":"0.0-5.0-17.0"},{"group":"dicyclic group of order 12","fractal_assignment":["../images/grn_red.png","../images/grn_blu.png","../images/grn_prp.png","../images/org_blu.png","../images/red_prp.png","../images/ylw_slt.png","../images/cyn_red.png","../images/wht_red.png","../images/ylw_pnk.png","../images/blu_wht.png","../images/gry_blk.png","../images/pnk_blu.png"],"mutagen_generator_assignment":[1,0],"goal":4,"start":1,"action_noise":0.15,"location_history":"[1,5,10,7,11,4]","action_history":"[1,0,0,1,0]","mutagen_history":"[0,1,1,0,1]","location_rts":"[2675,669,1115,485,672]","trial_type":"fractal-mutation","trial_index":57,"time_elapsed":1298216,"internal_node_id":"0.0-5.0-18.0"},{"group":"dicyclic group of order 12","fractal_assignment":["../images/grn_red.png","../images/grn_blu.png","../images/grn_prp.png","../images/org_blu.png","../images/red_prp.png","../images/ylw_slt.png","../images/cyn_red.png","../images/wht_red.png","../images/ylw_pnk.png","../images/blu_wht.png","../images/gry_blk.png","../images/pnk_blu.png"],"mutagen_generator_assignment":[1,0],"goal":11,"start":4,"action_noise":0.15,"location_history":"[4,8,5,9,1,2,6,10,2,6,11]","action_history":"[1,0,1,1,0,1,1,1,0,0]","mutagen_history":"[0,1,0,0,1,0,0,0,1,1]","location_rts":"[807,441,691,407,1122,672,418,387,734,396]","trial_type":"fractal-mutation","trial_index":58,"time_elapsed":1318691,"internal_node_id":"0.0-5.0-19.0"},{"group":"dicyclic group of order 12","fractal_assignment":["../images/grn_red.png","../images/grn_blu.png","../images/grn_prp.png","../images/org_blu.png","../images/red_prp.png","../images/ylw_slt.png","../images/cyn_red.png","../images/wht_red.png","../images/ylw_pnk.png","../images/blu_wht.png","../images/gry_blk.png","../images/pnk_blu.png"],"mutagen_generator_assignment":[1,0],"goal":3,"start":11,"action_noise":0.15,"location_history":"[11,3]","action_history":"[1]","mutagen_history":"[0]","location_rts":"[791]","trial_type":"fractal-mutation","trial_index":59,"time_elapsed":1324038,"internal_node_id":"0.0-5.0-20.0"},{"group":"dicyclic group of order 12","fractal_assignment":["../images/grn_red.png","../images/grn_blu.png","../images/grn_prp.png","../images/org_blu.png","../images/red_prp.png","../images/ylw_slt.png","../images/cyn_red.png","../images/wht_red.png","../images/ylw_pnk.png","../images/blu_wht.png","../images/gry_blk.png","../images/pnk_blu.png"],"mutagen_generator_assignment":[1,0],"goal":5,"start":3,"action_noise":0.15,"location_history":"[3,0,4,9,1,5]","action_history":"[0,1,0,1,1]","mutagen_history":"[1,0,1,0,0]","location_rts":"[991,389,503,464,1118]","trial_type":"fractal-mutation","trial_index":60,"time_elapsed":1336577,"internal_node_id":"0.0-5.0-21.0"},{"group":"dicyclic group of order 12","fractal_assignment":["../images/grn_red.png","../images/grn_blu.png","../images/grn_prp.png","../images/org_blu.png","../images/red_prp.png","../images/ylw_slt.png","../images/cyn_red.png","../images/wht_red.png","../images/ylw_pnk.png","../images/blu_wht.png","../images/gry_blk.png","../images/pnk_blu.png"],"mutagen_generator_assignment":[1,0],"goal":7,"start":5,"action_noise":0.15,"location_history":"[5,9,1,5,9,1,5,9,6,11,4,8,0,1,2,6,10,2,3,7]","action_history":"[1,1,1,1,1,0,1,0,0,0,1,1,1,0,1,1,1,0,1]","mutagen_history":"[0,0,0,0,0,1,0,1,1,1,0,0,0,1,0,0,0,1,0]","location_rts":"[2517,327,294,380,398,293,311,1672,544,422,604,393,473,404,639,420,560,725,254]","trial_type":"fractal-mutation","trial_index":61,"time_elapsed":1372406,"internal_node_id":"0.0-5.0-22.0"},{"group":"dicyclic group of order 12","fractal_assignment":["../images/grn_red.png","../images/grn_blu.png","../images/grn_prp.png","../images/org_blu.png","../images/red_prp.png","../images/ylw_slt.png","../images/cyn_red.png","../images/wht_red.png","../images/ylw_pnk.png","../images/blu_wht.png","../images/gry_blk.png","../images/pnk_blu.png"],"mutagen_generator_assignment":[1,0],"goal":3,"start":7,"action_noise":0.15,"location_history":"[7,8,5,9,1,5,9,1,2,6,10,2,6,10,2,3]","action_history":"[0,1,1,1,0,1,1,0,1,1,1,1,1,1,0]","mutagen_history":"[1,0,0,0,1,0,0,1,0,0,0,0,0,0,1]","location_rts":"[1611,554,439,469,416,452,461,469,462,370,275,77,38,275,324]","trial_type":"fractal-mutation","trial_index":62,"time_elapsed":1398655,"internal_node_id":"0.0-5.0-23.0"},{"group":"dicyclic group of order 12","fractal_assignment":["../images/grn_red.png","../images/grn_blu.png","../images/grn_prp.png","../images/org_blu.png","../images/red_prp.png","../images/ylw_slt.png","../images/cyn_red.png","../images/wht_red.png","../images/ylw_pnk.png","../images/blu_wht.png","../images/gry_blk.png","../images/pnk_blu.png"],"mutagen_generator_assignment":[1,0],"goal":4,"start":3,"action_noise":0.15,"location_history":"[3,7,8,0,1,2,3,7,11,4]","action_history":"[1,0,1,0,1,0,1,1,1]","mutagen_history":"[0,1,0,1,0,1,0,0,0]","location_rts":"[2027,408,871,386,654,807,1120,692,482]","trial_type":"fractal-mutation","trial_index":63,"time_elapsed":1419378,"internal_node_id":"0.0-5.0-24.0"},{"group":"dicyclic group of order 12","fractal_assignment":["../images/grn_red.png","../images/grn_blu.png","../images/grn_prp.png","../images/org_blu.png","../images/red_prp.png","../images/ylw_slt.png","../images/cyn_red.png","../images/wht_red.png","../images/ylw_pnk.png","../images/blu_wht.png","../images/gry_blk.png","../images/pnk_blu.png"],"mutagen_generator_assignment":[1,0],"goal":8,"start":4,"action_noise":0.15,"location_history":"[4,9,1,5,9,1,2,3,0,4,8]","action_history":"[0,1,1,1,1,0,0,0,1,1]","mutagen_history":"[1,0,0,0,0,1,1,1,0,0]","location_rts":"[908,735,503,555,573,306,487,495,728,998]","trial_type":"fractal-mutation","trial_index":64,"time_elapsed":1440005,"internal_node_id":"0.0-5.0-25.0"},{"group":"dicyclic group of order 12","fractal_assignment":["../images/grn_red.png","../images/grn_blu.png","../images/grn_prp.png","../images/org_blu.png","../images/red_prp.png","../images/ylw_slt.png","../images/cyn_red.png","../images/wht_red.png","../images/ylw_pnk.png","../images/blu_wht.png","../images/gry_blk.png","../images/pnk_blu.png"],"mutagen_generator_assignment":[1,0],"goal":6,"start":8,"action_noise":0.15,"location_history":"[8,5,9,1,5,9,1,5,10,2,3,0,1,2,6]","action_history":"[0,1,1,0,1,1,1,0,1,1,1,0,1,1]","mutagen_history":"[1,0,0,1,0,0,0,1,0,0,0,1,0,0]","location_rts":"[1355,491,502,799,662,767,629,804,546,418,353,363,396,438]","trial_type":"fractal-mutation","trial_index":65,"time_elapsed":1467265,"internal_node_id":"0.0-5.0-26.0"},{"group":"dicyclic group of order 12","fractal_assignment":["../images/grn_red.png","../images/grn_blu.png","../images/grn_prp.png","../images/org_blu.png","../images/red_prp.png","../images/ylw_slt.png","../images/cyn_red.png","../images/wht_red.png","../images/ylw_pnk.png","../images/blu_wht.png","../images/gry_blk.png","../images/pnk_blu.png"],"mutagen_generator_assignment":[1,0],"goal":1,"start":6,"action_noise":0.15,"location_history":"[6,11,3,7,11,4,9,1]","action_history":"[0,1,1,1,0,0,0]","mutagen_history":"[1,0,0,0,1,1,1]","location_rts":"[967,722,442,531,432,355,380]","trial_type":"fractal-mutation","trial_index":66,"time_elapsed":1482281,"internal_node_id":"0.0-5.0-27.0"},{"group":"dicyclic group of order 12","fractal_assignment":["../images/grn_red.png","../images/grn_blu.png","../images/grn_prp.png","../images/org_blu.png","../images/red_prp.png","../images/ylw_slt.png","../images/cyn_red.png","../images/wht_red.png","../images/ylw_pnk.png","../images/blu_wht.png","../images/gry_blk.png","../images/pnk_blu.png"],"mutagen_generator_assignment":[1,0],"goal":5,"start":1,"action_noise":0.15,"location_history":"[1,5]","action_history":"[1]","mutagen_history":"[0]","location_rts":"[1343]","trial_type":"fractal-mutation","trial_index":67,"time_elapsed":1488236,"internal_node_id":"0.0-5.0-28.0"},{"group":"dicyclic group of order 12","fractal_assignment":["../images/grn_red.png","../images/grn_blu.png","../images/grn_prp.png","../images/org_blu.png","../images/red_prp.png","../images/ylw_slt.png","../images/cyn_red.png","../images/wht_red.png","../images/ylw_pnk.png","../images/blu_wht.png","../images/gry_blk.png","../images/pnk_blu.png"],"mutagen_generator_assignment":[1,0],"goal":9,"start":5,"action_noise":0.15,"location_history":"[5,9]","action_history":"[1]","mutagen_history":"[0]","location_rts":"[1217]","trial_type":"fractal-mutation","trial_index":68,"time_elapsed":1494041,"internal_node_id":"0.0-5.0-29.0"},{"group":"dicyclic group of order 12","fractal_assignment":["../images/grn_red.png","../images/grn_blu.png","../images/grn_prp.png","../images/org_blu.png","../images/red_prp.png","../images/ylw_slt.png","../images/cyn_red.png","../images/wht_red.png","../images/ylw_pnk.png","../images/blu_wht.png","../images/gry_blk.png","../images/pnk_blu.png"],"mutagen_generator_assignment":[1,0],"goal":10,"start":9,"action_noise":0.15,"location_history":"[9,1,2,3,0,4,8,5,9,1,5,9,6,11,3,0,4,8,0,1,5,9,1,2,3,0,1,2,3,0,1,5,10]","action_history":"[0,0,0,1,1,1,0,1,1,1,0,1,1,1,0,1,1,1,0,1,1,1,0,0,0,0,0,1,0,0,1,0]","mutagen_history":"[1,1,1,0,0,0,1,0,0,0,1,0,0,0,1,0,0,0,1,0,0,0,1,1,1,1,1,0,1,1,0,1]","location_rts":"[1691,414,538,588,440,471,568,282,726,664,406,450,764,422,445,429,405,688,453,1508,537,483,381,409,380,421,410,436,710,523,595,395]","trial_type":"fractal-mutation","trial_index":69,"time_elapsed":1550241,"internal_node_id":"0.0-5.0-30.0"},{"group":"dicyclic group of order 12","fractal_assignment":["../images/grn_red.png","../images/grn_blu.png","../images/grn_prp.png","../images/org_blu.png","../images/red_prp.png","../images/ylw_slt.png","../images/cyn_red.png","../images/wht_red.png","../images/ylw_pnk.png","../images/blu_wht.png","../images/gry_blk.png","../images/pnk_blu.png"],"mutagen_generator_assignment":[1,0],"goal":0,"start":10,"action_noise":0.15,"location_history":"[10,2,6,11,3,7,8,5,10,2,3,7,8,0]","action_history":"[1,0,0,0,1,0,0,0,1,0,0,0,1]","mutagen_history":"[0,1,1,1,0,1,1,1,0,1,1,1,0]","location_rts":"[876,511,520,520,396,358,391,449,1288,331,526,351,558]","trial_type":"fractal-mutation","trial_index":70,"time_elapsed":1575056,"internal_node_id":"0.0-5.0-31.0"},{"group":"dicyclic group of order 12","fractal_assignment":["../images/grn_red.png","../images/grn_blu.png","../images/grn_prp.png","../images/org_blu.png","../images/red_prp.png","../images/ylw_slt.png","../images/cyn_red.png","../images/wht_red.png","../images/ylw_pnk.png","../images/blu_wht.png","../images/gry_blk.png","../images/pnk_blu.png"],"mutagen_generator_assignment":[1,0],"goal":7,"start":0,"action_noise":0.15,"location_history":"[0,1,2,6,10,2,6,11,4,8,0,1,5,10,2,3,0,4,8,5,10,7]","action_history":"[0,1,1,1,0,0,0,1,1,1,0,1,0,1,0,1,1,1,0,0,0]","mutagen_history":"[1,0,0,0,1,1,1,0,0,0,1,0,1,0,1,0,0,0,1,1,1]","location_rts":"[1726,487,716,377,305,533,494,529,482,393,520,502,579,553,436,698,555,425,369,352,285]","trial_type":"fractal-mutation","trial_index":71,"time_elapsed":1612845,"internal_node_id":"0.0-5.0-32.0"},{"group":"dicyclic group of order 12","fractal_assignment":["../images/grn_red.png","../images/grn_blu.png","../images/grn_prp.png","../images/org_blu.png","../images/red_prp.png","../images/ylw_slt.png","../images/cyn_red.png","../images/wht_red.png","../images/ylw_pnk.png","../images/blu_wht.png","../images/gry_blk.png","../images/pnk_blu.png"],"mutagen_generator_assignment":[1,0],"goal":11,"start":7,"action_noise":0.15,"location_history":"[7,8,0,1,2,6,10,2,6,10,2,6,11]","action_history":"[0,1,0,0,0,1,1,0,1,1,0,0]","mutagen_history":"[1,0,1,1,1,0,0,1,0,0,1,1]","location_rts":"[971,441,448,402,324,281,443,314,933,350,722,539]","trial_type":"fractal-mutation","trial_index":72,"time_elapsed":1635807,"internal_node_id":"0.0-5.0-33.0"},{"group":"dicyclic group of order 12","fractal_assignment":["../images/grn_red.png","../images/grn_blu.png","../images/grn_prp.png","../images/org_blu.png","../images/red_prp.png","../images/ylw_slt.png","../images/cyn_red.png","../images/wht_red.png","../images/ylw_pnk.png","../images/blu_wht.png","../images/gry_blk.png","../images/pnk_blu.png"],"mutagen_generator_assignment":[1,0],"goal":2,"start":11,"action_noise":0.15,"location_history":"[11,3,0,1,2]","action_history":"[1,0,0,0]","mutagen_history":"[0,1,1,1]","location_rts":"[1018,443,481,537]","trial_type":"fractal-mutation","trial_index":73,"time_elapsed":1646167,"internal_node_id":"0.0-5.0-34.0"},{"view_history":"[{\"page_index\":0,\"viewing_time\":3642}]","rt":3642,"trial_type":"instructions","trial_index":74,"time_elapsed":1650810,"internal_node_id":"0.0-6.0"},{"rt":13154,"responses":"{\"Q0\":\"trial and error\"}","trial_type":"survey-text","trial_index":75,"time_elapsed":1664970,"internal_node_id":"0.0-7.0-0.0"},{"rt":13760,"responses":"{\"Q0\":\"i don't know\"}","trial_type":"survey-text","trial_index":76,"time_elapsed":1679733,"internal_node_id":"0.0-7.0-1.0"},{"rt":4571,"responses":"{\"Q0\":\"3\"}","trial_type":"survey-likert","trial_index":77,"time_elapsed":1685312,"internal_node_id":"0.0-7.0-2.0"},{"rt":15999,"responses":"{\"Q0\":\"both involved trial and error\"}","trial_type":"survey-text","trial_index":78,"time_elapsed":1702313,"internal_node_id":"0.0-7.0-3.0"},{"rt":10823,"responses":"{\"Q0\":\"Yes\"}","trial_type":"survey-multi-choice","trial_index":79,"time_elapsed":1714153,"internal_node_id":"0.0-7.0-4.0"},{"rt":6709,"responses":"{\"Q0\":\"Between sessions 2 and 3\"}","trial_type":"survey-multi-choice","trial_index":80,"time_elapsed":1721872,"internal_node_id":"0.0-7.0-5.0"},{"rt":26290,"responses":"{\"Q0\":\"I don't know what it is but i'm sure there is one there.\"}","trial_type":"survey-text","trial_index":81,"time_elapsed":1749166,"internal_node_id":"0.0-7.0-6.0"},{"rt":6605,"responses":"{\"Q0\":\"2\"}","trial_type":"survey-likert","trial_index":82,"time_elapsed":1756775,"internal_node_id":"0.0-7.0-7.0"},{"rt":15835,"responses":"{\"Q0\":\"Same structure\"}","trial_type":"survey-multi-choice","trial_index":83,"time_elapsed":1773614,"internal_node_id":"0.0-7.0-8.0"},{"rt":20424,"responses":"{\"Q0\":\"black door = acid, white door = ray\",\"Q1\":\"Not at all confident\"}","trial_type":"survey-multi-choice","trial_index":84,"time_elapsed":1795047,"internal_node_id":"0.0-7.0-9.0"},{"rt":15140,"responses":"{\"Q0\":\"35-45\",\"Q1\":\"Associates or other two-year degree\",\"Q2\":\"Female\",\"Q3\":\"Black or African American\"}","trial_type":"survey-multi-choice","trial_index":85,"time_elapsed":1811240,"internal_node_id":"0.0-8.0"},{"rt":8878,"responses":"{\"Q0\":\"\"}","trial_type":"survey-text","trial_index":86,"time_elapsed":1821141,"internal_node_id":"0.0-9.0"}]