[{"view_history":"[{\"page_index\":0,\"viewing_time\":9453},{\"page_index\":1,\"viewing_time\":10275}]","rt":19738,"trial_type":"instructions","trial_index":0,"time_elapsed":19740,"internal_node_id":"0.0-0.0"},{"view_history":"[{\"page_index\":0,\"viewing_time\":5171},{\"page_index\":1,\"viewing_time\":43179}]","rt":48350,"trial_type":"instructions","trial_index":1,"time_elapsed":69091,"internal_node_id":"0.0-1.0"},{"group":"dicyclic group of order 12","room_assignment":["cyan","orange","grey","green","pink","purple","red","brown","blue","ivory","yellow","olive"],"door_color_assignment":["white","black"],"door_generator_assignment":[1,0],"goal":7,"start":3,"action_noise":0.15,"location_history":"[3,0,1,5,9,6,10,2,6,11,3,7]","action_history":"[0,0,1,1,0,0,0,1,0,1,1]","door_history":"[1,1,0,0,1,1,1,0,1,0,0]","location_rts":"[1289,431,561,320,282,313,710,247,486,136,1328]","trial_type":"two-door-navigation","trial_index":2,"time_elapsed":89870,"internal_node_id":"0.0-2.0-0.0"},{"group":"dicyclic group of order 12","room_assignment":["cyan","orange","grey","green","pink","purple","red","brown","blue","ivory","yellow","olive"],"door_color_assignment":["white","black"],"door_generator_assignment":[1,0],"goal":5,"start":7,"action_noise":0.15,"location_history":"[7,11,3,0,4,8,5]","action_history":"[1,1,1,1,0,0]","door_history":"[0,0,0,0,1,1]","location_rts":"[1807,327,414,367,489,2020]","trial_type":"two-door-navigation","trial_index":3,"time_elapsed":104877,"internal_node_id":"0.0-2.0-1.0"},{"group":"dicyclic group of order 12","room_assignment":["cyan","orange","grey","green","pink","purple","red","brown","blue","ivory","yellow","olive"],"door_color_assignment":["white","black"],"door_generator_assignment":[1,0],"goal":0,"start":5,"action_noise":0.15,"location_history":"[5,10,7,11,3,7,11,3,7,11,3,0]","action_history":"[0,0,1,1,1,1,1,1,1,1,0]","door_history":"[1,1,0,0,0,0,0,0,0,0,1]","location_rts":"[981,295,315,348,299,376,357,425,405,549,638]","trial_type":"two-door-navigation","trial_index":4,"time_elapsed":124572,"internal_node_id":"0.0-2.0-2.0"},{"group":"dicyclic group of order 12","room_assignment":["cyan","orange","grey","green","pink","purple","red","brown","blue","ivory","yellow","olive"],"door_color_assignment":["white","black"],"door_generator_assignment":[1,0],"goal":2,"start":0,"action_noise":0.15,"location_history":"[0,1,5,10,2]","action_history":"[0,0,0,1]","door_history":"[1,1,1,0]","location_rts":"[3731,386,450,351]","trial_type":"two-door-navigation","trial_index":5,"time_elapsed":137020,"internal_node_id":"0.0-2.0-3.0"},{"group":"dicyclic group of order 12","room_assignment":["cyan","orange","grey","green","pink","purple","red","brown","blue","ivory","yellow","olive"],"door_color_assignment":["white","black"],"door_generator_assignment":[1,0],"goal":10,"start":2,"action_noise":0.15,"location_history":"[2,3,7,8,5,9,6,11,4,9,6,10]","action_history":"[0,0,0,0,0,0,0,0,0,0,1]","door_history":"[1,1,1,1,1,1,1,1,1,1,0]","location_rts":"[860,666,417,566,435,778,599,534,3826,409,424]","trial_type":"two-door-navigation","trial_index":6,"time_elapsed":161182,"internal_node_id":"0.0-2.0-4.0"},{"group":"dicyclic group of order 12","room_assignment":["cyan","orange","grey","green","pink","purple","red","brown","blue","ivory","yellow","olive"],"door_color_assignment":["white","black"],"door_generator_assignment":[1,0],"goal":8,"start":10,"action_noise":0.15,"location_history":"[10,7,11,4,9,6,10,7,8]","action_history":"[0,0,0,0,0,1,1,1]","door_history":"[1,1,1,1,1,0,0,0]","location_rts":"[375,524,500,1120,433,310,373,313]","trial_type":"two-door-navigation","trial_index":7,"time_elapsed":176757,"internal_node_id":"0.0-2.0-5.0"},{"group":"dicyclic group of order 12","room_assignment":["cyan","orange","grey","green","pink","purple","red","brown","blue","ivory","yellow","olive"],"door_color_assignment":["white","black"],"door_generator_assignment":[1,0],"goal":11,"start":8,"action_noise":0.15,"location_history":"[8,5,10,7,11]","action_history":"[0,0,0,1]","door_history":"[1,1,1,0]","location_rts":"[682,426,342,333]","trial_type":"two-door-navigation","trial_index":8,"time_elapsed":186062,"internal_node_id":"0.0-2.0-6.0"},{"group":"dicyclic group of order 12","room_assignment":["cyan","orange","grey","green","pink","purple","red","brown","blue","ivory","yellow","olive"],"door_color_assignment":["white","black"],"door_generator_assignment":[1,0],"goal":6,"start":11,"action_noise":0.15,"location_history":"[11,4,9,6]","action_history":"[0,0,0]","door_history":"[1,1,1]","location_rts":"[329,270,293]","trial_type":"two-door-navigation","trial_index":9,"time_elapsed":193482,"internal_node_id":"0.0-2.0-7.0"},{"group":"dicyclic group of order 12","room_assignment":["cyan","orange","grey","green","pink","purple","red","brown","blue","ivory","yellow","olive"],"door_color_assignment":["white","black"],"door_generator_assignment":[1,0],"goal":4,"start":6,"action_noise":0.15,"location_history":"[6,11,3,7,11,3,0,4]","action_history":"[0,0,1,1,1,0,0]","door_history":"[1,1,0,0,0,1,1]","location_rts":"[321,275,268,300,312,344,342]","trial_type":"two-door-navigation","trial_index":10,"time_elapsed":206281,"internal_node_id":"0.0-2.0-8.0"},{"group":"dicyclic group of order 12","room_assignment":["cyan","orange","grey","green","pink","purple","red","brown","blue","ivory","yellow","olive"],"door_color_assignment":["white","black"],"door_generator_assignment":[1,0],"goal":1,"start":4,"action_noise":0.15,"location_history":"[4,9,6,11,3,7,8,0,1]","action_history":"[0,0,1,1,1,0,0,0]","door_history":"[1,1,0,0,0,1,1,1]","location_rts":"[398,521,289,282,319,314,309,361]","trial_type":"two-door-navigation","trial_index":11,"time_elapsed":220651,"internal_node_id":"0.0-2.0-9.0"},{"group":"dicyclic group of order 12","room_assignment":["cyan","orange","grey","green","pink","purple","red","brown","blue","ivory","yellow","olive"],"door_color_assignment":["white","black"],"door_generator_assignment":[1,0],"goal":9,"start":1,"action_noise":0.15,"location_history":"[1,5,9]","action_history":"[1,1]","door_history":"[0,0]","location_rts":"[367,199]","trial_type":"two-door-navigation","trial_index":12,"time_elapsed":226771,"internal_node_id":"0.0-2.0-10.0"},{"group":"dicyclic group of order 12","room_assignment":["cyan","orange","grey","green","pink","purple","red","brown","blue","ivory","yellow","olive"],"door_color_assignment":["white","black"],"door_generator_assignment":[1,0],"goal":10,"start":9,"action_noise":0.15,"location_history":"[9,6,11,4,8,0,1,5,10]","action_history":"[0,0,0,1,1,1,1,0]","door_history":"[1,1,1,0,0,0,0,1]","location_rts":"[357,300,301,332,311,311,300,1104]","trial_type":"two-door-navigation","trial_index":13,"time_elapsed":241671,"internal_node_id":"0.0-2.0-11.0"},{"group":"dicyclic group of order 12","room_assignment":["cyan","orange","grey","green","pink","purple","red","brown","blue","ivory","yellow","olive"],"door_color_assignment":["white","black"],"door_generator_assignment":[1,0],"goal":2,"start":10,"action_noise":0.15,"location_history":"[10,7,8,0,1,5,9,1,5,10,7,8,5,10,7,11,3,7,8,0,4,9,6,11,4,9,6,11,3,7,11,3,7,8,5,10,7,8,0,1,2]","action_history":"[0,0,1,1,1,1,1,1,0,0,0,0,0,0,1,1,1,1,1,1,0,0,0,0,0,0,0,1,1,1,1,1,0,0,0,0,0,1,0,0]","door_history":"[1,1,0,0,0,0,0,0,1,1,1,1,1,1,0,0,0,0,0,0,1,1,1,1,1,1,1,0,0,0,0,0,1,1,1,1,1,0,1,1]","location_rts":"[347,290,318,260,291,301,269,1033,545,319,329,280,330,299,304,300,301,300,370,339,278,275,419,371,370,1010,738,353,291,300,316,310,269,333,326,279,300,279,317,345]","trial_type":"two-door-navigation","trial_index":14,"time_elapsed":300308,"internal_node_id":"0.0-2.0-12.0"},{"group":"dicyclic group of order 12","room_assignment":["cyan","orange","grey","green","pink","purple","red","brown","blue","ivory","yellow","olive"],"door_color_assignment":["white","black"],"door_generator_assignment":[1,0],"goal":0,"start":2,"action_noise":0.15,"location_history":"[2,3,0]","action_history":"[0,0]","door_history":"[1,1]","location_rts":"[341,275]","trial_type":"two-door-navigation","trial_index":15,"time_elapsed":306511,"internal_node_id":"0.0-2.0-13.0"},{"group":"dicyclic group of order 12","room_assignment":["cyan","orange","grey","green","pink","purple","red","brown","blue","ivory","yellow","olive"],"door_color_assignment":["white","black"],"door_generator_assignment":[1,0],"goal":9,"start":0,"action_noise":0.15,"location_history":"[0,1,2,6,10,7,8,5,9]","action_history":"[0,0,1,1,0,0,0,1]","door_history":"[1,1,0,0,1,1,1,0]","location_rts":"[317,300,251,280,258,352,320,288]","trial_type":"two-door-navigation","trial_index":16,"time_elapsed":320513,"internal_node_id":"0.0-2.0-14.0"},{"group":"dicyclic group of order 12","room_assignment":["cyan","orange","grey","green","pink","purple","red","brown","blue","ivory","yellow","olive"],"door_color_assignment":["white","black"],"door_generator_assignment":[1,0],"goal":8,"start":9,"action_noise":0.15,"location_history":"[9,6,11,4,9,1,5,10,2,3,0,4,9,6,11,3,0,1,5,10,7,8]","action_history":"[0,0,0,0,1,1,1,1,0,0,0,0,0,1,1,1,1,1,0,0,0]","door_history":"[1,1,1,1,0,0,0,0,1,1,1,1,1,0,0,0,0,0,1,1,1]","location_rts":"[408,383,300,327,344,330,346,305,499,479,310,285,259,220,270,254,287,300,237,262,231]","trial_type":"two-door-navigation","trial_index":17,"time_elapsed":351903,"internal_node_id":"0.0-2.0-15.0"},{"group":"dicyclic group of order 12","room_assignment":["cyan","orange","grey","green","pink","purple","red","brown","blue","ivory","yellow","olive"],"door_color_assignment":["white","black"],"door_generator_assignment":[1,0],"goal":6,"start":8,"action_noise":0.15,"location_history":"[8,0,1,2,6]","action_history":"[1,1,1,0]","door_history":"[0,0,0,1]","location_rts":"[583,239,225,245]","trial_type":"two-door-navigation","trial_index":18,"time_elapsed":360741,"internal_node_id":"0.0-2.0-16.0"},{"group":"dicyclic group of order 12","room_assignment":["cyan","orange","grey","green","pink","purple","red","brown","blue","ivory","yellow","olive"],"door_color_assignment":["white","black"],"door_generator_assignment":[1,0],"goal":1,"start":6,"action_noise":0.15,"location_history":"[6,11,3,0,4,8,0,4,9,6,10,7,11,4,9,6,11,3,7,11,4,9,6,11,4,9,1]","action_history":"[0,0,0,1,1,1,1,0,0,1,1,1,1,0,0,1,1,1,1,0,0,0,0,0,0,1]","door_history":"[1,1,1,0,0,0,0,1,1,0,0,0,0,1,1,0,0,0,0,1,1,1,1,1,1,0]","location_rts":"[317,225,157,190,185,106,254,245,185,178,178,260,201,277,182,187,110,211,132,146,108,179,110,194,134,180]","trial_type":"two-door-navigation","trial_index":19,"time_elapsed":395362,"internal_node_id":"0.0-2.0-17.0"},{"group":"dicyclic group of order 12","room_assignment":["cyan","orange","grey","green","pink","purple","red","brown","blue","ivory","yellow","olive"],"door_color_assignment":["white","black"],"door_generator_assignment":[1,0],"goal":4,"start":1,"action_noise":0.15,"location_history":"[1,2,3,0,1,2,3,7,11,3,7,8,5,9,1,2,3,0,4]","action_history":"[0,0,0,0,0,0,1,1,1,1,0,0,1,1,0,0,0,1]","door_history":"[1,1,1,1,1,1,0,0,0,0,1,1,0,0,1,1,1,0]","location_rts":"[470,80,121,235,130,130,288,155,300,128,236,181,300,236,106,1133,271,136]","trial_type":"two-door-navigation","trial_index":20,"time_elapsed":421752,"internal_node_id":"0.0-2.0-18.0"},{"group":"dicyclic group of order 12","room_assignment":["cyan","orange","grey","green","pink","purple","red","brown","blue","ivory","yellow","olive"],"door_color_assignment":["white","black"],"door_generator_assignment":[1,0],"goal":11,"start":4,"action_noise":0.15,"location_history":"[4,8,5,10,2,6,11]","action_history":"[0,0,0,1,1,1]","door_history":"[1,1,1,0,0,0]","location_rts":"[350,69,282,215,263,538]","trial_type":"two-door-navigation","trial_index":21,"time_elapsed":433046,"internal_node_id":"0.0-2.0-19.0"},{"group":"dicyclic group of order 12","room_assignment":["cyan","orange","grey","green","pink","purple","red","brown","blue","ivory","yellow","olive"],"door_color_assignment":["white","black"],"door_generator_assignment":[1,0],"goal":3,"start":11,"action_noise":0.15,"location_history":"[11,4,9,6,11,3]","action_history":"[0,0,0,0,1]","door_history":"[1,1,1,1,0]","location_rts":"[359,71,230,262,149]","trial_type":"two-door-navigation","trial_index":22,"time_elapsed":442692,"internal_node_id":"0.0-2.0-20.0"},{"group":"dicyclic group of order 12","room_assignment":["cyan","orange","grey","green","pink","purple","red","brown","blue","ivory","yellow","olive"],"door_color_assignment":["white","black"],"door_generator_assignment":[1,0],"goal":5,"start":3,"action_noise":0.15,"location_history":"[3,0,1,2,3,7,11,3,7,11,3,0,4,9,6,10,2,3,0,1,2,3,0,1,5]","action_history":"[0,0,0,0,1,1,1,1,1,0,0,0,0,0,1,1,0,0,1,0,0,0,0,1]","door_history":"[1,1,1,1,0,0,0,0,0,1,1,1,1,1,0,0,1,1,0,1,1,1,1,0]","location_rts":"[370,192,270,871,301,239,189,278,252,280,255,171,180,278,252,177,206,271,160,110,180,189,219,141]","trial_type":"two-door-navigation","trial_index":23,"time_elapsed":476524,"internal_node_id":"0.0-2.0-21.0"},{"group":"dicyclic group of order 12","room_assignment":["cyan","orange","grey","green","pink","purple","red","brown","blue","ivory","yellow","olive"],"door_color_assignment":["white","black"],"door_generator_assignment":[1,0],"goal":7,"start":5,"action_noise":0.15,"location_history":"[5,10,7]","action_history":"[0,0]","door_history":"[1,1]","location_rts":"[1016,99]","trial_type":"two-door-navigation","trial_index":24,"time_elapsed":483171,"internal_node_id":"0.0-2.0-22.0"},{"group":"dicyclic group of order 12","room_assignment":["cyan","orange","grey","green","pink","purple","red","brown","blue","ivory","yellow","olive"],"door_color_assignment":["white","black"],"door_generator_assignment":[1,0],"goal":3,"start":7,"action_noise":0.15,"location_history":"[7,8,5,9,1,5,10,2,3]","action_history":"[0,0,0,1,1,0,0,1]","door_history":"[1,1,1,0,0,1,1,0]","location_rts":"[419,180,222,112,120,751,128,210]","trial_type":"two-door-navigation","trial_index":25,"time_elapsed":496947,"internal_node_id":"0.0-2.0-23.0"},{"group":"dicyclic group of order 12","room_assignment":["cyan","orange","grey","green","pink","purple","red","brown","blue","ivory","yellow","olive"],"door_color_assignment":["white","black"],"door_generator_assignment":[1,0],"goal":4,"start":3,"action_noise":0.15,"location_history":"[3,7,8,5,9,1,5,10,2,3,0,4]","action_history":"[0,0,0,1,1,1,0,0,0,1,1]","door_history":"[1,1,1,0,0,0,1,1,1,0,0]","location_rts":"[294,79,173,95,150,40,213,191,152,179,102]","trial_type":"two-door-navigation","trial_index":26,"time_elapsed":513635,"internal_node_id":"0.0-2.0-24.0"},{"group":"dicyclic group of order 12","room_assignment":["cyan","orange","grey","green","pink","purple","red","brown","blue","ivory","yellow","olive"],"door_color_assignment":["white","black"],"door_generator_assignment":[1,0],"goal":8,"start":4,"action_noise":0.15,"location_history":"[4,9,6,10,2,3,0,1,5,9,6,10,7,11,3,7,11,3,0,4,9,1,2,3,7,8]","action_history":"[0,0,1,1,0,0,1,1,1,0,0,0,0,1,1,1,1,0,1,1,1,0,0,1,0]","door_history":"[1,1,0,0,1,1,0,0,0,1,1,1,1,0,0,0,0,1,0,0,0,1,1,0,1]","location_rts":"[975,436,241,267,275,222,168,238,188,186,242,221,223,123,210,790,273,271,269,280,300,265,142,235,158]","trial_type":"two-door-navigation","trial_index":27,"time_elapsed":550026,"internal_node_id":"0.0-2.0-25.0"},{"group":"dicyclic group of order 12","room_assignment":["cyan","orange","grey","green","pink","purple","red","brown","blue","ivory","yellow","olive"],"door_color_assignment":["white","black"],"door_generator_assignment":[1,0],"goal":6,"start":8,"action_noise":0.15,"location_history":"[8,5,10,2,6]","action_history":"[0,0,1,1]","door_history":"[1,1,0,0]","location_rts":"[335,710,249,261]","trial_type":"two-door-navigation","trial_index":28,"time_elapsed":559162,"internal_node_id":"0.0-2.0-26.0"},{"group":"dicyclic group of order 12","room_assignment":["cyan","orange","grey","green","pink","purple","red","brown","blue","ivory","yellow","olive"],"door_color_assignment":["white","black"],"door_generator_assignment":[1,0],"goal":1,"start":6,"action_noise":0.15,"location_history":"[6,11,4,8,0,1]","action_history":"[0,0,1,1,0]","door_history":"[1,1,0,0,1]","location_rts":"[336,119,141,143,257]","trial_type":"two-door-navigation","trial_index":29,"time_elapsed":568714,"internal_node_id":"0.0-2.0-27.0"},{"group":"dicyclic group of order 12","room_assignment":["cyan","orange","grey","green","pink","purple","red","brown","blue","ivory","yellow","olive"],"door_color_assignment":["white","black"],"door_generator_assignment":[1,0],"goal":5,"start":1,"action_noise":0.15,"location_history":"[1,2,3,7,8,0,4,8,5]","action_history":"[0,0,1,0,1,1,1,0]","door_history":"[1,1,0,1,0,0,0,1]","location_rts":"[358,321,230,270,217,251,190,292]","trial_type":"two-door-navigation","trial_index":30,"time_elapsed":582482,"internal_node_id":"0.0-2.0-28.0"},{"group":"dicyclic group of order 12","room_assignment":["cyan","orange","grey","green","pink","purple","red","brown","blue","ivory","yellow","olive"],"door_color_assignment":["white","black"],"door_generator_assignment":[1,0],"goal":9,"start":5,"action_noise":0.15,"location_history":"[5,9]","action_history":"[0]","door_history":"[1]","location_rts":"[339]","trial_type":"two-door-navigation","trial_index":31,"time_elapsed":587333,"internal_node_id":"0.0-2.0-29.0"},{"group":"dicyclic group of order 12","room_assignment":["cyan","orange","grey","green","pink","purple","red","brown","blue","ivory","yellow","olive"],"door_color_assignment":["white","black"],"door_generator_assignment":[1,0],"goal":10,"start":9,"action_noise":0.15,"location_history":"[9,6,11,3,7,11,3,0,1,2,3,7,11,3,0,1,5,10]","action_history":"[0,0,1,1,1,1,0,0,0,0,1,1,1,0,0,0,0]","door_history":"[1,1,0,0,0,0,1,1,1,1,0,0,0,1,1,1,1]","location_rts":"[326,1208,348,320,382,318,270,304,272,300,331,285,270,197,259,287,290]","trial_type":"two-door-navigation","trial_index":32,"time_elapsed":613974,"internal_node_id":"0.0-2.0-30.0"},{"group":"dicyclic group of order 12","room_assignment":["cyan","orange","grey","green","pink","purple","red","brown","blue","ivory","yellow","olive"],"door_color_assignment":["white","black"],"door_generator_assignment":[1,0],"goal":0,"start":10,"action_noise":0.15,"location_history":"[10,7,8,5,9,1,2,3,0]","action_history":"[0,0,0,1,1,0,0,0]","door_history":"[1,1,1,0,0,1,1,1]","location_rts":"[419,250,206,222,270,240,2626,225]","trial_type":"two-door-navigation","trial_index":33,"time_elapsed":629994,"internal_node_id":"0.0-2.0-31.0"},{"group":"dicyclic group of order 12","room_assignment":["cyan","orange","grey","green","pink","purple","red","brown","blue","ivory","yellow","olive"],"door_color_assignment":["white","black"],"door_generator_assignment":[1,0],"goal":7,"start":0,"action_noise":0.15,"location_history":"[0,1,5,10,7]","action_history":"[1,1,0,0]","door_history":"[0,0,1,1]","location_rts":"[580,276,269,260]","trial_type":"two-door-navigation","trial_index":34,"time_elapsed":638933,"internal_node_id":"0.0-2.0-32.0"},{"group":"dicyclic group of order 12","room_assignment":["cyan","orange","grey","green","pink","purple","red","brown","blue","ivory","yellow","olive"],"door_color_assignment":["white","black"],"door_generator_assignment":[1,0],"goal":11,"start":7,"action_noise":0.15,"location_history":"[7,8,5,10,2,3,0,1,5,9,1,2,3,0,1,5,10,7,11]","action_history":"[0,0,0,1,1,0,0,1,1,1,0,0,0,0,1,1,1,0]","door_history":"[1,1,1,0,0,1,1,0,0,0,1,1,1,1,0,0,0,1]","location_rts":"[307,173,208,260,211,106,219,200,91,280,149,273,275,278,290,260,180,240]","trial_type":"two-door-navigation","trial_index":35,"time_elapsed":664657,"internal_node_id":"0.0-2.0-33.0"},{"group":"dicyclic group of order 12","room_assignment":["cyan","orange","grey","green","pink","purple","red","brown","blue","ivory","yellow","olive"],"door_color_assignment":["white","black"],"door_generator_assignment":[1,0],"goal":2,"start":11,"action_noise":0.15,"location_history":"[11,4,9,6,10,7,8,5,10,2]","action_history":"[0,0,0,1,1,0,1,1,1]","door_history":"[1,1,1,0,0,1,0,0,0]","location_rts":"[501,149,170,159,270,930,282,250,210]","trial_type":"two-door-navigation","trial_index":36,"time_elapsed":680175,"internal_node_id":"0.0-2.0-34.0"},{"view_history":"[{\"page_index\":0,\"viewing_time\":156228}]","rt":156238,"trial_type":"instructions","trial_index":37,"time_elapsed":837421,"internal_node_id":"0.0-3.0"},{"view_history":"[{\"page_index\":0,\"viewing_time\":5890},{\"page_index\":1,\"viewing_time\":41874}]","rt":47766,"trial_type":"instructions","trial_index":38,"time_elapsed":886190,"internal_node_id":"0.0-4.0"},{"group":"dihedral group of order 12","fractal_assignment":["../images/ylw_pnk.png","../images/grn_prp.png","../images/cyn_red.png","../images/pnk_blu.png","../images/gry_blk.png","../images/ylw_slt.png","../images/wht_red.png","../images/grn_red.png","../images/red_prp.png","../images/grn_blu.png","../images/blu_wht.png","../images/org_blu.png"],"mutagen_generator_assignment":[0,1],"goal":7,"start":3,"action_noise":0.15,"location_history":"[3,4,10,4,5,11,5,11,5,0,1,2,8,2,3,9,8,7]","action_history":"[0,1,1,1,0,0,1,1,1,1,0,1,1,0,1,1,0]","mutagen_history":"[0,1,1,1,0,0,1,1,1,1,0,1,1,0,1,1,0]","location_rts":"[2510,460,403,290,302,396,255,141,250,107,621,203,250,438,428,270,319]","trial_type":"fractal-mutation","trial_index":39,"time_elapsed":923891,"internal_node_id":"0.0-5.0-0.0"},{"group":"dihedral group of order 12","fractal_assignment":["../images/ylw_pnk.png","../images/grn_prp.png","../images/cyn_red.png","../images/pnk_blu.png","../images/gry_blk.png","../images/ylw_slt.png","../images/wht_red.png","../images/grn_red.png","../images/red_prp.png","../images/grn_blu.png","../images/blu_wht.png","../images/org_blu.png"],"mutagen_generator_assignment":[0,1],"goal":5,"start":7,"action_noise":0.15,"location_history":"[7,1,7,1,7,6,11,10,4,10,4,5]","action_history":"[0,1,1,1,0,0,0,1,1,1,0]","mutagen_history":"[0,1,1,1,0,0,0,1,1,1,0]","location_rts":"[6977,26,264,1110,283,267,286,223,246,313,397]","trial_type":"fractal-mutation","trial_index":40,"time_elapsed":954698,"internal_node_id":"0.0-5.0-1.0"},{"group":"dihedral group of order 12","fractal_assignment":["../images/ylw_pnk.png","../images/grn_prp.png","../images/cyn_red.png","../images/pnk_blu.png","../images/gry_blk.png","../images/ylw_slt.png","../images/wht_red.png","../images/grn_red.png","../images/red_prp.png","../images/grn_blu.png","../images/blu_wht.png","../images/org_blu.png"],"mutagen_generator_assignment":[0,1],"goal":0,"start":5,"action_noise":0.15,"location_history":"[5,0]","action_history":"[0]","mutagen_history":"[0]","location_rts":"[509]","trial_type":"fractal-mutation","trial_index":41,"time_elapsed":960084,"internal_node_id":"0.0-5.0-2.0"},{"group":"dihedral group of order 12","fractal_assignment":["../images/ylw_pnk.png","../images/grn_prp.png","../images/cyn_red.png","../images/pnk_blu.png","../images/gry_blk.png","../images/ylw_slt.png","../images/wht_red.png","../images/grn_red.png","../images/red_prp.png","../images/grn_blu.png","../images/blu_wht.png","../images/org_blu.png"],"mutagen_generator_assignment":[0,1],"goal":2,"start":0,"action_noise":0.15,"location_history":"[0,6,11,10,9,3,9,3,4,5,0,1,7,1,7,6,0,6,0,6,0,1,2]","action_history":"[1,0,0,0,1,1,1,0,0,0,1,1,1,1,0,0,1,1,1,1,0,0]","mutagen_history":"[1,0,0,0,1,1,1,0,0,0,1,1,1,1,0,0,1,1,1,1,0,0]","location_rts":"[476,250,322,300,308,281,239,220,294,284,227,168,257,271,152,296,370,200,250,361,220,220]","trial_type":"fractal-mutation","trial_index":42,"time_elapsed":1000914,"internal_node_id":"0.0-5.0-3.0"},{"group":"dihedral group of order 12","fractal_assignment":["../images/ylw_pnk.png","../images/grn_prp.png","../images/cyn_red.png","../images/pnk_blu.png","../images/gry_blk.png","../images/ylw_slt.png","../images/wht_red.png","../images/grn_red.png","../images/red_prp.png","../images/grn_blu.png","../images/blu_wht.png","../images/org_blu.png"],"mutagen_generator_assignment":[0,1],"goal":10,"start":2,"action_noise":0.15,"location_history":"[2,3,9,3,9,8,7,6,11,5,11,10]","action_history":"[0,1,1,1,0,0,0,1,1,1,0]","mutagen_history":"[0,1,1,1,0,0,0,1,1,1,0]","location_rts":"[442,252,103,113,149,280,270,250,316,263,391]","trial_type":"fractal-mutation","trial_index":43,"time_elapsed":1022964,"internal_node_id":"0.0-5.0-4.0"},{"group":"dihedral group of order 12","fractal_assignment":["../images/ylw_pnk.png","../images/grn_prp.png","../images/cyn_red.png","../images/pnk_blu.png","../images/gry_blk.png","../images/ylw_slt.png","../images/wht_red.png","../images/grn_red.png","../images/red_prp.png","../images/grn_blu.png","../images/blu_wht.png","../images/org_blu.png"],"mutagen_generator_assignment":[0,1],"goal":8,"start":10,"action_noise":0.15,"location_history":"[10,4,10,4,5,0,6,0,6,0,1,2,3,4,5,11,5,11,5,11,5,0,1,2,8]","action_history":"[1,1,1,0,0,0,1,1,1,0,0,0,0,0,1,1,1,1,1,1,0,0,0,0]","mutagen_history":"[1,1,1,0,0,0,1,1,1,0,0,0,0,0,1,1,1,1,1,1,0,0,0,0]","location_rts":"[374,220,170,166,274,150,169,84,169,250,200,247,144,261,272,79,471,108,195,92,240,250,110,210]","trial_type":"fractal-mutation","trial_index":44,"time_elapsed":1065433,"internal_node_id":"0.0-5.0-5.0"},{"group":"dihedral group of order 12","fractal_assignment":["../images/ylw_pnk.png","../images/grn_prp.png","../images/cyn_red.png","../images/pnk_blu.png","../images/gry_blk.png","../images/ylw_slt.png","../images/wht_red.png","../images/grn_red.png","../images/red_prp.png","../images/grn_blu.png","../images/blu_wht.png","../images/org_blu.png"],"mutagen_generator_assignment":[0,1],"goal":11,"start":8,"action_noise":0.15,"location_history":"[8,7,1,2,3,9,3,9,8,2,3,4,5,0,1,7,6,0,1,7,1,7,6,11]","action_history":"[0,0,0,0,0,1,1,1,0,0,0,0,0,0,1,1,1,0,1,1,1,0,0]","mutagen_history":"[0,0,0,0,0,1,1,1,0,0,0,0,0,0,1,1,1,0,1,1,1,0,0]","location_rts":"[350,321,189,250,238,205,101,68,236,264,114,217,239,263,258,292,435,342,308,239,168,146,267]","trial_type":"fractal-mutation","trial_index":45,"time_elapsed":1106865,"internal_node_id":"0.0-5.0-6.0"},{"group":"dihedral group of order 12","fractal_assignment":["../images/ylw_pnk.png","../images/grn_prp.png","../images/cyn_red.png","../images/pnk_blu.png","../images/gry_blk.png","../images/ylw_slt.png","../images/wht_red.png","../images/grn_red.png","../images/red_prp.png","../images/grn_blu.png","../images/blu_wht.png","../images/org_blu.png"],"mutagen_generator_assignment":[0,1],"goal":6,"start":11,"action_noise":0.15,"location_history":"[11,10,9,3,9,3,4,5,11,5,0,6]","action_history":"[0,0,1,1,1,0,0,1,1,0,0]","mutagen_history":"[0,0,1,1,1,0,0,1,1,0,0]","location_rts":"[515,259,163,287,229,114,266,310,265,129,289]","trial_type":"fractal-mutation","trial_index":46,"time_elapsed":1128396,"internal_node_id":"0.0-5.0-7.0"},{"group":"dihedral group of order 12","fractal_assignment":["../images/ylw_pnk.png","../images/grn_prp.png","../images/cyn_red.png","../images/pnk_blu.png","../images/gry_blk.png","../images/ylw_slt.png","../images/wht_red.png","../images/grn_red.png","../images/red_prp.png","../images/grn_blu.png","../images/blu_wht.png","../images/org_blu.png"],"mutagen_generator_assignment":[0,1],"goal":4,"start":6,"action_noise":0.15,"location_history":"[6,11,5,11,5,11,10,4]","action_history":"[0,1,1,1,0,0,1]","mutagen_history":"[0,1,1,1,0,0,1]","location_rts":"[477,143,133,267,59,243,225]","trial_type":"fractal-mutation","trial_index":47,"time_elapsed":1143557,"internal_node_id":"0.0-5.0-8.0"},{"group":"dihedral group of order 12","fractal_assignment":["../images/ylw_pnk.png","../images/grn_prp.png","../images/cyn_red.png","../images/pnk_blu.png","../images/gry_blk.png","../images/ylw_slt.png","../images/wht_red.png","../images/grn_red.png","../images/red_prp.png","../images/grn_blu.png","../images/blu_wht.png","../images/org_blu.png"],"mutagen_generator_assignment":[0,1],"goal":1,"start":4,"action_noise":0.15,"location_history":"[4,5,0,1]","action_history":"[0,0,0]","mutagen_history":"[0,0,0]","location_rts":"[92,134,231]","trial_type":"fractal-mutation","trial_index":48,"time_elapsed":1151443,"internal_node_id":"0.0-5.0-9.0"},{"group":"dihedral group of order 12","fractal_assignment":["../images/ylw_pnk.png","../images/grn_prp.png","../images/cyn_red.png","../images/pnk_blu.png","../images/gry_blk.png","../images/ylw_slt.png","../images/wht_red.png","../images/grn_red.png","../images/red_prp.png","../images/grn_blu.png","../images/blu_wht.png","../images/org_blu.png"],"mutagen_generator_assignment":[0,1],"goal":9,"start":1,"action_noise":0.15,"location_history":"[1,7,1,7,1,2,8,2,8,2,3,4,10,9]","action_history":"[1,1,1,0,0,1,1,1,1,0,0,1,0]","mutagen_history":"[1,1,1,0,0,1,1,1,1,0,0,1,0]","location_rts":"[340,269,223,87,178,215,104,130,1150,281,287,412,260]","trial_type":"fractal-mutation","trial_index":49,"time_elapsed":1177483,"internal_node_id":"0.0-5.0-10.0"},{"group":"dihedral group of order 12","fractal_assignment":["../images/ylw_pnk.png","../images/grn_prp.png","../images/cyn_red.png","../images/pnk_blu.png","../images/gry_blk.png","../images/ylw_slt.png","../images/wht_red.png","../images/grn_red.png","../images/red_prp.png","../images/grn_blu.png","../images/blu_wht.png","../images/org_blu.png"],"mutagen_generator_assignment":[0,1],"goal":10,"start":9,"action_noise":0.15,"location_history":"[9,8,2,8,2,3,4,5,11,5,11,10]","action_history":"[0,1,1,1,0,0,0,1,1,1,0]","mutagen_history":"[0,1,1,1,0,0,0,1,1,1,0]","location_rts":"[302,177,280,125,203,274,250,254,222,200,186]","trial_type":"fractal-mutation","trial_index":50,"time_elapsed":1198986,"internal_node_id":"0.0-5.0-11.0"},{"group":"dihedral group of order 12","fractal_assignment":["../images/ylw_pnk.png","../images/grn_prp.png","../images/cyn_red.png","../images/pnk_blu.png","../images/gry_blk.png","../images/ylw_slt.png","../images/wht_red.png","../images/grn_red.png","../images/red_prp.png","../images/grn_blu.png","../images/blu_wht.png","../images/org_blu.png"],"mutagen_generator_assignment":[0,1],"goal":2,"start":10,"action_noise":0.15,"location_history":"[10,4,10,9,8,2]","action_history":"[1,1,0,0,1]","mutagen_history":"[1,1,0,0,1]","location_rts":"[300,265,282,293,509]","trial_type":"fractal-mutation","trial_index":51,"time_elapsed":1211333,"internal_node_id":"0.0-5.0-12.0"},{"group":"dihedral group of order 12","fractal_assignment":["../images/ylw_pnk.png","../images/grn_prp.png","../images/cyn_red.png","../images/pnk_blu.png","../images/gry_blk.png","../images/ylw_slt.png","../images/wht_red.png","../images/grn_red.png","../images/red_prp.png","../images/grn_blu.png","../images/blu_wht.png","../images/org_blu.png"],"mutagen_generator_assignment":[0,1],"goal":0,"start":2,"action_noise":0.15,"location_history":"[2,3,4,5,11,5,0]","action_history":"[0,0,0,1,1,0]","mutagen_history":"[0,0,0,1,1,0]","location_rts":"[290,238,229,286,296,262]","trial_type":"fractal-mutation","trial_index":52,"time_elapsed":1224664,"internal_node_id":"0.0-5.0-13.0"},{"group":"dihedral group of order 12","fractal_assignment":["../images/ylw_pnk.png","../images/grn_prp.png","../images/cyn_red.png","../images/pnk_blu.png","../images/gry_blk.png","../images/ylw_slt.png","../images/wht_red.png","../images/grn_red.png","../images/red_prp.png","../images/grn_blu.png","../images/blu_wht.png","../images/org_blu.png"],"mutagen_generator_assignment":[0,1],"goal":9,"start":0,"action_noise":0.15,"location_history":"[0,1,7,1,2,3,4,5,11,5,11,10,4,5,11,5,11,10,9]","action_history":"[0,0,1,1,0,0,0,1,1,1,0,0,0,1,1,1,0,0]","mutagen_history":"[0,0,1,1,0,0,0,1,1,1,0,0,0,1,1,1,0,0]","location_rts":"[313,154,314,220,199,278,279,284,244,120,101,230,260,197,221,98,140,249]","trial_type":"fractal-mutation","trial_index":53,"time_elapsed":1257174,"internal_node_id":"0.0-5.0-14.0"},{"group":"dihedral group of order 12","fractal_assignment":["../images/ylw_pnk.png","../images/grn_prp.png","../images/cyn_red.png","../images/pnk_blu.png","../images/gry_blk.png","../images/ylw_slt.png","../images/wht_red.png","../images/grn_red.png","../images/red_prp.png","../images/grn_blu.png","../images/blu_wht.png","../images/org_blu.png"],"mutagen_generator_assignment":[0,1],"goal":8,"start":9,"action_noise":0.15,"location_history":"[9,3,9,8]","action_history":"[1,1,0]","mutagen_history":"[1,1,0]","location_rts":"[420,1400,159]","trial_type":"fractal-mutation","trial_index":54,"time_elapsed":1266974,"internal_node_id":"0.0-5.0-15.0"},{"group":"dihedral group of order 12","fractal_assignment":["../images/ylw_pnk.png","../images/grn_prp.png","../images/cyn_red.png","../images/pnk_blu.png","../images/gry_blk.png","../images/ylw_slt.png","../images/wht_red.png","../images/grn_red.png","../images/red_prp.png","../images/grn_blu.png","../images/blu_wht.png","../images/org_blu.png"],"mutagen_generator_assignment":[0,1],"goal":6,"start":8,"action_noise":0.15,"location_history":"[8,7,6]","action_history":"[0,0]","mutagen_history":"[0,0]","location_rts":"[298,206]","trial_type":"fractal-mutation","trial_index":55,"time_elapsed":1273559,"internal_node_id":"0.0-5.0-16.0"},{"group":"dihedral group of order 12","fractal_assignment":["../images/ylw_pnk.png","../images/grn_prp.png","../images/cyn_red.png","../images/pnk_blu.png","../images/gry_blk.png","../images/ylw_slt.png","../images/wht_red.png","../images/grn_red.png","../images/red_prp.png","../images/grn_blu.png","../images/blu_wht.png","../images/org_blu.png"],"mutagen_generator_assignment":[0,1],"goal":1,"start":6,"action_noise":0.15,"location_history":"[6,0,6,11,10,9,8,2,8,2,3,4,10,4,10,9,8,2,8,2,3,9,8,2,8,7,1]","action_history":"[1,1,1,0,0,0,1,1,0,0,0,1,1,0,0,0,1,1,1,0,0,0,1,1,0,0]","mutagen_history":"[1,1,1,0,0,0,1,1,0,0,0,1,1,0,0,0,1,1,1,0,0,0,1,1,0,0]","location_rts":"[307,289,122,137,251,203,261,214,106,251,257,299,269,59,270,277,414,323,329,184,295,234,278,300,310,286]","trial_type":"fractal-mutation","trial_index":56,"time_elapsed":1320103,"internal_node_id":"0.0-5.0-17.0"},{"group":"dihedral group of order 12","fractal_assignment":["../images/ylw_pnk.png","../images/grn_prp.png","../images/cyn_red.png","../images/pnk_blu.png","../images/gry_blk.png","../images/ylw_slt.png","../images/wht_red.png","../images/grn_red.png","../images/red_prp.png","../images/grn_blu.png","../images/blu_wht.png","../images/org_blu.png"],"mutagen_generator_assignment":[0,1],"goal":4,"start":1,"action_noise":0.15,"location_history":"[1,7,6,11,10,4]","action_history":"[1,1,0,0,0]","mutagen_history":"[1,1,0,0,0]","location_rts":"[399,292,274,360,292]","trial_type":"fractal-mutation","trial_index":57,"time_elapsed":1332223,"internal_node_id":"0.0-5.0-18.0"},{"group":"dihedral group of order 12","fractal_assignment":["../images/ylw_pnk.png","../images/grn_prp.png","../images/cyn_red.png","../images/pnk_blu.png","../images/gry_blk.png","../images/ylw_slt.png","../images/wht_red.png","../images/grn_red.png","../images/red_prp.png","../images/grn_blu.png","../images/blu_wht.png","../images/org_blu.png"],"mutagen_generator_assignment":[0,1],"goal":11,"start":4,"action_noise":0.15,"location_history":"[4,10,4,10,4,5,0,6,0,1,2,3,9,3,4,5,0,1,7,1,7,1,2,3,4,10,4,10,9,8,7,6,0,6,0,1,2,3,4,10,4,10,4,5,0,1,2,8,2,8,7,1,7,6,11]","action_history":"[1,1,1,0,0,0,1,1,0,0,0,1,1,0,0,0,0,1,1,1,1,1,0,0,1,1,1,0,0,0,0,1,1,1,0,0,0,0,1,1,1,0,0,0,0,1,1,1,1,0,0,1,0,1]","mutagen_history":"[1,1,1,0,0,0,1,1,0,0,0,1,1,0,0,0,0,1,1,1,1,1,0,0,1,1,1,0,0,0,0,1,1,1,0,0,0,0,1,1,1,0,0,0,0,1,1,1,1,0,0,1,0,1]","location_rts":"[307,229,123,144,282,228,340,282,109,271,181,351,232,55,248,94,249,253,114,102,282,251,171,135,297,300,316,270,289,237,271,280,322,183,88,165,280,267,416,259,160,26,165,427,282,345,325,586,231,208,234,219,560,343]","trial_type":"fractal-mutation","trial_index":58,"time_elapsed":1425786,"internal_node_id":"0.0-5.0-19.0"},{"group":"dihedral group of order 12","fractal_assignment":["../images/ylw_pnk.png","../images/grn_prp.png","../images/cyn_red.png","../images/pnk_blu.png","../images/gry_blk.png","../images/ylw_slt.png","../images/wht_red.png","../images/grn_red.png","../images/red_prp.png","../images/grn_blu.png","../images/blu_wht.png","../images/org_blu.png"],"mutagen_generator_assignment":[0,1],"goal":3,"start":11,"action_noise":0.15,"location_history":"[11,5,11,5,0,1,7,1,2,8,7,6,0,6,11,10,9,3]","action_history":"[1,1,1,0,0,1,1,1,1,0,0,1,1,0,0,0,1]","mutagen_history":"[1,1,1,0,0,1,1,1,1,0,0,1,1,0,0,0,1]","location_rts":"[8697,770,83,355,480,322,300,240,672,317,590,616,297,197,715,660,2847]","trial_type":"fractal-mutation","trial_index":59,"time_elapsed":1471923,"internal_node_id":"0.0-5.0-20.0"},{"group":"dihedral group of order 12","fractal_assignment":["../images/ylw_pnk.png","../images/grn_prp.png","../images/cyn_red.png","../images/pnk_blu.png","../images/gry_blk.png","../images/ylw_slt.png","../images/wht_red.png","../images/grn_red.png","../images/red_prp.png","../images/grn_blu.png","../images/blu_wht.png","../images/org_blu.png"],"mutagen_generator_assignment":[0,1],"goal":5,"start":3,"action_noise":0.15,"location_history":"[3,4,10,4,5]","action_history":"[0,0,0,0]","mutagen_history":"[0,0,0,0]","location_rts":"[403,200,170,277]","trial_type":"fractal-mutation","trial_index":60,"time_elapsed":1481685,"internal_node_id":"0.0-5.0-21.0"},{"group":"dihedral group of order 12","fractal_assignment":["../images/ylw_pnk.png","../images/grn_prp.png","../images/cyn_red.png","../images/pnk_blu.png","../images/gry_blk.png","../images/ylw_slt.png","../images/wht_red.png","../images/grn_red.png","../images/red_prp.png","../images/grn_blu.png","../images/blu_wht.png","../images/org_blu.png"],"mutagen_generator_assignment":[0,1],"goal":7,"start":5,"action_noise":0.15,"location_history":"[5,11,10,9,3,9,8,7]","action_history":"[1,1,1,1,1,0,0]","mutagen_history":"[1,1,1,1,1,0,0]","location_rts":"[539,300,277,251,300,244,290]","trial_type":"fractal-mutation","trial_index":61,"time_elapsed":1497566,"internal_node_id":"0.0-5.0-22.0"},{"group":"dihedral group of order 12","fractal_assignment":["../images/ylw_pnk.png","../images/grn_prp.png","../images/cyn_red.png","../images/pnk_blu.png","../images/gry_blk.png","../images/ylw_slt.png","../images/wht_red.png","../images/grn_red.png","../images/red_prp.png","../images/grn_blu.png","../images/blu_wht.png","../images/org_blu.png"],"mutagen_generator_assignment":[0,1],"goal":3,"start":7,"action_noise":0.15,"location_history":"[7,6,11,5,0,1,7,1,7,6,11,5,11,10,9,3]","action_history":"[0,0,0,1,1,1,1,1,0,0,1,1,0,0,1]","mutagen_history":"[0,0,0,1,1,1,1,1,0,0,1,1,0,0,1]","location_rts":"[426,23,116,150,257,479,138,185,169,214,206,149,184,273,192]","trial_type":"fractal-mutation","trial_index":62,"time_elapsed":1525406,"internal_node_id":"0.0-5.0-23.0"},{"group":"dihedral group of order 12","fractal_assignment":["../images/ylw_pnk.png","../images/grn_prp.png","../images/cyn_red.png","../images/pnk_blu.png","../images/gry_blk.png","../images/ylw_slt.png","../images/wht_red.png","../images/grn_red.png","../images/red_prp.png","../images/grn_blu.png","../images/blu_wht.png","../images/org_blu.png"],"mutagen_generator_assignment":[0,1],"goal":4,"start":3,"action_noise":0.15,"location_history":"[3,4]","action_history":"[0]","mutagen_history":"[0]","location_rts":"[402]","trial_type":"fractal-mutation","trial_index":63,"time_elapsed":1530625,"internal_node_id":"0.0-5.0-24.0"},{"group":"dihedral group of order 12","fractal_assignment":["../images/ylw_pnk.png","../images/grn_prp.png","../images/cyn_red.png","../images/pnk_blu.png","../images/gry_blk.png","../images/ylw_slt.png","../images/wht_red.png","../images/grn_red.png","../images/red_prp.png","../images/grn_blu.png","../images/blu_wht.png","../images/org_blu.png"],"mutagen_generator_assignment":[0,1],"goal":8,"start":4,"action_noise":0.15,"location_history":"[4,10,4,5,0,1,2,8]","action_history":"[1,1,1,0,0,0,1]","mutagen_history":"[1,1,1,0,0,0,1]","location_rts":"[323,250,290,257,269,290,246]","trial_type":"fractal-mutation","trial_index":64,"time_elapsed":1545950,"internal_node_id":"0.0-5.0-25.0"},{"group":"dihedral group of order 12","fractal_assignment":["../images/ylw_pnk.png","../images/grn_prp.png","../images/cyn_red.png","../images/pnk_blu.png","../images/gry_blk.png","../images/ylw_slt.png","../images/wht_red.png","../images/grn_red.png","../images/red_prp.png","../images/grn_blu.png","../images/blu_wht.png","../images/org_blu.png"],"mutagen_generator_assignment":[0,1],"goal":6,"start":8,"action_noise":0.15,"location_history":"[8,2,3,4,5,0,6]","action_history":"[1,0,0,0,0,1]","mutagen_history":"[1,0,0,0,0,1]","location_rts":"[484,375,223,183,300,371]","trial_type":"fractal-mutation","trial_index":65,"time_elapsed":1559565,"internal_node_id":"0.0-5.0-26.0"},{"group":"dihedral group of order 12","fractal_assignment":["../images/ylw_pnk.png","../images/grn_prp.png","../images/cyn_red.png","../images/pnk_blu.png","../images/gry_blk.png","../images/ylw_slt.png","../images/wht_red.png","../images/grn_red.png","../images/red_prp.png","../images/grn_blu.png","../images/blu_wht.png","../images/org_blu.png"],"mutagen_generator_assignment":[0,1],"goal":1,"start":6,"action_noise":0.15,"location_history":"[6,0,6,11,10,9,3,9,3,4,5,11,5,11,5,11,10,9,8,2,3,9,3,9,3,9,8,7,1]","action_history":"[1,1,0,0,0,1,1,1,0,0,0,1,1,1,1,0,0,0,0,0,1,1,1,1,0,0,0,1]","mutagen_history":"[1,1,0,0,0,1,1,1,0,0,0,1,1,1,1,0,0,0,0,0,1,1,1,1,0,0,0,1]","location_rts":"[550,156,54,278,282,128,263,125,167,269,320,282,250,107,97,96,276,363,259,277,560,530,302,609,440,601,440,490]","trial_type":"fractal-mutation","trial_index":66,"time_elapsed":1611486,"internal_node_id":"0.0-5.0-27.0"},{"group":"dihedral group of order 12","fractal_assignment":["../images/ylw_pnk.png","../images/grn_prp.png","../images/cyn_red.png","../images/pnk_blu.png","../images/gry_blk.png","../images/ylw_slt.png","../images/wht_red.png","../images/grn_red.png","../images/red_prp.png","../images/grn_blu.png","../images/blu_wht.png","../images/org_blu.png"],"mutagen_generator_assignment":[0,1],"goal":5,"start":1,"action_noise":0.15,"location_history":"[1,2,3,9,3,9,3,4,5]","action_history":"[0,0,1,1,1,1,0,0]","mutagen_history":"[0,0,1,1,1,1,0,0]","location_rts":"[401,279,367,262,260,333,252,177]","trial_type":"fractal-mutation","trial_index":67,"time_elapsed":1628566,"internal_node_id":"0.0-5.0-28.0"},{"group":"dihedral group of order 12","fractal_assignment":["../images/ylw_pnk.png","../images/grn_prp.png","../images/cyn_red.png","../images/pnk_blu.png","../images/gry_blk.png","../images/ylw_slt.png","../images/wht_red.png","../images/grn_red.png","../images/red_prp.png","../images/grn_blu.png","../images/blu_wht.png","../images/org_blu.png"],"mutagen_generator_assignment":[0,1],"goal":9,"start":5,"action_noise":0.15,"location_history":"[5,0,1,2,8,2,8,7,6,0,1,7,1,2,3,9]","action_history":"[0,0,0,1,1,1,0,0,1,1,1,1,0,0,1]","mutagen_history":"[0,0,0,1,1,1,0,0,1,1,1,1,0,0,1]","location_rts":"[321,253,246,280,216,122,331,321,380,307,358,209,309,300,347]","trial_type":"fractal-mutation","trial_index":68,"time_elapsed":1657765,"internal_node_id":"0.0-5.0-29.0"},{"group":"dihedral group of order 12","fractal_assignment":["../images/ylw_pnk.png","../images/grn_prp.png","../images/cyn_red.png","../images/pnk_blu.png","../images/gry_blk.png","../images/ylw_slt.png","../images/wht_red.png","../images/grn_red.png","../images/red_prp.png","../images/grn_blu.png","../images/blu_wht.png","../images/org_blu.png"],"mutagen_generator_assignment":[0,1],"goal":10,"start":9,"action_noise":0.15,"location_history":"[9,8,7,1,7,1,7,6,0,6,0,1,2,8,2,8,7,6,0,6,0,1,2,3,9,3,9,8,7,6,11,10]","action_history":"[0,0,1,1,1,0,0,1,1,1,0,0,1,1,0,0,0,1,1,0,0,0,0,1,1,1,0,0,0,0,0]","mutagen_history":"[0,0,1,1,1,0,0,1,1,1,0,0,1,1,0,0,0,1,1,0,0,0,0,1,1,1,0,0,0,0,0]","location_rts":"[326,231,389,336,419,246,320,249,365,525,290,319,357,326,260,375,381,465,341,282,349,335,381,570,337,317,341,391,351,411,502]","trial_type":"fractal-mutation","trial_index":69,"time_elapsed":1715696,"internal_node_id":"0.0-5.0-30.0"},{"group":"dihedral group of order 12","fractal_assignment":["../images/ylw_pnk.png","../images/grn_prp.png","../images/cyn_red.png","../images/pnk_blu.png","../images/gry_blk.png","../images/ylw_slt.png","../images/wht_red.png","../images/grn_red.png","../images/red_prp.png","../images/grn_blu.png","../images/blu_wht.png","../images/org_blu.png"],"mutagen_generator_assignment":[0,1],"goal":0,"start":10,"action_noise":0.15,"location_history":"[10,4,10,4,10,9,8,7,6,11,10,4,10,4,5,0]","action_history":"[1,1,1,1,0,0,0,0,0,0,1,1,1,0,0]","mutagen_history":"[1,1,1,1,0,0,0,0,0,0,1,1,1,0,0]","location_rts":"[690,235,243,240,250,290,241,304,416,298,522,259,204,220,251]","trial_type":"fractal-mutation","trial_index":70,"time_elapsed":1744929,"internal_node_id":"0.0-5.0-31.0"},{"group":"dihedral group of order 12","fractal_assignment":["../images/ylw_pnk.png","../images/grn_prp.png","../images/cyn_red.png","../images/pnk_blu.png","../images/gry_blk.png","../images/ylw_slt.png","../images/wht_red.png","../images/grn_red.png","../images/red_prp.png","../images/grn_blu.png","../images/blu_wht.png","../images/org_blu.png"],"mutagen_generator_assignment":[0,1],"goal":7,"start":0,"action_noise":0.15,"location_history":"[0,6,11,10,4,10,4,5,0,1,7]","action_history":"[0,0,1,1,1,1,0,0,0,1]","mutagen_history":"[0,0,1,1,1,1,0,0,0,1]","location_rts":"[484,252,261,241,130,155,270,270,301,328]","trial_type":"fractal-mutation","trial_index":71,"time_elapsed":1765366,"internal_node_id":"0.0-5.0-32.0"},{"group":"dihedral group of order 12","fractal_assignment":["../images/ylw_pnk.png","../images/grn_prp.png","../images/cyn_red.png","../images/pnk_blu.png","../images/gry_blk.png","../images/ylw_slt.png","../images/wht_red.png","../images/grn_red.png","../images/red_prp.png","../images/grn_blu.png","../images/blu_wht.png","../images/org_blu.png"],"mutagen_generator_assignment":[0,1],"goal":11,"start":7,"action_noise":0.15,"location_history":"[7,1,2,8,2,8,7,6,0,1,7,1,2,3,9,3,9,3,4,10,9,3,9,8,7,6,0,6,0,6,0,6,11]","action_history":"[0,0,0,1,1,0,0,0,0,1,1,0,0,0,1,1,1,0,0,0,1,1,0,0,0,1,1,1,1,0,0,0]","mutagen_history":"[0,0,0,1,1,0,0,0,0,1,1,0,0,0,1,1,1,0,0,0,1,1,0,0,0,1,1,1,1,0,0,0]","location_rts":"[447,229,264,206,218,86,136,190,137,181,155,178,96,292,271,110,230,169,278,242,290,239,110,270,311,272,460,310,370,246,335,305]","trial_type":"fractal-mutation","trial_index":72,"time_elapsed":1821166,"internal_node_id":"0.0-5.0-33.0"},{"group":"dihedral group of order 12","fractal_assignment":["../images/ylw_pnk.png","../images/grn_prp.png","../images/cyn_red.png","../images/pnk_blu.png","../images/gry_blk.png","../images/ylw_slt.png","../images/wht_red.png","../images/grn_red.png","../images/red_prp.png","../images/grn_blu.png","../images/blu_wht.png","../images/org_blu.png"],"mutagen_generator_assignment":[0,1],"goal":2,"start":11,"action_noise":0.15,"location_history":"[11,10,4,5,11,5,0,1,2]","action_history":"[0,0,0,1,1,0,0,0]","mutagen_history":"[0,0,0,1,1,0,0,0]","location_rts":"[489,161,286,282,422,401,407,440]","trial_type":"fractal-mutation","trial_index":73,"time_elapsed":1838336,"internal_node_id":"0.0-5.0-34.0"},{"view_history":"[{\"page_index\":0,\"viewing_time\":12031}]","rt":12031,"trial_type":"instructions","trial_index":74,"time_elapsed":1851367,"internal_node_id":"0.0-6.0"},{"rt":20961,"responses":"{\"Q0\":\"Learning simple patterns\"}","trial_type":"survey-text","trial_index":75,"time_elapsed":1873346,"internal_node_id":"0.0-7.0-0.0"},{"rt":27594,"responses":"{\"Q0\":\"Learning complex patterns\"}","trial_type":"survey-text","trial_index":76,"time_elapsed":1901939,"internal_node_id":"0.0-7.0-1.0"},{"rt":7216,"responses":"{\"Q0\":\"0\"}","trial_type":"survey-likert","trial_index":77,"time_elapsed":1910159,"internal_node_id":"0.0-7.0-2.0"},{"rt":4159,"responses":"{\"Q0\":\"None\"}","trial_type":"survey-text","trial_index":78,"time_elapsed":1915335,"internal_node_id":"0.0-7.0-3.0"},{"rt":4469,"responses":"{\"Q0\":\"No\"}","trial_type":"survey-multi-choice","trial_index":79,"time_elapsed":1920836,"internal_node_id":"0.0-7.0-4.0"},{"rt":3750,"responses":"{\"Q0\":\"Did not notice\"}","trial_type":"survey-multi-choice","trial_index":80,"time_elapsed":1925596,"internal_node_id":"0.0-7.0-5.0"},{"rt":3049,"responses":"{\"Q0\":\"\"}","trial_type":"survey-text","trial_index":81,"time_elapsed":1929646,"internal_node_id":"0.0-7.0-6.0"},{"rt":4241,"responses":"{\"Q0\":\"0\"}","trial_type":"survey-likert","trial_index":82,"time_elapsed":1934891,"internal_node_id":"0.0-7.0-7.0"},{"rt":11491,"responses":"{\"Q0\":\"Different structure\"}","trial_type":"survey-multi-choice","trial_index":83,"time_elapsed":1947391,"internal_node_id":"0.0-7.0-8.0"},{"rt":19343,"responses":"{\"Q0\":\"white door = acid, black door = ray\",\"Q1\":\"Not at all confident\"}","trial_type":"survey-multi-choice","trial_index":84,"time_elapsed":1967746,"internal_node_id":"0.0-7.0-9.0"},{"rt":8771,"responses":"{\"Q0\":\"45-55\",\"Q1\":\"Master's degree\",\"Q2\":\"Male\",\"Q3\":\"White\"}","trial_type":"survey-multi-choice","trial_index":85,"time_elapsed":1977549,"internal_node_id":"0.0-8.0"},{"rt":45675,"responses":"{\"Q0\":\"Turns out my Internet connection was making things runs slow. I used a different connection today and finished the second part in 16 minutes.\"}","trial_type":"survey-text","trial_index":86,"time_elapsed":2024226,"internal_node_id":"0.0-9.0"}]