[{"view_history":"[{\"page_index\":0,\"viewing_time\":2494},{\"page_index\":1,\"viewing_time\":5727}]","rt":8222,"trial_type":"instructions","trial_index":0,"time_elapsed":8223,"internal_node_id":"0.0-0.0"},{"view_history":"[{\"page_index\":0,\"viewing_time\":1941},{\"page_index\":1,\"viewing_time\":12188}]","rt":14130,"trial_type":"instructions","trial_index":1,"time_elapsed":23355,"internal_node_id":"0.0-1.0"},{"group":"dihedral group of order 12","room_assignment":["ivory","olive","pink","orange","brown","yellow","purple","blue","cyan","grey","green","red"],"door_color_assignment":["white","black"],"door_generator_assignment":[1,0],"goal":7,"start":3,"action_noise":0.15,"location_history":"[3,4,10,9,8,2,3,9,3,9,3,4,10,4,5,0,1,2,8,7]","action_history":"[0,1,0,0,0,1,1,0,1,1,0,1,1,0,0,0,0,1,0]","door_history":"[1,0,1,1,1,0,0,1,0,0,1,0,0,1,1,1,1,0,1]","location_rts":"[1267,789,520,373,882,1134,632,536,680,61,1335,970,778,1045,1030,1077,973,1410,1001]","trial_type":"two-door-navigation","trial_index":2,"time_elapsed":62622,"internal_node_id":"0.0-2.0-0.0"},{"group":"dihedral group of order 12","room_assignment":["ivory","olive","pink","orange","brown","yellow","purple","blue","cyan","grey","green","red"],"door_color_assignment":["white","black"],"door_generator_assignment":[1,0],"goal":5,"start":7,"action_noise":0.15,"location_history":"[7,1,7,1,2,3,9,8,7,1,7,1,2,3,9,8,7,1,2,8,7,1,2,3,9,3,9,8,2,3,4,5]","action_history":"[1,1,1,0,0,1,0,0,1,1,1,0,1,1,0,0,1,0,1,0,0,0,1,1,1,1,0,1,0,0,0]","door_history":"[0,0,0,1,1,0,1,1,0,0,0,1,0,0,1,1,0,1,0,1,1,1,0,0,0,0,1,0,1,1,1]","location_rts":"[1169,529,581,219,1038,1370,955,1154,1612,1023,872,979,825,1274,956,900,967,1036,1137,887,591,750,1050,1567,732,896,443,828,554,686,953]","trial_type":"two-door-navigation","trial_index":3,"time_elapsed":126105,"internal_node_id":"0.0-2.0-1.0"},{"group":"dihedral group of order 12","room_assignment":["ivory","olive","pink","orange","brown","yellow","purple","blue","cyan","grey","green","red"],"door_color_assignment":["white","black"],"door_generator_assignment":[1,0],"goal":0,"start":5,"action_noise":0.15,"location_history":"[5,0]","action_history":"[0]","door_history":"[1]","location_rts":"[960]","trial_type":"two-door-navigation","trial_index":4,"time_elapsed":131583,"internal_node_id":"0.0-2.0-2.0"},{"group":"dihedral group of order 12","room_assignment":["ivory","olive","pink","orange","brown","yellow","purple","blue","cyan","grey","green","red"],"door_color_assignment":["white","black"],"door_generator_assignment":[1,0],"goal":2,"start":0,"action_noise":0.15,"location_history":"[0,6,0,1,7,6,0,6,0,1,2]","action_history":"[1,0,0,1,1,0,1,1,0,0]","door_history":"[0,1,1,0,0,1,0,0,1,1]","location_rts":"[1159,936,1244,654,684,665,728,642,1105,1209]","trial_type":"two-door-navigation","trial_index":5,"time_elapsed":154247,"internal_node_id":"0.0-2.0-3.0"},{"group":"dihedral group of order 12","room_assignment":["ivory","olive","pink","orange","brown","yellow","purple","blue","cyan","grey","green","red"],"door_color_assignment":["white","black"],"door_generator_assignment":[1,0],"goal":10,"start":2,"action_noise":0.15,"location_history":"[2,3,4,5,0,1,2,3,9,8,2,8,7,1,7,6,0,1,2,3,4,5,0,1,7,6,11,5,0,6,11,10]","action_history":"[0,0,0,0,0,0,0,1,0,0,1,0,1,0,0,1,0,0,0,0,1,0,0,1,0,0,1,0,1,0,0]","door_history":"[1,1,1,1,1,1,1,0,1,1,0,1,0,1,1,0,1,1,1,1,0,1,1,0,1,1,0,1,0,1,1]","location_rts":"[893,423,491,742,888,1239,859,1213,612,1086,1352,986,636,980,695,834,895,743,925,1239,705,907,963,1151,932,1203,952,774,703,684,693]","trial_type":"two-door-navigation","trial_index":6,"time_elapsed":216557,"internal_node_id":"0.0-2.0-4.0"},{"group":"dihedral group of order 12","room_assignment":["ivory","olive","pink","orange","brown","yellow","purple","blue","cyan","grey","green","red"],"door_color_assignment":["white","black"],"door_generator_assignment":[1,0],"goal":8,"start":10,"action_noise":0.15,"location_history":"[10,9,3,4,10,9,8]","action_history":"[1,1,0,1,0,1]","door_history":"[0,0,1,0,1,0]","location_rts":"[964,698,749,580,777,667]","trial_type":"two-door-navigation","trial_index":7,"time_elapsed":230566,"internal_node_id":"0.0-2.0-5.0"},{"group":"dihedral group of order 12","room_assignment":["ivory","olive","pink","orange","brown","yellow","purple","blue","cyan","grey","green","red"],"door_color_assignment":["white","black"],"door_generator_assignment":[1,0],"goal":11,"start":8,"action_noise":0.15,"location_history":"[8,2,8,2,3,9,8,7,6,11]","action_history":"[1,0,0,0,1,0,0,0,0]","door_history":"[0,1,1,1,0,1,1,1,1]","location_rts":"[693,331,330,296,365,372,739,920,886]","trial_type":"two-door-navigation","trial_index":8,"time_elapsed":248128,"internal_node_id":"0.0-2.0-6.0"},{"group":"dihedral group of order 12","room_assignment":["ivory","olive","pink","orange","brown","yellow","purple","blue","cyan","grey","green","red"],"door_color_assignment":["white","black"],"door_generator_assignment":[1,0],"goal":6,"start":11,"action_noise":0.15,"location_history":"[11,10,9,3,4,5,11,5,0,1,7,6]","action_history":"[0,1,1,0,0,1,1,0,0,1,0]","door_history":"[1,0,0,1,1,0,0,1,1,0,1]","location_rts":"[968,393,559,452,798,857,952,902,510,1049,833]","trial_type":"two-door-navigation","trial_index":9,"time_elapsed":271053,"internal_node_id":"0.0-2.0-7.0"},{"group":"dihedral group of order 12","room_assignment":["ivory","olive","pink","orange","brown","yellow","purple","blue","cyan","grey","green","red"],"door_color_assignment":["white","black"],"door_generator_assignment":[1,0],"goal":4,"start":6,"action_noise":0.15,"location_history":"[6,0,6,11,5,11,10,9,8,2,3,9,3,4]","action_history":"[1,1,0,1,1,0,0,0,1,0,1,1,0]","door_history":"[0,0,1,0,0,1,1,1,0,1,0,0,1]","location_rts":"[999,371,698,334,452,1147,1088,958,937,629,904,791,717]","trial_type":"two-door-navigation","trial_index":10,"time_elapsed":297761,"internal_node_id":"0.0-2.0-8.0"},{"group":"dihedral group of order 12","room_assignment":["ivory","olive","pink","orange","brown","yellow","purple","blue","cyan","grey","green","red"],"door_color_assignment":["white","black"],"door_generator_assignment":[1,0],"goal":1,"start":4,"action_noise":0.15,"location_history":"[4,5,11,10,9,8,7,1]","action_history":"[0,1,1,0,0,0,1]","door_history":"[1,0,0,1,1,1,0]","location_rts":"[975,598,853,995,931,1242,766]","trial_type":"two-door-navigation","trial_index":11,"time_elapsed":314716,"internal_node_id":"0.0-2.0-9.0"},{"group":"dihedral group of order 12","room_assignment":["ivory","olive","pink","orange","brown","yellow","purple","blue","cyan","grey","green","red"],"door_color_assignment":["white","black"],"door_generator_assignment":[1,0],"goal":9,"start":1,"action_noise":0.15,"location_history":"[1,7,6,11,10,4,10,4,5,0,6,0,1,2,3,4,10,4,5,0,6,11,10,4,10,4,10,4,5,0,1,2,3,9]","action_history":"[0,0,0,0,1,0,1,1,0,1,1,0,0,0,0,1,1,0,0,1,1,0,0,0,1,1,1,0,1,0,0,0,1]","door_history":"[1,1,1,1,0,1,0,0,1,0,0,1,1,1,1,0,0,1,1,0,0,1,1,1,0,0,0,1,0,1,1,1,0]","location_rts":"[858,444,650,803,930,881,740,267,730,459,480,425,739,980,1051,850,969,956,1077,966,476,107,660,755,798,621,862,545,704,860,689,924,858]","trial_type":"two-door-navigation","trial_index":12,"time_elapsed":375762,"internal_node_id":"0.0-2.0-10.0"},{"group":"dihedral group of order 12","room_assignment":["ivory","olive","pink","orange","brown","yellow","purple","blue","cyan","grey","green","red"],"door_color_assignment":["white","black"],"door_generator_assignment":[1,0],"goal":10,"start":9,"action_noise":0.15,"location_history":"[9,8,2,3,9,3,9,3,4,5,11,5,11,5,0,6,11,10]","action_history":"[0,0,1,0,0,1,1,0,1,1,0,1,1,0,1,0,0]","door_history":"[1,1,0,1,1,0,0,1,0,0,1,0,0,1,0,1,1]","location_rts":"[777,666,2330,602,751,857,655,776,712,835,742,982,288,843,686,564,616]","trial_type":"two-door-navigation","trial_index":13,"time_elapsed":410163,"internal_node_id":"0.0-2.0-11.0"},{"group":"dihedral group of order 12","room_assignment":["ivory","olive","pink","orange","brown","yellow","purple","blue","cyan","grey","green","red"],"door_color_assignment":["white","black"],"door_generator_assignment":[1,0],"goal":2,"start":10,"action_noise":0.15,"location_history":"[10,4,10,4,10,9,8,2]","action_history":"[1,0,1,1,0,1,1]","door_history":"[0,1,0,0,1,0,0]","location_rts":"[1657,578,522,197,796,644,819]","trial_type":"two-door-navigation","trial_index":14,"time_elapsed":425979,"internal_node_id":"0.0-2.0-12.0"},{"group":"dihedral group of order 12","room_assignment":["ivory","olive","pink","orange","brown","yellow","purple","blue","cyan","grey","green","red"],"door_color_assignment":["white","black"],"door_generator_assignment":[1,0],"goal":0,"start":2,"action_noise":0.15,"location_history":"[2,3,9,3,9,3,9,3,9,8,7,1,2,3,4,10,9,8,2,3,9,8,7,1,2,3,9,3,4,10,4,5,0]","action_history":"[0,0,1,1,0,1,1,0,0,0,1,0,0,1,1,0,0,1,0,0,0,0,1,0,0,1,1,1,1,1,0,0]","door_history":"[1,1,0,0,1,0,0,1,1,1,0,1,1,0,0,1,1,0,1,1,1,1,0,1,1,0,0,0,0,0,1,1]","location_rts":"[867,453,293,332,428,370,544,837,654,803,675,592,1138,959,719,872,764,944,237,632,676,987,520,833,1291,447,644,1321,1753,1593,712,575]","trial_type":"two-door-navigation","trial_index":15,"time_elapsed":486394,"internal_node_id":"0.0-2.0-13.0"},{"group":"dihedral group of order 12","room_assignment":["ivory","olive","pink","orange","brown","yellow","purple","blue","cyan","grey","green","red"],"door_color_assignment":["white","black"],"door_generator_assignment":[1,0],"goal":9,"start":0,"action_noise":0.15,"location_history":"[0,1,7,6,11,5,11,10,4,10,4,5,11,5,11,10,4,10,4,5,11,10,4,10,4,10,4,10,9]","action_history":"[0,1,0,0,1,0,0,1,0,1,0,1,1,1,0,1,1,1,0,1,0,1,1,1,0,0,1,0]","door_history":"[1,0,1,1,0,1,1,0,1,0,1,0,0,0,1,0,0,0,1,0,1,0,0,0,1,1,0,1]","location_rts":"[905,434,564,773,680,489,821,781,643,1573,690,411,400,722,979,1106,1157,1354,814,752,939,604,290,697,972,765,676,532]","trial_type":"two-door-navigation","trial_index":16,"time_elapsed":539800,"internal_node_id":"0.0-2.0-14.0"},{"group":"dihedral group of order 12","room_assignment":["ivory","olive","pink","orange","brown","yellow","purple","blue","cyan","grey","green","red"],"door_color_assignment":["white","black"],"door_generator_assignment":[1,0],"goal":8,"start":9,"action_noise":0.15,"location_history":"[9,8]","action_history":"[0]","door_history":"[1]","location_rts":"[794]","trial_type":"two-door-navigation","trial_index":17,"time_elapsed":545107,"internal_node_id":"0.0-2.0-15.0"},{"group":"dihedral group of order 12","room_assignment":["ivory","olive","pink","orange","brown","yellow","purple","blue","cyan","grey","green","red"],"door_color_assignment":["white","black"],"door_generator_assignment":[1,0],"goal":6,"start":8,"action_noise":0.15,"location_history":"[8,7,6]","action_history":"[0,0]","door_history":"[1,1]","location_rts":"[959,628]","trial_type":"two-door-navigation","trial_index":18,"time_elapsed":552223,"internal_node_id":"0.0-2.0-16.0"},{"group":"dihedral group of order 12","room_assignment":["ivory","olive","pink","orange","brown","yellow","purple","blue","cyan","grey","green","red"],"door_color_assignment":["white","black"],"door_generator_assignment":[1,0],"goal":1,"start":6,"action_noise":0.15,"location_history":"[6,0,1]","action_history":"[1,0]","door_history":"[0,1]","location_rts":"[870,455]","trial_type":"two-door-navigation","trial_index":19,"time_elapsed":559078,"internal_node_id":"0.0-2.0-17.0"},{"group":"dihedral group of order 12","room_assignment":["ivory","olive","pink","orange","brown","yellow","purple","blue","cyan","grey","green","red"],"door_color_assignment":["white","black"],"door_generator_assignment":[1,0],"goal":4,"start":1,"action_noise":0.15,"location_history":"[1,7,1,7,1,2,8,7,1,2,8,7,6,0,1,7,1,7,1,7,1,2,8,7,6,0,1,2,3,4]","action_history":"[1,1,0,1,1,0,0,1,0,1,0,0,1,1,1,1,0,0,1,1,0,1,0,0,1,0,0,0,0]","door_history":"[0,0,1,0,0,1,1,0,1,0,1,1,0,0,0,0,1,1,0,0,1,0,1,1,0,1,1,1,1]","location_rts":"[1219,719,674,281,188,578,981,840,842,577,452,586,613,578,799,821,717,871,768,993,570,1318,440,607,842,642,441,503,545]","trial_type":"two-door-navigation","trial_index":20,"time_elapsed":611963,"internal_node_id":"0.0-2.0-18.0"},{"group":"dihedral group of order 12","room_assignment":["ivory","olive","pink","orange","brown","yellow","purple","blue","cyan","grey","green","red"],"door_color_assignment":["white","black"],"door_generator_assignment":[1,0],"goal":11,"start":4,"action_noise":0.15,"location_history":"[4,10,4,5,11]","action_history":"[0,1,0,1]","door_history":"[1,0,1,0]","location_rts":"[717,821,721,506]","trial_type":"two-door-navigation","trial_index":21,"time_elapsed":622280,"internal_node_id":"0.0-2.0-19.0"},{"group":"dihedral group of order 12","room_assignment":["ivory","olive","pink","orange","brown","yellow","purple","blue","cyan","grey","green","red"],"door_color_assignment":["white","black"],"door_generator_assignment":[1,0],"goal":3,"start":11,"action_noise":0.15,"location_history":"[11,10,9,3]","action_history":"[0,0,1]","door_history":"[1,1,0]","location_rts":"[807,424,742]","trial_type":"two-door-navigation","trial_index":22,"time_elapsed":630791,"internal_node_id":"0.0-2.0-20.0"},{"group":"dihedral group of order 12","room_assignment":["ivory","olive","pink","orange","brown","yellow","purple","blue","cyan","grey","green","red"],"door_color_assignment":["white","black"],"door_generator_assignment":[1,0],"goal":5,"start":3,"action_noise":0.15,"location_history":"[3,4,10,4,5]","action_history":"[0,1,1,0]","door_history":"[1,0,0,1]","location_rts":"[305,400,268,656]","trial_type":"two-door-navigation","trial_index":23,"time_elapsed":639972,"internal_node_id":"0.0-2.0-21.0"},{"group":"dihedral group of order 12","room_assignment":["ivory","olive","pink","orange","brown","yellow","purple","blue","cyan","grey","green","red"],"door_color_assignment":["white","black"],"door_generator_assignment":[1,0],"goal":7,"start":5,"action_noise":0.15,"location_history":"[5,11,10,9,3,4,10,9,3,9,3,4,10,4,5,0,6,0,1,7]","action_history":"[1,0,0,1,0,0,1,0,1,1,0,1,1,0,0,1,1,0,1]","door_history":"[0,1,1,0,1,1,0,1,0,0,1,0,0,1,1,0,0,1,0]","location_rts":"[473,406,536,437,246,417,808,329,750,683,405,553,732,427,445,1058,777,741,532]","trial_type":"two-door-navigation","trial_index":24,"time_elapsed":673479,"internal_node_id":"0.0-2.0-22.0"},{"group":"dihedral group of order 12","room_assignment":["ivory","olive","pink","orange","brown","yellow","purple","blue","cyan","grey","green","red"],"door_color_assignment":["white","black"],"door_generator_assignment":[1,0],"goal":3,"start":7,"action_noise":0.15,"location_history":"[7,1,2,3]","action_history":"[0,1,0]","door_history":"[1,0,1]","location_rts":"[508,418,795]","trial_type":"two-door-navigation","trial_index":25,"time_elapsed":681741,"internal_node_id":"0.0-2.0-23.0"},{"group":"dihedral group of order 12","room_assignment":["ivory","olive","pink","orange","brown","yellow","purple","blue","cyan","grey","green","red"],"door_color_assignment":["white","black"],"door_generator_assignment":[1,0],"goal":4,"start":3,"action_noise":0.15,"location_history":"[3,4]","action_history":"[0]","door_history":"[1]","location_rts":"[642]","trial_type":"two-door-navigation","trial_index":26,"time_elapsed":686901,"internal_node_id":"0.0-2.0-24.0"},{"group":"dihedral group of order 12","room_assignment":["ivory","olive","pink","orange","brown","yellow","purple","blue","cyan","grey","green","red"],"door_color_assignment":["white","black"],"door_generator_assignment":[1,0],"goal":8,"start":4,"action_noise":0.15,"location_history":"[4,10,9,3,9,3,9,8]","action_history":"[1,0,1,1,0,1,0]","door_history":"[0,1,0,0,1,0,1]","location_rts":"[821,569,540,595,1014,629,395]","trial_type":"two-door-navigation","trial_index":27,"time_elapsed":702056,"internal_node_id":"0.0-2.0-25.0"},{"group":"dihedral group of order 12","room_assignment":["ivory","olive","pink","orange","brown","yellow","purple","blue","cyan","grey","green","red"],"door_color_assignment":["white","black"],"door_generator_assignment":[1,0],"goal":6,"start":8,"action_noise":0.15,"location_history":"[8,2,8,2,3,4,10,9,3,9,8,7,1,2,3,9,3,4,5,11,10,4,5,0,6]","action_history":"[0,1,1,0,0,1,0,1,1,0,0,1,0,0,1,1,0,0,1,0,1,0,0,1]","door_history":"[1,0,0,1,1,0,1,0,0,1,1,0,1,1,0,0,1,1,0,1,0,1,1,0]","location_rts":"[841,913,327,331,442,884,365,662,603,120,1018,837,647,1026,664,680,543,570,782,944,807,621,610,639]","trial_type":"two-door-navigation","trial_index":28,"time_elapsed":745763,"internal_node_id":"0.0-2.0-26.0"},{"group":"dihedral group of order 12","room_assignment":["ivory","olive","pink","orange","brown","yellow","purple","blue","cyan","grey","green","red"],"door_color_assignment":["white","black"],"door_generator_assignment":[1,0],"goal":1,"start":6,"action_noise":0.15,"location_history":"[6,11,5,0,1]","action_history":"[0,1,1,0]","door_history":"[1,0,0,1]","location_rts":"[637,520,390,498]","trial_type":"two-door-navigation","trial_index":29,"time_elapsed":755368,"internal_node_id":"0.0-2.0-27.0"},{"group":"dihedral group of order 12","room_assignment":["ivory","olive","pink","orange","brown","yellow","purple","blue","cyan","grey","green","red"],"door_color_assignment":["white","black"],"door_generator_assignment":[1,0],"goal":5,"start":1,"action_noise":0.15,"location_history":"[1,2,3,4,5]","action_history":"[0,1,0,0]","door_history":"[1,0,1,1]","location_rts":"[483,328,611,848]","trial_type":"two-door-navigation","trial_index":30,"time_elapsed":765193,"internal_node_id":"0.0-2.0-28.0"},{"group":"dihedral group of order 12","room_assignment":["ivory","olive","pink","orange","brown","yellow","purple","blue","cyan","grey","green","red"],"door_color_assignment":["white","black"],"door_generator_assignment":[1,0],"goal":9,"start":5,"action_noise":0.15,"location_history":"[5,0,1,7,6,11,5,0,1,7,1,7,1,2,3,9]","action_history":"[0,0,1,0,0,1,0,0,0,1,1,1,0,0,1]","door_history":"[1,1,0,1,1,0,1,1,1,0,0,0,1,1,0]","location_rts":"[441,626,248,694,697,507,808,931,766,359,568,460,202,1085,583]","trial_type":"two-door-navigation","trial_index":31,"time_elapsed":792880,"internal_node_id":"0.0-2.0-29.0"},{"group":"dihedral group of order 12","room_assignment":["ivory","olive","pink","orange","brown","yellow","purple","blue","cyan","grey","green","red"],"door_color_assignment":["white","black"],"door_generator_assignment":[1,0],"goal":10,"start":9,"action_noise":0.15,"location_history":"[9,8,7,1,2,3,4,10]","action_history":"[0,0,1,0,0,0,1]","door_history":"[1,1,0,1,1,1,0]","location_rts":"[519,761,1004,422,900,314,868]","trial_type":"two-door-navigation","trial_index":32,"time_elapsed":808261,"internal_node_id":"0.0-2.0-30.0"},{"group":"dihedral group of order 12","room_assignment":["ivory","olive","pink","orange","brown","yellow","purple","blue","cyan","grey","green","red"],"door_color_assignment":["white","black"],"door_generator_assignment":[1,0],"goal":0,"start":10,"action_noise":0.15,"location_history":"[10,9,3,4,5,11,5,11,5,11,10,9,8,7,6,0]","action_history":"[0,1,1,0,1,1,1,1,0,0,1,0,0,0,0]","door_history":"[1,0,0,1,0,0,0,0,1,1,0,1,1,1,1]","location_rts":"[839,246,1024,685,364,775,388,422,54,502,372,626,792,614,622]","trial_type":"two-door-navigation","trial_index":33,"time_elapsed":835291,"internal_node_id":"0.0-2.0-31.0"},{"group":"dihedral group of order 12","room_assignment":["ivory","olive","pink","orange","brown","yellow","purple","blue","cyan","grey","green","red"],"door_color_assignment":["white","black"],"door_generator_assignment":[1,0],"goal":7,"start":0,"action_noise":0.15,"location_history":"[0,1,7]","action_history":"[0,1]","door_history":"[1,0]","location_rts":"[568,404]","trial_type":"two-door-navigation","trial_index":34,"time_elapsed":841793,"internal_node_id":"0.0-2.0-32.0"},{"group":"dihedral group of order 12","room_assignment":["ivory","olive","pink","orange","brown","yellow","purple","blue","cyan","grey","green","red"],"door_color_assignment":["white","black"],"door_generator_assignment":[1,0],"goal":11,"start":7,"action_noise":0.15,"location_history":"[7,6,0,6,11]","action_history":"[0,0,1,0]","door_history":"[1,1,0,1]","location_rts":"[769,545,619,315]","trial_type":"two-door-navigation","trial_index":35,"time_elapsed":851594,"internal_node_id":"0.0-2.0-33.0"},{"group":"dihedral group of order 12","room_assignment":["ivory","olive","pink","orange","brown","yellow","purple","blue","cyan","grey","green","red"],"door_color_assignment":["white","black"],"door_generator_assignment":[1,0],"goal":2,"start":11,"action_noise":0.15,"location_history":"[11,10,4,5,11,5,11,5,0,1,2]","action_history":"[1,1,0,1,1,1,1,0,0,0]","door_history":"[0,0,1,0,0,0,0,1,1,1]","location_rts":"[945,310,710,355,531,748,335,60,1320,491]","trial_type":"two-door-navigation","trial_index":36,"time_elapsed":871025,"internal_node_id":"0.0-2.0-34.0"},{"view_history":"[{\"page_index\":0,\"viewing_time\":1391}]","rt":1391,"trial_type":"instructions","trial_index":37,"time_elapsed":873416,"internal_node_id":"0.0-3.0"},{"view_history":"[{\"page_index\":0,\"viewing_time\":737},{\"page_index\":1,\"viewing_time\":6621}]","rt":7359,"trial_type":"instructions","trial_index":38,"time_elapsed":881776,"internal_node_id":"0.0-4.0"},{"group":"dihedral group of order 12","fractal_assignment":["../images/wht_red.png","../images/gry_blk.png","../images/cyn_red.png","../images/grn_blu.png","../images/pnk_blu.png","../images/grn_red.png","../images/org_blu.png","../images/ylw_slt.png","../images/grn_prp.png","../images/red_prp.png","../images/ylw_pnk.png","../images/blu_wht.png"],"mutagen_generator_assignment":[0,1],"goal":7,"start":3,"action_noise":0.15,"location_history":"[3,4,5,0,1,2,3,4,5,11,10,9,8,7]","action_history":"[0,0,0,0,0,0,0,0,0,0,0,0,0]","mutagen_history":"[0,0,0,0,0,0,0,0,0,0,0,0,0]","location_rts":"[1056,245,112,400,317,354,360,401,316,514,337,395,369]","trial_type":"fractal-mutation","trial_index":39,"time_elapsed":903952,"internal_node_id":"0.0-5.0-0.0"},{"group":"dihedral group of order 12","fractal_assignment":["../images/wht_red.png","../images/gry_blk.png","../images/cyn_red.png","../images/grn_blu.png","../images/pnk_blu.png","../images/grn_red.png","../images/org_blu.png","../images/ylw_slt.png","../images/grn_prp.png","../images/red_prp.png","../images/ylw_pnk.png","../images/blu_wht.png"],"mutagen_generator_assignment":[0,1],"goal":5,"start":7,"action_noise":0.15,"location_history":"[7,1,2,3,4,5]","action_history":"[1,0,0,0,0]","mutagen_history":"[1,0,0,0,0]","location_rts":"[1018,109,29,485,338]","trial_type":"fractal-mutation","trial_index":40,"time_elapsed":914625,"internal_node_id":"0.0-5.0-1.0"},{"group":"dihedral group of order 12","fractal_assignment":["../images/wht_red.png","../images/gry_blk.png","../images/cyn_red.png","../images/grn_blu.png","../images/pnk_blu.png","../images/grn_red.png","../images/org_blu.png","../images/ylw_slt.png","../images/grn_prp.png","../images/red_prp.png","../images/ylw_pnk.png","../images/blu_wht.png"],"mutagen_generator_assignment":[0,1],"goal":0,"start":5,"action_noise":0.15,"location_history":"[5,11,5,11,5,11,10,9,8,7,6,11,10,4,5,0]","action_history":"[1,0,0,0,0,0,0,0,0,0,0,0,1,0,0]","mutagen_history":"[1,0,0,0,0,0,0,0,0,0,0,0,1,0,0]","location_rts":"[516,38,111,32,65,495,436,77,299,308,289,321,456,87,37]","trial_type":"fractal-mutation","trial_index":41,"time_elapsed":937226,"internal_node_id":"0.0-5.0-2.0"},{"group":"dihedral group of order 12","fractal_assignment":["../images/wht_red.png","../images/gry_blk.png","../images/cyn_red.png","../images/grn_blu.png","../images/pnk_blu.png","../images/grn_red.png","../images/org_blu.png","../images/ylw_slt.png","../images/grn_prp.png","../images/red_prp.png","../images/ylw_pnk.png","../images/blu_wht.png"],"mutagen_generator_assignment":[0,1],"goal":2,"start":0,"action_noise":0.15,"location_history":"[0,6,0,1,2]","action_history":"[1,1,0,1]","mutagen_history":"[1,1,0,1]","location_rts":"[834,123,244,224]","trial_type":"fractal-mutation","trial_index":42,"time_elapsed":946338,"internal_node_id":"0.0-5.0-3.0"},{"group":"dihedral group of order 12","fractal_assignment":["../images/wht_red.png","../images/gry_blk.png","../images/cyn_red.png","../images/grn_blu.png","../images/pnk_blu.png","../images/grn_red.png","../images/org_blu.png","../images/ylw_slt.png","../images/grn_prp.png","../images/red_prp.png","../images/ylw_pnk.png","../images/blu_wht.png"],"mutagen_generator_assignment":[0,1],"goal":10,"start":2,"action_noise":0.15,"location_history":"[2,3,4,5,0,1,2,3,4,5,0,1,7,6,11,10]","action_history":"[1,0,0,0,1,0,0,0,0,0,0,0,0,0,0]","mutagen_history":"[1,0,0,0,1,0,0,0,0,0,0,0,0,0,0]","location_rts":"[394,92,410,440,629,159,1,373,125,482,68,63,277,50,190]","trial_type":"fractal-mutation","trial_index":43,"time_elapsed":969126,"internal_node_id":"0.0-5.0-4.0"},{"group":"dihedral group of order 12","fractal_assignment":["../images/wht_red.png","../images/gry_blk.png","../images/cyn_red.png","../images/grn_blu.png","../images/pnk_blu.png","../images/grn_red.png","../images/org_blu.png","../images/ylw_slt.png","../images/grn_prp.png","../images/red_prp.png","../images/ylw_pnk.png","../images/blu_wht.png"],"mutagen_generator_assignment":[0,1],"goal":8,"start":10,"action_noise":0.15,"location_history":"[10,4,5,0,1,2,8]","action_history":"[1,0,0,0,0,1]","mutagen_history":"[1,0,0,0,0,1]","location_rts":"[726,414,209,41,393,728]","trial_type":"fractal-mutation","trial_index":44,"time_elapsed":981360,"internal_node_id":"0.0-5.0-5.0"},{"group":"dihedral group of order 12","fractal_assignment":["../images/wht_red.png","../images/gry_blk.png","../images/cyn_red.png","../images/grn_blu.png","../images/pnk_blu.png","../images/grn_red.png","../images/org_blu.png","../images/ylw_slt.png","../images/grn_prp.png","../images/red_prp.png","../images/ylw_pnk.png","../images/blu_wht.png"],"mutagen_generator_assignment":[0,1],"goal":11,"start":8,"action_noise":0.15,"location_history":"[8,2,3,4,5,0,1,2,3,4,5,0,1,7,6,11]","action_history":"[0,0,0,0,0,0,0,0,0,0,0,0,0,0,0]","mutagen_history":"[0,0,0,0,0,0,0,0,0,0,0,0,0,0,0]","location_rts":"[916,109,64,29,10,524,49,64,33,88,286,126,151,543,313]","trial_type":"fractal-mutation","trial_index":45,"time_elapsed":1003664,"internal_node_id":"0.0-5.0-6.0"},{"group":"dihedral group of order 12","fractal_assignment":["../images/wht_red.png","../images/gry_blk.png","../images/cyn_red.png","../images/grn_blu.png","../images/pnk_blu.png","../images/grn_red.png","../images/org_blu.png","../images/ylw_slt.png","../images/grn_prp.png","../images/red_prp.png","../images/ylw_pnk.png","../images/blu_wht.png"],"mutagen_generator_assignment":[0,1],"goal":6,"start":11,"action_noise":0.15,"location_history":"[11,5,0,1,2,3,4,5,0,1,2,3,9,8,7,6]","action_history":"[1,0,0,0,0,0,0,0,0,0,0,0,0,0,0]","mutagen_history":"[1,0,0,0,0,0,0,0,0,0,0,0,0,0,0]","location_rts":"[597,124,208,296,478,375,288,295,464,330,363,352,910,378,345]","trial_type":"fractal-mutation","trial_index":46,"time_elapsed":1028478,"internal_node_id":"0.0-5.0-7.0"},{"group":"dihedral group of order 12","fractal_assignment":["../images/wht_red.png","../images/gry_blk.png","../images/cyn_red.png","../images/grn_blu.png","../images/pnk_blu.png","../images/grn_red.png","../images/org_blu.png","../images/ylw_slt.png","../images/grn_prp.png","../images/red_prp.png","../images/ylw_pnk.png","../images/blu_wht.png"],"mutagen_generator_assignment":[0,1],"goal":4,"start":6,"action_noise":0.15,"location_history":"[6,0,1,2,8,7,1,2,3,4]","action_history":"[1,1,0,1,0,0,0,0,0]","mutagen_history":"[1,1,0,1,0,0,0,0,0]","location_rts":"[597,329,577,565,57,249,37,41,431]","trial_type":"fractal-mutation","trial_index":47,"time_elapsed":1044173,"internal_node_id":"0.0-5.0-8.0"},{"group":"dihedral group of order 12","fractal_assignment":["../images/wht_red.png","../images/gry_blk.png","../images/cyn_red.png","../images/grn_blu.png","../images/pnk_blu.png","../images/grn_red.png","../images/org_blu.png","../images/ylw_slt.png","../images/grn_prp.png","../images/red_prp.png","../images/ylw_pnk.png","../images/blu_wht.png"],"mutagen_generator_assignment":[0,1],"goal":1,"start":4,"action_noise":0.15,"location_history":"[4,10,9,8,7,1]","action_history":"[1,0,0,0,0]","mutagen_history":"[1,0,0,0,0]","location_rts":"[238,106,286,126,148]","trial_type":"fractal-mutation","trial_index":48,"time_elapsed":1053750,"internal_node_id":"0.0-5.0-9.0"},{"group":"dihedral group of order 12","fractal_assignment":["../images/wht_red.png","../images/gry_blk.png","../images/cyn_red.png","../images/grn_blu.png","../images/pnk_blu.png","../images/grn_red.png","../images/org_blu.png","../images/ylw_slt.png","../images/grn_prp.png","../images/red_prp.png","../images/ylw_pnk.png","../images/blu_wht.png"],"mutagen_generator_assignment":[0,1],"goal":9,"start":1,"action_noise":0.15,"location_history":"[1,2,8,2,3,4,5,0,1,7,6,11,10,4,10,9]","action_history":"[0,1,1,0,0,1,0,0,1,0,0,0,0,0,0]","mutagen_history":"[0,1,1,0,0,1,0,0,1,0,0,0,0,0,0]","location_rts":"[1189,343,235,440,116,138,162,94,416,479,108,109,296,32,191]","trial_type":"fractal-mutation","trial_index":49,"time_elapsed":1077143,"internal_node_id":"0.0-5.0-10.0"},{"group":"dihedral group of order 12","fractal_assignment":["../images/wht_red.png","../images/gry_blk.png","../images/cyn_red.png","../images/grn_blu.png","../images/pnk_blu.png","../images/grn_red.png","../images/org_blu.png","../images/ylw_slt.png","../images/grn_prp.png","../images/red_prp.png","../images/ylw_pnk.png","../images/blu_wht.png"],"mutagen_generator_assignment":[0,1],"goal":10,"start":9,"action_noise":0.15,"location_history":"[9,3,9,3,4,5,0,1,2,3,9,8,7,6,0,1,7,1,7,6,11,10]","action_history":"[1,1,1,0,0,0,0,0,0,0,0,0,0,0,0,0,0,0,0,0,0]","mutagen_history":"[1,1,1,0,0,0,0,0,0,0,0,0,0,0,0,0,0,0,0,0,0]","location_rts":"[909,359,344,38,37,69,134,38,93,63,97,112,114,118,81,38,334,286,396,624,735]","trial_type":"fractal-mutation","trial_index":50,"time_elapsed":1107379,"internal_node_id":"0.0-5.0-11.0"},{"group":"dihedral group of order 12","fractal_assignment":["../images/wht_red.png","../images/gry_blk.png","../images/cyn_red.png","../images/grn_blu.png","../images/pnk_blu.png","../images/grn_red.png","../images/org_blu.png","../images/ylw_slt.png","../images/grn_prp.png","../images/red_prp.png","../images/ylw_pnk.png","../images/blu_wht.png"],"mutagen_generator_assignment":[0,1],"goal":2,"start":10,"action_noise":0.15,"location_history":"[10,4,5,11,5,11,10,9,8,2]","action_history":"[1,0,0,1,0,0,0,0,1]","mutagen_history":"[1,0,0,1,0,0,0,0,1]","location_rts":"[545,395,373,1255,690,139,440,593,509]","trial_type":"fractal-mutation","trial_index":51,"time_elapsed":1125156,"internal_node_id":"0.0-5.0-12.0"},{"group":"dihedral group of order 12","fractal_assignment":["../images/wht_red.png","../images/gry_blk.png","../images/cyn_red.png","../images/grn_blu.png","../images/pnk_blu.png","../images/grn_red.png","../images/org_blu.png","../images/ylw_slt.png","../images/grn_prp.png","../images/red_prp.png","../images/ylw_pnk.png","../images/blu_wht.png"],"mutagen_generator_assignment":[0,1],"goal":0,"start":2,"action_noise":0.15,"location_history":"[2,8,7,6,11,5,0]","action_history":"[0,0,0,0,0,0]","mutagen_history":"[0,0,0,0,0,0]","location_rts":"[1320,92,38,32,48,433]","trial_type":"fractal-mutation","trial_index":52,"time_elapsed":1136815,"internal_node_id":"0.0-5.0-13.0"},{"group":"dihedral group of order 12","fractal_assignment":["../images/wht_red.png","../images/gry_blk.png","../images/cyn_red.png","../images/grn_blu.png","../images/pnk_blu.png","../images/grn_red.png","../images/org_blu.png","../images/ylw_slt.png","../images/grn_prp.png","../images/red_prp.png","../images/ylw_pnk.png","../images/blu_wht.png"],"mutagen_generator_assignment":[0,1],"goal":9,"start":0,"action_noise":0.15,"location_history":"[0,6,11,5,0,1,7,6,11,10,9]","action_history":"[1,0,0,0,0,1,0,0,0,0]","mutagen_history":"[1,0,0,0,0,1,0,0,0,0]","location_rts":"[708,431,80,6,88,512,109,81,53,518]","trial_type":"fractal-mutation","trial_index":53,"time_elapsed":1153262,"internal_node_id":"0.0-5.0-14.0"},{"group":"dihedral group of order 12","fractal_assignment":["../images/wht_red.png","../images/gry_blk.png","../images/cyn_red.png","../images/grn_blu.png","../images/pnk_blu.png","../images/grn_red.png","../images/org_blu.png","../images/ylw_slt.png","../images/grn_prp.png","../images/red_prp.png","../images/ylw_pnk.png","../images/blu_wht.png"],"mutagen_generator_assignment":[0,1],"goal":8,"start":9,"action_noise":0.15,"location_history":"[9,8]","action_history":"[1]","mutagen_history":"[1]","location_rts":"[22469]","trial_type":"fractal-mutation","trial_index":54,"time_elapsed":1180274,"internal_node_id":"0.0-5.0-15.0"},{"group":"dihedral group of order 12","fractal_assignment":["../images/wht_red.png","../images/gry_blk.png","../images/cyn_red.png","../images/grn_blu.png","../images/pnk_blu.png","../images/grn_red.png","../images/org_blu.png","../images/ylw_slt.png","../images/grn_prp.png","../images/red_prp.png","../images/ylw_pnk.png","../images/blu_wht.png"],"mutagen_generator_assignment":[0,1],"goal":6,"start":8,"action_noise":0.15,"location_history":"[8,7,6]","action_history":"[0,0]","mutagen_history":"[0,0]","location_rts":"[1323,299]","trial_type":"fractal-mutation","trial_index":55,"time_elapsed":1187460,"internal_node_id":"0.0-5.0-16.0"},{"group":"dihedral group of order 12","fractal_assignment":["../images/wht_red.png","../images/gry_blk.png","../images/cyn_red.png","../images/grn_blu.png","../images/pnk_blu.png","../images/grn_red.png","../images/org_blu.png","../images/ylw_slt.png","../images/grn_prp.png","../images/red_prp.png","../images/ylw_pnk.png","../images/blu_wht.png"],"mutagen_generator_assignment":[0,1],"goal":1,"start":6,"action_noise":0.15,"location_history":"[6,0,1]","action_history":"[1,0]","mutagen_history":"[1,0]","location_rts":"[672,207]","trial_type":"fractal-mutation","trial_index":56,"time_elapsed":1193917,"internal_node_id":"0.0-5.0-17.0"},{"group":"dihedral group of order 12","fractal_assignment":["../images/wht_red.png","../images/gry_blk.png","../images/cyn_red.png","../images/grn_blu.png","../images/pnk_blu.png","../images/grn_red.png","../images/org_blu.png","../images/ylw_slt.png","../images/grn_prp.png","../images/red_prp.png","../images/ylw_pnk.png","../images/blu_wht.png"],"mutagen_generator_assignment":[0,1],"goal":4,"start":1,"action_noise":0.15,"location_history":"[1,7,6,0,1,2,3,4]","action_history":"[1,0,0,0,0,0,0]","mutagen_history":"[1,0,0,0,0,0,0]","location_rts":"[900,59,31,117,97,87,95]","trial_type":"fractal-mutation","trial_index":57,"time_elapsed":1206010,"internal_node_id":"0.0-5.0-18.0"},{"group":"dihedral group of order 12","fractal_assignment":["../images/wht_red.png","../images/gry_blk.png","../images/cyn_red.png","../images/grn_blu.png","../images/pnk_blu.png","../images/grn_red.png","../images/org_blu.png","../images/ylw_slt.png","../images/grn_prp.png","../images/red_prp.png","../images/ylw_pnk.png","../images/blu_wht.png"],"mutagen_generator_assignment":[0,1],"goal":11,"start":4,"action_noise":0.15,"location_history":"[4,5,0,1,2,8,7,6,11]","action_history":"[0,0,0,0,1,0,0,0]","mutagen_history":"[0,0,0,0,1,0,0,0]","location_rts":"[1226,994,452,631,1257,177,215,144]","trial_type":"fractal-mutation","trial_index":58,"time_elapsed":1222857,"internal_node_id":"0.0-5.0-19.0"},{"group":"dihedral group of order 12","fractal_assignment":["../images/wht_red.png","../images/gry_blk.png","../images/cyn_red.png","../images/grn_blu.png","../images/pnk_blu.png","../images/grn_red.png","../images/org_blu.png","../images/ylw_slt.png","../images/grn_prp.png","../images/red_prp.png","../images/ylw_pnk.png","../images/blu_wht.png"],"mutagen_generator_assignment":[0,1],"goal":3,"start":11,"action_noise":0.15,"location_history":"[11,5,0,1,2,3]","action_history":"[1,0,0,0,0]","mutagen_history":"[1,0,0,0,0]","location_rts":"[3058,182,38,201,609]","trial_type":"fractal-mutation","trial_index":59,"time_elapsed":1235593,"internal_node_id":"0.0-5.0-20.0"},{"group":"dihedral group of order 12","fractal_assignment":["../images/wht_red.png","../images/gry_blk.png","../images/cyn_red.png","../images/grn_blu.png","../images/pnk_blu.png","../images/grn_red.png","../images/org_blu.png","../images/ylw_slt.png","../images/grn_prp.png","../images/red_prp.png","../images/ylw_pnk.png","../images/blu_wht.png"],"mutagen_generator_assignment":[0,1],"goal":5,"start":3,"action_noise":0.15,"location_history":"[3,4,5]","action_history":"[1,0]","mutagen_history":"[1,0]","location_rts":"[1697,283]","trial_type":"fractal-mutation","trial_index":60,"time_elapsed":1243149,"internal_node_id":"0.0-5.0-21.0"},{"group":"dihedral group of order 12","fractal_assignment":["../images/wht_red.png","../images/gry_blk.png","../images/cyn_red.png","../images/grn_blu.png","../images/pnk_blu.png","../images/grn_red.png","../images/org_blu.png","../images/ylw_slt.png","../images/grn_prp.png","../images/red_prp.png","../images/ylw_pnk.png","../images/blu_wht.png"],"mutagen_generator_assignment":[0,1],"goal":7,"start":5,"action_noise":0.15,"location_history":"[5,0,1,7]","action_history":"[0,0,0]","mutagen_history":"[0,0,0]","location_rts":"[830,152,222]","trial_type":"fractal-mutation","trial_index":61,"time_elapsed":1250946,"internal_node_id":"0.0-5.0-22.0"},{"group":"dihedral group of order 12","fractal_assignment":["../images/wht_red.png","../images/gry_blk.png","../images/cyn_red.png","../images/grn_blu.png","../images/pnk_blu.png","../images/grn_red.png","../images/org_blu.png","../images/ylw_slt.png","../images/grn_prp.png","../images/red_prp.png","../images/ylw_pnk.png","../images/blu_wht.png"],"mutagen_generator_assignment":[0,1],"goal":3,"start":7,"action_noise":0.15,"location_history":"[7,6,11,10,4,5,0,1,7,6,11,5,0,1,2,3]","action_history":"[1,0,0,0,0,0,0,0,0,0,0,0,0,0,0]","mutagen_history":"[1,0,0,0,0,0,0,0,0,0,0,0,0,0,0]","location_rts":"[1802,144,203,216,208,12,93,184,80,81,47,16,49,50,241]","trial_type":"fractal-mutation","trial_index":62,"time_elapsed":1273359,"internal_node_id":"0.0-5.0-23.0"},{"group":"dihedral group of order 12","fractal_assignment":["../images/wht_red.png","../images/gry_blk.png","../images/cyn_red.png","../images/grn_blu.png","../images/pnk_blu.png","../images/grn_red.png","../images/org_blu.png","../images/ylw_slt.png","../images/grn_prp.png","../images/red_prp.png","../images/ylw_pnk.png","../images/blu_wht.png"],"mutagen_generator_assignment":[0,1],"goal":4,"start":3,"action_noise":0.15,"location_history":"[3,4]","action_history":"[1]","mutagen_history":"[1]","location_rts":"[956]","trial_type":"fractal-mutation","trial_index":63,"time_elapsed":1278852,"internal_node_id":"0.0-5.0-24.0"},{"group":"dihedral group of order 12","fractal_assignment":["../images/wht_red.png","../images/gry_blk.png","../images/cyn_red.png","../images/grn_blu.png","../images/pnk_blu.png","../images/grn_red.png","../images/org_blu.png","../images/ylw_slt.png","../images/grn_prp.png","../images/red_prp.png","../images/ylw_pnk.png","../images/blu_wht.png"],"mutagen_generator_assignment":[0,1],"goal":8,"start":4,"action_noise":0.15,"location_history":"[4,10,4,5,11,10,9,3,4,5,0,6,11,10,9,8]","action_history":"[1,0,0,0,0,0,1,0,0,0,1,0,0,0,0]","mutagen_history":"[1,0,0,0,0,0,1,0,0,0,1,0,0,0,0]","location_rts":"[1303,422,42,52,460,168,627,422,98,535,353,307,197,603,143]","trial_type":"fractal-mutation","trial_index":64,"time_elapsed":1303522,"internal_node_id":"0.0-5.0-25.0"},{"group":"dihedral group of order 12","fractal_assignment":["../images/wht_red.png","../images/gry_blk.png","../images/cyn_red.png","../images/grn_blu.png","../images/pnk_blu.png","../images/grn_red.png","../images/org_blu.png","../images/ylw_slt.png","../images/grn_prp.png","../images/red_prp.png","../images/ylw_pnk.png","../images/blu_wht.png"],"mutagen_generator_assignment":[0,1],"goal":6,"start":8,"action_noise":0.15,"location_history":"[8,7,6]","action_history":"[0,0]","mutagen_history":"[0,0]","location_rts":"[1575,159]","trial_type":"fractal-mutation","trial_index":65,"time_elapsed":1310815,"internal_node_id":"0.0-5.0-26.0"},{"group":"dihedral group of order 12","fractal_assignment":["../images/wht_red.png","../images/gry_blk.png","../images/cyn_red.png","../images/grn_blu.png","../images/pnk_blu.png","../images/grn_red.png","../images/org_blu.png","../images/ylw_slt.png","../images/grn_prp.png","../images/red_prp.png","../images/ylw_pnk.png","../images/blu_wht.png"],"mutagen_generator_assignment":[0,1],"goal":1,"start":6,"action_noise":0.15,"location_history":"[6,11,5,11,5,0,6,0,1]","action_history":"[1,1,1,1,0,0,1,0]","mutagen_history":"[1,1,1,1,0,0,1,0]","location_rts":"[683,505,888,699,224,99,287,84]","trial_type":"fractal-mutation","trial_index":66,"time_elapsed":1326037,"internal_node_id":"0.0-5.0-27.0"},{"group":"dihedral group of order 12","fractal_assignment":["../images/wht_red.png","../images/gry_blk.png","../images/cyn_red.png","../images/grn_blu.png","../images/pnk_blu.png","../images/grn_red.png","../images/org_blu.png","../images/ylw_slt.png","../images/grn_prp.png","../images/red_prp.png","../images/ylw_pnk.png","../images/blu_wht.png"],"mutagen_generator_assignment":[0,1],"goal":5,"start":1,"action_noise":0.15,"location_history":"[1,7,1,2,3,4,5]","action_history":"[1,0,0,0,0,0]","mutagen_history":"[1,0,0,0,0,0]","location_rts":"[1413,50,57,113,365,149]","trial_type":"fractal-mutation","trial_index":67,"time_elapsed":1337876,"internal_node_id":"0.0-5.0-28.0"},{"group":"dihedral group of order 12","fractal_assignment":["../images/wht_red.png","../images/gry_blk.png","../images/cyn_red.png","../images/grn_blu.png","../images/pnk_blu.png","../images/grn_red.png","../images/org_blu.png","../images/ylw_slt.png","../images/grn_prp.png","../images/red_prp.png","../images/ylw_pnk.png","../images/blu_wht.png"],"mutagen_generator_assignment":[0,1],"goal":9,"start":5,"action_noise":0.15,"location_history":"[5,0,1,2,8,7,6,11,10,9]","action_history":"[0,0,0,1,0,0,0,0,0]","mutagen_history":"[0,0,0,1,0,0,0,0,0]","location_rts":"[1069,99,242,380,75,159,217,72,172]","trial_type":"fractal-mutation","trial_index":68,"time_elapsed":1353136,"internal_node_id":"0.0-5.0-29.0"},{"group":"dihedral group of order 12","fractal_assignment":["../images/wht_red.png","../images/gry_blk.png","../images/cyn_red.png","../images/grn_blu.png","../images/pnk_blu.png","../images/grn_red.png","../images/org_blu.png","../images/ylw_slt.png","../images/grn_prp.png","../images/red_prp.png","../images/ylw_pnk.png","../images/blu_wht.png"],"mutagen_generator_assignment":[0,1],"goal":10,"start":9,"action_noise":0.15,"location_history":"[9,3,4,5,0,1,7,6,11,10]","action_history":"[1,0,0,0,0,0,0,0,0]","mutagen_history":"[1,0,0,0,0,0,0,0,0]","location_rts":"[843,42,223,141,10,67,70,60,148]","trial_type":"fractal-mutation","trial_index":69,"time_elapsed":1367505,"internal_node_id":"0.0-5.0-30.0"},{"group":"dihedral group of order 12","fractal_assignment":["../images/wht_red.png","../images/gry_blk.png","../images/cyn_red.png","../images/grn_blu.png","../images/pnk_blu.png","../images/grn_red.png","../images/org_blu.png","../images/ylw_slt.png","../images/grn_prp.png","../images/red_prp.png","../images/ylw_pnk.png","../images/blu_wht.png"],"mutagen_generator_assignment":[0,1],"goal":0,"start":10,"action_noise":0.15,"location_history":"[10,4,5,0]","action_history":"[1,0,0]","mutagen_history":"[1,0,0]","location_rts":"[634,130,117]","trial_type":"fractal-mutation","trial_index":70,"time_elapsed":1374993,"internal_node_id":"0.0-5.0-31.0"},{"group":"dihedral group of order 12","fractal_assignment":["../images/wht_red.png","../images/gry_blk.png","../images/cyn_red.png","../images/grn_blu.png","../images/pnk_blu.png","../images/grn_red.png","../images/org_blu.png","../images/ylw_slt.png","../images/grn_prp.png","../images/red_prp.png","../images/ylw_pnk.png","../images/blu_wht.png"],"mutagen_generator_assignment":[0,1],"goal":7,"start":0,"action_noise":0.15,"location_history":"[0,6,11,10,9,8,7]","action_history":"[1,0,0,0,0,0]","mutagen_history":"[1,0,0,0,0,0]","location_rts":"[673,56,8,174,161,210]","trial_type":"fractal-mutation","trial_index":71,"time_elapsed":1385966,"internal_node_id":"0.0-5.0-32.0"},{"group":"dihedral group of order 12","fractal_assignment":["../images/wht_red.png","../images/gry_blk.png","../images/cyn_red.png","../images/grn_blu.png","../images/pnk_blu.png","../images/grn_red.png","../images/org_blu.png","../images/ylw_slt.png","../images/grn_prp.png","../images/red_prp.png","../images/ylw_pnk.png","../images/blu_wht.png"],"mutagen_generator_assignment":[0,1],"goal":11,"start":7,"action_noise":0.15,"location_history":"[7,1,7,6,11]","action_history":"[1,0,0,0]","mutagen_history":"[1,0,0,0]","location_rts":"[779,82,181,208]","trial_type":"fractal-mutation","trial_index":72,"time_elapsed":1394855,"internal_node_id":"0.0-5.0-33.0"},{"group":"dihedral group of order 12","fractal_assignment":["../images/wht_red.png","../images/gry_blk.png","../images/cyn_red.png","../images/grn_blu.png","../images/pnk_blu.png","../images/grn_red.png","../images/org_blu.png","../images/ylw_slt.png","../images/grn_prp.png","../images/red_prp.png","../images/ylw_pnk.png","../images/blu_wht.png"],"mutagen_generator_assignment":[0,1],"goal":2,"start":11,"action_noise":0.15,"location_history":"[11,5,0,6,0,1,2]","action_history":"[1,0,0,1,0,0]","mutagen_history":"[1,0,0,1,0,0]","location_rts":"[794,413,324,157,334,21]","trial_type":"fractal-mutation","trial_index":73,"time_elapsed":1406605,"internal_node_id":"0.0-5.0-34.0"},{"view_history":"[{\"page_index\":0,\"viewing_time\":2590}]","rt":2590,"trial_type":"instructions","trial_index":74,"time_elapsed":1410195,"internal_node_id":"0.0-6.0"},{"rt":48316,"responses":"{\"Q0\":\"I think it was trying to see if people could use the different clues in the rooms to remember route to a specific room.\"}","trial_type":"survey-text","trial_index":75,"time_elapsed":1459517,"internal_node_id":"0.0-7.0-0.0"},{"rt":53263,"responses":"{\"Q0\":\"I think it was trying to see if it was easier to remember routes to different patterns than it was to rooms. \"}","trial_type":"survey-text","trial_index":76,"time_elapsed":1513782,"internal_node_id":"0.0-7.0-1.0"},{"rt":5060,"responses":"{\"Q0\":\"2\"}","trial_type":"survey-likert","trial_index":77,"time_elapsed":1519847,"internal_node_id":"0.0-7.0-2.0"},{"rt":35733,"responses":"{\"Q0\":\"There were specific sequences in both sections that you could remember to get to where you were asked to go. \"}","trial_type":"survey-text","trial_index":78,"time_elapsed":1556583,"internal_node_id":"0.0-7.0-3.0"},{"rt":7961,"responses":"{\"Q0\":\"No\"}","trial_type":"survey-multi-choice","trial_index":79,"time_elapsed":1565568,"internal_node_id":"0.0-7.0-4.0"},{"rt":21880,"responses":"{\"Q0\":\"During these questions/I wasn't aware until you pointed it out\"}","trial_type":"survey-multi-choice","trial_index":80,"time_elapsed":1588460,"internal_node_id":"0.0-7.0-5.0"},{"rt":64584,"responses":"{\"Q0\":\"I did not notice a specific correspondence. I only noticed that both had patterns that I needed to look for. \"}","trial_type":"survey-text","trial_index":81,"time_elapsed":1654048,"internal_node_id":"0.0-7.0-6.0"},{"rt":11774,"responses":"{\"Q0\":\"0\"}","trial_type":"survey-likert","trial_index":82,"time_elapsed":1666829,"internal_node_id":"0.0-7.0-7.0"},{"rt":52722,"responses":"{\"Q0\":\"Different structure\"}","trial_type":"survey-multi-choice","trial_index":83,"time_elapsed":1720557,"internal_node_id":"0.0-7.0-8.0"},{"rt":22201,"responses":"{\"Q0\":\"black door = acid, white door = ray\",\"Q1\":\"Pretty confident\"}","trial_type":"survey-multi-choice","trial_index":84,"time_elapsed":1743767,"internal_node_id":"0.0-7.0-9.0"},{"rt":18805,"responses":"{\"Q0\":\"25-35\",\"Q1\":\"Bachelor's degree\",\"Q2\":\"Male\",\"Q3\":\"Asian\"}","trial_type":"survey-multi-choice","trial_index":85,"time_elapsed":1763584,"internal_node_id":"0.0-8.0"},{"rt":8052,"responses":"{\"Q0\":\"No\"}","trial_type":"survey-text","trial_index":86,"time_elapsed":1772643,"internal_node_id":"0.0-9.0"}]