[{"view_history":"[{\"page_index\":0,\"viewing_time\":6152},{\"page_index\":1,\"viewing_time\":3543}]","rt":9695,"trial_type":"instructions","trial_index":0,"time_elapsed":9696,"internal_node_id":"0.0-0.0"},{"view_history":"[{\"page_index\":0,\"viewing_time\":1941},{\"page_index\":1,\"viewing_time\":944}]","rt":2886,"trial_type":"instructions","trial_index":1,"time_elapsed":13583,"internal_node_id":"0.0-1.0"},{"group":"dicyclic group of order 12","room_assignment":["brown","cyan","purple","yellow","red","orange","blue","green","olive","ivory","pink","grey"],"door_color_assignment":["white","black"],"door_generator_assignment":[0,1],"goal":7,"start":3,"action_noise":0.15,"location_history":"[3,7]","action_history":"[1]","door_history":"[1]","location_rts":"[2637]","trial_type":"two-door-navigation","trial_index":2,"time_elapsed":20748,"internal_node_id":"0.0-2.0-0.0"},{"group":"dicyclic group of order 12","room_assignment":["brown","cyan","purple","yellow","red","orange","blue","green","olive","ivory","pink","grey"],"door_color_assignment":["white","black"],"door_generator_assignment":[0,1],"goal":5,"start":7,"action_noise":0.15,"location_history":"[7,11,4,9,1,2,3,7,8,5]","action_history":"[1,0,0,0,0,0,1,1,0]","door_history":"[1,0,0,0,0,0,1,1,0]","location_rts":"[1682,484,347,323,995,651,932,916,439]","trial_type":"two-door-navigation","trial_index":3,"time_elapsed":40201,"internal_node_id":"0.0-2.0-1.0"},{"group":"dicyclic group of order 12","room_assignment":["brown","cyan","purple","yellow","red","orange","blue","green","olive","ivory","pink","grey"],"door_color_assignment":["white","black"],"door_generator_assignment":[0,1],"goal":0,"start":5,"action_noise":0.15,"location_history":"[5,10,2,3,7,11,3,0]","action_history":"[0,0,0,1,1,1,1]","door_history":"[0,0,0,1,1,1,1]","location_rts":"[1731,403,372,266,140,442,514]","trial_type":"two-door-navigation","trial_index":4,"time_elapsed":54718,"internal_node_id":"0.0-2.0-2.0"},{"group":"dicyclic group of order 12","room_assignment":["brown","cyan","purple","yellow","red","orange","blue","green","olive","ivory","pink","grey"],"door_color_assignment":["white","black"],"door_generator_assignment":[0,1],"goal":2,"start":0,"action_noise":0.15,"location_history":"[0,4,8,5,10,7,8,5,9,6,10,2]","action_history":"[1,1,0,0,0,0,0,1,0,0,1]","door_history":"[1,1,0,0,0,0,0,1,0,0,1]","location_rts":"[1655,465,698,59,77,299,282,148,85,124,116]","trial_type":"two-door-navigation","trial_index":5,"time_elapsed":73454,"internal_node_id":"0.0-2.0-3.0"},{"group":"dicyclic group of order 12","room_assignment":["brown","cyan","purple","yellow","red","orange","blue","green","olive","ivory","pink","grey"],"door_color_assignment":["white","black"],"door_generator_assignment":[0,1],"goal":10,"start":2,"action_noise":0.15,"location_history":"[2,3,0,4,9,6,10]","action_history":"[0,0,0,0,0,1]","door_history":"[0,0,0,0,0,1]","location_rts":"[1590,244,229,275,721,93]","trial_type":"two-door-navigation","trial_index":6,"time_elapsed":86233,"internal_node_id":"0.0-2.0-4.0"},{"group":"dicyclic group of order 12","room_assignment":["brown","cyan","purple","yellow","red","orange","blue","green","olive","ivory","pink","grey"],"door_color_assignment":["white","black"],"door_generator_assignment":[0,1],"goal":8,"start":10,"action_noise":0.15,"location_history":"[10,2,6,10,7,8]","action_history":"[1,1,1,0,0]","door_history":"[1,1,1,0,0]","location_rts":"[1349,500,403,587,1019]","trial_type":"two-door-navigation","trial_index":7,"time_elapsed":98697,"internal_node_id":"0.0-2.0-5.0"},{"group":"dicyclic group of order 12","room_assignment":["brown","cyan","purple","yellow","red","orange","blue","green","olive","ivory","pink","grey"],"door_color_assignment":["white","black"],"door_generator_assignment":[0,1],"goal":11,"start":8,"action_noise":0.15,"location_history":"[8,0,4,9,1,5,10,7,8,5,10,7,11]","action_history":"[1,1,0,1,1,0,0,0,0,0,0,1]","door_history":"[1,1,0,1,1,0,0,0,0,0,0,1]","location_rts":"[1372,901,461,287,643,260,371,675,452,452,389,340]","trial_type":"two-door-navigation","trial_index":8,"time_elapsed":121048,"internal_node_id":"0.0-2.0-6.0"},{"group":"dicyclic group of order 12","room_assignment":["brown","cyan","purple","yellow","red","orange","blue","green","olive","ivory","pink","grey"],"door_color_assignment":["white","black"],"door_generator_assignment":[0,1],"goal":6,"start":11,"action_noise":0.15,"location_history":"[11,3,0,4,9,6]","action_history":"[1,1,1,0,0]","door_history":"[1,1,1,0,0]","location_rts":"[879,619,565,125,301]","trial_type":"two-door-navigation","trial_index":9,"time_elapsed":132137,"internal_node_id":"0.0-2.0-7.0"},{"group":"dicyclic group of order 12","room_assignment":["brown","cyan","purple","yellow","red","orange","blue","green","olive","ivory","pink","grey"],"door_color_assignment":["white","black"],"door_generator_assignment":[0,1],"goal":4,"start":6,"action_noise":0.15,"location_history":"[6,10,7,8,5,10,2,6,11,3,0,1,5,10,2,3,7,11,4]","action_history":"[1,0,0,0,0,1,1,0,0,0,0,1,1,1,0,1,1,0]","door_history":"[1,0,0,0,0,1,1,0,0,0,0,1,1,1,0,1,1,0]","location_rts":"[1526,514,237,379,369,781,616,1027,298,299,331,108,908,396,294,100,300,68]","trial_type":"two-door-navigation","trial_index":10,"time_elapsed":162563,"internal_node_id":"0.0-2.0-8.0"},{"group":"dicyclic group of order 12","room_assignment":["brown","cyan","purple","yellow","red","orange","blue","green","olive","ivory","pink","grey"],"door_color_assignment":["white","black"],"door_generator_assignment":[0,1],"goal":1,"start":4,"action_noise":0.15,"location_history":"[4,8,0,1]","action_history":"[1,1,0]","door_history":"[1,1,0]","location_rts":"[867,245,86]","trial_type":"two-door-navigation","trial_index":11,"time_elapsed":170322,"internal_node_id":"0.0-2.0-9.0"},{"group":"dicyclic group of order 12","room_assignment":["brown","cyan","purple","yellow","red","orange","blue","green","olive","ivory","pink","grey"],"door_color_assignment":["white","black"],"door_generator_assignment":[0,1],"goal":9,"start":1,"action_noise":0.15,"location_history":"[1,5,9]","action_history":"[1,1]","door_history":"[1,1]","location_rts":"[1164,556]","trial_type":"two-door-navigation","trial_index":12,"time_elapsed":177585,"internal_node_id":"0.0-2.0-10.0"},{"group":"dicyclic group of order 12","room_assignment":["brown","cyan","purple","yellow","red","orange","blue","green","olive","ivory","pink","grey"],"door_color_assignment":["white","black"],"door_generator_assignment":[0,1],"goal":10,"start":9,"action_noise":0.15,"location_history":"[9,1,2,6,11,4,8,5,9,6,10]","action_history":"[1,0,0,0,1,1,0,1,0,1]","door_history":"[1,0,0,0,1,1,0,1,0,1]","location_rts":"[1349,810,382,387,372,755,963,1894,491,124]","trial_type":"two-door-navigation","trial_index":13,"time_elapsed":198820,"internal_node_id":"0.0-2.0-11.0"},{"group":"dicyclic group of order 12","room_assignment":["brown","cyan","purple","yellow","red","orange","blue","green","olive","ivory","pink","grey"],"door_color_assignment":["white","black"],"door_generator_assignment":[0,1],"goal":2,"start":10,"action_noise":0.15,"location_history":"[10,2]","action_history":"[1]","door_history":"[1]","location_rts":"[1427]","trial_type":"two-door-navigation","trial_index":14,"time_elapsed":204772,"internal_node_id":"0.0-2.0-12.0"},{"group":"dicyclic group of order 12","room_assignment":["brown","cyan","purple","yellow","red","orange","blue","green","olive","ivory","pink","grey"],"door_color_assignment":["white","black"],"door_generator_assignment":[0,1],"goal":0,"start":2,"action_noise":0.15,"location_history":"[2,3,7,8,5,10,2,6,10,2,6,11,3,0]","action_history":"[1,1,0,0,0,1,1,0,1,1,0,1,0]","door_history":"[1,1,0,0,0,1,1,0,1,1,0,1,0]","location_rts":"[2164,1346,683,435,649,59,115,100,75,533,188,268,362]","trial_type":"two-door-navigation","trial_index":15,"time_elapsed":228523,"internal_node_id":"0.0-2.0-13.0"},{"group":"dicyclic group of order 12","room_assignment":["brown","cyan","purple","yellow","red","orange","blue","green","olive","ivory","pink","grey"],"door_color_assignment":["white","black"],"door_generator_assignment":[0,1],"goal":9,"start":0,"action_noise":0.15,"location_history":"[0,1,2,6,11,3,7,8,5,9]","action_history":"[0,0,1,0,0,0,1,0,1]","door_history":"[0,0,1,0,0,0,1,0,1]","location_rts":"[3293,492,580,379,420,429,180,310,143]","trial_type":"two-door-navigation","trial_index":16,"time_elapsed":247431,"internal_node_id":"0.0-2.0-14.0"},{"group":"dicyclic group of order 12","room_assignment":["brown","cyan","purple","yellow","red","orange","blue","green","olive","ivory","pink","grey"],"door_color_assignment":["white","black"],"door_generator_assignment":[0,1],"goal":8,"start":9,"action_noise":0.15,"location_history":"[9,1,5,10,2,6,11,4,9,1,2,6,11,4,8]","action_history":"[1,1,1,0,1,0,0,1,1,0,1,0,0,1]","door_history":"[1,1,1,0,1,0,0,1,1,0,1,0,0,1]","location_rts":"[1136,675,436,190,148,147,293,126,964,717,307,75,164,140]","trial_type":"two-door-navigation","trial_index":17,"time_elapsed":270731,"internal_node_id":"0.0-2.0-15.0"},{"group":"dicyclic group of order 12","room_assignment":["brown","cyan","purple","yellow","red","orange","blue","green","olive","ivory","pink","grey"],"door_color_assignment":["white","black"],"door_generator_assignment":[0,1],"goal":6,"start":8,"action_noise":0.15,"location_history":"[8,0,1,2,6]","action_history":"[1,0,0,1]","door_history":"[1,0,0,1]","location_rts":"[236,147,68,108]","trial_type":"two-door-navigation","trial_index":18,"time_elapsed":278875,"internal_node_id":"0.0-2.0-16.0"},{"group":"dicyclic group of order 12","room_assignment":["brown","cyan","purple","yellow","red","orange","blue","green","olive","ivory","pink","grey"],"door_color_assignment":["white","black"],"door_generator_assignment":[0,1],"goal":1,"start":6,"action_noise":0.15,"location_history":"[6,10,7,8,0,4,9,1]","action_history":"[1,0,0,1,1,0,1]","door_history":"[1,0,0,1,1,0,1]","location_rts":"[898,20,67,12,98,187,131]","trial_type":"two-door-navigation","trial_index":19,"time_elapsed":290938,"internal_node_id":"0.0-2.0-17.0"},{"group":"dicyclic group of order 12","room_assignment":["brown","cyan","purple","yellow","red","orange","blue","green","olive","ivory","pink","grey"],"door_color_assignment":["white","black"],"door_generator_assignment":[0,1],"goal":4,"start":1,"action_noise":0.15,"location_history":"[1,5,9,1,5,9,1,2,3,7,11,3,7,8,0,1,5,10,2,3,0,4]","action_history":"[1,1,0,0,1,1,0,0,0,1,1,1,0,1,0,0,0,1,0,0,1]","door_history":"[1,1,0,0,1,1,0,0,0,1,1,1,0,1,0,0,0,1,0,0,1]","location_rts":"[644,404,147,92,130,114,108,219,87,116,51,300,132,330,124,363,324,340,300,941,468]","trial_type":"two-door-navigation","trial_index":20,"time_elapsed":321610,"internal_node_id":"0.0-2.0-18.0"},{"group":"dicyclic group of order 12","room_assignment":["brown","cyan","purple","yellow","red","orange","blue","green","olive","ivory","pink","grey"],"door_color_assignment":["white","black"],"door_generator_assignment":[0,1],"goal":11,"start":4,"action_noise":0.15,"location_history":"[4,9,6,11]","action_history":"[1,0,0]","door_history":"[1,0,0]","location_rts":"[1556,21,331]","trial_type":"two-door-navigation","trial_index":21,"time_elapsed":330090,"internal_node_id":"0.0-2.0-19.0"},{"group":"dicyclic group of order 12","room_assignment":["brown","cyan","purple","yellow","red","orange","blue","green","olive","ivory","pink","grey"],"door_color_assignment":["white","black"],"door_generator_assignment":[0,1],"goal":3,"start":11,"action_noise":0.15,"location_history":"[11,3]","action_history":"[1]","door_history":"[1]","location_rts":"[1180]","trial_type":"two-door-navigation","trial_index":22,"time_elapsed":335794,"internal_node_id":"0.0-2.0-20.0"},{"group":"dicyclic group of order 12","room_assignment":["brown","cyan","purple","yellow","red","orange","blue","green","olive","ivory","pink","grey"],"door_color_assignment":["white","black"],"door_generator_assignment":[0,1],"goal":5,"start":3,"action_noise":0.15,"location_history":"[3,7,8,5]","action_history":"[1,0,0]","door_history":"[1,0,0]","location_rts":"[859,396,124]","trial_type":"two-door-navigation","trial_index":23,"time_elapsed":343738,"internal_node_id":"0.0-2.0-21.0"},{"group":"dicyclic group of order 12","room_assignment":["brown","cyan","purple","yellow","red","orange","blue","green","olive","ivory","pink","grey"],"door_color_assignment":["white","black"],"door_generator_assignment":[0,1],"goal":7,"start":5,"action_noise":0.15,"location_history":"[5,9,1,5,10,7]","action_history":"[1,1,1,0,0]","door_history":"[1,1,1,0,0]","location_rts":"[1667,398,324,205,252]","trial_type":"two-door-navigation","trial_index":24,"time_elapsed":355193,"internal_node_id":"0.0-2.0-22.0"},{"group":"dicyclic group of order 12","room_assignment":["brown","cyan","purple","yellow","red","orange","blue","green","olive","ivory","pink","grey"],"door_color_assignment":["white","black"],"door_generator_assignment":[0,1],"goal":3,"start":7,"action_noise":0.15,"location_history":"[7,8,0,1,2,3]","action_history":"[1,1,0,0,1]","door_history":"[1,1,0,0,1]","location_rts":"[1044,333,215,179,195]","trial_type":"two-door-navigation","trial_index":25,"time_elapsed":365760,"internal_node_id":"0.0-2.0-23.0"},{"group":"dicyclic group of order 12","room_assignment":["brown","cyan","purple","yellow","red","orange","blue","green","olive","ivory","pink","grey"],"door_color_assignment":["white","black"],"door_generator_assignment":[0,1],"goal":4,"start":3,"action_noise":0.15,"location_history":"[3,7,8,5,9,6,10,7,8,5,10,2,6,10,2,3,7,11,3,0,1,2,6,10,7,8,0,1,2,3,7,8,5,10,2,3,0,1,2,6,10,2,3,0,4]","action_history":"[1,0,0,1,0,1,1,0,1,0,1,0,1,1,0,0,1,1,0,0,0,1,1,1,0,1,1,0,1,1,1,0,0,1,0,0,0,1,1,1,1,0,0,1]","door_history":"[1,0,0,1,0,1,1,0,1,0,1,0,1,1,0,0,1,1,0,0,0,1,1,1,0,1,1,0,1,1,1,0,0,1,0,0,0,1,1,1,1,0,0,1]","location_rts":"[813,92,91,92,83,140,83,100,211,637,44,330,204,314,172,97,148,131,83,59,1123,448,270,226,310,102,68,196,132,315,315,213,226,109,255,683,604,132,339,268,347,44,284,140]","trial_type":"two-door-navigation","trial_index":26,"time_elapsed":425231,"internal_node_id":"0.0-2.0-24.0"},{"group":"dicyclic group of order 12","room_assignment":["brown","cyan","purple","yellow","red","orange","blue","green","olive","ivory","pink","grey"],"door_color_assignment":["white","black"],"door_generator_assignment":[0,1],"goal":8,"start":4,"action_noise":0.15,"location_history":"[4,9,6,11,3,0,1,5,9,6,11,3,7,8]","action_history":"[0,0,1,1,0,0,1,1,1,0,1,1,0]","door_history":"[0,0,1,1,0,0,1,1,1,0,1,1,0]","location_rts":"[1316,61,5,890,157,283,101,195,349,209,227,547,324]","trial_type":"two-door-navigation","trial_index":27,"time_elapsed":446662,"internal_node_id":"0.0-2.0-25.0"},{"group":"dicyclic group of order 12","room_assignment":["brown","cyan","purple","yellow","red","orange","blue","green","olive","ivory","pink","grey"],"door_color_assignment":["white","black"],"door_generator_assignment":[0,1],"goal":6,"start":8,"action_noise":0.15,"location_history":"[8,0,1,2,3,0,1,5,9,6]","action_history":"[1,0,0,0,0,1,1,0,0]","door_history":"[1,0,0,0,0,1,1,0,0]","location_rts":"[949,427,147,99,130,140,336,109,101]","trial_type":"two-door-navigation","trial_index":28,"time_elapsed":462691,"internal_node_id":"0.0-2.0-26.0"},{"group":"dicyclic group of order 12","room_assignment":["brown","cyan","purple","yellow","red","orange","blue","green","olive","ivory","pink","grey"],"door_color_assignment":["white","black"],"door_generator_assignment":[0,1],"goal":1,"start":6,"action_noise":0.15,"location_history":"[6,10,2,6,11,4,9,1]","action_history":"[1,1,0,0,0,0,1]","door_history":"[1,1,0,0,0,0,1]","location_rts":"[4064,356,60,179,434,187,244]","trial_type":"two-door-navigation","trial_index":29,"time_elapsed":479870,"internal_node_id":"0.0-2.0-27.0"},{"group":"dicyclic group of order 12","room_assignment":["brown","cyan","purple","yellow","red","orange","blue","green","olive","ivory","pink","grey"],"door_color_assignment":["white","black"],"door_generator_assignment":[0,1],"goal":5,"start":1,"action_noise":0.15,"location_history":"[1,2,3,0,1,2,3,7,8,5]","action_history":"[0,0,0,1,0,0,1,0,0]","door_history":"[0,0,0,1,0,0,1,0,0]","location_rts":"[1122,289,99,99,140,107,36,44,77]","trial_type":"two-door-navigation","trial_index":30,"time_elapsed":494571,"internal_node_id":"0.0-2.0-28.0"},{"group":"dicyclic group of order 12","room_assignment":["brown","cyan","purple","yellow","red","orange","blue","green","olive","ivory","pink","grey"],"door_color_assignment":["white","black"],"door_generator_assignment":[0,1],"goal":9,"start":5,"action_noise":0.15,"location_history":"[5,10,2,6,11,4,9]","action_history":"[0,1,1,0,0,1]","door_history":"[0,1,1,0,0,1]","location_rts":"[1492,564,156,44,99,89]","trial_type":"two-door-navigation","trial_index":31,"time_elapsed":506643,"internal_node_id":"0.0-2.0-29.0"},{"group":"dicyclic group of order 12","room_assignment":["brown","cyan","purple","yellow","red","orange","blue","green","olive","ivory","pink","grey"],"door_color_assignment":["white","black"],"door_generator_assignment":[0,1],"goal":10,"start":9,"action_noise":0.15,"location_history":"[9,1,2,6,11,3,7,11,4,9,1,2,3,0,4,9,1,2,6,11,4,8,5,10]","action_history":"[1,1,0,0,1,1,0,0,1,1,0,0,0,1,0,1,0,1,0,1,1,0,0]","door_history":"[1,1,0,0,1,1,0,0,1,1,0,0,0,1,0,1,0,1,0,1,1,0,0]","location_rts":"[469,329,108,141,155,131,75,67,83,163,91,155,468,389,187,155,99,100,139,92,99,165,390]","trial_type":"two-door-navigation","trial_index":32,"time_elapsed":537863,"internal_node_id":"0.0-2.0-30.0"},{"group":"dicyclic group of order 12","room_assignment":["brown","cyan","purple","yellow","red","orange","blue","green","olive","ivory","pink","grey"],"door_color_assignment":["white","black"],"door_generator_assignment":[0,1],"goal":0,"start":10,"action_noise":0.15,"location_history":"[10,2,6,11,3,0]","action_history":"[1,1,0,1,1]","door_history":"[1,1,0,1,1]","location_rts":"[1054,651,196,359,365]","trial_type":"two-door-navigation","trial_index":33,"time_elapsed":549099,"internal_node_id":"0.0-2.0-31.0"},{"group":"dicyclic group of order 12","room_assignment":["brown","cyan","purple","yellow","red","orange","blue","green","olive","ivory","pink","grey"],"door_color_assignment":["white","black"],"door_generator_assignment":[0,1],"goal":7,"start":0,"action_noise":0.15,"location_history":"[0,4,8,0,4,9,6,11,3,7]","action_history":"[1,1,1,1,0,0,1,1,1]","door_history":"[1,1,1,1,0,0,1,1,1]","location_rts":"[2454,289,836,758,51,252,60,133,340]","trial_type":"two-door-navigation","trial_index":34,"time_elapsed":566956,"internal_node_id":"0.0-2.0-32.0"},{"group":"dicyclic group of order 12","room_assignment":["brown","cyan","purple","yellow","red","orange","blue","green","olive","ivory","pink","grey"],"door_color_assignment":["white","black"],"door_generator_assignment":[0,1],"goal":11,"start":7,"action_noise":0.15,"location_history":"[7,8,5,9,1,2,6,11]","action_history":"[0,0,1,0,0,1,0]","door_history":"[0,0,1,0,0,1,0]","location_rts":"[916,67,60,156,243,59,501]","trial_type":"two-door-navigation","trial_index":35,"time_elapsed":579605,"internal_node_id":"0.0-2.0-33.0"},{"group":"dicyclic group of order 12","room_assignment":["brown","cyan","purple","yellow","red","orange","blue","green","olive","ivory","pink","grey"],"door_color_assignment":["white","black"],"door_generator_assignment":[0,1],"goal":2,"start":11,"action_noise":0.15,"location_history":"[11,3,7,8,5,9,1,2]","action_history":"[1,1,0,0,1,1,0]","door_history":"[1,1,0,0,1,1,0]","location_rts":"[1210,171,100,218,243,372,851]","trial_type":"two-door-navigation","trial_index":36,"time_elapsed":593418,"internal_node_id":"0.0-2.0-34.0"},{"view_history":"[{\"page_index\":0,\"viewing_time\":1230}]","rt":1230,"trial_type":"instructions","trial_index":37,"time_elapsed":595649,"internal_node_id":"0.0-3.0"},{"view_history":"[{\"page_index\":0,\"viewing_time\":1511},{\"page_index\":1,\"viewing_time\":912}]","rt":2423,"trial_type":"instructions","trial_index":38,"time_elapsed":599073,"internal_node_id":"0.0-4.0"},{"group":"dihedral group of order 12","fractal_assignment":["../images/gry_blk.png","../images/blu_wht.png","../images/grn_red.png","../images/org_blu.png","../images/pnk_blu.png","../images/ylw_pnk.png","../images/grn_blu.png","../images/red_prp.png","../images/grn_prp.png","../images/wht_red.png","../images/cyn_red.png","../images/ylw_slt.png"],"mutagen_generator_assignment":[0,1],"goal":7,"start":3,"action_noise":0.15,"location_history":"[3,9,8,7]","action_history":"[1,0,0]","mutagen_history":"[1,0,0]","location_rts":"[1638,222,386]","trial_type":"fractal-mutation","trial_index":39,"time_elapsed":608090,"internal_node_id":"0.0-5.0-0.0"},{"group":"dihedral group of order 12","fractal_assignment":["../images/gry_blk.png","../images/blu_wht.png","../images/grn_red.png","../images/org_blu.png","../images/pnk_blu.png","../images/ylw_pnk.png","../images/grn_blu.png","../images/red_prp.png","../images/grn_prp.png","../images/wht_red.png","../images/cyn_red.png","../images/ylw_slt.png"],"mutagen_generator_assignment":[0,1],"goal":5,"start":7,"action_noise":0.15,"location_history":"[7,1,2,3,4,5]","action_history":"[1,0,0,0,0]","mutagen_history":"[1,0,0,0,0]","location_rts":"[1057,64,207,157,305]","trial_type":"fractal-mutation","trial_index":40,"time_elapsed":618793,"internal_node_id":"0.0-5.0-1.0"},{"group":"dihedral group of order 12","fractal_assignment":["../images/gry_blk.png","../images/blu_wht.png","../images/grn_red.png","../images/org_blu.png","../images/pnk_blu.png","../images/ylw_pnk.png","../images/grn_blu.png","../images/red_prp.png","../images/grn_prp.png","../images/wht_red.png","../images/cyn_red.png","../images/ylw_slt.png"],"mutagen_generator_assignment":[0,1],"goal":0,"start":5,"action_noise":0.15,"location_history":"[5,0]","action_history":"[0]","mutagen_history":"[0]","location_rts":"[945]","trial_type":"fractal-mutation","trial_index":41,"time_elapsed":624263,"internal_node_id":"0.0-5.0-2.0"},{"group":"dihedral group of order 12","fractal_assignment":["../images/gry_blk.png","../images/blu_wht.png","../images/grn_red.png","../images/org_blu.png","../images/pnk_blu.png","../images/ylw_pnk.png","../images/grn_blu.png","../images/red_prp.png","../images/grn_prp.png","../images/wht_red.png","../images/cyn_red.png","../images/ylw_slt.png"],"mutagen_generator_assignment":[0,1],"goal":2,"start":0,"action_noise":0.15,"location_history":"[0,1,2]","action_history":"[1,0]","mutagen_history":"[1,0]","location_rts":"[915,58]","trial_type":"fractal-mutation","trial_index":42,"time_elapsed":630916,"internal_node_id":"0.0-5.0-3.0"},{"group":"dihedral group of order 12","fractal_assignment":["../images/gry_blk.png","../images/blu_wht.png","../images/grn_red.png","../images/org_blu.png","../images/pnk_blu.png","../images/ylw_pnk.png","../images/grn_blu.png","../images/red_prp.png","../images/grn_prp.png","../images/wht_red.png","../images/cyn_red.png","../images/ylw_slt.png"],"mutagen_generator_assignment":[0,1],"goal":10,"start":2,"action_noise":0.15,"location_history":"[2,3,4,5,11,10]","action_history":"[0,0,0,0,0]","mutagen_history":"[0,0,0,0,0]","location_rts":"[1240,385,387,355,226]","trial_type":"fractal-mutation","trial_index":43,"time_elapsed":642118,"internal_node_id":"0.0-5.0-4.0"},{"group":"dihedral group of order 12","fractal_assignment":["../images/gry_blk.png","../images/blu_wht.png","../images/grn_red.png","../images/org_blu.png","../images/pnk_blu.png","../images/ylw_pnk.png","../images/grn_blu.png","../images/red_prp.png","../images/grn_prp.png","../images/wht_red.png","../images/cyn_red.png","../images/ylw_slt.png"],"mutagen_generator_assignment":[0,1],"goal":8,"start":10,"action_noise":0.15,"location_history":"[10,9,3,4,5,0,1,7,6,0,6,0,1,2,3,9,8]","action_history":"[0,1,1,0,0,0,1,0,1,1,0,0,0,0,1,0]","mutagen_history":"[0,1,1,0,0,0,1,0,1,1,0,0,0,0,1,0]","location_rts":"[1331,498,214,71,342,339,212,150,501,553,409,561,493,570,436,123]","trial_type":"fractal-mutation","trial_index":44,"time_elapsed":669772,"internal_node_id":"0.0-5.0-5.0"},{"group":"dihedral group of order 12","fractal_assignment":["../images/gry_blk.png","../images/blu_wht.png","../images/grn_red.png","../images/org_blu.png","../images/pnk_blu.png","../images/ylw_pnk.png","../images/grn_blu.png","../images/red_prp.png","../images/grn_prp.png","../images/wht_red.png","../images/cyn_red.png","../images/ylw_slt.png"],"mutagen_generator_assignment":[0,1],"goal":11,"start":8,"action_noise":0.15,"location_history":"[8,2,8,7,6,11]","action_history":"[1,0,0,0,0]","mutagen_history":"[1,0,0,0,0]","location_rts":"[934,137,422,372,406]","trial_type":"fractal-mutation","trial_index":45,"time_elapsed":680925,"internal_node_id":"0.0-5.0-6.0"},{"group":"dihedral group of order 12","fractal_assignment":["../images/gry_blk.png","../images/blu_wht.png","../images/grn_red.png","../images/org_blu.png","../images/pnk_blu.png","../images/ylw_pnk.png","../images/grn_blu.png","../images/red_prp.png","../images/grn_prp.png","../images/wht_red.png","../images/cyn_red.png","../images/ylw_slt.png"],"mutagen_generator_assignment":[0,1],"goal":6,"start":11,"action_noise":0.15,"location_history":"[11,5,0,1,2,8,7,1,2,3,9,8,7,1,2,8,7,6]","action_history":"[1,0,0,0,1,0,1,1,0,1,0,0,1,0,1,0,1]","mutagen_history":"[1,0,0,0,1,0,1,1,0,1,0,0,1,0,1,0,1]","location_rts":"[644,72,226,324,161,451,195,475,153,805,183,686,214,665,390,138,322]","trial_type":"fractal-mutation","trial_index":46,"time_elapsed":709209,"internal_node_id":"0.0-5.0-7.0"},{"group":"dihedral group of order 12","fractal_assignment":["../images/gry_blk.png","../images/blu_wht.png","../images/grn_red.png","../images/org_blu.png","../images/pnk_blu.png","../images/ylw_pnk.png","../images/grn_blu.png","../images/red_prp.png","../images/grn_prp.png","../images/wht_red.png","../images/cyn_red.png","../images/ylw_slt.png"],"mutagen_generator_assignment":[0,1],"goal":4,"start":6,"action_noise":0.15,"location_history":"[6,11,10,9,8,7,6,11,10,9,8,7,6,0,1,2,3,4]","action_history":"[0,0,0,0,0,0,0,0,0,0,0,0,1,0,0,0,0]","mutagen_history":"[0,0,0,0,0,0,0,0,0,0,0,0,1,0,0,0,0]","location_rts":"[472,366,130,418,392,414,431,210,291,162,163,339,467,105,292,148,181]","trial_type":"fractal-mutation","trial_index":47,"time_elapsed":735414,"internal_node_id":"0.0-5.0-8.0"},{"group":"dihedral group of order 12","fractal_assignment":["../images/gry_blk.png","../images/blu_wht.png","../images/grn_red.png","../images/org_blu.png","../images/pnk_blu.png","../images/ylw_pnk.png","../images/grn_blu.png","../images/red_prp.png","../images/grn_prp.png","../images/wht_red.png","../images/cyn_red.png","../images/ylw_slt.png"],"mutagen_generator_assignment":[0,1],"goal":1,"start":4,"action_noise":0.15,"location_history":"[4,5,11,5,0,1]","action_history":"[0,1,1,0,0]","mutagen_history":"[0,1,1,0,0]","location_rts":"[485,177,375,117,193]","trial_type":"fractal-mutation","trial_index":48,"time_elapsed":745653,"internal_node_id":"0.0-5.0-9.0"},{"group":"dihedral group of order 12","fractal_assignment":["../images/gry_blk.png","../images/blu_wht.png","../images/grn_red.png","../images/org_blu.png","../images/pnk_blu.png","../images/ylw_pnk.png","../images/grn_blu.png","../images/red_prp.png","../images/grn_prp.png","../images/wht_red.png","../images/cyn_red.png","../images/ylw_slt.png"],"mutagen_generator_assignment":[0,1],"goal":9,"start":1,"action_noise":0.15,"location_history":"[1,2,3,9]","action_history":"[0,0,1]","mutagen_history":"[0,0,1]","location_rts":"[933,499,435]","trial_type":"fractal-mutation","trial_index":49,"time_elapsed":754177,"internal_node_id":"0.0-5.0-10.0"},{"group":"dihedral group of order 12","fractal_assignment":["../images/gry_blk.png","../images/blu_wht.png","../images/grn_red.png","../images/org_blu.png","../images/pnk_blu.png","../images/ylw_pnk.png","../images/grn_blu.png","../images/red_prp.png","../images/grn_prp.png","../images/wht_red.png","../images/cyn_red.png","../images/ylw_slt.png"],"mutagen_generator_assignment":[0,1],"goal":10,"start":9,"action_noise":0.15,"location_history":"[9,8,7,6,11,10]","action_history":"[0,0,0,0,0]","mutagen_history":"[0,0,0,0,0]","location_rts":"[1193,129,178,179,178]","trial_type":"fractal-mutation","trial_index":50,"time_elapsed":764647,"internal_node_id":"0.0-5.0-11.0"},{"group":"dihedral group of order 12","fractal_assignment":["../images/gry_blk.png","../images/blu_wht.png","../images/grn_red.png","../images/org_blu.png","../images/pnk_blu.png","../images/ylw_pnk.png","../images/grn_blu.png","../images/red_prp.png","../images/grn_prp.png","../images/wht_red.png","../images/cyn_red.png","../images/ylw_slt.png"],"mutagen_generator_assignment":[0,1],"goal":2,"start":10,"action_noise":0.15,"location_history":"[10,9,8,2]","action_history":"[0,0,1]","mutagen_history":"[0,0,1]","location_rts":"[1091,336,227]","trial_type":"fractal-mutation","trial_index":51,"time_elapsed":772960,"internal_node_id":"0.0-5.0-12.0"},{"group":"dihedral group of order 12","fractal_assignment":["../images/gry_blk.png","../images/blu_wht.png","../images/grn_red.png","../images/org_blu.png","../images/pnk_blu.png","../images/ylw_pnk.png","../images/grn_blu.png","../images/red_prp.png","../images/grn_prp.png","../images/wht_red.png","../images/cyn_red.png","../images/ylw_slt.png"],"mutagen_generator_assignment":[0,1],"goal":0,"start":2,"action_noise":0.15,"location_history":"[2,3,4,5,0]","action_history":"[0,0,0,0]","mutagen_history":"[0,0,0,0]","location_rts":"[825,402,307,162]","trial_type":"fractal-mutation","trial_index":52,"time_elapsed":782246,"internal_node_id":"0.0-5.0-13.0"},{"group":"dihedral group of order 12","fractal_assignment":["../images/gry_blk.png","../images/blu_wht.png","../images/grn_red.png","../images/org_blu.png","../images/pnk_blu.png","../images/ylw_pnk.png","../images/grn_blu.png","../images/red_prp.png","../images/grn_prp.png","../images/wht_red.png","../images/cyn_red.png","../images/ylw_slt.png"],"mutagen_generator_assignment":[0,1],"goal":9,"start":0,"action_noise":0.15,"location_history":"[0,1,2,3,9]","action_history":"[0,0,0,1]","mutagen_history":"[0,0,0,1]","location_rts":"[911,163,227,433]","trial_type":"fractal-mutation","trial_index":53,"time_elapsed":791659,"internal_node_id":"0.0-5.0-14.0"},{"group":"dihedral group of order 12","fractal_assignment":["../images/gry_blk.png","../images/blu_wht.png","../images/grn_red.png","../images/org_blu.png","../images/pnk_blu.png","../images/ylw_pnk.png","../images/grn_blu.png","../images/red_prp.png","../images/grn_prp.png","../images/wht_red.png","../images/cyn_red.png","../images/ylw_slt.png"],"mutagen_generator_assignment":[0,1],"goal":8,"start":9,"action_noise":0.15,"location_history":"[9,8]","action_history":"[0]","mutagen_history":"[0]","location_rts":"[1146]","trial_type":"fractal-mutation","trial_index":54,"time_elapsed":797329,"internal_node_id":"0.0-5.0-15.0"},{"group":"dihedral group of order 12","fractal_assignment":["../images/gry_blk.png","../images/blu_wht.png","../images/grn_red.png","../images/org_blu.png","../images/pnk_blu.png","../images/ylw_pnk.png","../images/grn_blu.png","../images/red_prp.png","../images/grn_prp.png","../images/wht_red.png","../images/cyn_red.png","../images/ylw_slt.png"],"mutagen_generator_assignment":[0,1],"goal":6,"start":8,"action_noise":0.15,"location_history":"[8,2,3,4,5,0,6]","action_history":"[1,0,0,1,0,0]","mutagen_history":"[1,0,0,1,0,0]","location_rts":"[884,516,384,517,629,339]","trial_type":"fractal-mutation","trial_index":55,"time_elapsed":810607,"internal_node_id":"0.0-5.0-16.0"},{"group":"dihedral group of order 12","fractal_assignment":["../images/gry_blk.png","../images/blu_wht.png","../images/grn_red.png","../images/org_blu.png","../images/pnk_blu.png","../images/ylw_pnk.png","../images/grn_blu.png","../images/red_prp.png","../images/grn_prp.png","../images/wht_red.png","../images/cyn_red.png","../images/ylw_slt.png"],"mutagen_generator_assignment":[0,1],"goal":1,"start":6,"action_noise":0.15,"location_history":"[6,11,10,4,5,11,10,4,10,4,5,0,1]","action_history":"[0,0,1,0,1,0,1,0,0,0,0,0]","mutagen_history":"[0,0,1,0,1,0,1,0,0,0,0,0]","location_rts":"[389,131,161,82,278,268,176,196,167,118,214,82]","trial_type":"fractal-mutation","trial_index":56,"time_elapsed":829310,"internal_node_id":"0.0-5.0-17.0"},{"group":"dihedral group of order 12","fractal_assignment":["../images/gry_blk.png","../images/blu_wht.png","../images/grn_red.png","../images/org_blu.png","../images/pnk_blu.png","../images/ylw_pnk.png","../images/grn_blu.png","../images/red_prp.png","../images/grn_prp.png","../images/wht_red.png","../images/cyn_red.png","../images/ylw_slt.png"],"mutagen_generator_assignment":[0,1],"goal":4,"start":1,"action_noise":0.15,"location_history":"[1,7,6,11,10,9,8,2,8,7,1,2,3,9,3,4]","action_history":"[1,0,0,0,0,0,1,0,0,0,0,0,1,1,0]","mutagen_history":"[1,0,0,0,0,0,1,0,0,0,0,0,1,1,0]","location_rts":"[1141,42,148,387,182,500,562,85,420,391,498,230,132,277,124]","trial_type":"fractal-mutation","trial_index":57,"time_elapsed":854148,"internal_node_id":"0.0-5.0-18.0"},{"group":"dihedral group of order 12","fractal_assignment":["../images/gry_blk.png","../images/blu_wht.png","../images/grn_red.png","../images/org_blu.png","../images/pnk_blu.png","../images/ylw_pnk.png","../images/grn_blu.png","../images/red_prp.png","../images/grn_prp.png","../images/wht_red.png","../images/cyn_red.png","../images/ylw_slt.png"],"mutagen_generator_assignment":[0,1],"goal":11,"start":4,"action_noise":0.15,"location_history":"[4,10,9,8,7,1,2,3,9,8,2,3,4,10,9,3,4,10,4,5,0,6,11]","action_history":"[1,0,0,0,0,0,0,1,0,1,0,0,1,0,0,0,1,1,0,0,0,0]","mutagen_history":"[1,0,0,0,0,0,0,1,0,1,0,0,1,0,0,0,1,1,0,0,0,0]","location_rts":"[1143,284,166,404,180,420,485,133,108,501,153,497,149,212,342,262,150,203,80,277,181,149]","trial_type":"fractal-mutation","trial_index":58,"time_elapsed":887954,"internal_node_id":"0.0-5.0-19.0"},{"group":"dihedral group of order 12","fractal_assignment":["../images/gry_blk.png","../images/blu_wht.png","../images/grn_red.png","../images/org_blu.png","../images/pnk_blu.png","../images/ylw_pnk.png","../images/grn_blu.png","../images/red_prp.png","../images/grn_prp.png","../images/wht_red.png","../images/cyn_red.png","../images/ylw_slt.png"],"mutagen_generator_assignment":[0,1],"goal":3,"start":11,"action_noise":0.15,"location_history":"[11,10,4,5,0,1,2,3]","action_history":"[0,1,0,0,0,0,0]","mutagen_history":"[0,1,0,0,0,0,0]","location_rts":"[262,466,2,260,163,116,164]","trial_type":"fractal-mutation","trial_index":59,"time_elapsed":900371,"internal_node_id":"0.0-5.0-20.0"},{"group":"dihedral group of order 12","fractal_assignment":["../images/gry_blk.png","../images/blu_wht.png","../images/grn_red.png","../images/org_blu.png","../images/pnk_blu.png","../images/ylw_pnk.png","../images/grn_blu.png","../images/red_prp.png","../images/grn_prp.png","../images/wht_red.png","../images/cyn_red.png","../images/ylw_slt.png"],"mutagen_generator_assignment":[0,1],"goal":5,"start":3,"action_noise":0.15,"location_history":"[3,9,8,7,6,0,6,11,10,4,10,9,8,2,8,2,3,9,8,2,3,4,5]","action_history":"[1,0,0,0,1,1,0,0,1,1,0,0,1,1,1,0,0,0,1,0,0,0]","mutagen_history":"[1,0,0,0,1,1,0,0,1,1,0,0,1,1,1,0,0,0,1,0,0,0]","location_rts":"[2167,152,192,52,196,138,123,149,596,282,46,261,117,155,236,141,229,294,262,263,197,149]","trial_type":"fractal-mutation","trial_index":60,"time_elapsed":934131,"internal_node_id":"0.0-5.0-21.0"},{"group":"dihedral group of order 12","fractal_assignment":["../images/gry_blk.png","../images/blu_wht.png","../images/grn_red.png","../images/org_blu.png","../images/pnk_blu.png","../images/ylw_pnk.png","../images/grn_blu.png","../images/red_prp.png","../images/grn_prp.png","../images/wht_red.png","../images/cyn_red.png","../images/ylw_slt.png"],"mutagen_generator_assignment":[0,1],"goal":7,"start":5,"action_noise":0.15,"location_history":"[5,11,10,9,8,7]","action_history":"[1,0,0,0,0]","mutagen_history":"[1,0,0,0,0]","location_rts":"[1158,71,480,240,181]","trial_type":"fractal-mutation","trial_index":61,"time_elapsed":945169,"internal_node_id":"0.0-5.0-22.0"},{"group":"dihedral group of order 12","fractal_assignment":["../images/gry_blk.png","../images/blu_wht.png","../images/grn_red.png","../images/org_blu.png","../images/pnk_blu.png","../images/ylw_pnk.png","../images/grn_blu.png","../images/red_prp.png","../images/grn_prp.png","../images/wht_red.png","../images/cyn_red.png","../images/ylw_slt.png"],"mutagen_generator_assignment":[0,1],"goal":3,"start":7,"action_noise":0.15,"location_history":"[7,1,2,3]","action_history":"[1,1,1]","mutagen_history":"[1,1,1]","location_rts":"[1015,487,346]","trial_type":"fractal-mutation","trial_index":62,"time_elapsed":953851,"internal_node_id":"0.0-5.0-23.0"},{"group":"dihedral group of order 12","fractal_assignment":["../images/gry_blk.png","../images/blu_wht.png","../images/grn_red.png","../images/org_blu.png","../images/pnk_blu.png","../images/ylw_pnk.png","../images/grn_blu.png","../images/red_prp.png","../images/grn_prp.png","../images/wht_red.png","../images/cyn_red.png","../images/ylw_slt.png"],"mutagen_generator_assignment":[0,1],"goal":4,"start":3,"action_noise":0.15,"location_history":"[3,9,8,2,3,4]","action_history":"[1,0,1,0,0]","mutagen_history":"[1,0,1,0,0]","location_rts":"[654,79,469,121,615]","trial_type":"fractal-mutation","trial_index":63,"time_elapsed":964745,"internal_node_id":"0.0-5.0-24.0"},{"group":"dihedral group of order 12","fractal_assignment":["../images/gry_blk.png","../images/blu_wht.png","../images/grn_red.png","../images/org_blu.png","../images/pnk_blu.png","../images/ylw_pnk.png","../images/grn_blu.png","../images/red_prp.png","../images/grn_prp.png","../images/wht_red.png","../images/cyn_red.png","../images/ylw_slt.png"],"mutagen_generator_assignment":[0,1],"goal":8,"start":4,"action_noise":0.15,"location_history":"[4,5,11,5,0,6,11,10,9,8]","action_history":"[0,0,0,0,1,0,0,0,0]","mutagen_history":"[0,0,0,0,1,0,0,0,0]","location_rts":"[1363,339,178,258,291,58,310,132,196]","trial_type":"fractal-mutation","trial_index":64,"time_elapsed":980838,"internal_node_id":"0.0-5.0-25.0"},{"group":"dihedral group of order 12","fractal_assignment":["../images/gry_blk.png","../images/blu_wht.png","../images/grn_red.png","../images/org_blu.png","../images/pnk_blu.png","../images/ylw_pnk.png","../images/grn_blu.png","../images/red_prp.png","../images/grn_prp.png","../images/wht_red.png","../images/cyn_red.png","../images/ylw_slt.png"],"mutagen_generator_assignment":[0,1],"goal":6,"start":8,"action_noise":0.15,"location_history":"[8,7,1,2,8,2,8,7,1,7,6]","action_history":"[0,1,1,0,1,1,0,1,1,0]","mutagen_history":"[0,1,1,0,1,1,0,1,1,0]","location_rts":"[1016,194,439,305,278,186,108,164,318,200]","trial_type":"fractal-mutation","trial_index":65,"time_elapsed":998485,"internal_node_id":"0.0-5.0-26.0"},{"group":"dihedral group of order 12","fractal_assignment":["../images/gry_blk.png","../images/blu_wht.png","../images/grn_red.png","../images/org_blu.png","../images/pnk_blu.png","../images/ylw_pnk.png","../images/grn_blu.png","../images/red_prp.png","../images/grn_prp.png","../images/wht_red.png","../images/cyn_red.png","../images/ylw_slt.png"],"mutagen_generator_assignment":[0,1],"goal":1,"start":6,"action_noise":0.15,"location_history":"[6,0,6,11,10,9,3,9,8,7,6,11,5,0,1]","action_history":"[1,0,0,0,0,0,1,0,0,0,0,1,0,0]","mutagen_history":"[1,0,0,0,0,0,1,0,0,0,0,1,0,0]","location_rts":"[791,56,438,165,193,165,117,87,248,292,119,339,104,131]","trial_type":"fractal-mutation","trial_index":66,"time_elapsed":1020341,"internal_node_id":"0.0-5.0-27.0"},{"group":"dihedral group of order 12","fractal_assignment":["../images/gry_blk.png","../images/blu_wht.png","../images/grn_red.png","../images/org_blu.png","../images/pnk_blu.png","../images/ylw_pnk.png","../images/grn_blu.png","../images/red_prp.png","../images/grn_prp.png","../images/wht_red.png","../images/cyn_red.png","../images/ylw_slt.png"],"mutagen_generator_assignment":[0,1],"goal":5,"start":1,"action_noise":0.15,"location_history":"[1,2,3,4,5]","action_history":"[0,0,0,0]","mutagen_history":"[0,0,0,0]","location_rts":"[1046,290,193,178]","trial_type":"fractal-mutation","trial_index":67,"time_elapsed":1029641,"internal_node_id":"0.0-5.0-28.0"},{"group":"dihedral group of order 12","fractal_assignment":["../images/gry_blk.png","../images/blu_wht.png","../images/grn_red.png","../images/org_blu.png","../images/pnk_blu.png","../images/ylw_pnk.png","../images/grn_blu.png","../images/red_prp.png","../images/grn_prp.png","../images/wht_red.png","../images/cyn_red.png","../images/ylw_slt.png"],"mutagen_generator_assignment":[0,1],"goal":9,"start":5,"action_noise":0.15,"location_history":"[5,0,1,2,8,7,6,11,5,11,10,4,5,11,10,9]","action_history":"[0,0,0,1,0,0,1,1,1,0,0,0,0,0,1]","mutagen_history":"[0,0,0,1,0,0,1,1,1,0,0,0,0,0,1]","location_rts":"[1155,115,83,499,150,453,308,472,90,108,404,387,387,98,148]","trial_type":"fractal-mutation","trial_index":68,"time_elapsed":1054099,"internal_node_id":"0.0-5.0-29.0"},{"group":"dihedral group of order 12","fractal_assignment":["../images/gry_blk.png","../images/blu_wht.png","../images/grn_red.png","../images/org_blu.png","../images/pnk_blu.png","../images/ylw_pnk.png","../images/grn_blu.png","../images/red_prp.png","../images/grn_prp.png","../images/wht_red.png","../images/cyn_red.png","../images/ylw_slt.png"],"mutagen_generator_assignment":[0,1],"goal":10,"start":9,"action_noise":0.15,"location_history":"[9,3,9,8,7,6,11,10]","action_history":"[1,1,0,0,0,0,0]","mutagen_history":"[1,1,0,0,0,0,0]","location_rts":"[1448,873,104,187,228,259,275]","trial_type":"fractal-mutation","trial_index":69,"time_elapsed":1068548,"internal_node_id":"0.0-5.0-30.0"},{"group":"dihedral group of order 12","fractal_assignment":["../images/gry_blk.png","../images/blu_wht.png","../images/grn_red.png","../images/org_blu.png","../images/pnk_blu.png","../images/ylw_pnk.png","../images/grn_blu.png","../images/red_prp.png","../images/grn_prp.png","../images/wht_red.png","../images/cyn_red.png","../images/ylw_slt.png"],"mutagen_generator_assignment":[0,1],"goal":0,"start":10,"action_noise":0.15,"location_history":"[10,4,5,11,10,9,8,2,3,9,8,7,6,11,10,4,10,9,8,2,3,9,3,4,10,9,8,2,8,7,6,11,10,4,5,0]","action_history":"[1,0,0,0,0,0,1,0,1,0,0,0,1,0,1,1,0,0,1,0,1,1,0,0,1,0,1,1,0,0,0,0,1,1,0]","mutagen_history":"[1,0,0,0,0,0,1,0,1,0,0,0,1,0,1,1,0,0,1,0,1,1,0,0,1,0,1,1,0,0,0,0,1,1,0]","location_rts":"[1271,8,388,1090,763,420,132,75,260,59,146,132,196,257,213,108,124,227,110,57,628,121,60,163,606,144,341,119,59,181,115,102,532,346,1289]","trial_type":"fractal-mutation","trial_index":70,"time_elapsed":1121000,"internal_node_id":"0.0-5.0-31.0"},{"group":"dihedral group of order 12","fractal_assignment":["../images/gry_blk.png","../images/blu_wht.png","../images/grn_red.png","../images/org_blu.png","../images/pnk_blu.png","../images/ylw_pnk.png","../images/grn_blu.png","../images/red_prp.png","../images/grn_prp.png","../images/wht_red.png","../images/cyn_red.png","../images/ylw_slt.png"],"mutagen_generator_assignment":[0,1],"goal":7,"start":0,"action_noise":0.15,"location_history":"[0,1,7]","action_history":"[0,0]","mutagen_history":"[0,0]","location_rts":"[1261,834]","trial_type":"fractal-mutation","trial_index":71,"time_elapsed":1128641,"internal_node_id":"0.0-5.0-32.0"},{"group":"dihedral group of order 12","fractal_assignment":["../images/gry_blk.png","../images/blu_wht.png","../images/grn_red.png","../images/org_blu.png","../images/pnk_blu.png","../images/ylw_pnk.png","../images/grn_blu.png","../images/red_prp.png","../images/grn_prp.png","../images/wht_red.png","../images/cyn_red.png","../images/ylw_slt.png"],"mutagen_generator_assignment":[0,1],"goal":11,"start":7,"action_noise":0.15,"location_history":"[7,6,0,1,2,3,9,8,7,6,0,6,0,1,2,8,2,3,9,8,7,1,7,1,7,1,2,3,9,3,9,8,7,1,2,8,2,3,9,3,4,10,4,5,11]","action_history":"[0,0,0,0,0,1,0,0,0,1,0,1,0,0,1,1,0,1,0,0,1,1,0,1,0,0,0,0,0,0,0,0,0,0,1,1,0,1,1,0,0,1,0,1]","mutagen_history":"[0,0,0,0,0,1,0,0,0,1,0,1,0,0,1,1,0,1,0,0,1,1,0,1,0,0,0,0,0,0,0,0,0,0,1,1,0,1,1,0,0,1,0,1]","location_rts":"[1618,451,404,386,513,178,73,272,422,486,10,131,63,133,149,234,44,292,136,407,132,260,117,615,79,263,309,550,195,148,132,291,149,116,198,151,120,132,138,104,261,165,281,821]","trial_type":"fractal-mutation","trial_index":72,"time_elapsed":1191762,"internal_node_id":"0.0-5.0-33.0"},{"group":"dihedral group of order 12","fractal_assignment":["../images/gry_blk.png","../images/blu_wht.png","../images/grn_red.png","../images/org_blu.png","../images/pnk_blu.png","../images/ylw_pnk.png","../images/grn_blu.png","../images/red_prp.png","../images/grn_prp.png","../images/wht_red.png","../images/cyn_red.png","../images/ylw_slt.png"],"mutagen_generator_assignment":[0,1],"goal":2,"start":11,"action_noise":0.15,"location_history":"[11,5,0,6,0,1,2]","action_history":"[1,0,1,0,0,0]","mutagen_history":"[1,0,1,0,0,0]","location_rts":"[844,88,175,103,198,100]","trial_type":"fractal-mutation","trial_index":73,"time_elapsed":1203311,"internal_node_id":"0.0-5.0-34.0"},{"view_history":"[{\"page_index\":0,\"viewing_time\":2504}]","rt":2504,"trial_type":"instructions","trial_index":74,"time_elapsed":1206813,"internal_node_id":"0.0-6.0"},{"rt":17069,"responses":"{\"Q0\":\"How people navigated through the house and how they chose which door to move through.\"}","trial_type":"survey-text","trial_index":75,"time_elapsed":1224887,"internal_node_id":"0.0-7.0-0.0"},{"rt":19412,"responses":"{\"Q0\":\"How people correlate the cause and effect of the different treatments.\"}","trial_type":"survey-text","trial_index":76,"time_elapsed":1245300,"internal_node_id":"0.0-7.0-1.0"},{"rt":4949,"responses":"{\"Q0\":\"4\"}","trial_type":"survey-likert","trial_index":77,"time_elapsed":1251253,"internal_node_id":"0.0-7.0-2.0"},{"rt":26902,"responses":"{\"Q0\":\"Each experiment had outcomes that would typically happen when you made certain choices.\"}","trial_type":"survey-text","trial_index":78,"time_elapsed":1279155,"internal_node_id":"0.0-7.0-3.0"},{"rt":6373,"responses":"{\"Q0\":\"No\"}","trial_type":"survey-multi-choice","trial_index":79,"time_elapsed":1286533,"internal_node_id":"0.0-7.0-4.0"},{"rt":9555,"responses":"{\"Q0\":\"Did not notice\"}","trial_type":"survey-multi-choice","trial_index":80,"time_elapsed":1297091,"internal_node_id":"0.0-7.0-5.0"},{"rt":3150,"responses":"{\"Q0\":\"\"}","trial_type":"survey-text","trial_index":81,"time_elapsed":1301243,"internal_node_id":"0.0-7.0-6.0"},{"rt":6933,"responses":"{\"Q0\":\"0\"}","trial_type":"survey-likert","trial_index":82,"time_elapsed":1309179,"internal_node_id":"0.0-7.0-7.0"},{"rt":6693,"responses":"{\"Q0\":\"Same structure\"}","trial_type":"survey-multi-choice","trial_index":83,"time_elapsed":1316875,"internal_node_id":"0.0-7.0-8.0"},{"rt":17615,"responses":"{\"Q0\":\"white door = acid, black door = ray\",\"Q1\":\"Moderately confident\"}","trial_type":"survey-multi-choice","trial_index":84,"time_elapsed":1335494,"internal_node_id":"0.0-7.0-9.0"},{"rt":11120,"responses":"{\"Q0\":\"25-35\",\"Q1\":\"Bachelor's degree\",\"Q2\":\"Male\",\"Q3\":\"White\"}","trial_type":"survey-multi-choice","trial_index":85,"time_elapsed":1347622,"internal_node_id":"0.0-8.0"},{"rt":4805,"responses":"{\"Q0\":\"No\"}","trial_type":"survey-text","trial_index":86,"time_elapsed":1353429,"internal_node_id":"0.0-9.0"}]