[{"view_history":"[{\"page_index\":0,\"viewing_time\":236914},{\"page_index\":1,\"viewing_time\":137078}]","rt":373993,"trial_type":"instructions","trial_index":0,"time_elapsed":373994,"internal_node_id":"0.0-0.0"},{"view_history":"[{\"page_index\":0,\"viewing_time\":4446},{\"page_index\":1,\"viewing_time\":10131}]","rt":14578,"trial_type":"instructions","trial_index":1,"time_elapsed":389572,"internal_node_id":"0.0-1.0"},{"group":"dicyclic group of order 12","room_assignment":["brown","purple","olive","red","orange","pink","ivory","green","cyan","yellow","grey","blue"],"door_color_assignment":["white","black"],"door_generator_assignment":[0,1],"goal":7,"start":3,"action_noise":0.15,"location_history":"[3,7]","action_history":"[1]","door_history":"[1]","location_rts":"[783]","trial_type":"two-door-navigation","trial_index":2,"time_elapsed":395073,"internal_node_id":"0.0-2.0-0.0"},{"group":"dicyclic group of order 12","room_assignment":["brown","purple","olive","red","orange","pink","ivory","green","cyan","yellow","grey","blue"],"door_color_assignment":["white","black"],"door_generator_assignment":[0,1],"goal":5,"start":7,"action_noise":0.15,"location_history":"[7,8,0,4,8,5]","action_history":"[0,0,1,1,0]","door_history":"[0,0,1,1,0]","location_rts":"[360,428,396,534,1257]","trial_type":"two-door-navigation","trial_index":3,"time_elapsed":406955,"internal_node_id":"0.0-2.0-1.0"},{"group":"dicyclic group of order 12","room_assignment":["brown","purple","olive","red","orange","pink","ivory","green","cyan","yellow","grey","blue"],"door_color_assignment":["white","black"],"door_generator_assignment":[0,1],"goal":0,"start":5,"action_noise":0.15,"location_history":"[5,10,7,8,5,9,6,11,4,8,0]","action_history":"[0,1,0,0,1,1,0,0,1,1]","door_history":"[0,1,0,0,1,1,0,0,1,1]","location_rts":"[252,231,389,267,136,436,412,157,9,168]","trial_type":"two-door-navigation","trial_index":4,"time_elapsed":423349,"internal_node_id":"0.0-2.0-2.0"},{"group":"dicyclic group of order 12","room_assignment":["brown","purple","olive","red","orange","pink","ivory","green","cyan","yellow","grey","blue"],"door_color_assignment":["white","black"],"door_generator_assignment":[0,1],"goal":2,"start":0,"action_noise":0.15,"location_history":"[0,1,5,9,1,5,10,7,8,0,1,2]","action_history":"[0,0,1,1,1,0,0,0,1,0,0]","door_history":"[0,0,1,1,1,0,0,0,1,0,0]","location_rts":"[919,2532,1377,1142,874,958,788,1204,402,145,551]","trial_type":"two-door-navigation","trial_index":5,"time_elapsed":449486,"internal_node_id":"0.0-2.0-3.0"},{"group":"dicyclic group of order 12","room_assignment":["brown","purple","olive","red","orange","pink","ivory","green","cyan","yellow","grey","blue"],"door_color_assignment":["white","black"],"door_generator_assignment":[0,1],"goal":10,"start":2,"action_noise":0.15,"location_history":"[2,3,0,1,5,10]","action_history":"[0,1,0,1,0]","door_history":"[0,1,0,1,0]","location_rts":"[1201,224,68,57,34]","trial_type":"two-door-navigation","trial_index":6,"time_elapsed":459853,"internal_node_id":"0.0-2.0-4.0"},{"group":"dicyclic group of order 12","room_assignment":["brown","purple","olive","red","orange","pink","ivory","green","cyan","yellow","grey","blue"],"door_color_assignment":["white","black"],"door_generator_assignment":[0,1],"goal":8,"start":10,"action_noise":0.15,"location_history":"[10,2,6,11,3,0,4,9,1,2,6,10,2,6,11,3,0,4,9,1,5,9,6,11,4,8]","action_history":"[0,1,0,1,0,1,0,1,0,0,1,1,0,0,1,0,1,0,0,1,1,0,0,0,1]","door_history":"[0,1,0,1,0,1,0,1,0,0,1,1,0,0,1,0,1,0,0,1,1,0,0,0,1]","location_rts":"[812,3678,231,245,456,38,345,605,59,94,83,337,188,233,436,324,143,162,118,327,659,147,1322,106,1687]","trial_type":"two-door-navigation","trial_index":7,"time_elapsed":503076,"internal_node_id":"0.0-2.0-5.0"},{"group":"dicyclic group of order 12","room_assignment":["brown","purple","olive","red","orange","pink","ivory","green","cyan","yellow","grey","blue"],"door_color_assignment":["white","black"],"door_generator_assignment":[0,1],"goal":11,"start":8,"action_noise":0.15,"location_history":"[8,0,1,2,6,11]","action_history":"[1,0,0,0,1]","door_history":"[1,0,0,0,1]","location_rts":"[507,234,382,112,243]","trial_type":"two-door-navigation","trial_index":8,"time_elapsed":513313,"internal_node_id":"0.0-2.0-6.0"},{"group":"dicyclic group of order 12","room_assignment":["brown","purple","olive","red","orange","pink","ivory","green","cyan","yellow","grey","blue"],"door_color_assignment":["white","black"],"door_generator_assignment":[0,1],"goal":6,"start":11,"action_noise":0.15,"location_history":"[11,3,0,1,5,10,2,3,0,4,9,6]","action_history":"[1,0,0,1,0,1,0,0,1,0,0]","door_history":"[1,0,0,1,0,1,0,0,1,0,0]","location_rts":"[423,48,132,6,8,118,410,291,421,122,310]","trial_type":"two-door-navigation","trial_index":9,"time_elapsed":530638,"internal_node_id":"0.0-2.0-7.0"},{"group":"dicyclic group of order 12","room_assignment":["brown","purple","olive","red","orange","pink","ivory","green","cyan","yellow","grey","blue"],"door_color_assignment":["white","black"],"door_generator_assignment":[0,1],"goal":4,"start":6,"action_noise":0.15,"location_history":"[6,11,3,0,4]","action_history":"[0,1,0,1]","door_history":"[0,1,0,1]","location_rts":"[576,160,131,166]","trial_type":"two-door-navigation","trial_index":10,"time_elapsed":539262,"internal_node_id":"0.0-2.0-8.0"},{"group":"dicyclic group of order 12","room_assignment":["brown","purple","olive","red","orange","pink","ivory","green","cyan","yellow","grey","blue"],"door_color_assignment":["white","black"],"door_generator_assignment":[0,1],"goal":1,"start":4,"action_noise":0.15,"location_history":"[4,9,1]","action_history":"[0,1]","door_history":"[0,1]","location_rts":"[432,279]","trial_type":"two-door-navigation","trial_index":11,"time_elapsed":545532,"internal_node_id":"0.0-2.0-9.0"},{"group":"dicyclic group of order 12","room_assignment":["brown","purple","olive","red","orange","pink","ivory","green","cyan","yellow","grey","blue"],"door_color_assignment":["white","black"],"door_generator_assignment":[0,1],"goal":9,"start":1,"action_noise":0.15,"location_history":"[1,2,6,11,3,0,4,9]","action_history":"[0,1,0,1,0,1,0]","door_history":"[0,1,0,1,0,1,0]","location_rts":"[349,95,265,141,554,4,196]","trial_type":"two-door-navigation","trial_index":12,"time_elapsed":557853,"internal_node_id":"0.0-2.0-10.0"},{"group":"dicyclic group of order 12","room_assignment":["brown","purple","olive","red","orange","pink","ivory","green","cyan","yellow","grey","blue"],"door_color_assignment":["white","black"],"door_generator_assignment":[0,1],"goal":10,"start":9,"action_noise":0.15,"location_history":"[9,6,10]","action_history":"[0,1]","door_history":"[0,1]","location_rts":"[786,152]","trial_type":"two-door-navigation","trial_index":13,"time_elapsed":564530,"internal_node_id":"0.0-2.0-11.0"},{"group":"dicyclic group of order 12","room_assignment":["brown","purple","olive","red","orange","pink","ivory","green","cyan","yellow","grey","blue"],"door_color_assignment":["white","black"],"door_generator_assignment":[0,1],"goal":2,"start":10,"action_noise":0.15,"location_history":"[10,7,8,0,4,8,5,10,7,8,0,4,8,0,1,5,10,2]","action_history":"[1,0,1,0,1,0,1,0,1,1,1,0,0,0,1,0,0]","door_history":"[1,0,1,0,1,0,1,0,1,1,1,0,0,0,1,0,0]","location_rts":"[467,3453,142,759,125,1070,208,1048,464,719,788,159,329,658,595,196,374]","trial_type":"two-door-navigation","trial_index":14,"time_elapsed":597844,"internal_node_id":"0.0-2.0-12.0"},{"group":"dicyclic group of order 12","room_assignment":["brown","purple","olive","red","orange","pink","ivory","green","cyan","yellow","grey","blue"],"door_color_assignment":["white","black"],"door_generator_assignment":[0,1],"goal":0,"start":2,"action_noise":0.15,"location_history":"[2,6,11,3,7,8,5,9,6,10,2,6,11,4,8,5,9,6,11,4,9,1,2,3,0]","action_history":"[1,0,0,1,0,0,1,0,0,1,1,0,0,0,0,1,0,0,0,0,1,0,0,0]","door_history":"[1,0,0,1,0,0,1,0,0,1,1,0,0,0,0,1,0,0,0,0,1,0,0,0]","location_rts":"[273,165,154,224,401,105,85,220,108,131,340,282,276,191,454,688,2316,397,356,298,83,363,248,316]","trial_type":"two-door-navigation","trial_index":15,"time_elapsed":635516,"internal_node_id":"0.0-2.0-13.0"},{"group":"dicyclic group of order 12","room_assignment":["brown","purple","olive","red","orange","pink","ivory","green","cyan","yellow","grey","blue"],"door_color_assignment":["white","black"],"door_generator_assignment":[0,1],"goal":9,"start":0,"action_noise":0.15,"location_history":"[0,1,5,9]","action_history":"[0,1,0]","door_history":"[0,1,0]","location_rts":"[972,598,545]","trial_type":"two-door-navigation","trial_index":16,"time_elapsed":644225,"internal_node_id":"0.0-2.0-14.0"},{"group":"dicyclic group of order 12","room_assignment":["brown","purple","olive","red","orange","pink","ivory","green","cyan","yellow","grey","blue"],"door_color_assignment":["white","black"],"door_generator_assignment":[0,1],"goal":8,"start":9,"action_noise":0.15,"location_history":"[9,1,2,3,7,8]","action_history":"[1,0,0,1,0]","door_history":"[1,0,0,1,0]","location_rts":"[621,432,219,115,161]","trial_type":"two-door-navigation","trial_index":17,"time_elapsed":654589,"internal_node_id":"0.0-2.0-15.0"},{"group":"dicyclic group of order 12","room_assignment":["brown","purple","olive","red","orange","pink","ivory","green","cyan","yellow","grey","blue"],"door_color_assignment":["white","black"],"door_generator_assignment":[0,1],"goal":6,"start":8,"action_noise":0.15,"location_history":"[8,5,9,6]","action_history":"[0,1,0]","door_history":"[0,1,0]","location_rts":"[329,115,173]","trial_type":"two-door-navigation","trial_index":18,"time_elapsed":661995,"internal_node_id":"0.0-2.0-16.0"},{"group":"dicyclic group of order 12","room_assignment":["brown","purple","olive","red","orange","pink","ivory","green","cyan","yellow","grey","blue"],"door_color_assignment":["white","black"],"door_generator_assignment":[0,1],"goal":1,"start":6,"action_noise":0.15,"location_history":"[6,11,4,9,6,10,7,11,4,9,1]","action_history":"[1,0,0,0,1,0,1,0,1,1]","door_history":"[1,0,0,0,1,0,1,0,1,1]","location_rts":"[799,133,95,22,373,227,51,239,82,731]","trial_type":"two-door-navigation","trial_index":19,"time_elapsed":678883,"internal_node_id":"0.0-2.0-17.0"},{"group":"dicyclic group of order 12","room_assignment":["brown","purple","olive","red","orange","pink","ivory","green","cyan","yellow","grey","blue"],"door_color_assignment":["white","black"],"door_generator_assignment":[0,1],"goal":4,"start":1,"action_noise":0.15,"location_history":"[1,2,6,11,4]","action_history":"[0,1,0,0]","door_history":"[0,1,0,0]","location_rts":"[267,63,150,39]","trial_type":"two-door-navigation","trial_index":20,"time_elapsed":687013,"internal_node_id":"0.0-2.0-18.0"},{"group":"dicyclic group of order 12","room_assignment":["brown","purple","olive","red","orange","pink","ivory","green","cyan","yellow","grey","blue"],"door_color_assignment":["white","black"],"door_generator_assignment":[0,1],"goal":11,"start":4,"action_noise":0.15,"location_history":"[4,8,5,10,2,3,0,4,8,5,9,1,5,10,2,6,11]","action_history":"[1,0,0,1,0,0,1,0,0,1,1,1,0,1,0,0]","door_history":"[1,0,0,1,0,0,1,0,0,1,1,1,0,1,0,0]","location_rts":"[864,236,2,84,43,105,316,569,1440,672,530,1009,1179,800,1318,590]","trial_type":"two-door-navigation","trial_index":21,"time_elapsed":717106,"internal_node_id":"0.0-2.0-19.0"},{"group":"dicyclic group of order 12","room_assignment":["brown","purple","olive","red","orange","pink","ivory","green","cyan","yellow","grey","blue"],"door_color_assignment":["white","black"],"door_generator_assignment":[0,1],"goal":3,"start":11,"action_noise":0.15,"location_history":"[11,4,9,6,10,7,11,3]","action_history":"[0,1,0,1,0,1,0]","door_history":"[0,1,0,1,0,1,0]","location_rts":"[7036,881,2882,3031,545,3153,1126]","trial_type":"two-door-navigation","trial_index":22,"time_elapsed":746456,"internal_node_id":"0.0-2.0-20.0"},{"group":"dicyclic group of order 12","room_assignment":["brown","purple","olive","red","orange","pink","ivory","green","cyan","yellow","grey","blue"],"door_color_assignment":["white","black"],"door_generator_assignment":[0,1],"goal":5,"start":3,"action_noise":0.15,"location_history":"[3,7,8,0,4,9,6,11,4,9,1,5]","action_history":"[0,1,0,1,0,0,1,0,0,1,1]","door_history":"[0,1,0,1,0,0,1,0,0,1,1]","location_rts":"[1115,1781,2191,3655,1569,695,1715,292,1551,196,553]","trial_type":"two-door-navigation","trial_index":23,"time_elapsed":776935,"internal_node_id":"0.0-2.0-21.0"},{"group":"dicyclic group of order 12","room_assignment":["brown","purple","olive","red","orange","pink","ivory","green","cyan","yellow","grey","blue"],"door_color_assignment":["white","black"],"door_generator_assignment":[0,1],"goal":7,"start":5,"action_noise":0.15,"location_history":"[5,10,2,6,10,2,6,11,3,7]","action_history":"[0,1,1,0,1,1,0,0,1]","door_history":"[0,1,1,0,1,1,0,0,1]","location_rts":"[312,73,35,6463,208,15263,231,445,2879]","trial_type":"two-door-navigation","trial_index":24,"time_elapsed":815729,"internal_node_id":"0.0-2.0-22.0"},{"group":"dicyclic group of order 12","room_assignment":["brown","purple","olive","red","orange","pink","ivory","green","cyan","yellow","grey","blue"],"door_color_assignment":["white","black"],"door_generator_assignment":[0,1],"goal":3,"start":7,"action_noise":0.15,"location_history":"[7,8,0,4,8,0,1,2,3]","action_history":"[0,1,0,1,0,0,0,1]","door_history":"[0,1,0,1,0,0,0,1]","location_rts":"[466,184,176,2924,547,78,2358,7005]","trial_type":"two-door-navigation","trial_index":25,"time_elapsed":841358,"internal_node_id":"0.0-2.0-23.0"},{"group":"dicyclic group of order 12","room_assignment":["brown","purple","olive","red","orange","pink","ivory","green","cyan","yellow","grey","blue"],"door_color_assignment":["white","black"],"door_generator_assignment":[0,1],"goal":4,"start":3,"action_noise":0.15,"location_history":"[3,0,1,2,3,7,11,3,7,8,0,4]","action_history":"[0,1,0,0,1,0,1,0,0,1,0]","door_history":"[0,1,0,0,1,0,1,0,0,1,0]","location_rts":"[982,599,193,43,137,710,454,143,1364,323,13]","trial_type":"two-door-navigation","trial_index":26,"time_elapsed":861708,"internal_node_id":"0.0-2.0-24.0"},{"group":"dicyclic group of order 12","room_assignment":["brown","purple","olive","red","orange","pink","ivory","green","cyan","yellow","grey","blue"],"door_color_assignment":["white","black"],"door_generator_assignment":[0,1],"goal":8,"start":4,"action_noise":0.15,"location_history":"[4,8]","action_history":"[1]","door_history":"[1]","location_rts":"[4466]","trial_type":"two-door-navigation","trial_index":27,"time_elapsed":870709,"internal_node_id":"0.0-2.0-25.0"},{"group":"dicyclic group of order 12","room_assignment":["brown","purple","olive","red","orange","pink","ivory","green","cyan","yellow","grey","blue"],"door_color_assignment":["white","black"],"door_generator_assignment":[0,1],"goal":6,"start":8,"action_noise":0.15,"location_history":"[8,5,9,6]","action_history":"[0,1,0]","door_history":"[0,1,0]","location_rts":"[378,93,120]","trial_type":"two-door-navigation","trial_index":28,"time_elapsed":878080,"internal_node_id":"0.0-2.0-26.0"},{"group":"dicyclic group of order 12","room_assignment":["brown","purple","olive","red","orange","pink","ivory","green","cyan","yellow","grey","blue"],"door_color_assignment":["white","black"],"door_generator_assignment":[0,1],"goal":1,"start":6,"action_noise":0.15,"location_history":"[6,11,3,7,11,3,0,1]","action_history":"[0,1,0,0,1,0,0]","door_history":"[0,1,0,0,1,0,0]","location_rts":"[214,25,53,35,288,19,71]","trial_type":"two-door-navigation","trial_index":29,"time_elapsed":889742,"internal_node_id":"0.0-2.0-27.0"},{"group":"dicyclic group of order 12","room_assignment":["brown","purple","olive","red","orange","pink","ivory","green","cyan","yellow","grey","blue"],"door_color_assignment":["white","black"],"door_generator_assignment":[0,1],"goal":5,"start":1,"action_noise":0.15,"location_history":"[1,5]","action_history":"[0]","door_history":"[0]","location_rts":"[325]","trial_type":"two-door-navigation","trial_index":30,"time_elapsed":894605,"internal_node_id":"0.0-2.0-28.0"},{"group":"dicyclic group of order 12","room_assignment":["brown","purple","olive","red","orange","pink","ivory","green","cyan","yellow","grey","blue"],"door_color_assignment":["white","black"],"door_generator_assignment":[0,1],"goal":9,"start":5,"action_noise":0.15,"location_history":"[5,10,2,3,7,8,5,9]","action_history":"[0,1,0,1,0,0,0]","door_history":"[0,1,0,1,0,0,0]","location_rts":"[337,1189,39,48,139,14,132]","trial_type":"two-door-navigation","trial_index":31,"time_elapsed":907418,"internal_node_id":"0.0-2.0-29.0"},{"group":"dicyclic group of order 12","room_assignment":["brown","purple","olive","red","orange","pink","ivory","green","cyan","yellow","grey","blue"],"door_color_assignment":["white","black"],"door_generator_assignment":[0,1],"goal":10,"start":9,"action_noise":0.15,"location_history":"[9,1,5,10]","action_history":"[0,1,0]","door_history":"[0,1,0]","location_rts":"[2628,51,28]","trial_type":"two-door-navigation","trial_index":32,"time_elapsed":917170,"internal_node_id":"0.0-2.0-30.0"},{"group":"dicyclic group of order 12","room_assignment":["brown","purple","olive","red","orange","pink","ivory","green","cyan","yellow","grey","blue"],"door_color_assignment":["white","black"],"door_generator_assignment":[0,1],"goal":0,"start":10,"action_noise":0.15,"location_history":"[10,2,6,11,4,8,0]","action_history":"[1,0,0,0,0,1]","door_history":"[1,0,0,0,0,1]","location_rts":"[809,148,180,167,701,126]","trial_type":"two-door-navigation","trial_index":33,"time_elapsed":929120,"internal_node_id":"0.0-2.0-31.0"},{"group":"dicyclic group of order 12","room_assignment":["brown","purple","olive","red","orange","pink","ivory","green","cyan","yellow","grey","blue"],"door_color_assignment":["white","black"],"door_generator_assignment":[0,1],"goal":7,"start":0,"action_noise":0.15,"location_history":"[0,1,5,10,2,3,7]","action_history":"[0,1,0,1,0,1]","door_history":"[0,1,0,1,0,1]","location_rts":"[390,168,190,339,115,1053]","trial_type":"two-door-navigation","trial_index":34,"time_elapsed":941517,"internal_node_id":"0.0-2.0-32.0"},{"group":"dicyclic group of order 12","room_assignment":["brown","purple","olive","red","orange","pink","ivory","green","cyan","yellow","grey","blue"],"door_color_assignment":["white","black"],"door_generator_assignment":[0,1],"goal":11,"start":7,"action_noise":0.15,"location_history":"[7,11]","action_history":"[1]","door_history":"[1]","location_rts":"[1647]","trial_type":"two-door-navigation","trial_index":35,"time_elapsed":947701,"internal_node_id":"0.0-2.0-33.0"},{"group":"dicyclic group of order 12","room_assignment":["brown","purple","olive","red","orange","pink","ivory","green","cyan","yellow","grey","blue"],"door_color_assignment":["white","black"],"door_generator_assignment":[0,1],"goal":2,"start":11,"action_noise":0.15,"location_history":"[11,3,7,8,0,1,5,10,2]","action_history":"[0,1,0,1,0,1,0,0]","door_history":"[0,1,0,1,0,1,0,0]","location_rts":"[744,540,447,2166,286,56,722,239]","trial_type":"two-door-navigation","trial_index":36,"time_elapsed":964794,"internal_node_id":"0.0-2.0-34.0"},{"view_history":"[{\"page_index\":0,\"viewing_time\":467737}]","rt":467737,"trial_type":"instructions","trial_index":37,"time_elapsed":1433538,"internal_node_id":"0.0-3.0"},{"view_history":"[{\"page_index\":0,\"viewing_time\":16793},{\"page_index\":1,\"viewing_time\":6165}]","rt":22959,"trial_type":"instructions","trial_index":38,"time_elapsed":1457498,"internal_node_id":"0.0-4.0"},{"group":"dihedral group of order 12","fractal_assignment":["../images/wht_red.png","../images/grn_blu.png","../images/blu_wht.png","../images/grn_red.png","../images/cyn_red.png","../images/pnk_blu.png","../images/gry_blk.png","../images/ylw_pnk.png","../images/ylw_slt.png","../images/red_prp.png","../images/grn_prp.png","../images/org_blu.png"],"mutagen_generator_assignment":[1,0],"goal":7,"start":3,"action_noise":0.15,"location_history":"[3,9,8,7]","action_history":"[1,0,0]","mutagen_history":"[0,1,1]","location_rts":"[2082,377,8287]","trial_type":"fractal-mutation","trial_index":39,"time_elapsed":1475261,"internal_node_id":"0.0-5.0-0.0"},{"group":"dihedral group of order 12","fractal_assignment":["../images/wht_red.png","../images/grn_blu.png","../images/blu_wht.png","../images/grn_red.png","../images/cyn_red.png","../images/pnk_blu.png","../images/gry_blk.png","../images/ylw_pnk.png","../images/ylw_slt.png","../images/red_prp.png","../images/grn_prp.png","../images/org_blu.png"],"mutagen_generator_assignment":[1,0],"goal":5,"start":7,"action_noise":0.15,"location_history":"[7,6,0,1,2,3,4,5]","action_history":"[0,1,1,0,0,0,0]","mutagen_history":"[1,0,0,1,1,1,1]","location_rts":"[873,348,392,722,952,671,727]","trial_type":"fractal-mutation","trial_index":40,"time_elapsed":1491205,"internal_node_id":"0.0-5.0-1.0"},{"group":"dihedral group of order 12","fractal_assignment":["../images/wht_red.png","../images/grn_blu.png","../images/blu_wht.png","../images/grn_red.png","../images/cyn_red.png","../images/pnk_blu.png","../images/gry_blk.png","../images/ylw_pnk.png","../images/ylw_slt.png","../images/red_prp.png","../images/grn_prp.png","../images/org_blu.png"],"mutagen_generator_assignment":[1,0],"goal":0,"start":5,"action_noise":0.15,"location_history":"[5,11,10,4,5,0]","action_history":"[1,0,1,0,0]","mutagen_history":"[0,1,0,1,1]","location_rts":"[498,1565,277,1000,189]","trial_type":"fractal-mutation","trial_index":41,"time_elapsed":1503477,"internal_node_id":"0.0-5.0-2.0"},{"group":"dihedral group of order 12","fractal_assignment":["../images/wht_red.png","../images/grn_blu.png","../images/blu_wht.png","../images/grn_red.png","../images/cyn_red.png","../images/pnk_blu.png","../images/gry_blk.png","../images/ylw_pnk.png","../images/ylw_slt.png","../images/red_prp.png","../images/grn_prp.png","../images/org_blu.png"],"mutagen_generator_assignment":[1,0],"goal":2,"start":0,"action_noise":0.15,"location_history":"[0,6,11,10,9,3,9,3,4,5,0,1,7,1,2]","action_history":"[1,0,0,0,1,1,1,0,0,0,0,0,0,1]","mutagen_history":"[0,1,1,1,0,0,0,1,1,1,1,1,1,0]","location_rts":"[339,138,93,126,10,32,371,200,243,1895,37,239,220,218]","trial_type":"fractal-mutation","trial_index":42,"time_elapsed":1526468,"internal_node_id":"0.0-5.0-3.0"},{"group":"dihedral group of order 12","fractal_assignment":["../images/wht_red.png","../images/grn_blu.png","../images/blu_wht.png","../images/grn_red.png","../images/cyn_red.png","../images/pnk_blu.png","../images/gry_blk.png","../images/ylw_pnk.png","../images/ylw_slt.png","../images/red_prp.png","../images/grn_prp.png","../images/org_blu.png"],"mutagen_generator_assignment":[1,0],"goal":10,"start":2,"action_noise":0.15,"location_history":"[2,3,4,5,11,10]","action_history":"[1,0,0,1,0]","mutagen_history":"[0,1,1,0,1]","location_rts":"[3599,1966,1532,468,390]","trial_type":"fractal-mutation","trial_index":43,"time_elapsed":1543363,"internal_node_id":"0.0-5.0-4.0"},{"group":"dihedral group of order 12","fractal_assignment":["../images/wht_red.png","../images/grn_blu.png","../images/blu_wht.png","../images/grn_red.png","../images/cyn_red.png","../images/pnk_blu.png","../images/gry_blk.png","../images/ylw_pnk.png","../images/ylw_slt.png","../images/red_prp.png","../images/grn_prp.png","../images/org_blu.png"],"mutagen_generator_assignment":[1,0],"goal":8,"start":10,"action_noise":0.15,"location_history":"[10,9,3,4,5,0,1,2,3,4,10,4,10,4,5,11,5,11,5,11,5,11,10,4,5,0,1,2,8]","action_history":"[0,1,0,0,0,0,0,0,0,1,1,1,1,0,1,1,1,1,1,0,1,0,0,0,1,0,0,1]","mutagen_history":"[1,0,1,1,1,1,1,1,1,0,0,0,0,1,0,0,0,0,0,1,0,1,1,1,0,1,1,0]","location_rts":"[281,35,377,53,58,151,171,3,7,42,88,77,2,230,117,123,148,177,153,130,118,242,123,210,584,225,460,905]","trial_type":"fractal-mutation","trial_index":44,"time_elapsed":1581721,"internal_node_id":"0.0-5.0-5.0"},{"group":"dihedral group of order 12","fractal_assignment":["../images/wht_red.png","../images/grn_blu.png","../images/blu_wht.png","../images/grn_red.png","../images/cyn_red.png","../images/pnk_blu.png","../images/gry_blk.png","../images/ylw_pnk.png","../images/ylw_slt.png","../images/red_prp.png","../images/grn_prp.png","../images/org_blu.png"],"mutagen_generator_assignment":[1,0],"goal":11,"start":8,"action_noise":0.15,"location_history":"[8,2,8,2,3,4,5,11]","action_history":"[0,1,1,0,0,0,1]","mutagen_history":"[1,0,0,1,1,1,0]","location_rts":"[308,207,218,7966,28585,336,150]","trial_type":"fractal-mutation","trial_index":45,"time_elapsed":1630670,"internal_node_id":"0.0-5.0-6.0"},{"group":"dihedral group of order 12","fractal_assignment":["../images/wht_red.png","../images/grn_blu.png","../images/blu_wht.png","../images/grn_red.png","../images/cyn_red.png","../images/pnk_blu.png","../images/gry_blk.png","../images/ylw_pnk.png","../images/ylw_slt.png","../images/red_prp.png","../images/grn_prp.png","../images/org_blu.png"],"mutagen_generator_assignment":[1,0],"goal":6,"start":11,"action_noise":0.15,"location_history":"[11,5,0,1,2,8,2,8,7,6]","action_history":"[1,0,0,0,1,1,1,1,0]","mutagen_history":"[0,1,1,1,0,0,0,0,1]","location_rts":"[61,4727,182,105,109,120,151,184,87]","trial_type":"fractal-mutation","trial_index":46,"time_elapsed":1649278,"internal_node_id":"0.0-5.0-7.0"},{"group":"dihedral group of order 12","fractal_assignment":["../images/wht_red.png","../images/grn_blu.png","../images/blu_wht.png","../images/grn_red.png","../images/cyn_red.png","../images/pnk_blu.png","../images/gry_blk.png","../images/ylw_pnk.png","../images/ylw_slt.png","../images/red_prp.png","../images/grn_prp.png","../images/org_blu.png"],"mutagen_generator_assignment":[1,0],"goal":4,"start":6,"action_noise":0.15,"location_history":"[6,11,10,4]","action_history":"[0,0,0]","mutagen_history":"[1,1,1]","location_rts":"[383,42,111]","trial_type":"fractal-mutation","trial_index":47,"time_elapsed":1656677,"internal_node_id":"0.0-5.0-8.0"},{"group":"dihedral group of order 12","fractal_assignment":["../images/wht_red.png","../images/grn_blu.png","../images/blu_wht.png","../images/grn_red.png","../images/cyn_red.png","../images/pnk_blu.png","../images/gry_blk.png","../images/ylw_pnk.png","../images/ylw_slt.png","../images/red_prp.png","../images/grn_prp.png","../images/org_blu.png"],"mutagen_generator_assignment":[1,0],"goal":1,"start":4,"action_noise":0.15,"location_history":"[4,5,0,6,0,6,11,10,4,10,9,3,9,3,9,8,7,6,11,10,4,10,4,10,9,8,7,6,11,5,11,10,4,5,0,1]","action_history":"[0,0,1,1,1,0,0,1,1,1,1,1,1,1,0,0,0,0,0,0,0,1,1,0,0,0,0,0,1,0,0,1,1,0,1]","mutagen_history":"[1,1,0,0,0,1,1,0,0,0,0,0,0,0,1,1,1,1,1,1,1,0,0,1,1,1,1,1,0,1,1,0,0,1,0]","location_rts":"[212,651,1328,731,393,365,2488,866,657,3421,280,2248,540,451,839,478,2655,2080,2130,411,138,975,181,177,252,237,357,631,88,210,648,236,243,713,800]","trial_type":"fractal-mutation","trial_index":48,"time_elapsed":1727191,"internal_node_id":"0.0-5.0-9.0"},{"group":"dihedral group of order 12","fractal_assignment":["../images/wht_red.png","../images/grn_blu.png","../images/blu_wht.png","../images/grn_red.png","../images/cyn_red.png","../images/pnk_blu.png","../images/gry_blk.png","../images/ylw_pnk.png","../images/ylw_slt.png","../images/red_prp.png","../images/grn_prp.png","../images/org_blu.png"],"mutagen_generator_assignment":[1,0],"goal":9,"start":1,"action_noise":0.15,"location_history":"[1,7,6,11,10,4,10,9]","action_history":"[0,0,0,1,1,1,0]","mutagen_history":"[1,1,1,0,0,0,1]","location_rts":"[338,2192,465,230,444,664,2676]","trial_type":"fractal-mutation","trial_index":49,"time_elapsed":1745257,"internal_node_id":"0.0-5.0-10.0"},{"group":"dihedral group of order 12","fractal_assignment":["../images/wht_red.png","../images/grn_blu.png","../images/blu_wht.png","../images/grn_red.png","../images/cyn_red.png","../images/pnk_blu.png","../images/gry_blk.png","../images/ylw_pnk.png","../images/ylw_slt.png","../images/red_prp.png","../images/grn_prp.png","../images/org_blu.png"],"mutagen_generator_assignment":[1,0],"goal":10,"start":9,"action_noise":0.15,"location_history":"[9,8,7,1,7,1,7,6,0,6,11,10]","action_history":"[0,0,1,1,1,0,1,1,1,1,0]","mutagen_history":"[1,1,0,0,0,1,0,0,0,0,1]","location_rts":"[437,2873,797,270,780,617,1072,728,3220,783,1113]","trial_type":"fractal-mutation","trial_index":50,"time_elapsed":1773717,"internal_node_id":"0.0-5.0-11.0"},{"group":"dihedral group of order 12","fractal_assignment":["../images/wht_red.png","../images/grn_blu.png","../images/blu_wht.png","../images/grn_red.png","../images/cyn_red.png","../images/pnk_blu.png","../images/gry_blk.png","../images/ylw_pnk.png","../images/ylw_slt.png","../images/red_prp.png","../images/grn_prp.png","../images/org_blu.png"],"mutagen_generator_assignment":[1,0],"goal":2,"start":10,"action_noise":0.15,"location_history":"[10,9,8,2]","action_history":"[0,0,1]","mutagen_history":"[1,1,0]","location_rts":"[415,782,662]","trial_type":"fractal-mutation","trial_index":51,"time_elapsed":1782382,"internal_node_id":"0.0-5.0-12.0"},{"group":"dihedral group of order 12","fractal_assignment":["../images/wht_red.png","../images/grn_blu.png","../images/blu_wht.png","../images/grn_red.png","../images/cyn_red.png","../images/pnk_blu.png","../images/gry_blk.png","../images/ylw_pnk.png","../images/ylw_slt.png","../images/red_prp.png","../images/grn_prp.png","../images/org_blu.png"],"mutagen_generator_assignment":[1,0],"goal":0,"start":2,"action_noise":0.15,"location_history":"[2,8,7,6,11,10,4,10,4,5,0]","action_history":"[0,0,0,0,0,1,1,1,0,1]","mutagen_history":"[1,1,1,1,1,0,0,0,1,0]","location_rts":"[3165,324,1860,269,323,148,340,8646,529,709]","trial_type":"fractal-mutation","trial_index":52,"time_elapsed":1812856,"internal_node_id":"0.0-5.0-13.0"},{"group":"dihedral group of order 12","fractal_assignment":["../images/wht_red.png","../images/grn_blu.png","../images/blu_wht.png","../images/grn_red.png","../images/cyn_red.png","../images/pnk_blu.png","../images/gry_blk.png","../images/ylw_pnk.png","../images/ylw_slt.png","../images/red_prp.png","../images/grn_prp.png","../images/org_blu.png"],"mutagen_generator_assignment":[1,0],"goal":9,"start":0,"action_noise":0.15,"location_history":"[0,1,2,8,2,8,2,3,4,5,0,6,11,10,9]","action_history":"[0,0,1,1,1,1,0,0,1,0,1,1,0,0]","mutagen_history":"[1,1,0,0,0,0,1,1,0,1,0,0,1,1]","location_rts":"[430,328,1419,447,802,823,895,2453,1799,8095,1481,867,2061,632]","trial_type":"fractal-mutation","trial_index":53,"time_elapsed":1853879,"internal_node_id":"0.0-5.0-14.0"},{"group":"dihedral group of order 12","fractal_assignment":["../images/wht_red.png","../images/grn_blu.png","../images/blu_wht.png","../images/grn_red.png","../images/cyn_red.png","../images/pnk_blu.png","../images/gry_blk.png","../images/ylw_pnk.png","../images/ylw_slt.png","../images/red_prp.png","../images/grn_prp.png","../images/org_blu.png"],"mutagen_generator_assignment":[1,0],"goal":8,"start":9,"action_noise":0.15,"location_history":"[9,8]","action_history":"[0]","mutagen_history":"[1]","location_rts":"[663]","trial_type":"fractal-mutation","trial_index":54,"time_elapsed":1859107,"internal_node_id":"0.0-5.0-15.0"},{"group":"dihedral group of order 12","fractal_assignment":["../images/wht_red.png","../images/grn_blu.png","../images/blu_wht.png","../images/grn_red.png","../images/cyn_red.png","../images/pnk_blu.png","../images/gry_blk.png","../images/ylw_pnk.png","../images/ylw_slt.png","../images/red_prp.png","../images/grn_prp.png","../images/org_blu.png"],"mutagen_generator_assignment":[1,0],"goal":6,"start":8,"action_noise":0.15,"location_history":"[8,2,3,4,10,9,3,4,10,4,10,9,3,4,5,11,10,9,3,9,8,2,3,9,3,4,5,0,6]","action_history":"[1,0,0,1,1,1,0,0,1,0,0,1,1,0,1,0,0,1,1,1,1,0,1,1,0,0,0,1]","mutagen_history":"[0,1,1,0,0,0,1,1,0,1,1,0,0,1,0,1,1,0,0,0,0,1,0,0,1,1,1,0]","location_rts":"[2138,457,412,1527,173,399,334,2277,962,260,537,833,2325,126,217,458,261,78,169,509,453,860,471,25130,188,95,151,1875]","trial_type":"fractal-mutation","trial_index":55,"time_elapsed":1936194,"internal_node_id":"0.0-5.0-16.0"},{"group":"dihedral group of order 12","fractal_assignment":["../images/wht_red.png","../images/grn_blu.png","../images/blu_wht.png","../images/grn_red.png","../images/cyn_red.png","../images/pnk_blu.png","../images/gry_blk.png","../images/ylw_pnk.png","../images/ylw_slt.png","../images/red_prp.png","../images/grn_prp.png","../images/org_blu.png"],"mutagen_generator_assignment":[1,0],"goal":1,"start":6,"action_noise":0.15,"location_history":"[6,0,1]","action_history":"[1,0]","mutagen_history":"[0,1]","location_rts":"[11876,337]","trial_type":"fractal-mutation","trial_index":56,"time_elapsed":1954008,"internal_node_id":"0.0-5.0-17.0"},{"group":"dihedral group of order 12","fractal_assignment":["../images/wht_red.png","../images/grn_blu.png","../images/blu_wht.png","../images/grn_red.png","../images/cyn_red.png","../images/pnk_blu.png","../images/gry_blk.png","../images/ylw_pnk.png","../images/ylw_slt.png","../images/red_prp.png","../images/grn_prp.png","../images/org_blu.png"],"mutagen_generator_assignment":[1,0],"goal":4,"start":1,"action_noise":0.15,"location_history":"[1,2,3,9,8,2,3,4]","action_history":"[0,0,1,1,1,0,0]","mutagen_history":"[1,1,0,0,0,1,1]","location_rts":"[295,134,71,230,251,193,69]","trial_type":"fractal-mutation","trial_index":57,"time_elapsed":1966398,"internal_node_id":"0.0-5.0-18.0"},{"group":"dihedral group of order 12","fractal_assignment":["../images/wht_red.png","../images/grn_blu.png","../images/blu_wht.png","../images/grn_red.png","../images/cyn_red.png","../images/pnk_blu.png","../images/gry_blk.png","../images/ylw_pnk.png","../images/ylw_slt.png","../images/red_prp.png","../images/grn_prp.png","../images/org_blu.png"],"mutagen_generator_assignment":[1,0],"goal":11,"start":4,"action_noise":0.15,"location_history":"[4,5,11]","action_history":"[0,1]","mutagen_history":"[1,0]","location_rts":"[435,112]","trial_type":"fractal-mutation","trial_index":58,"time_elapsed":1972725,"internal_node_id":"0.0-5.0-19.0"},{"group":"dihedral group of order 12","fractal_assignment":["../images/wht_red.png","../images/grn_blu.png","../images/blu_wht.png","../images/grn_red.png","../images/cyn_red.png","../images/pnk_blu.png","../images/gry_blk.png","../images/ylw_pnk.png","../images/ylw_slt.png","../images/red_prp.png","../images/grn_prp.png","../images/org_blu.png"],"mutagen_generator_assignment":[1,0],"goal":3,"start":11,"action_noise":0.15,"location_history":"[11,10,4,10,9,8,7,6,11,10,9,8,2,3]","action_history":"[0,1,1,0,0,0,0,0,0,0,0,1,0]","mutagen_history":"[1,0,0,1,1,1,1,1,1,1,1,0,1]","location_rts":"[596,273,150,125,99,240,1278,1082,2693,528,519,88,1789]","trial_type":"fractal-mutation","trial_index":59,"time_elapsed":1999786,"internal_node_id":"0.0-5.0-20.0"},{"group":"dihedral group of order 12","fractal_assignment":["../images/wht_red.png","../images/grn_blu.png","../images/blu_wht.png","../images/grn_red.png","../images/cyn_red.png","../images/pnk_blu.png","../images/gry_blk.png","../images/ylw_pnk.png","../images/ylw_slt.png","../images/red_prp.png","../images/grn_prp.png","../images/org_blu.png"],"mutagen_generator_assignment":[1,0],"goal":5,"start":3,"action_noise":0.15,"location_history":"[3,9,8,2,3,4,5]","action_history":"[1,1,1,0,0,0]","mutagen_history":"[0,0,0,1,1,1]","location_rts":"[850,1970,498,436,409,1029]","trial_type":"fractal-mutation","trial_index":60,"time_elapsed":2015088,"internal_node_id":"0.0-5.0-21.0"},{"group":"dihedral group of order 12","fractal_assignment":["../images/wht_red.png","../images/grn_blu.png","../images/blu_wht.png","../images/grn_red.png","../images/cyn_red.png","../images/pnk_blu.png","../images/gry_blk.png","../images/ylw_pnk.png","../images/ylw_slt.png","../images/red_prp.png","../images/grn_prp.png","../images/org_blu.png"],"mutagen_generator_assignment":[1,0],"goal":7,"start":5,"action_noise":0.15,"location_history":"[5,11,5,11,10,9,3,4,5,0,1,2,8,2,3,4,5,0,6,0,6,0,6,0,6,11,10,4,10,9,3,9,8,7]","action_history":"[0,1,1,0,0,0,0,0,1,1,1,1,1,1,0,0,0,1,1,1,1,1,1,1,1,1,1,1,0,0,0,0,0]","mutagen_history":"[1,0,0,1,1,1,1,1,0,0,0,0,0,0,1,1,1,0,0,0,0,0,0,0,0,0,0,0,1,1,1,1,1]","location_rts":"[422,225,1716,1588,308,1103,819,1360,526,540,1319,2094,1309,1438,151,128,238,242,186,2475,438,288,234,146,64,646,236,175,156,183,178,240,99]","trial_type":"fractal-mutation","trial_index":61,"time_elapsed":2075273,"internal_node_id":"0.0-5.0-22.0"},{"group":"dihedral group of order 12","fractal_assignment":["../images/wht_red.png","../images/grn_blu.png","../images/blu_wht.png","../images/grn_red.png","../images/cyn_red.png","../images/pnk_blu.png","../images/gry_blk.png","../images/ylw_pnk.png","../images/ylw_slt.png","../images/red_prp.png","../images/grn_prp.png","../images/org_blu.png"],"mutagen_generator_assignment":[1,0],"goal":3,"start":7,"action_noise":0.15,"location_history":"[7,1,7,1,7,6,11,10,4,5,11,5,11,10,4,10,4,5,0,1,2,3]","action_history":"[1,1,1,1,0,0,0,0,0,1,1,1,0,1,1,1,0,0,0,0,0]","mutagen_history":"[0,0,0,0,1,1,1,1,1,0,0,0,1,0,0,0,1,1,1,1,1]","location_rts":"[386,150,111,469,45,134,233,242,360,241,64,162,335,1869,143,457,584,548,642,233,589]","trial_type":"fractal-mutation","trial_index":62,"time_elapsed":2109496,"internal_node_id":"0.0-5.0-23.0"},{"group":"dihedral group of order 12","fractal_assignment":["../images/wht_red.png","../images/grn_blu.png","../images/blu_wht.png","../images/grn_red.png","../images/cyn_red.png","../images/pnk_blu.png","../images/gry_blk.png","../images/ylw_pnk.png","../images/ylw_slt.png","../images/red_prp.png","../images/grn_prp.png","../images/org_blu.png"],"mutagen_generator_assignment":[1,0],"goal":4,"start":3,"action_noise":0.15,"location_history":"[3,9,3,4]","action_history":"[1,1,0]","mutagen_history":"[0,0,1]","location_rts":"[1905,499,902]","trial_type":"fractal-mutation","trial_index":63,"time_elapsed":2119877,"internal_node_id":"0.0-5.0-24.0"},{"group":"dihedral group of order 12","fractal_assignment":["../images/wht_red.png","../images/grn_blu.png","../images/blu_wht.png","../images/grn_red.png","../images/cyn_red.png","../images/pnk_blu.png","../images/gry_blk.png","../images/ylw_pnk.png","../images/ylw_slt.png","../images/red_prp.png","../images/grn_prp.png","../images/org_blu.png"],"mutagen_generator_assignment":[1,0],"goal":8,"start":4,"action_noise":0.15,"location_history":"[4,10,9,8]","action_history":"[1,1,0]","mutagen_history":"[0,0,1]","location_rts":"[4036,1636,213]","trial_type":"fractal-mutation","trial_index":64,"time_elapsed":2132426,"internal_node_id":"0.0-5.0-25.0"},{"group":"dihedral group of order 12","fractal_assignment":["../images/wht_red.png","../images/grn_blu.png","../images/blu_wht.png","../images/grn_red.png","../images/cyn_red.png","../images/pnk_blu.png","../images/gry_blk.png","../images/ylw_pnk.png","../images/ylw_slt.png","../images/red_prp.png","../images/grn_prp.png","../images/org_blu.png"],"mutagen_generator_assignment":[1,0],"goal":6,"start":8,"action_noise":0.15,"location_history":"[8,7,1,2,8,7,6]","action_history":"[0,1,1,0,1,1]","mutagen_history":"[1,0,0,1,0,0]","location_rts":"[755,502,302,214,129,834]","trial_type":"fractal-mutation","trial_index":65,"time_elapsed":2144944,"internal_node_id":"0.0-5.0-26.0"},{"group":"dihedral group of order 12","fractal_assignment":["../images/wht_red.png","../images/grn_blu.png","../images/blu_wht.png","../images/grn_red.png","../images/cyn_red.png","../images/pnk_blu.png","../images/gry_blk.png","../images/ylw_pnk.png","../images/ylw_slt.png","../images/red_prp.png","../images/grn_prp.png","../images/org_blu.png"],"mutagen_generator_assignment":[1,0],"goal":1,"start":6,"action_noise":0.15,"location_history":"[6,11,10,9,8,7,6,11,10,9,8,2,8,7,1]","action_history":"[1,0,0,0,0,0,0,0,0,0,1,1,0,1]","mutagen_history":"[0,1,1,1,1,1,1,1,1,1,0,0,1,0]","location_rts":"[2607,1914,199,571,640,265,240,183,181,111,186,138,511,299]","trial_type":"fractal-mutation","trial_index":66,"time_elapsed":2171503,"internal_node_id":"0.0-5.0-27.0"},{"group":"dihedral group of order 12","fractal_assignment":["../images/wht_red.png","../images/grn_blu.png","../images/blu_wht.png","../images/grn_red.png","../images/cyn_red.png","../images/pnk_blu.png","../images/gry_blk.png","../images/ylw_pnk.png","../images/ylw_slt.png","../images/red_prp.png","../images/grn_prp.png","../images/org_blu.png"],"mutagen_generator_assignment":[1,0],"goal":5,"start":1,"action_noise":0.15,"location_history":"[1,7,6,11,10,9,8,7,6,11,5]","action_history":"[1,0,0,0,0,0,0,0,1,1]","mutagen_history":"[0,1,1,1,1,1,1,1,0,0]","location_rts":"[6051,46,8,399,253,194,1427,160,88,1433]","trial_type":"fractal-mutation","trial_index":67,"time_elapsed":2195699,"internal_node_id":"0.0-5.0-28.0"},{"group":"dihedral group of order 12","fractal_assignment":["../images/wht_red.png","../images/grn_blu.png","../images/blu_wht.png","../images/grn_red.png","../images/cyn_red.png","../images/pnk_blu.png","../images/gry_blk.png","../images/ylw_pnk.png","../images/ylw_slt.png","../images/red_prp.png","../images/grn_prp.png","../images/org_blu.png"],"mutagen_generator_assignment":[1,0],"goal":9,"start":5,"action_noise":0.15,"location_history":"[5,11,10,9]","action_history":"[1,0,0]","mutagen_history":"[0,1,1]","location_rts":"[171,117,224]","trial_type":"fractal-mutation","trial_index":68,"time_elapsed":2202854,"internal_node_id":"0.0-5.0-29.0"},{"group":"dihedral group of order 12","fractal_assignment":["../images/wht_red.png","../images/grn_blu.png","../images/blu_wht.png","../images/grn_red.png","../images/cyn_red.png","../images/pnk_blu.png","../images/gry_blk.png","../images/ylw_pnk.png","../images/ylw_slt.png","../images/red_prp.png","../images/grn_prp.png","../images/org_blu.png"],"mutagen_generator_assignment":[1,0],"goal":10,"start":9,"action_noise":0.15,"location_history":"[9,3,9,3,9,8,2,3,9,3,9,3,9,8,2,8,7,6,11,10]","action_history":"[1,0,1,1,0,1,0,0,1,1,1,1,1,1,1,1,0,0,0]","mutagen_history":"[0,1,0,0,1,0,1,1,0,0,0,0,0,0,0,0,1,1,1]","location_rts":"[1001,86,242,55,9,183,292,738,318,120,220,169,21,451,355,91,151,127,124]","trial_type":"fractal-mutation","trial_index":69,"time_elapsed":2231286,"internal_node_id":"0.0-5.0-30.0"},{"group":"dihedral group of order 12","fractal_assignment":["../images/wht_red.png","../images/grn_blu.png","../images/blu_wht.png","../images/grn_red.png","../images/cyn_red.png","../images/pnk_blu.png","../images/gry_blk.png","../images/ylw_pnk.png","../images/ylw_slt.png","../images/red_prp.png","../images/grn_prp.png","../images/org_blu.png"],"mutagen_generator_assignment":[1,0],"goal":0,"start":10,"action_noise":0.15,"location_history":"[10,9,8,2,8,2,3,4,5,11,5,0]","action_history":"[0,0,1,1,0,0,0,0,1,1,0]","mutagen_history":"[1,1,0,0,1,1,1,1,0,0,1]","location_rts":"[793,487,637,1072,2674,212,598,1523,974,179,262]","trial_type":"fractal-mutation","trial_index":70,"time_elapsed":2256217,"internal_node_id":"0.0-5.0-31.0"},{"group":"dihedral group of order 12","fractal_assignment":["../images/wht_red.png","../images/grn_blu.png","../images/blu_wht.png","../images/grn_red.png","../images/cyn_red.png","../images/pnk_blu.png","../images/gry_blk.png","../images/ylw_pnk.png","../images/ylw_slt.png","../images/red_prp.png","../images/grn_prp.png","../images/org_blu.png"],"mutagen_generator_assignment":[1,0],"goal":7,"start":0,"action_noise":0.15,"location_history":"[0,1,7]","action_history":"[0,1]","mutagen_history":"[1,0]","location_rts":"[355,229]","trial_type":"fractal-mutation","trial_index":71,"time_elapsed":2262391,"internal_node_id":"0.0-5.0-32.0"},{"group":"dihedral group of order 12","fractal_assignment":["../images/wht_red.png","../images/grn_blu.png","../images/blu_wht.png","../images/grn_red.png","../images/cyn_red.png","../images/pnk_blu.png","../images/gry_blk.png","../images/ylw_pnk.png","../images/ylw_slt.png","../images/red_prp.png","../images/grn_prp.png","../images/org_blu.png"],"mutagen_generator_assignment":[1,0],"goal":11,"start":7,"action_noise":0.15,"location_history":"[7,6,11]","action_history":"[0,0]","mutagen_history":"[1,1]","location_rts":"[257,176]","trial_type":"fractal-mutation","trial_index":72,"time_elapsed":2268586,"internal_node_id":"0.0-5.0-33.0"},{"group":"dihedral group of order 12","fractal_assignment":["../images/wht_red.png","../images/grn_blu.png","../images/blu_wht.png","../images/grn_red.png","../images/cyn_red.png","../images/pnk_blu.png","../images/gry_blk.png","../images/ylw_pnk.png","../images/ylw_slt.png","../images/red_prp.png","../images/grn_prp.png","../images/org_blu.png"],"mutagen_generator_assignment":[1,0],"goal":2,"start":11,"action_noise":0.15,"location_history":"[11,10,9,3,9,8,2]","action_history":"[0,0,1,1,0,0]","mutagen_history":"[1,1,0,0,1,1]","location_rts":"[552,4424,1517,328,701,207]","trial_type":"fractal-mutation","trial_index":73,"time_elapsed":2286238,"internal_node_id":"0.0-5.0-34.0"},{"view_history":"[{\"page_index\":0,\"viewing_time\":2401}]","rt":2402,"trial_type":"instructions","trial_index":74,"time_elapsed":2289640,"internal_node_id":"0.0-6.0"},{"rt":4960,"responses":"{\"Q0\":\"no idea\"}","trial_type":"survey-text","trial_index":75,"time_elapsed":2295606,"internal_node_id":"0.0-7.0-0.0"},{"rt":5512,"responses":"{\"Q0\":\"no idea\"}","trial_type":"survey-text","trial_index":76,"time_elapsed":2302121,"internal_node_id":"0.0-7.0-1.0"},{"rt":4308,"responses":"{\"Q0\":\"2\"}","trial_type":"survey-likert","trial_index":77,"time_elapsed":2307433,"internal_node_id":"0.0-7.0-2.0"},{"rt":11489,"responses":"{\"Q0\":\"the fact that they dealt with puzzle situations\"}","trial_type":"survey-text","trial_index":78,"time_elapsed":2319933,"internal_node_id":"0.0-7.0-3.0"},{"rt":5191,"responses":"{\"Q0\":\"No\"}","trial_type":"survey-multi-choice","trial_index":79,"time_elapsed":2326135,"internal_node_id":"0.0-7.0-4.0"},{"rt":6455,"responses":"{\"Q0\":\"During these questions/I wasn't aware until you pointed it out\"}","trial_type":"survey-multi-choice","trial_index":80,"time_elapsed":2333596,"internal_node_id":"0.0-7.0-5.0"},{"rt":14593,"responses":"{\"Q0\":\"\"}","trial_type":"survey-text","trial_index":81,"time_elapsed":2349193,"internal_node_id":"0.0-7.0-6.0"},{"rt":3116,"responses":"{\"Q0\":\"2\"}","trial_type":"survey-likert","trial_index":82,"time_elapsed":2353314,"internal_node_id":"0.0-7.0-7.0"},{"rt":12438,"responses":"{\"Q0\":\"Different structure\"}","trial_type":"survey-multi-choice","trial_index":83,"time_elapsed":2366757,"internal_node_id":"0.0-7.0-8.0"},{"rt":23355,"responses":"{\"Q0\":\"white door = acid, black door = ray\",\"Q1\":\"Moderately confident\"}","trial_type":"survey-multi-choice","trial_index":84,"time_elapsed":2391126,"internal_node_id":"0.0-7.0-9.0"},{"rt":10009,"responses":"{\"Q0\":\"25-35\",\"Q1\":\"Bachelor's degree\",\"Q2\":\"Male\",\"Q3\":\"Hispanic\"}","trial_type":"survey-multi-choice","trial_index":85,"time_elapsed":2402153,"internal_node_id":"0.0-8.0"},{"rt":1428,"responses":"{\"Q0\":\"\"}","trial_type":"survey-text","trial_index":86,"time_elapsed":2404584,"internal_node_id":"0.0-9.0"}]