[{"view_history":"[{\"page_index\":0,\"viewing_time\":1624},{\"page_index\":1,\"viewing_time\":5619}]","rt":7244,"trial_type":"instructions","trial_index":0,"time_elapsed":7245,"internal_node_id":"0.0-0.0"},{"view_history":"[{\"page_index\":0,\"viewing_time\":2320},{\"page_index\":1,\"viewing_time\":26190}]","rt":28510,"trial_type":"instructions","trial_index":1,"time_elapsed":36756,"internal_node_id":"0.0-1.0"},{"group":"dicyclic group of order 12","room_assignment":["brown","pink","cyan","red","grey","yellow","ivory","purple","olive","orange","blue","green"],"door_color_assignment":["white","black"],"door_generator_assignment":[1,0],"goal":7,"start":3,"action_noise":0.15,"location_history":"[3,0,1,2,3,7]","action_history":"[0,0,0,0,1]","door_history":"[1,1,1,1,0]","location_rts":"[2154,586,322,274,1243]","trial_type":"two-door-navigation","trial_index":2,"time_elapsed":49955,"internal_node_id":"0.0-2.0-0.0"},{"group":"dicyclic group of order 12","room_assignment":["brown","pink","cyan","red","grey","yellow","ivory","purple","olive","orange","blue","green"],"door_color_assignment":["white","black"],"door_generator_assignment":[1,0],"goal":5,"start":7,"action_noise":0.15,"location_history":"[7,8,5]","action_history":"[0,0]","door_history":"[1,1]","location_rts":"[217412,411]","trial_type":"two-door-navigation","trial_index":3,"time_elapsed":273326,"internal_node_id":"0.0-2.0-1.0"},{"group":"dicyclic group of order 12","room_assignment":["brown","pink","cyan","red","grey","yellow","ivory","purple","olive","orange","blue","green"],"door_color_assignment":["white","black"],"door_generator_assignment":[1,0],"goal":0,"start":5,"action_noise":0.15,"location_history":"[5,9,6,11,4,8,0]","action_history":"[1,1,0,0,1,1]","door_history":"[0,0,1,1,0,0]","location_rts":"[7627,1300,803,995,859,531]","trial_type":"two-door-navigation","trial_index":4,"time_elapsed":295072,"internal_node_id":"0.0-2.0-2.0"},{"group":"dicyclic group of order 12","room_assignment":["brown","pink","cyan","red","grey","yellow","ivory","purple","olive","orange","blue","green"],"door_color_assignment":["white","black"],"door_generator_assignment":[1,0],"goal":2,"start":0,"action_noise":0.15,"location_history":"[0,4,8,0,1,5,9,6,10,7,11,4,8,5,10,2]","action_history":"[1,1,1,1,1,1,0,0,0,1,0,1,0,0,1]","door_history":"[0,0,0,0,0,0,1,1,1,0,1,0,1,1,0]","location_rts":"[1178,892,1011,499,426,411,1027,1211,400,465,1083,1059,564,379,706]","trial_type":"two-door-navigation","trial_index":5,"time_elapsed":325208,"internal_node_id":"0.0-2.0-3.0"},{"group":"dicyclic group of order 12","room_assignment":["brown","pink","cyan","red","grey","yellow","ivory","purple","olive","orange","blue","green"],"door_color_assignment":["white","black"],"door_generator_assignment":[1,0],"goal":10,"start":2,"action_noise":0.15,"location_history":"[2,3,0,1,5,9,6,10]","action_history":"[0,0,0,1,1,0,1]","door_history":"[1,1,1,0,0,1,0]","location_rts":"[1864,420,451,931,467,499,435]","trial_type":"two-door-navigation","trial_index":6,"time_elapsed":340925,"internal_node_id":"0.0-2.0-4.0"},{"group":"dicyclic group of order 12","room_assignment":["brown","pink","cyan","red","grey","yellow","ivory","purple","olive","orange","blue","green"],"door_color_assignment":["white","black"],"door_generator_assignment":[1,0],"goal":8,"start":10,"action_noise":0.15,"location_history":"[10,7,8]","action_history":"[0,0]","door_history":"[1,1]","location_rts":"[1835,715]","trial_type":"two-door-navigation","trial_index":7,"time_elapsed":349023,"internal_node_id":"0.0-2.0-5.0"},{"group":"dicyclic group of order 12","room_assignment":["brown","pink","cyan","red","grey","yellow","ivory","purple","olive","orange","blue","green"],"door_color_assignment":["white","black"],"door_generator_assignment":[1,0],"goal":11,"start":8,"action_noise":0.15,"location_history":"[8,0,1,5,10,7,8,5,10,2,3,0,4,8,0,1,2,3,0,4,8,0,4,8,0,4,8,0,4,8,0,4,8,5,10,2,6,11]","action_history":"[1,0,1,0,0,0,0,1,1,0,0,1,0,1,0,0,0,0,1,1,1,0,0,1,1,1,1,1,1,1,1,1,0,0,0,0,0]","door_history":"[0,1,0,1,1,1,1,0,0,1,1,0,1,0,1,1,1,1,0,0,0,1,1,0,0,0,0,0,0,0,0,0,1,1,1,1,1]","location_rts":"[2483,811,1324,780,1172,660,835,1028,763,483,386,692,572,412,460,363,395,459,451,644,994,467,363,196,267,282,460,1682,269,251,394,291,275,315,235,579,315]","trial_type":"two-door-navigation","trial_index":8,"time_elapsed":413104,"internal_node_id":"0.0-2.0-6.0"},{"group":"dicyclic group of order 12","room_assignment":["brown","pink","cyan","red","grey","yellow","ivory","purple","olive","orange","blue","green"],"door_color_assignment":["white","black"],"door_generator_assignment":[1,0],"goal":6,"start":11,"action_noise":0.15,"location_history":"[11,4,8,5,9,6]","action_history":"[0,1,0,1,1]","door_history":"[1,0,1,0,0]","location_rts":"[803,1003,370,684,298]","trial_type":"two-door-navigation","trial_index":9,"time_elapsed":424870,"internal_node_id":"0.0-2.0-7.0"},{"group":"dicyclic group of order 12","room_assignment":["brown","pink","cyan","red","grey","yellow","ivory","purple","olive","orange","blue","green"],"door_color_assignment":["white","black"],"door_generator_assignment":[1,0],"goal":4,"start":6,"action_noise":0.15,"location_history":"[6,10,7,8,0,4]","action_history":"[0,0,1,1,1]","door_history":"[1,1,0,0,0]","location_rts":"[1139,578,1395,274,307]","trial_type":"two-door-navigation","trial_index":10,"time_elapsed":437174,"internal_node_id":"0.0-2.0-8.0"},{"group":"dicyclic group of order 12","room_assignment":["brown","pink","cyan","red","grey","yellow","ivory","purple","olive","orange","blue","green"],"door_color_assignment":["white","black"],"door_generator_assignment":[1,0],"goal":1,"start":4,"action_noise":0.15,"location_history":"[4,9,6,10,7,8,0,1]","action_history":"[0,1,1,0,0,0,0]","door_history":"[1,0,0,1,1,1,1]","location_rts":"[1427,612,523,921,451,369,386]","trial_type":"two-door-navigation","trial_index":11,"time_elapsed":452517,"internal_node_id":"0.0-2.0-9.0"},{"group":"dicyclic group of order 12","room_assignment":["brown","pink","cyan","red","grey","yellow","ivory","purple","olive","orange","blue","green"],"door_color_assignment":["white","black"],"door_generator_assignment":[1,0],"goal":9,"start":1,"action_noise":0.15,"location_history":"[1,5,10,7,8,5,9]","action_history":"[1,0,0,0,0,1]","door_history":"[0,1,1,1,1,0]","location_rts":"[1220,714,650,932,484,1603]","trial_type":"two-door-navigation","trial_index":12,"time_elapsed":467748,"internal_node_id":"0.0-2.0-10.0"},{"group":"dicyclic group of order 12","room_assignment":["brown","pink","cyan","red","grey","yellow","ivory","purple","olive","orange","blue","green"],"door_color_assignment":["white","black"],"door_generator_assignment":[1,0],"goal":10,"start":9,"action_noise":0.15,"location_history":"[9,6,11,4,8,5,10]","action_history":"[0,0,0,0,0,0]","door_history":"[1,1,1,1,1,1]","location_rts":"[1811,386,387,283,315,235]","trial_type":"two-door-navigation","trial_index":13,"time_elapsed":480801,"internal_node_id":"0.0-2.0-11.0"},{"group":"dicyclic group of order 12","room_assignment":["brown","pink","cyan","red","grey","yellow","ivory","purple","olive","orange","blue","green"],"door_color_assignment":["white","black"],"door_generator_assignment":[1,0],"goal":2,"start":10,"action_noise":0.15,"location_history":"[10,2]","action_history":"[1]","door_history":"[0]","location_rts":"[8226]","trial_type":"two-door-navigation","trial_index":14,"time_elapsed":493551,"internal_node_id":"0.0-2.0-12.0"},{"group":"dicyclic group of order 12","room_assignment":["brown","pink","cyan","red","grey","yellow","ivory","purple","olive","orange","blue","green"],"door_color_assignment":["white","black"],"door_generator_assignment":[1,0],"goal":0,"start":2,"action_noise":0.15,"location_history":"[2,3,7,8,5,10,7,8,5,9,1,2,6,11,4,9,6,10,2,6,10,2,3,7,8,0]","action_history":"[0,0,0,0,0,0,0,0,1,1,0,0,0,0,0,0,1,1,1,1,1,1,1,0,0]","door_history":"[1,1,1,1,1,1,1,1,0,0,1,1,1,1,1,1,0,0,0,0,0,0,0,1,1]","location_rts":"[2137,579,580,724,450,419,274,444,1122,1162,763,370,354,675,675,595,643,427,322,394,658,410,764,1418,499]","trial_type":"two-door-navigation","trial_index":15,"time_elapsed":539446,"internal_node_id":"0.0-2.0-13.0"},{"group":"dicyclic group of order 12","room_assignment":["brown","pink","cyan","red","grey","yellow","ivory","purple","olive","orange","blue","green"],"door_color_assignment":["white","black"],"door_generator_assignment":[1,0],"goal":9,"start":0,"action_noise":0.15,"location_history":"[0,4,9]","action_history":"[1,0]","door_history":"[0,1]","location_rts":"[1171,1388]","trial_type":"two-door-navigation","trial_index":16,"time_elapsed":547550,"internal_node_id":"0.0-2.0-14.0"},{"group":"dicyclic group of order 12","room_assignment":["brown","pink","cyan","red","grey","yellow","ivory","purple","olive","orange","blue","green"],"door_color_assignment":["white","black"],"door_generator_assignment":[1,0],"goal":8,"start":9,"action_noise":0.15,"location_history":"[9,1,2,3,7,11,3,0,1,5,9,6,10,2,6,11,4,9,6,11,4,9,1,2,3,7,8]","action_history":"[1,0,0,1,1,1,0,0,1,1,1,1,1,0,0,0,0,1,0,0,0,0,0,0,0,0]","door_history":"[0,1,1,0,0,0,1,1,0,0,0,0,0,1,1,1,1,0,1,1,1,1,1,1,1,1]","location_rts":"[1243,619,531,667,483,467,707,883,707,499,427,393,443,651,267,587,730,1387,861,130,299,2587,499,380,4219,435]","trial_type":"two-door-navigation","trial_index":17,"time_elapsed":598702,"internal_node_id":"0.0-2.0-15.0"},{"group":"dicyclic group of order 12","room_assignment":["brown","pink","cyan","red","grey","yellow","ivory","purple","olive","orange","blue","green"],"door_color_assignment":["white","black"],"door_generator_assignment":[1,0],"goal":6,"start":8,"action_noise":0.15,"location_history":"[8,0,1,5,9,6]","action_history":"[1,1,1,0,0]","door_history":"[0,0,0,1,1]","location_rts":"[1387,386,453,1121,452]","trial_type":"two-door-navigation","trial_index":18,"time_elapsed":611109,"internal_node_id":"0.0-2.0-16.0"},{"group":"dicyclic group of order 12","room_assignment":["brown","pink","cyan","red","grey","yellow","ivory","purple","olive","orange","blue","green"],"door_color_assignment":["white","black"],"door_generator_assignment":[1,0],"goal":1,"start":6,"action_noise":0.15,"location_history":"[6,11,3,7,8,0,4,8,0,4,8,5,10,7,11,4,8,5,9,6,10,2,6,10,2,3,7,11,3,7,11,4,9,6,10,7,11,4,8,5,10,2,6,11,3,7,11,3,7,11,3,7,11,4,9,1]","action_history":"[0,1,1,1,1,1,1,0,1,1,1,1,0,1,0,1,0,1,1,1,1,1,1,1,0,1,1,1,1,1,0,0,0,1,0,0,0,1,0,0,1,1,0,1,1,1,1,1,1,1,1,1,0,0,1]","door_history":"[1,0,0,0,0,0,0,1,0,0,0,0,1,0,1,0,1,0,0,0,0,0,0,0,1,0,0,0,0,0,1,1,1,0,1,1,1,0,1,1,0,0,1,0,0,0,0,0,0,0,0,0,1,1,0]","location_rts":"[1178,875,507,523,419,484,884,755,580,362,355,771,547,563,419,308,355,276,444,56971,891,522,1035,387,449,1190,490,587,538,564,786,355,467,587,395,347,539,883,867,387,763,403,962,923,363,460,340,275,403,268,282,339,548,347,420]","trial_type":"two-door-navigation","trial_index":19,"time_elapsed":757698,"internal_node_id":"0.0-2.0-17.0"},{"group":"dicyclic group of order 12","room_assignment":["brown","pink","cyan","red","grey","yellow","ivory","purple","olive","orange","blue","green"],"door_color_assignment":["white","black"],"door_generator_assignment":[1,0],"goal":4,"start":1,"action_noise":0.15,"location_history":"[1,5,9,1,2,3,0,4]","action_history":"[1,1,0,0,0,0,1]","door_history":"[0,0,1,1,1,1,0]","location_rts":"[22269,443,355,332,316,283,484]","trial_type":"two-door-navigation","trial_index":20,"time_elapsed":792826,"internal_node_id":"0.0-2.0-18.0"},{"group":"dicyclic group of order 12","room_assignment":["brown","pink","cyan","red","grey","yellow","ivory","purple","olive","orange","blue","green"],"door_color_assignment":["white","black"],"door_generator_assignment":[1,0],"goal":11,"start":4,"action_noise":0.15,"location_history":"[4,8,0,1,2,3,7,11]","action_history":"[1,0,0,0,0,1,0]","door_history":"[0,1,1,1,1,0,1]","location_rts":"[660,1491,2315,1699,451,906,708]","trial_type":"two-door-navigation","trial_index":21,"time_elapsed":811707,"internal_node_id":"0.0-2.0-19.0"},{"group":"dicyclic group of order 12","room_assignment":["brown","pink","cyan","red","grey","yellow","ivory","purple","olive","orange","blue","green"],"door_color_assignment":["white","black"],"door_generator_assignment":[1,0],"goal":3,"start":11,"action_noise":0.15,"location_history":"[11,4,9,6,11,4,9,1,5,9,6,11,4,8,5,10,7,11,4,9,6,10,7,11,3]","action_history":"[0,1,0,0,0,0,1,1,1,0,0,0,1,1,1,1,1,0,0,0,1,0,1,1]","door_history":"[1,0,1,1,1,1,0,0,0,1,1,1,0,0,0,0,0,1,1,1,0,1,0,0]","location_rts":"[683,1043,819,291,651,427,874,283,265,482,291,312,771,171,491,482,474,1052,434,419,787,395,1020,283]","trial_type":"two-door-navigation","trial_index":22,"time_elapsed":852923,"internal_node_id":"0.0-2.0-20.0"},{"group":"dicyclic group of order 12","room_assignment":["brown","pink","cyan","red","grey","yellow","ivory","purple","olive","orange","blue","green"],"door_color_assignment":["white","black"],"door_generator_assignment":[1,0],"goal":5,"start":3,"action_noise":0.15,"location_history":"[3,7,8,5]","action_history":"[1,0,0]","door_history":"[0,1,1]","location_rts":"[651,1707,1244]","trial_type":"two-door-navigation","trial_index":23,"time_elapsed":863685,"internal_node_id":"0.0-2.0-21.0"},{"group":"dicyclic group of order 12","room_assignment":["brown","pink","cyan","red","grey","yellow","ivory","purple","olive","orange","blue","green"],"door_color_assignment":["white","black"],"door_generator_assignment":[1,0],"goal":7,"start":5,"action_noise":0.15,"location_history":"[5,9,6,11,4,8,5,10,7]","action_history":"[1,0,0,0,1,1,0,0]","door_history":"[0,1,1,1,0,0,1,1]","location_rts":"[28603,332,451,859,732,507,371,436]","trial_type":"two-door-navigation","trial_index":24,"time_elapsed":908688,"internal_node_id":"0.0-2.0-22.0"},{"group":"dicyclic group of order 12","room_assignment":["brown","pink","cyan","red","grey","yellow","ivory","purple","olive","orange","blue","green"],"door_color_assignment":["white","black"],"door_generator_assignment":[1,0],"goal":3,"start":7,"action_noise":0.15,"location_history":"[7,8,0,1,2,3]","action_history":"[0,1,0,0,0]","door_history":"[1,0,1,1,1]","location_rts":"[669,1027,451,954,329]","trial_type":"two-door-navigation","trial_index":25,"time_elapsed":920728,"internal_node_id":"0.0-2.0-23.0"},{"group":"dicyclic group of order 12","room_assignment":["brown","pink","cyan","red","grey","yellow","ivory","purple","olive","orange","blue","green"],"door_color_assignment":["white","black"],"door_generator_assignment":[1,0],"goal":4,"start":3,"action_noise":0.15,"location_history":"[3,7,11,3,7,11,3,0,4]","action_history":"[1,0,1,1,1,1,0,0]","door_history":"[0,1,0,0,0,0,1,1]","location_rts":"[1726,1179,1010,467,387,411,1010,659]","trial_type":"two-door-navigation","trial_index":26,"time_elapsed":939248,"internal_node_id":"0.0-2.0-24.0"},{"group":"dicyclic group of order 12","room_assignment":["brown","pink","cyan","red","grey","yellow","ivory","purple","olive","orange","blue","green"],"door_color_assignment":["white","black"],"door_generator_assignment":[1,0],"goal":8,"start":4,"action_noise":0.15,"location_history":"[4,9,6,10,2,6,11,4,8]","action_history":"[1,0,1,1,1,0,0,1]","door_history":"[0,1,0,0,0,1,1,0]","location_rts":"[757,618,1146,469,795,692,1066,874]","trial_type":"two-door-navigation","trial_index":27,"time_elapsed":957337,"internal_node_id":"0.0-2.0-25.0"},{"group":"dicyclic group of order 12","room_assignment":["brown","pink","cyan","red","grey","yellow","ivory","purple","olive","orange","blue","green"],"door_color_assignment":["white","black"],"door_generator_assignment":[1,0],"goal":6,"start":8,"action_noise":0.15,"location_history":"[8,5,9,1,2,6]","action_history":"[0,1,1,0,1]","door_history":"[1,0,0,1,0]","location_rts":"[1093,434,476,1082,1010]","trial_type":"two-door-navigation","trial_index":28,"time_elapsed":970042,"internal_node_id":"0.0-2.0-26.0"},{"group":"dicyclic group of order 12","room_assignment":["brown","pink","cyan","red","grey","yellow","ivory","purple","olive","orange","blue","green"],"door_color_assignment":["white","black"],"door_generator_assignment":[1,0],"goal":1,"start":6,"action_noise":0.15,"location_history":"[6,11,3,0,1]","action_history":"[0,1,0,0]","door_history":"[1,0,1,1]","location_rts":"[1644,795,1355,430]","trial_type":"two-door-navigation","trial_index":29,"time_elapsed":981853,"internal_node_id":"0.0-2.0-27.0"},{"group":"dicyclic group of order 12","room_assignment":["brown","pink","cyan","red","grey","yellow","ivory","purple","olive","orange","blue","green"],"door_color_assignment":["white","black"],"door_generator_assignment":[1,0],"goal":5,"start":1,"action_noise":0.15,"location_history":"[1,5]","action_history":"[1]","door_history":"[0]","location_rts":"[1872]","trial_type":"two-door-navigation","trial_index":30,"time_elapsed":988248,"internal_node_id":"0.0-2.0-28.0"},{"group":"dicyclic group of order 12","room_assignment":["brown","pink","cyan","red","grey","yellow","ivory","purple","olive","orange","blue","green"],"door_color_assignment":["white","black"],"door_generator_assignment":[1,0],"goal":9,"start":5,"action_noise":0.15,"location_history":"[5,10,2,3,0,4,9]","action_history":"[0,1,1,0,1,1]","door_history":"[1,0,0,1,0,0]","location_rts":"[892,876,444,612,683,516]","trial_type":"two-door-navigation","trial_index":31,"time_elapsed":1001895,"internal_node_id":"0.0-2.0-29.0"},{"group":"dicyclic group of order 12","room_assignment":["brown","pink","cyan","red","grey","yellow","ivory","purple","olive","orange","blue","green"],"door_color_assignment":["white","black"],"door_generator_assignment":[1,0],"goal":10,"start":9,"action_noise":0.15,"location_history":"[9,6,11,3,0,4,9,1,5,9,1,5,10]","action_history":"[1,0,0,0,1,0,1,1,1,1,1,0]","door_history":"[0,1,1,1,0,1,0,0,0,0,0,1]","location_rts":"[748,971,747,435,642,403,980,595,411,490,442,447]","trial_type":"two-door-navigation","trial_index":32,"time_elapsed":1024963,"internal_node_id":"0.0-2.0-30.0"},{"group":"dicyclic group of order 12","room_assignment":["brown","pink","cyan","red","grey","yellow","ivory","purple","olive","orange","blue","green"],"door_color_assignment":["white","black"],"door_generator_assignment":[1,0],"goal":0,"start":10,"action_noise":0.15,"location_history":"[10,7,11,3,0]","action_history":"[0,1,1,0]","door_history":"[1,0,0,1]","location_rts":"[8541,944,763,732]","trial_type":"two-door-navigation","trial_index":33,"time_elapsed":1043528,"internal_node_id":"0.0-2.0-31.0"},{"group":"dicyclic group of order 12","room_assignment":["brown","pink","cyan","red","grey","yellow","ivory","purple","olive","orange","blue","green"],"door_color_assignment":["white","black"],"door_generator_assignment":[1,0],"goal":7,"start":0,"action_noise":0.15,"location_history":"[0,4,9,1,5,10,7]","action_history":"[1,0,1,1,0,0]","door_history":"[0,1,0,0,1,1]","location_rts":"[964,555,682,460,1044,1042]","trial_type":"two-door-navigation","trial_index":34,"time_elapsed":1057904,"internal_node_id":"0.0-2.0-32.0"},{"group":"dicyclic group of order 12","room_assignment":["brown","pink","cyan","red","grey","yellow","ivory","purple","olive","orange","blue","green"],"door_color_assignment":["white","black"],"door_generator_assignment":[1,0],"goal":11,"start":7,"action_noise":0.15,"location_history":"[7,11]","action_history":"[1]","door_history":"[0]","location_rts":"[2795]","trial_type":"two-door-navigation","trial_index":35,"time_elapsed":1065224,"internal_node_id":"0.0-2.0-33.0"},{"group":"dicyclic group of order 12","room_assignment":["brown","pink","cyan","red","grey","yellow","ivory","purple","olive","orange","blue","green"],"door_color_assignment":["white","black"],"door_generator_assignment":[1,0],"goal":2,"start":11,"action_noise":0.15,"location_history":"[11,4,9,6,11,3,0,1,5,10,2]","action_history":"[0,1,0,1,1,0,1,1,1,1]","door_history":"[1,0,1,0,0,1,0,0,0,0]","location_rts":"[978,658,1228,1443,555,779,715,299,355,619]","trial_type":"two-door-navigation","trial_index":36,"time_elapsed":1086569,"internal_node_id":"0.0-2.0-34.0"},{"view_history":"[{\"page_index\":0,\"viewing_time\":3324}]","rt":3325,"trial_type":"instructions","trial_index":37,"time_elapsed":1090895,"internal_node_id":"0.0-3.0"},{"view_history":"[{\"page_index\":0,\"viewing_time\":1079},{\"page_index\":1,\"viewing_time\":1391}]","rt":2471,"trial_type":"instructions","trial_index":38,"time_elapsed":1094366,"internal_node_id":"0.0-4.0"},{"group":"dicyclic group of order 12","fractal_assignment":["../images/blu_wht.png","../images/grn_red.png","../images/grn_prp.png","../images/red_prp.png","../images/cyn_red.png","../images/pnk_blu.png","../images/ylw_slt.png","../images/wht_red.png","../images/ylw_pnk.png","../images/org_blu.png","../images/grn_blu.png","../images/gry_blk.png"],"mutagen_generator_assignment":[1,0],"goal":7,"start":3,"action_noise":0.15,"location_history":"[3,7]","action_history":"[1]","mutagen_history":"[0]","location_rts":"[1747]","trial_type":"fractal-mutation","trial_index":39,"time_elapsed":1100644,"internal_node_id":"0.0-5.0-0.0"},{"group":"dicyclic group of order 12","fractal_assignment":["../images/blu_wht.png","../images/grn_red.png","../images/grn_prp.png","../images/red_prp.png","../images/cyn_red.png","../images/pnk_blu.png","../images/ylw_slt.png","../images/wht_red.png","../images/ylw_pnk.png","../images/org_blu.png","../images/grn_blu.png","../images/gry_blk.png"],"mutagen_generator_assignment":[1,0],"goal":5,"start":7,"action_noise":0.15,"location_history":"[7,8,5]","action_history":"[0,0]","mutagen_history":"[1,1]","location_rts":"[1459,774]","trial_type":"fractal-mutation","trial_index":40,"time_elapsed":1108765,"internal_node_id":"0.0-5.0-1.0"},{"group":"dicyclic group of order 12","fractal_assignment":["../images/blu_wht.png","../images/grn_red.png","../images/grn_prp.png","../images/red_prp.png","../images/cyn_red.png","../images/pnk_blu.png","../images/ylw_slt.png","../images/wht_red.png","../images/ylw_pnk.png","../images/org_blu.png","../images/grn_blu.png","../images/gry_blk.png"],"mutagen_generator_assignment":[1,0],"goal":0,"start":5,"action_noise":0.15,"location_history":"[5,9,6,10,7,8,0]","action_history":"[1,0,0,0,0,0]","mutagen_history":"[0,1,1,1,1,1]","location_rts":"[699,405,463,343,1020,439]","trial_type":"fractal-mutation","trial_index":41,"time_elapsed":1122508,"internal_node_id":"0.0-5.0-2.0"},{"group":"dicyclic group of order 12","fractal_assignment":["../images/blu_wht.png","../images/grn_red.png","../images/grn_prp.png","../images/red_prp.png","../images/cyn_red.png","../images/pnk_blu.png","../images/ylw_slt.png","../images/wht_red.png","../images/ylw_pnk.png","../images/org_blu.png","../images/grn_blu.png","../images/gry_blk.png"],"mutagen_generator_assignment":[1,0],"goal":2,"start":0,"action_noise":0.15,"location_history":"[0,1,5,10,2]","action_history":"[0,1,0,1]","mutagen_history":"[1,0,1,0]","location_rts":"[1732,707,728,977]","trial_type":"fractal-mutation","trial_index":42,"time_elapsed":1134684,"internal_node_id":"0.0-5.0-3.0"},{"group":"dicyclic group of order 12","fractal_assignment":["../images/blu_wht.png","../images/grn_red.png","../images/grn_prp.png","../images/red_prp.png","../images/cyn_red.png","../images/pnk_blu.png","../images/ylw_slt.png","../images/wht_red.png","../images/ylw_pnk.png","../images/org_blu.png","../images/grn_blu.png","../images/gry_blk.png"],"mutagen_generator_assignment":[1,0],"goal":10,"start":2,"action_noise":0.15,"location_history":"[2,3,7,11,3,0,4,8,0,1,2,6,10]","action_history":"[0,1,1,1,0,1,1,1,0,0,0,1]","mutagen_history":"[1,0,0,0,1,0,0,0,1,1,1,0]","location_rts":"[863,525,488,494,732,645,718,705,745,1101,1133,734]","trial_type":"fractal-mutation","trial_index":43,"time_elapsed":1160755,"internal_node_id":"0.0-5.0-4.0"},{"group":"dicyclic group of order 12","fractal_assignment":["../images/blu_wht.png","../images/grn_red.png","../images/grn_prp.png","../images/red_prp.png","../images/cyn_red.png","../images/pnk_blu.png","../images/ylw_slt.png","../images/wht_red.png","../images/ylw_pnk.png","../images/org_blu.png","../images/grn_blu.png","../images/gry_blk.png"],"mutagen_generator_assignment":[1,0],"goal":8,"start":10,"action_noise":0.15,"location_history":"[10,7,11,3,0,4,9,6,11,3,7,11,4,9,1,2,6,11,4,9,6,10,2,6,10,2,6,10,2,3,7,11,4,8]","action_history":"[0,1,1,0,1,0,0,0,1,1,1,1,0,0,0,1,0,0,0,0,0,0,1,0,0,1,1,1,0,1,1,0,1]","mutagen_history":"[1,0,0,1,0,1,1,1,0,0,0,0,1,1,1,0,1,1,1,1,1,1,0,1,1,0,0,0,1,0,0,1,0]","location_rts":"[806,525,926,652,576,563,424,506,458,492,444,568,1021,876,791,957,768,915,457,413,420,882,939,742,966,725,353,302,1099,529,502,420,793]","trial_type":"fractal-mutation","trial_index":44,"time_elapsed":1223903,"internal_node_id":"0.0-5.0-5.0"},{"group":"dicyclic group of order 12","fractal_assignment":["../images/blu_wht.png","../images/grn_red.png","../images/grn_prp.png","../images/red_prp.png","../images/cyn_red.png","../images/pnk_blu.png","../images/ylw_slt.png","../images/wht_red.png","../images/ylw_pnk.png","../images/org_blu.png","../images/grn_blu.png","../images/gry_blk.png"],"mutagen_generator_assignment":[1,0],"goal":11,"start":8,"action_noise":0.15,"location_history":"[8,5,9,6,11]","action_history":"[1,0,0,0]","mutagen_history":"[0,1,1,1]","location_rts":"[14234,2330,849,404]","trial_type":"fractal-mutation","trial_index":45,"time_elapsed":1250558,"internal_node_id":"0.0-5.0-6.0"},{"group":"dicyclic group of order 12","fractal_assignment":["../images/blu_wht.png","../images/grn_red.png","../images/grn_prp.png","../images/red_prp.png","../images/cyn_red.png","../images/pnk_blu.png","../images/ylw_slt.png","../images/wht_red.png","../images/ylw_pnk.png","../images/org_blu.png","../images/grn_blu.png","../images/gry_blk.png"],"mutagen_generator_assignment":[1,0],"goal":6,"start":11,"action_noise":0.15,"location_history":"[11,3,0,1,5,9,1,2,3,7,8,5,10,7,8,5,10,7,8,5,10,7,8,5,9,1,5,9,6]","action_history":"[1,0,0,1,1,1,0,1,1,0,0,0,0,0,0,0,0,0,0,0,0,1,0,1,1,1,1,1]","mutagen_history":"[0,1,1,0,0,0,1,0,0,1,1,1,1,1,1,1,1,1,1,1,1,0,1,0,0,0,0,0]","location_rts":"[1689,427,1200,503,838,905,737,1519,776,740,1495,377,432,667,501,455,762,493,557,670,547,487,953,728,723,655,1242,751]","trial_type":"fractal-mutation","trial_index":46,"time_elapsed":1308068,"internal_node_id":"0.0-5.0-7.0"},{"group":"dicyclic group of order 12","fractal_assignment":["../images/blu_wht.png","../images/grn_red.png","../images/grn_prp.png","../images/red_prp.png","../images/cyn_red.png","../images/pnk_blu.png","../images/ylw_slt.png","../images/wht_red.png","../images/ylw_pnk.png","../images/org_blu.png","../images/grn_blu.png","../images/gry_blk.png"],"mutagen_generator_assignment":[1,0],"goal":4,"start":6,"action_noise":0.15,"location_history":"[6,11,4]","action_history":"[0,0]","mutagen_history":"[1,1]","location_rts":"[1395,583]","trial_type":"fractal-mutation","trial_index":47,"time_elapsed":1315946,"internal_node_id":"0.0-5.0-8.0"},{"group":"dicyclic group of order 12","fractal_assignment":["../images/blu_wht.png","../images/grn_red.png","../images/grn_prp.png","../images/red_prp.png","../images/cyn_red.png","../images/pnk_blu.png","../images/ylw_slt.png","../images/wht_red.png","../images/ylw_pnk.png","../images/org_blu.png","../images/grn_blu.png","../images/gry_blk.png"],"mutagen_generator_assignment":[1,0],"goal":1,"start":4,"action_noise":0.15,"location_history":"[4,9,1]","action_history":"[0,1]","mutagen_history":"[1,0]","location_rts":"[495,621]","trial_type":"fractal-mutation","trial_index":48,"time_elapsed":1322845,"internal_node_id":"0.0-5.0-9.0"},{"group":"dicyclic group of order 12","fractal_assignment":["../images/blu_wht.png","../images/grn_red.png","../images/grn_prp.png","../images/red_prp.png","../images/cyn_red.png","../images/pnk_blu.png","../images/ylw_slt.png","../images/wht_red.png","../images/ylw_pnk.png","../images/org_blu.png","../images/grn_blu.png","../images/gry_blk.png"],"mutagen_generator_assignment":[1,0],"goal":9,"start":1,"action_noise":0.15,"location_history":"[1,2,6,10,7,11,3,7,8,0,1,2,3,7,8,5,10,2,3,0,1,5,9]","action_history":"[0,1,1,0,1,1,0,0,1,0,0,0,1,0,0,0,1,1,0,0,0,1]","mutagen_history":"[1,0,0,1,0,0,1,1,0,1,1,1,0,1,1,1,0,0,1,1,1,0]","location_rts":"[611,603,1988,709,2519,895,733,746,881,678,881,698,795,874,1057,834,580,696,937,570,544,872]","trial_type":"fractal-mutation","trial_index":49,"time_elapsed":1371432,"internal_node_id":"0.0-5.0-10.0"},{"group":"dicyclic group of order 12","fractal_assignment":["../images/blu_wht.png","../images/grn_red.png","../images/grn_prp.png","../images/red_prp.png","../images/cyn_red.png","../images/pnk_blu.png","../images/ylw_slt.png","../images/wht_red.png","../images/ylw_pnk.png","../images/org_blu.png","../images/grn_blu.png","../images/gry_blk.png"],"mutagen_generator_assignment":[1,0],"goal":10,"start":9,"action_noise":0.15,"location_history":"[9,6,11,3,7,8,5,9,1,2,6,11,4,9,6,11,4,8,0,1,2,3,7,11,3,0,4,9,6,10]","action_history":"[1,0,1,1,1,0,1,1,0,1,0,0,0,0,0,0,1,1,1,0,0,1,1,1,1,1,0,0,1]","mutagen_history":"[0,1,0,0,0,1,0,0,1,0,1,1,1,1,1,1,0,0,0,1,1,0,0,0,0,0,1,1,0]","location_rts":"[840,897,601,845,941,527,907,819,599,2468,605,1434,397,432,522,652,334,407,653,1615,974,795,1801,707,757,1057,831,514,641]","trial_type":"fractal-mutation","trial_index":50,"time_elapsed":1432463,"internal_node_id":"0.0-5.0-11.0"},{"group":"dicyclic group of order 12","fractal_assignment":["../images/blu_wht.png","../images/grn_red.png","../images/grn_prp.png","../images/red_prp.png","../images/cyn_red.png","../images/pnk_blu.png","../images/ylw_slt.png","../images/wht_red.png","../images/ylw_pnk.png","../images/org_blu.png","../images/grn_blu.png","../images/gry_blk.png"],"mutagen_generator_assignment":[1,0],"goal":2,"start":10,"action_noise":0.15,"location_history":"[10,7,11,3,7,8,5,9,6,10,2]","action_history":"[0,1,1,1,0,0,1,0,1,1]","mutagen_history":"[1,0,0,0,1,1,0,1,0,0]","location_rts":"[1081,1651,589,558,651,594,1192,1039,416,976]","trial_type":"fractal-mutation","trial_index":51,"time_elapsed":1456077,"internal_node_id":"0.0-5.0-12.0"},{"group":"dicyclic group of order 12","fractal_assignment":["../images/blu_wht.png","../images/grn_red.png","../images/grn_prp.png","../images/red_prp.png","../images/cyn_red.png","../images/pnk_blu.png","../images/ylw_slt.png","../images/wht_red.png","../images/ylw_pnk.png","../images/org_blu.png","../images/grn_blu.png","../images/gry_blk.png"],"mutagen_generator_assignment":[1,0],"goal":0,"start":2,"action_noise":0.15,"location_history":"[2,3,0]","action_history":"[0,0]","mutagen_history":"[1,1]","location_rts":"[891,284]","trial_type":"fractal-mutation","trial_index":52,"time_elapsed":1463134,"internal_node_id":"0.0-5.0-13.0"},{"group":"dicyclic group of order 12","fractal_assignment":["../images/blu_wht.png","../images/grn_red.png","../images/grn_prp.png","../images/red_prp.png","../images/cyn_red.png","../images/pnk_blu.png","../images/ylw_slt.png","../images/wht_red.png","../images/ylw_pnk.png","../images/org_blu.png","../images/grn_blu.png","../images/gry_blk.png"],"mutagen_generator_assignment":[1,0],"goal":9,"start":0,"action_noise":0.15,"location_history":"[0,4,8,0,1,5,10,7,8,5,9]","action_history":"[1,1,1,0,1,1,0,0,1,1]","mutagen_history":"[0,0,0,1,0,0,1,1,0,0]","location_rts":"[1504,752,698,419,637,705,927,702,391,482]","trial_type":"fractal-mutation","trial_index":53,"time_elapsed":1484866,"internal_node_id":"0.0-5.0-14.0"},{"group":"dicyclic group of order 12","fractal_assignment":["../images/blu_wht.png","../images/grn_red.png","../images/grn_prp.png","../images/red_prp.png","../images/cyn_red.png","../images/pnk_blu.png","../images/ylw_slt.png","../images/wht_red.png","../images/ylw_pnk.png","../images/org_blu.png","../images/grn_blu.png","../images/gry_blk.png"],"mutagen_generator_assignment":[1,0],"goal":8,"start":9,"action_noise":0.15,"location_history":"[9,1,5,10,7,8]","action_history":"[0,1,1,0,0]","mutagen_history":"[1,0,0,1,1]","location_rts":"[747,326,1377,579,1547]","trial_type":"fractal-mutation","trial_index":54,"time_elapsed":1498717,"internal_node_id":"0.0-5.0-15.0"},{"group":"dicyclic group of order 12","fractal_assignment":["../images/blu_wht.png","../images/grn_red.png","../images/grn_prp.png","../images/red_prp.png","../images/cyn_red.png","../images/pnk_blu.png","../images/ylw_slt.png","../images/wht_red.png","../images/ylw_pnk.png","../images/org_blu.png","../images/grn_blu.png","../images/gry_blk.png"],"mutagen_generator_assignment":[1,0],"goal":6,"start":8,"action_noise":0.15,"location_history":"[8,5,10,2,6]","action_history":"[0,0,1,0]","mutagen_history":"[1,1,0,1]","location_rts":"[30738,350,640,1556]","trial_type":"fractal-mutation","trial_index":55,"time_elapsed":1541173,"internal_node_id":"0.0-5.0-16.0"},{"group":"dicyclic group of order 12","fractal_assignment":["../images/blu_wht.png","../images/grn_red.png","../images/grn_prp.png","../images/red_prp.png","../images/cyn_red.png","../images/pnk_blu.png","../images/ylw_slt.png","../images/wht_red.png","../images/ylw_pnk.png","../images/org_blu.png","../images/grn_blu.png","../images/gry_blk.png"],"mutagen_generator_assignment":[1,0],"goal":1,"start":6,"action_noise":0.15,"location_history":"[6,10,7,11,3,7,8,0,4,8,0,1]","action_history":"[1,0,1,1,1,0,1,1,1,1,0]","mutagen_history":"[0,1,0,0,0,1,0,0,0,0,1]","location_rts":"[1569,1167,305,646,328,377,301,536,689,1006,402]","trial_type":"fractal-mutation","trial_index":56,"time_elapsed":1564337,"internal_node_id":"0.0-5.0-17.0"},{"group":"dicyclic group of order 12","fractal_assignment":["../images/blu_wht.png","../images/grn_red.png","../images/grn_prp.png","../images/red_prp.png","../images/cyn_red.png","../images/pnk_blu.png","../images/ylw_slt.png","../images/wht_red.png","../images/ylw_pnk.png","../images/org_blu.png","../images/grn_blu.png","../images/gry_blk.png"],"mutagen_generator_assignment":[1,0],"goal":4,"start":1,"action_noise":0.15,"location_history":"[1,5,9,6,11,3,0,1,5,10,7,11,3,0,1,2,3,0,1,5,9,1,5,9,1,5,10,2,3,7,8,5,10,2,6,11,3,7,11,3,7,8,0,4]","action_history":"[1,0,1,1,1,0,1,1,1,0,1,1,0,1,0,0,1,0,1,1,1,1,1,1,0,0,1,0,1,0,0,0,0,1,0,1,1,1,1,1,0,1,1]","mutagen_history":"[0,1,0,0,0,1,0,0,0,1,0,0,1,0,1,1,0,1,0,0,0,0,0,0,1,1,0,1,0,1,1,1,1,0,1,0,0,0,0,0,1,0,0]","location_rts":"[1518,809,639,1031,639,461,426,1486,601,559,457,340,1001,436,1361,1053,496,1210,1090,706,824,1008,683,775,1497,443,321,497,555,630,576,388,854,582,684,581,303,324,178,237,540,308,517]","trial_type":"fractal-mutation","trial_index":57,"time_elapsed":1646011,"internal_node_id":"0.0-5.0-18.0"},{"group":"dicyclic group of order 12","fractal_assignment":["../images/blu_wht.png","../images/grn_red.png","../images/grn_prp.png","../images/red_prp.png","../images/cyn_red.png","../images/pnk_blu.png","../images/ylw_slt.png","../images/wht_red.png","../images/ylw_pnk.png","../images/org_blu.png","../images/grn_blu.png","../images/gry_blk.png"],"mutagen_generator_assignment":[1,0],"goal":11,"start":4,"action_noise":0.15,"location_history":"[4,9,6,11]","action_history":"[0,0,0]","mutagen_history":"[1,1,1]","location_rts":"[1634,1029,964]","trial_type":"fractal-mutation","trial_index":58,"time_elapsed":1656579,"internal_node_id":"0.0-5.0-19.0"},{"group":"dicyclic group of order 12","fractal_assignment":["../images/blu_wht.png","../images/grn_red.png","../images/grn_prp.png","../images/red_prp.png","../images/cyn_red.png","../images/pnk_blu.png","../images/ylw_slt.png","../images/wht_red.png","../images/ylw_pnk.png","../images/org_blu.png","../images/grn_blu.png","../images/gry_blk.png"],"mutagen_generator_assignment":[1,0],"goal":3,"start":11,"action_noise":0.15,"location_history":"[11,3]","action_history":"[1]","mutagen_history":"[0]","location_rts":"[1897]","trial_type":"fractal-mutation","trial_index":59,"time_elapsed":1663036,"internal_node_id":"0.0-5.0-20.0"},{"group":"dicyclic group of order 12","fractal_assignment":["../images/blu_wht.png","../images/grn_red.png","../images/grn_prp.png","../images/red_prp.png","../images/cyn_red.png","../images/pnk_blu.png","../images/ylw_slt.png","../images/wht_red.png","../images/ylw_pnk.png","../images/org_blu.png","../images/grn_blu.png","../images/gry_blk.png"],"mutagen_generator_assignment":[1,0],"goal":5,"start":3,"action_noise":0.15,"location_history":"[3,0,1,5]","action_history":"[0,0,1]","mutagen_history":"[1,1,0]","location_rts":"[3136,1077,570]","trial_type":"fractal-mutation","trial_index":60,"time_elapsed":1674773,"internal_node_id":"0.0-5.0-21.0"},{"group":"dicyclic group of order 12","fractal_assignment":["../images/blu_wht.png","../images/grn_red.png","../images/grn_prp.png","../images/red_prp.png","../images/cyn_red.png","../images/pnk_blu.png","../images/ylw_slt.png","../images/wht_red.png","../images/ylw_pnk.png","../images/org_blu.png","../images/grn_blu.png","../images/gry_blk.png"],"mutagen_generator_assignment":[1,0],"goal":7,"start":5,"action_noise":0.15,"location_history":"[5,9,6,11,3,0,1,2,6,10,7]","action_history":"[0,0,0,1,0,0,0,0,0,1]","mutagen_history":"[1,1,1,0,1,1,1,1,1,0]","location_rts":"[1185,428,563,598,264,883,653,865,1203,571]","trial_type":"fractal-mutation","trial_index":61,"time_elapsed":1697128,"internal_node_id":"0.0-5.0-22.0"},{"group":"dicyclic group of order 12","fractal_assignment":["../images/blu_wht.png","../images/grn_red.png","../images/grn_prp.png","../images/red_prp.png","../images/cyn_red.png","../images/pnk_blu.png","../images/ylw_slt.png","../images/wht_red.png","../images/ylw_pnk.png","../images/org_blu.png","../images/grn_blu.png","../images/gry_blk.png"],"mutagen_generator_assignment":[1,0],"goal":3,"start":7,"action_noise":0.15,"location_history":"[7,11,3]","action_history":"[1,1]","mutagen_history":"[0,0]","location_rts":"[1710,1025]","trial_type":"fractal-mutation","trial_index":62,"time_elapsed":1705411,"internal_node_id":"0.0-5.0-23.0"},{"group":"dicyclic group of order 12","fractal_assignment":["../images/blu_wht.png","../images/grn_red.png","../images/grn_prp.png","../images/red_prp.png","../images/cyn_red.png","../images/pnk_blu.png","../images/ylw_slt.png","../images/wht_red.png","../images/ylw_pnk.png","../images/org_blu.png","../images/grn_blu.png","../images/gry_blk.png"],"mutagen_generator_assignment":[1,0],"goal":4,"start":3,"action_noise":0.15,"location_history":"[3,7,8,0,4]","action_history":"[0,0,1,1]","mutagen_history":"[1,1,0,0]","location_rts":"[1986,552,560,647]","trial_type":"fractal-mutation","trial_index":63,"time_elapsed":1717259,"internal_node_id":"0.0-5.0-24.0"},{"group":"dicyclic group of order 12","fractal_assignment":["../images/blu_wht.png","../images/grn_red.png","../images/grn_prp.png","../images/red_prp.png","../images/cyn_red.png","../images/pnk_blu.png","../images/ylw_slt.png","../images/wht_red.png","../images/ylw_pnk.png","../images/org_blu.png","../images/grn_blu.png","../images/gry_blk.png"],"mutagen_generator_assignment":[1,0],"goal":8,"start":4,"action_noise":0.15,"location_history":"[4,9,6,11,3,0,1,5,10,2,6,10,2,6,11,3,7,11,3,7,8]","action_history":"[1,0,0,0,0,0,1,0,1,1,1,1,1,0,1,1,1,1,1,0]","mutagen_history":"[0,1,1,1,1,1,0,1,0,0,0,0,0,1,0,0,0,0,0,1]","location_rts":"[1529,953,575,971,1113,1185,499,680,683,539,862,620,699,913,1011,424,356,505,370,392]","trial_type":"fractal-mutation","trial_index":64,"time_elapsed":1758252,"internal_node_id":"0.0-5.0-25.0"},{"group":"dicyclic group of order 12","fractal_assignment":["../images/blu_wht.png","../images/grn_red.png","../images/grn_prp.png","../images/red_prp.png","../images/cyn_red.png","../images/pnk_blu.png","../images/ylw_slt.png","../images/wht_red.png","../images/ylw_pnk.png","../images/org_blu.png","../images/grn_blu.png","../images/gry_blk.png"],"mutagen_generator_assignment":[1,0],"goal":6,"start":8,"action_noise":0.15,"location_history":"[8,0,1,2,6]","action_history":"[1,1,0,1]","mutagen_history":"[0,0,1,0]","location_rts":"[1752,1169,643,1082]","trial_type":"fractal-mutation","trial_index":65,"time_elapsed":1770745,"internal_node_id":"0.0-5.0-26.0"},{"group":"dicyclic group of order 12","fractal_assignment":["../images/blu_wht.png","../images/grn_red.png","../images/grn_prp.png","../images/red_prp.png","../images/cyn_red.png","../images/pnk_blu.png","../images/ylw_slt.png","../images/wht_red.png","../images/ylw_pnk.png","../images/org_blu.png","../images/grn_blu.png","../images/gry_blk.png"],"mutagen_generator_assignment":[1,0],"goal":1,"start":6,"action_noise":0.15,"location_history":"[6,10,7,8,0,4,8,5,10,7,11,3,0,1]","action_history":"[1,0,0,1,1,0,0,0,0,1,1,0,0]","mutagen_history":"[0,1,1,0,0,1,1,1,1,0,0,1,1]","location_rts":"[1283,707,511,793,646,874,1471,730,837,1287,623,517,409]","trial_type":"fractal-mutation","trial_index":66,"time_elapsed":1799831,"internal_node_id":"0.0-5.0-27.0"},{"group":"dicyclic group of order 12","fractal_assignment":["../images/blu_wht.png","../images/grn_red.png","../images/grn_prp.png","../images/red_prp.png","../images/cyn_red.png","../images/pnk_blu.png","../images/ylw_slt.png","../images/wht_red.png","../images/ylw_pnk.png","../images/org_blu.png","../images/grn_blu.png","../images/gry_blk.png"],"mutagen_generator_assignment":[1,0],"goal":5,"start":1,"action_noise":0.15,"location_history":"[1,2,6,11,3,0,4,8,5]","action_history":"[0,1,0,0,0,1,1,0]","mutagen_history":"[1,0,1,1,1,0,0,1]","location_rts":"[1717,1210,648,628,651,726,599,680]","trial_type":"fractal-mutation","trial_index":67,"time_elapsed":1819407,"internal_node_id":"0.0-5.0-28.0"},{"group":"dicyclic group of order 12","fractal_assignment":["../images/blu_wht.png","../images/grn_red.png","../images/grn_prp.png","../images/red_prp.png","../images/cyn_red.png","../images/pnk_blu.png","../images/ylw_slt.png","../images/wht_red.png","../images/ylw_pnk.png","../images/org_blu.png","../images/grn_blu.png","../images/gry_blk.png"],"mutagen_generator_assignment":[1,0],"goal":9,"start":5,"action_noise":0.15,"location_history":"[5,10,2,3,0,4,9]","action_history":"[0,1,0,1,0,0]","mutagen_history":"[1,0,1,0,1,1]","location_rts":"[1766,524,524,2040,428,575]","trial_type":"fractal-mutation","trial_index":68,"time_elapsed":1835677,"internal_node_id":"0.0-5.0-29.0"},{"group":"dicyclic group of order 12","fractal_assignment":["../images/blu_wht.png","../images/grn_red.png","../images/grn_prp.png","../images/red_prp.png","../images/cyn_red.png","../images/pnk_blu.png","../images/ylw_slt.png","../images/wht_red.png","../images/ylw_pnk.png","../images/org_blu.png","../images/grn_blu.png","../images/gry_blk.png"],"mutagen_generator_assignment":[1,0],"goal":10,"start":9,"action_noise":0.15,"location_history":"[9,1,5,10]","action_history":"[1,1,0]","mutagen_history":"[0,0,1]","location_rts":"[743,641,521]","trial_type":"fractal-mutation","trial_index":69,"time_elapsed":1844297,"internal_node_id":"0.0-5.0-30.0"},{"group":"dicyclic group of order 12","fractal_assignment":["../images/blu_wht.png","../images/grn_red.png","../images/grn_prp.png","../images/red_prp.png","../images/cyn_red.png","../images/pnk_blu.png","../images/ylw_slt.png","../images/wht_red.png","../images/ylw_pnk.png","../images/org_blu.png","../images/grn_blu.png","../images/gry_blk.png"],"mutagen_generator_assignment":[1,0],"goal":0,"start":10,"action_noise":0.15,"location_history":"[10,2,3,0]","action_history":"[0,0,0]","mutagen_history":"[1,1,1]","location_rts":"[1345,852,614]","trial_type":"fractal-mutation","trial_index":70,"time_elapsed":1854178,"internal_node_id":"0.0-5.0-31.0"},{"group":"dicyclic group of order 12","fractal_assignment":["../images/blu_wht.png","../images/grn_red.png","../images/grn_prp.png","../images/red_prp.png","../images/cyn_red.png","../images/pnk_blu.png","../images/ylw_slt.png","../images/wht_red.png","../images/ylw_pnk.png","../images/org_blu.png","../images/grn_blu.png","../images/gry_blk.png"],"mutagen_generator_assignment":[1,0],"goal":7,"start":0,"action_noise":0.15,"location_history":"[0,4,9,6,11,3,7]","action_history":"[1,0,0,0,0,1]","mutagen_history":"[0,1,1,1,1,0]","location_rts":"[1306,610,409,729,549,514]","trial_type":"fractal-mutation","trial_index":71,"time_elapsed":1868623,"internal_node_id":"0.0-5.0-32.0"},{"group":"dicyclic group of order 12","fractal_assignment":["../images/blu_wht.png","../images/grn_red.png","../images/grn_prp.png","../images/red_prp.png","../images/cyn_red.png","../images/pnk_blu.png","../images/ylw_slt.png","../images/wht_red.png","../images/ylw_pnk.png","../images/org_blu.png","../images/grn_blu.png","../images/gry_blk.png"],"mutagen_generator_assignment":[1,0],"goal":11,"start":7,"action_noise":0.15,"location_history":"[7,8,0,4,9,1,2,6,11]","action_history":"[0,1,1,1,0,0,0,0]","mutagen_history":"[1,0,0,0,1,1,1,1]","location_rts":"[1134,402,619,543,552,610,474,929]","trial_type":"fractal-mutation","trial_index":72,"time_elapsed":1886558,"internal_node_id":"0.0-5.0-33.0"},{"group":"dicyclic group of order 12","fractal_assignment":["../images/blu_wht.png","../images/grn_red.png","../images/grn_prp.png","../images/red_prp.png","../images/cyn_red.png","../images/pnk_blu.png","../images/ylw_slt.png","../images/wht_red.png","../images/ylw_pnk.png","../images/org_blu.png","../images/grn_blu.png","../images/gry_blk.png"],"mutagen_generator_assignment":[1,0],"goal":2,"start":11,"action_noise":0.15,"location_history":"[11,3,7,8,5,9,1,2]","action_history":"[1,1,0,0,1,1,0]","mutagen_history":"[0,0,1,1,0,0,1]","location_rts":"[1294,521,555,803,534,966,1111]","trial_type":"fractal-mutation","trial_index":73,"time_elapsed":1903646,"internal_node_id":"0.0-5.0-34.0"},{"view_history":"[{\"page_index\":0,\"viewing_time\":4025}]","rt":4025,"trial_type":"instructions","trial_index":74,"time_elapsed":1908671,"internal_node_id":"0.0-6.0"},{"rt":29908,"responses":"{\"Q0\":\"Whether I can learn a maze from a 3d view.\"}","trial_type":"survey-text","trial_index":75,"time_elapsed":1939587,"internal_node_id":"0.0-7.0-0.0"},{"rt":44267,"responses":"{\"Q0\":\"Seeing how dense I really am. Seeing how long it took me to learn simple relationships. \"}","trial_type":"survey-text","trial_index":76,"time_elapsed":1984857,"internal_node_id":"0.0-7.0-1.0"},{"rt":12749,"responses":"{\"Q0\":\"4\"}","trial_type":"survey-likert","trial_index":77,"time_elapsed":1998609,"internal_node_id":"0.0-7.0-2.0"},{"rt":80290,"responses":"{\"Q0\":\"I guess only in the way I tried to solve them. With patterns instead of just memorizing the relationships. Reminded me of learning cases in Czech. At least that is how I approached it even though I don't think I did well learning these.\"}","trial_type":"survey-text","trial_index":78,"time_elapsed":2079902,"internal_node_id":"0.0-7.0-3.0"},{"rt":10209,"responses":"{\"Q0\":\"No\"}","trial_type":"survey-multi-choice","trial_index":79,"time_elapsed":2091120,"internal_node_id":"0.0-7.0-4.0"},{"rt":8387,"responses":"{\"Q0\":\"During these questions/I wasn't aware until you pointed it out\"}","trial_type":"survey-multi-choice","trial_index":80,"time_elapsed":2100513,"internal_node_id":"0.0-7.0-5.0"},{"rt":47114,"responses":"{\"Q0\":\"Only in the way I tried to learn it as I stated before. Not sure if this is the right answer to this question.\"}","trial_type":"survey-text","trial_index":81,"time_elapsed":2148629,"internal_node_id":"0.0-7.0-6.0"},{"rt":14020,"responses":"{\"Q0\":\"2\"}","trial_type":"survey-likert","trial_index":82,"time_elapsed":2163655,"internal_node_id":"0.0-7.0-7.0"},{"rt":10003,"responses":"{\"Q0\":\"Same structure\"}","trial_type":"survey-multi-choice","trial_index":83,"time_elapsed":2174663,"internal_node_id":"0.0-7.0-8.0"},{"rt":49080,"responses":"{\"Q0\":\"black door = acid, white door = ray\",\"Q1\":\"Not at all confident\"}","trial_type":"survey-multi-choice","trial_index":84,"time_elapsed":2224751,"internal_node_id":"0.0-7.0-9.0"},{"rt":5974,"responses":"{\"Q0\":\"45-55\",\"Q1\":\"Bachelor's degree\",\"Q2\":\"Male\",\"Q3\":\"White\"}","trial_type":"survey-multi-choice","trial_index":85,"time_elapsed":2231744,"internal_node_id":"0.0-8.0"},{"rt":15010,"responses":"{\"Q0\":\"Very interesting study. Thanks!\"}","trial_type":"survey-text","trial_index":86,"time_elapsed":2247757,"internal_node_id":"0.0-9.0"}]