[{"view_history":"[{\"page_index\":0,\"viewing_time\":3575},{\"page_index\":1,\"viewing_time\":7646}]","rt":11222,"trial_type":"instructions","trial_index":0,"time_elapsed":11222,"internal_node_id":"0.0-0.0"},{"view_history":"[{\"page_index\":0,\"viewing_time\":1710},{\"page_index\":1,\"viewing_time\":5378}]","rt":7089,"trial_type":"instructions","trial_index":1,"time_elapsed":19311,"internal_node_id":"0.0-1.0"},{"group":"dicyclic group of order 12","room_assignment":["ivory","olive","cyan","brown","purple","pink","green","yellow","orange","grey","red","blue"],"door_color_assignment":["white","black"],"door_generator_assignment":[0,1],"goal":7,"start":3,"action_noise":0.15,"location_history":"[3,0,1,2,6,11,3,0,1,2,6,10,7]","action_history":"[0,1,1,1,1,1,0,0,0,0,1,0]","door_history":"[0,1,1,1,1,1,0,0,0,0,1,0]","location_rts":"[1149,1460,2326,612,661,688,465,399,694,900,594,1103]","trial_type":"two-door-navigation","trial_index":2,"time_elapsed":46129,"internal_node_id":"0.0-2.0-0.0"},{"group":"dicyclic group of order 12","room_assignment":["ivory","olive","cyan","brown","purple","pink","green","yellow","orange","grey","red","blue"],"door_color_assignment":["white","black"],"door_generator_assignment":[0,1],"goal":5,"start":7,"action_noise":0.15,"location_history":"[7,8,0,4,9,6,10,2,6,10,2,6,11,3,7,11,4,8,0,4,9,1,2,6,10,7,8,5]","action_history":"[0,1,1,0,1,1,1,0,1,1,1,0,0,1,1,0,1,1,1,0,1,1,1,0,0,0,1]","door_history":"[0,1,1,0,1,1,1,0,1,1,1,0,0,1,1,0,1,1,1,0,1,1,1,0,0,0,1]","location_rts":"[1234,540,333,1579,616,259,1511,3036,802,718,883,1931,1738,4473,1734,795,305,615,1545,1123,316,572,934,850,468,931,831]","trial_type":"two-door-navigation","trial_index":3,"time_elapsed":107904,"internal_node_id":"0.0-2.0-1.0"},{"group":"dicyclic group of order 12","room_assignment":["ivory","olive","cyan","brown","purple","pink","green","yellow","orange","grey","red","blue"],"door_color_assignment":["white","black"],"door_generator_assignment":[0,1],"goal":0,"start":5,"action_noise":0.15,"location_history":"[5,10,2,3,0]","action_history":"[0,1,0,0]","door_history":"[0,1,0,0]","location_rts":"[297115,472,570,484]","trial_type":"two-door-navigation","trial_index":4,"time_elapsed":414128,"internal_node_id":"0.0-2.0-2.0"},{"group":"dicyclic group of order 12","room_assignment":["ivory","olive","cyan","brown","purple","pink","green","yellow","orange","grey","red","blue"],"door_color_assignment":["white","black"],"door_generator_assignment":[0,1],"goal":2,"start":0,"action_noise":0.15,"location_history":"[0,4,9,1,5,10,7,11,3,0,1,5,9,6,11,4,9,1,5,10,7,8,0,4,8,0,4,9,6,10,2]","action_history":"[1,0,1,1,0,0,1,0,0,0,1,1,0,0,0,0,0,1,0,0,0,1,1,0,1,0,1,0,1,0]","door_history":"[1,0,1,1,0,0,1,0,0,0,1,1,0,0,0,0,0,1,0,0,0,1,1,0,1,0,1,0,1,0]","location_rts":"[204236,687,724,231,1484,329,739,1101047,323,1847,756,768,641,68,612,739,581,221,204,1741,316,133,770,1524,928,401,10351,291,642,903]","trial_type":"two-door-navigation","trial_index":5,"time_elapsed":1782479,"internal_node_id":"0.0-2.0-3.0"},{"group":"dicyclic group of order 12","room_assignment":["ivory","olive","cyan","brown","purple","pink","green","yellow","orange","grey","red","blue"],"door_color_assignment":["white","black"],"door_generator_assignment":[0,1],"goal":10,"start":2,"action_noise":0.15,"location_history":"[2,3,7,11,3,7,11,3,0,1,2,3,7,11,4,8,5,9,6,11,3,7,8,0,4,9,6,11,4,9,1,2,6,10]","action_history":"[0,1,1,1,0,1,0,0,0,0,0,1,1,0,1,0,1,0,0,1,1,0,1,1,1,0,0,0,0,1,0,0,1]","door_history":"[0,1,1,1,0,1,0,0,0,0,0,1,1,0,1,0,1,0,0,1,1,0,1,1,1,0,0,0,0,1,0,0,1]","location_rts":"[1673,960,448,363,642,539,159,7,577,332,3309,208,1063,3042,1828,4194,2251,1944,424,855,1110,1083,869,494,155,697,22,68,378,1391,243,78,731]","trial_type":"two-door-navigation","trial_index":6,"time_elapsed":1851802,"internal_node_id":"0.0-2.0-4.0"},{"group":"dicyclic group of order 12","room_assignment":["ivory","olive","cyan","brown","purple","pink","green","yellow","orange","grey","red","blue"],"door_color_assignment":["white","black"],"door_generator_assignment":[0,1],"goal":8,"start":10,"action_noise":0.15,"location_history":"[10,2,3,0,1,5,10,2,6,10,2,3,7,8]","action_history":"[1,0,0,1,1,0,1,1,1,0,0,1,0]","door_history":"[1,0,0,1,1,0,1,1,1,0,0,1,0]","location_rts":"[956,236,339,33,90,642,770,571,420,222,79,318,329]","trial_type":"two-door-navigation","trial_index":7,"time_elapsed":1873573,"internal_node_id":"0.0-2.0-5.0"},{"group":"dicyclic group of order 12","room_assignment":["ivory","olive","cyan","brown","purple","pink","green","yellow","orange","grey","red","blue"],"door_color_assignment":["white","black"],"door_generator_assignment":[0,1],"goal":11,"start":8,"action_noise":0.15,"location_history":"[8,5,10,7,8,0,4,9,1,2,6,10,2,6,10,2,3,0,4,9,6,11]","action_history":"[1,0,0,0,1,0,0,1,0,1,1,1,1,1,1,0,1,1,0,0,0]","door_history":"[1,0,0,0,1,0,0,1,0,1,1,1,1,1,1,0,1,1,0,0,0]","location_rts":"[667,1124,187,558,764,436,373,510,626,2056,1043,1567,3209,664,694,1103,816,954,770,636,482]","trial_type":"two-door-navigation","trial_index":8,"time_elapsed":1917743,"internal_node_id":"0.0-2.0-6.0"},{"group":"dicyclic group of order 12","room_assignment":["ivory","olive","cyan","brown","purple","pink","green","yellow","orange","grey","red","blue"],"door_color_assignment":["white","black"],"door_generator_assignment":[0,1],"goal":6,"start":11,"action_noise":0.15,"location_history":"[11,4,8,0,1,2,3,7,11,4,8,5,9,1,5,9,6]","action_history":"[0,1,1,0,0,0,1,1,0,1,0,1,1,1,0,0]","door_history":"[0,1,1,0,0,0,1,1,0,1,0,1,1,1,0,0]","location_rts":"[1903,63,73,23,289,364,330,334,2598,516,1437,1211,841,724,61,188]","trial_type":"two-door-navigation","trial_index":9,"time_elapsed":1948518,"internal_node_id":"0.0-2.0-7.0"},{"group":"dicyclic group of order 12","room_assignment":["ivory","olive","cyan","brown","purple","pink","green","yellow","orange","grey","red","blue"],"door_color_assignment":["white","black"],"door_generator_assignment":[0,1],"goal":4,"start":6,"action_noise":0.15,"location_history":"[6,10,2,3,0,4]","action_history":"[1,1,0,0,1]","door_history":"[1,1,0,0,1]","location_rts":"[1127,26,822,44,543]","trial_type":"two-door-navigation","trial_index":10,"time_elapsed":1959688,"internal_node_id":"0.0-2.0-8.0"},{"group":"dicyclic group of order 12","room_assignment":["ivory","olive","cyan","brown","purple","pink","green","yellow","orange","grey","red","blue"],"door_color_assignment":["white","black"],"door_generator_assignment":[0,1],"goal":1,"start":4,"action_noise":0.15,"location_history":"[4,9,1]","action_history":"[0,1]","door_history":"[0,1]","location_rts":"[654,32972]","trial_type":"two-door-navigation","trial_index":11,"time_elapsed":1998858,"internal_node_id":"0.0-2.0-9.0"},{"group":"dicyclic group of order 12","room_assignment":["ivory","olive","cyan","brown","purple","pink","green","yellow","orange","grey","red","blue"],"door_color_assignment":["white","black"],"door_generator_assignment":[0,1],"goal":9,"start":1,"action_noise":0.15,"location_history":"[1,2,6,10,2,3,0,1,2,6,11,4,9]","action_history":"[0,1,1,1,0,0,0,0,1,0,0,0]","door_history":"[0,1,1,1,0,0,0,0,1,0,0,0]","location_rts":"[1459,883,159,109,6,436,885,756,825,1703,250,621]","trial_type":"two-door-navigation","trial_index":12,"time_elapsed":2022700,"internal_node_id":"0.0-2.0-10.0"},{"group":"dicyclic group of order 12","room_assignment":["ivory","olive","cyan","brown","purple","pink","green","yellow","orange","grey","red","blue"],"door_color_assignment":["white","black"],"door_generator_assignment":[0,1],"goal":10,"start":9,"action_noise":0.15,"location_history":"[9,1,5,9,1,2,3,0,1,5,9,1,5,10]","action_history":"[0,1,1,1,0,0,0,0,1,1,1,1,0]","door_history":"[0,1,1,1,0,0,0,0,1,1,1,1,0]","location_rts":"[2683,395,172,106,127,554,480,767,141,43,396,654,421]","trial_type":"two-door-navigation","trial_index":13,"time_elapsed":2046401,"internal_node_id":"0.0-2.0-11.0"},{"group":"dicyclic group of order 12","room_assignment":["ivory","olive","cyan","brown","purple","pink","green","yellow","orange","grey","red","blue"],"door_color_assignment":["white","black"],"door_generator_assignment":[0,1],"goal":2,"start":10,"action_noise":0.15,"location_history":"[10,7,11,4,9,6,10,2]","action_history":"[0,1,0,0,0,1,1]","door_history":"[0,1,0,0,0,1,1]","location_rts":"[1149,1119,588,462,474,1110,944]","trial_type":"two-door-navigation","trial_index":14,"time_elapsed":2062898,"internal_node_id":"0.0-2.0-12.0"},{"group":"dicyclic group of order 12","room_assignment":["ivory","olive","cyan","brown","purple","pink","green","yellow","orange","grey","red","blue"],"door_color_assignment":["white","black"],"door_generator_assignment":[0,1],"goal":0,"start":2,"action_noise":0.15,"location_history":"[2,3,0]","action_history":"[0,0]","door_history":"[0,0]","location_rts":"[564,571]","trial_type":"two-door-navigation","trial_index":15,"time_elapsed":2069576,"internal_node_id":"0.0-2.0-13.0"},{"group":"dicyclic group of order 12","room_assignment":["ivory","olive","cyan","brown","purple","pink","green","yellow","orange","grey","red","blue"],"door_color_assignment":["white","black"],"door_generator_assignment":[0,1],"goal":9,"start":0,"action_noise":0.15,"location_history":"[0,1,5,10,7,11,3,7,11,3,0,4,9]","action_history":"[1,1,0,0,0,1,1,1,0,0,0,0]","door_history":"[1,1,0,0,0,1,1,1,0,0,0,0]","location_rts":"[381,351,364,297,460,42,479,2040,20,74,668,258]","trial_type":"two-door-navigation","trial_index":16,"time_elapsed":2090761,"internal_node_id":"0.0-2.0-14.0"},{"group":"dicyclic group of order 12","room_assignment":["ivory","olive","cyan","brown","purple","pink","green","yellow","orange","grey","red","blue"],"door_color_assignment":["white","black"],"door_generator_assignment":[0,1],"goal":8,"start":9,"action_noise":0.15,"location_history":"[9,1,2,3,0,4,8]","action_history":"[1,1,1,0,1,1]","door_history":"[1,1,1,0,1,1]","location_rts":"[3229,411,15740,4404,1304,514]","trial_type":"two-door-navigation","trial_index":17,"time_elapsed":2125990,"internal_node_id":"0.0-2.0-15.0"},{"group":"dicyclic group of order 12","room_assignment":["ivory","olive","cyan","brown","purple","pink","green","yellow","orange","grey","red","blue"],"door_color_assignment":["white","black"],"door_generator_assignment":[0,1],"goal":6,"start":8,"action_noise":0.15,"location_history":"[8,0,4,9,1,2,3,7,11,3,7,8,5,9,6]","action_history":"[1,1,0,1,0,0,0,1,1,1,0,0,1,0]","door_history":"[1,1,0,1,0,0,0,1,1,1,0,0,1,0]","location_rts":"[841,554,825,854,497,101,344,54,332,1317,392,138,1070,1300]","trial_type":"two-door-navigation","trial_index":18,"time_elapsed":2152397,"internal_node_id":"0.0-2.0-16.0"},{"group":"dicyclic group of order 12","room_assignment":["ivory","olive","cyan","brown","purple","pink","green","yellow","orange","grey","red","blue"],"door_color_assignment":["white","black"],"door_generator_assignment":[0,1],"goal":1,"start":6,"action_noise":0.15,"location_history":"[6,10,7,8,5,10,7,8,0,1]","action_history":"[1,0,0,1,0,1,1,1,0]","door_history":"[1,0,0,1,0,1,1,1,0]","location_rts":"[1548,1000,73,63,373,363,99,629,1014]","trial_type":"two-door-navigation","trial_index":19,"time_elapsed":2170244,"internal_node_id":"0.0-2.0-17.0"},{"group":"dicyclic group of order 12","room_assignment":["ivory","olive","cyan","brown","purple","pink","green","yellow","orange","grey","red","blue"],"door_color_assignment":["white","black"],"door_generator_assignment":[0,1],"goal":4,"start":1,"action_noise":0.15,"location_history":"[1,2,3,0,4]","action_history":"[1,0,0,1]","door_history":"[1,0,0,1]","location_rts":"[1386,612,1149,381]","trial_type":"two-door-navigation","trial_index":20,"time_elapsed":2181353,"internal_node_id":"0.0-2.0-18.0"},{"group":"dicyclic group of order 12","room_assignment":["ivory","olive","cyan","brown","purple","pink","green","yellow","orange","grey","red","blue"],"door_color_assignment":["white","black"],"door_generator_assignment":[0,1],"goal":11,"start":4,"action_noise":0.15,"location_history":"[4,9,6,11]","action_history":"[1,0,0]","door_history":"[1,0,0]","location_rts":"[3753,533,478]","trial_type":"two-door-navigation","trial_index":21,"time_elapsed":2192676,"internal_node_id":"0.0-2.0-19.0"},{"group":"dicyclic group of order 12","room_assignment":["ivory","olive","cyan","brown","purple","pink","green","yellow","orange","grey","red","blue"],"door_color_assignment":["white","black"],"door_generator_assignment":[0,1],"goal":3,"start":11,"action_noise":0.15,"location_history":"[11,3]","action_history":"[1]","door_history":"[1]","location_rts":"[905]","trial_type":"two-door-navigation","trial_index":22,"time_elapsed":2198108,"internal_node_id":"0.0-2.0-20.0"},{"group":"dicyclic group of order 12","room_assignment":["ivory","olive","cyan","brown","purple","pink","green","yellow","orange","grey","red","blue"],"door_color_assignment":["white","black"],"door_generator_assignment":[0,1],"goal":5,"start":3,"action_noise":0.15,"location_history":"[3,0,1,5]","action_history":"[0,0,1]","door_history":"[0,0,1]","location_rts":"[1018,281,169]","trial_type":"two-door-navigation","trial_index":23,"time_elapsed":2206143,"internal_node_id":"0.0-2.0-21.0"},{"group":"dicyclic group of order 12","room_assignment":["ivory","olive","cyan","brown","purple","pink","green","yellow","orange","grey","red","blue"],"door_color_assignment":["white","black"],"door_generator_assignment":[0,1],"goal":7,"start":5,"action_noise":0.15,"location_history":"[5,10,2,3,7]","action_history":"[1,1,0,1]","door_history":"[1,1,0,1]","location_rts":"[677,1186,285,484]","trial_type":"two-door-navigation","trial_index":24,"time_elapsed":2216355,"internal_node_id":"0.0-2.0-22.0"},{"group":"dicyclic group of order 12","room_assignment":["ivory","olive","cyan","brown","purple","pink","green","yellow","orange","grey","red","blue"],"door_color_assignment":["white","black"],"door_generator_assignment":[0,1],"goal":3,"start":7,"action_noise":0.15,"location_history":"[7,8,5,10,7,8,5,9,6,11,4,8,0,4,9,6,10,7,8,5,10,7,8,0,1,2,6,11,4,8,5,10,7,8,5,9,1,2,6,11,4,8,0,4,9,6,11,3]","action_history":"[0,0,1,0,0,0,1,0,1,0,1,1,1,0,0,1,0,0,1,0,0,0,1,1,0,1,0,0,1,0,0,1,0,0,1,0,0,0,0,0,1,1,1,0,0,0,1]","door_history":"[0,0,1,0,0,0,1,0,1,0,1,1,1,0,0,1,0,0,1,0,0,0,1,1,0,1,0,0,1,0,0,1,0,0,1,0,0,0,0,0,1,1,1,0,0,0,1]","location_rts":"[195,158,41,684,582,488,1023,1261,250,372,444,500,566,454,495,315,298,211,502,389,297,519,145,132,4,757,445,1020,510,15,50,1018,748,819,46,268,245,530,492,566,1465,1232,872,213,123,976,490]","trial_type":"two-door-navigation","trial_index":25,"time_elapsed":2291018,"internal_node_id":"0.0-2.0-23.0"},{"group":"dicyclic group of order 12","room_assignment":["ivory","olive","cyan","brown","purple","pink","green","yellow","orange","grey","red","blue"],"door_color_assignment":["white","black"],"door_generator_assignment":[0,1],"goal":4,"start":3,"action_noise":0.15,"location_history":"[3,0,1,5,9,1,2,6,11,3,0,4]","action_history":"[0,0,1,1,0,1,1,1,1,0,1]","door_history":"[0,0,1,1,0,1,1,1,1,0,1]","location_rts":"[692,65,6,433,903,500,169,46,605,390,319]","trial_type":"two-door-navigation","trial_index":26,"time_elapsed":2309900,"internal_node_id":"0.0-2.0-24.0"},{"group":"dicyclic group of order 12","room_assignment":["ivory","olive","cyan","brown","purple","pink","green","yellow","orange","grey","red","blue"],"door_color_assignment":["white","black"],"door_generator_assignment":[0,1],"goal":8,"start":4,"action_noise":0.15,"location_history":"[4,8]","action_history":"[0]","door_history":"[0]","location_rts":"[1188]","trial_type":"two-door-navigation","trial_index":27,"time_elapsed":2315614,"internal_node_id":"0.0-2.0-25.0"},{"group":"dicyclic group of order 12","room_assignment":["ivory","olive","cyan","brown","purple","pink","green","yellow","orange","grey","red","blue"],"door_color_assignment":["white","black"],"door_generator_assignment":[0,1],"goal":6,"start":8,"action_noise":0.15,"location_history":"[8,5,10,2,6]","action_history":"[0,0,1,0]","door_history":"[0,0,1,0]","location_rts":"[626,445,37,292]","trial_type":"two-door-navigation","trial_index":28,"time_elapsed":2324603,"internal_node_id":"0.0-2.0-26.0"},{"group":"dicyclic group of order 12","room_assignment":["ivory","olive","cyan","brown","purple","pink","green","yellow","orange","grey","red","blue"],"door_color_assignment":["white","black"],"door_generator_assignment":[0,1],"goal":1,"start":6,"action_noise":0.15,"location_history":"[6,10,2,3,0,4,8,5,10,2,3,7,11,3,7,8,5,9,1]","action_history":"[1,1,0,0,1,1,0,0,0,0,1,1,1,1,1,0,1,1]","door_history":"[1,1,0,0,1,1,0,0,0,0,1,1,1,1,1,0,1,1]","location_rts":"[1081,124,263,133,262,762,442,396,357,474,754,239,506,949,611,125,211,126]","trial_type":"two-door-navigation","trial_index":29,"time_elapsed":2354281,"internal_node_id":"0.0-2.0-27.0"},{"group":"dicyclic group of order 12","room_assignment":["ivory","olive","cyan","brown","purple","pink","green","yellow","orange","grey","red","blue"],"door_color_assignment":["white","black"],"door_generator_assignment":[0,1],"goal":5,"start":1,"action_noise":0.15,"location_history":"[1,2,6,11,4,9,1,5]","action_history":"[0,1,0,0,0,1,1]","door_history":"[0,1,0,0,0,1,1]","location_rts":"[951,27,327,97,83,108,60]","trial_type":"two-door-navigation","trial_index":30,"time_elapsed":2366576,"internal_node_id":"0.0-2.0-28.0"},{"group":"dicyclic group of order 12","room_assignment":["ivory","olive","cyan","brown","purple","pink","green","yellow","orange","grey","red","blue"],"door_color_assignment":["white","black"],"door_generator_assignment":[0,1],"goal":9,"start":5,"action_noise":0.15,"location_history":"[5,10,2,3,0,1,5,10,2,6,11,3,7,8,5,10,7,11,3,0,4,8,0,4,8,5,9]","action_history":"[1,1,0,0,1,1,0,0,0,0,0,1,0,0,0,0,1,1,0,1,1,0,1,1,0,1]","door_history":"[1,1,0,0,1,1,0,0,0,0,0,1,0,0,0,0,1,1,0,1,1,0,1,1,0,1]","location_rts":"[231,50,641,228,65,106,34,333,285,211,342,813,846,164,56,321,241,172,773,169,157,233,165,53,85,149]","trial_type":"two-door-navigation","trial_index":31,"time_elapsed":2403533,"internal_node_id":"0.0-2.0-29.0"},{"group":"dicyclic group of order 12","room_assignment":["ivory","olive","cyan","brown","purple","pink","green","yellow","orange","grey","red","blue"],"door_color_assignment":["white","black"],"door_generator_assignment":[0,1],"goal":10,"start":9,"action_noise":0.15,"location_history":"[9,6,11,4,8,0,4,8,5,10]","action_history":"[0,0,0,1,1,1,1,0,0]","door_history":"[0,0,0,1,1,1,1,0,0]","location_rts":"[857,14,226,17,435,69,401,373,1554]","trial_type":"two-door-navigation","trial_index":32,"time_elapsed":2420152,"internal_node_id":"0.0-2.0-30.0"},{"group":"dicyclic group of order 12","room_assignment":["ivory","olive","cyan","brown","purple","pink","green","yellow","orange","grey","red","blue"],"door_color_assignment":["white","black"],"door_generator_assignment":[0,1],"goal":0,"start":10,"action_noise":0.15,"location_history":"[10,2,3,0]","action_history":"[1,1,0]","door_history":"[1,1,0]","location_rts":"[506,87,478]","trial_type":"two-door-navigation","trial_index":33,"time_elapsed":2427787,"internal_node_id":"0.0-2.0-31.0"},{"group":"dicyclic group of order 12","room_assignment":["ivory","olive","cyan","brown","purple","pink","green","yellow","orange","grey","red","blue"],"door_color_assignment":["white","black"],"door_generator_assignment":[0,1],"goal":7,"start":0,"action_noise":0.15,"location_history":"[0,1,5,10,2,6,10,7]","action_history":"[1,0,0,0,1,1,0]","door_history":"[1,0,0,0,1,1,0]","location_rts":"[1155,595,293,274,86,93,26]","trial_type":"two-door-navigation","trial_index":34,"time_elapsed":2440957,"internal_node_id":"0.0-2.0-32.0"},{"group":"dicyclic group of order 12","room_assignment":["ivory","olive","cyan","brown","purple","pink","green","yellow","orange","grey","red","blue"],"door_color_assignment":["white","black"],"door_generator_assignment":[0,1],"goal":11,"start":7,"action_noise":0.15,"location_history":"[7,11]","action_history":"[1]","door_history":"[1]","location_rts":"[730]","trial_type":"two-door-navigation","trial_index":35,"time_elapsed":2446211,"internal_node_id":"0.0-2.0-33.0"},{"group":"dicyclic group of order 12","room_assignment":["ivory","olive","cyan","brown","purple","pink","green","yellow","orange","grey","red","blue"],"door_color_assignment":["white","black"],"door_generator_assignment":[0,1],"goal":2,"start":11,"action_noise":0.15,"location_history":"[11,4,8,0,1,5,9,6,10,2]","action_history":"[0,0,1,0,0,1,1,1,1]","door_history":"[0,0,1,0,0,1,1,1,1]","location_rts":"[907,242,61,159,112,51,140,77,399]","trial_type":"two-door-navigation","trial_index":36,"time_elapsed":2461040,"internal_node_id":"0.0-2.0-34.0"},{"view_history":"[{\"page_index\":0,\"viewing_time\":1166}]","rt":1166,"trial_type":"instructions","trial_index":37,"time_elapsed":2463208,"internal_node_id":"0.0-3.0"},{"view_history":"[{\"page_index\":0,\"viewing_time\":2567},{\"page_index\":1,\"viewing_time\":2337}]","rt":4905,"trial_type":"instructions","trial_index":38,"time_elapsed":2469114,"internal_node_id":"0.0-4.0"},{"group":"dihedral group of order 12","fractal_assignment":["../images/ylw_slt.png","../images/grn_red.png","../images/org_blu.png","../images/wht_red.png","../images/grn_prp.png","../images/gry_blk.png","../images/grn_blu.png","../images/blu_wht.png","../images/ylw_pnk.png","../images/pnk_blu.png","../images/cyn_red.png","../images/red_prp.png"],"mutagen_generator_assignment":[0,1],"goal":7,"start":3,"action_noise":0.15,"location_history":"[3,9,3,4,10,4,5,0,6,11,10,9,8,2,8,7]","action_history":"[1,1,0,1,1,0,0,1,1,0,0,0,1,1,0]","mutagen_history":"[1,1,0,1,1,0,0,1,1,0,0,0,1,1,0]","location_rts":"[1167,680,622,788,626,515,222,713,690,29818,331,982,725,738,475]","trial_type":"fractal-mutation","trial_index":39,"time_elapsed":2527191,"internal_node_id":"0.0-5.0-0.0"},{"group":"dihedral group of order 12","fractal_assignment":["../images/ylw_slt.png","../images/grn_red.png","../images/org_blu.png","../images/wht_red.png","../images/grn_prp.png","../images/gry_blk.png","../images/grn_blu.png","../images/blu_wht.png","../images/ylw_pnk.png","../images/pnk_blu.png","../images/cyn_red.png","../images/red_prp.png"],"mutagen_generator_assignment":[0,1],"goal":5,"start":7,"action_noise":0.15,"location_history":"[7,6,0,6,11,10,4,10,4,5]","action_history":"[0,1,1,0,0,1,1,1,0]","mutagen_history":"[0,1,1,0,0,1,1,1,0]","location_rts":"[1689,799,277,316,181,999,781,1757,688]","trial_type":"fractal-mutation","trial_index":40,"time_elapsed":2547499,"internal_node_id":"0.0-5.0-1.0"},{"group":"dihedral group of order 12","fractal_assignment":["../images/ylw_slt.png","../images/grn_red.png","../images/org_blu.png","../images/wht_red.png","../images/grn_prp.png","../images/gry_blk.png","../images/grn_blu.png","../images/blu_wht.png","../images/ylw_pnk.png","../images/pnk_blu.png","../images/cyn_red.png","../images/red_prp.png"],"mutagen_generator_assignment":[0,1],"goal":0,"start":5,"action_noise":0.15,"location_history":"[5,0]","action_history":"[0]","mutagen_history":"[0]","location_rts":"[1581]","trial_type":"fractal-mutation","trial_index":41,"time_elapsed":2553613,"internal_node_id":"0.0-5.0-2.0"},{"group":"dihedral group of order 12","fractal_assignment":["../images/ylw_slt.png","../images/grn_red.png","../images/org_blu.png","../images/wht_red.png","../images/grn_prp.png","../images/gry_blk.png","../images/grn_blu.png","../images/blu_wht.png","../images/ylw_pnk.png","../images/pnk_blu.png","../images/cyn_red.png","../images/red_prp.png"],"mutagen_generator_assignment":[0,1],"goal":2,"start":0,"action_noise":0.15,"location_history":"[0,6,11,10,9,3,9,3,9,8,7,6,0,6,0,1,2]","action_history":"[1,0,0,1,1,0,1,1,0,0,0,1,1,1,1,0]","mutagen_history":"[1,0,0,1,1,0,1,1,0,0,0,1,1,1,1,0]","location_rts":"[762,498,799,744,463,598,555,874,806,214,684,143,164,91,15,111]","trial_type":"fractal-mutation","trial_index":42,"time_elapsed":2581147,"internal_node_id":"0.0-5.0-3.0"},{"group":"dihedral group of order 12","fractal_assignment":["../images/ylw_slt.png","../images/grn_red.png","../images/org_blu.png","../images/wht_red.png","../images/grn_prp.png","../images/gry_blk.png","../images/grn_blu.png","../images/blu_wht.png","../images/ylw_pnk.png","../images/pnk_blu.png","../images/cyn_red.png","../images/red_prp.png"],"mutagen_generator_assignment":[0,1],"goal":10,"start":2,"action_noise":0.15,"location_history":"[2,8,2,8,7,6,0,6,11,10]","action_history":"[0,1,1,0,0,1,1,0,1]","mutagen_history":"[0,1,1,0,0,1,1,0,1]","location_rts":"[772,129,170,211,175,56,346,1427,207]","trial_type":"fractal-mutation","trial_index":43,"time_elapsed":2597422,"internal_node_id":"0.0-5.0-4.0"},{"group":"dihedral group of order 12","fractal_assignment":["../images/ylw_slt.png","../images/grn_red.png","../images/org_blu.png","../images/wht_red.png","../images/grn_prp.png","../images/gry_blk.png","../images/grn_blu.png","../images/blu_wht.png","../images/ylw_pnk.png","../images/pnk_blu.png","../images/cyn_red.png","../images/red_prp.png"],"mutagen_generator_assignment":[0,1],"goal":8,"start":10,"action_noise":0.15,"location_history":"[10,9,8]","action_history":"[0,0]","mutagen_history":"[0,0]","location_rts":"[1776,973]","trial_type":"fractal-mutation","trial_index":44,"time_elapsed":2605724,"internal_node_id":"0.0-5.0-5.0"},{"group":"dihedral group of order 12","fractal_assignment":["../images/ylw_slt.png","../images/grn_red.png","../images/org_blu.png","../images/wht_red.png","../images/grn_prp.png","../images/gry_blk.png","../images/grn_blu.png","../images/blu_wht.png","../images/ylw_pnk.png","../images/pnk_blu.png","../images/cyn_red.png","../images/red_prp.png"],"mutagen_generator_assignment":[0,1],"goal":11,"start":8,"action_noise":0.15,"location_history":"[8,7,6,11]","action_history":"[0,1,0]","mutagen_history":"[0,1,0]","location_rts":"[2098,745,730]","trial_type":"fractal-mutation","trial_index":45,"time_elapsed":2615903,"internal_node_id":"0.0-5.0-6.0"},{"group":"dihedral group of order 12","fractal_assignment":["../images/ylw_slt.png","../images/grn_red.png","../images/org_blu.png","../images/wht_red.png","../images/grn_prp.png","../images/gry_blk.png","../images/grn_blu.png","../images/blu_wht.png","../images/ylw_pnk.png","../images/pnk_blu.png","../images/cyn_red.png","../images/red_prp.png"],"mutagen_generator_assignment":[0,1],"goal":6,"start":11,"action_noise":0.15,"location_history":"[11,10,4,10,9,3,4,10,4,5,0,6]","action_history":"[0,1,1,0,1,0,1,1,0,0,1]","mutagen_history":"[0,1,1,0,1,0,1,1,0,0,1]","location_rts":"[537,136,452,1188,926,748,458,178,1183,605,895]","trial_type":"fractal-mutation","trial_index":46,"time_elapsed":2638066,"internal_node_id":"0.0-5.0-7.0"},{"group":"dihedral group of order 12","fractal_assignment":["../images/ylw_slt.png","../images/grn_red.png","../images/org_blu.png","../images/wht_red.png","../images/grn_prp.png","../images/gry_blk.png","../images/grn_blu.png","../images/blu_wht.png","../images/ylw_pnk.png","../images/pnk_blu.png","../images/cyn_red.png","../images/red_prp.png"],"mutagen_generator_assignment":[0,1],"goal":4,"start":6,"action_noise":0.15,"location_history":"[6,11,10,4]","action_history":"[0,0,1]","mutagen_history":"[0,0,1]","location_rts":"[293,822,2661]","trial_type":"fractal-mutation","trial_index":47,"time_elapsed":2648437,"internal_node_id":"0.0-5.0-8.0"},{"group":"dihedral group of order 12","fractal_assignment":["../images/ylw_slt.png","../images/grn_red.png","../images/org_blu.png","../images/wht_red.png","../images/grn_prp.png","../images/gry_blk.png","../images/grn_blu.png","../images/blu_wht.png","../images/ylw_pnk.png","../images/pnk_blu.png","../images/cyn_red.png","../images/red_prp.png"],"mutagen_generator_assignment":[0,1],"goal":1,"start":4,"action_noise":0.15,"location_history":"[4,5,11,10,9,8,2,3,4,5,11,5,11,10,4,10,9,8,7,6,11,5,0,6,11,5,11,10,9,3,4,10,4,10,9,3,4,10,4,5,11,10,9,3,9,3,9,3,4,5,0,6,0,1]","action_history":"[0,1,0,0,0,1,0,0,0,1,1,0,0,0,1,0,0,0,0,0,1,0,1,0,0,1,0,0,1,0,1,1,0,0,0,0,1,1,0,1,1,0,1,1,0,1,1,0,0,0,1,1,0]","mutagen_history":"[0,1,0,0,0,1,0,0,0,1,1,0,0,0,1,0,0,0,0,0,1,0,1,0,0,1,0,0,1,0,1,1,0,0,0,0,1,1,0,1,1,0,1,1,0,1,1,0,0,0,1,1,0]","location_rts":"[720,955,401,555,1030,800,578,770,698,785,1087,201,218,117,90,55,441,723,726,1018,521,1077,1352,169,664,534,775,23328,1986,1102,14992,351,72,63,3534,1211,1815,33,493,80,177,94,100,662,1430,5795,881,640,636,3807,1153,2565,937]","trial_type":"fractal-mutation","trial_index":48,"time_elapsed":2791597,"internal_node_id":"0.0-5.0-9.0"},{"group":"dihedral group of order 12","fractal_assignment":["../images/ylw_slt.png","../images/grn_red.png","../images/org_blu.png","../images/wht_red.png","../images/grn_prp.png","../images/gry_blk.png","../images/grn_blu.png","../images/blu_wht.png","../images/ylw_pnk.png","../images/pnk_blu.png","../images/cyn_red.png","../images/red_prp.png"],"mutagen_generator_assignment":[0,1],"goal":9,"start":1,"action_noise":0.15,"location_history":"[1,2,3,4,10,4,10,9]","action_history":"[0,0,1,0,1,1,0]","mutagen_history":"[0,0,1,0,1,1,0]","location_rts":"[1434,1426,1089,802,535,1719,108]","trial_type":"fractal-mutation","trial_index":49,"time_elapsed":2809450,"internal_node_id":"0.0-5.0-10.0"},{"group":"dihedral group of order 12","fractal_assignment":["../images/ylw_slt.png","../images/grn_red.png","../images/org_blu.png","../images/wht_red.png","../images/grn_prp.png","../images/gry_blk.png","../images/grn_blu.png","../images/blu_wht.png","../images/ylw_pnk.png","../images/pnk_blu.png","../images/cyn_red.png","../images/red_prp.png"],"mutagen_generator_assignment":[0,1],"goal":10,"start":9,"action_noise":0.15,"location_history":"[9,8,2,8,7,1,7,6,0,6,0,1,7,1,7,1,7,1,2,3,9,3,4,5,11,5,0,1,2,3,9,8,7,1,2,3,4,10]","action_history":"[0,1,1,0,1,1,0,1,1,1,0,1,1,1,0,0,1,0,0,1,1,0,0,1,1,0,0,0,0,1,0,0,1,1,1,0,0]","mutagen_history":"[0,1,1,0,1,1,0,1,1,1,0,1,1,1,0,0,1,0,0,1,1,0,0,1,1,0,0,0,0,1,0,0,1,1,1,0,0]","location_rts":"[1894,919,146,966,771,567,3380,687,1608,3045,15279,147,297,684,1309,838,757,1171,99,339,24,417,125,1305,505,717,236,155,251,207,99,33,35,726,184,650,104]","trial_type":"fractal-mutation","trial_index":50,"time_elapsed":2891863,"internal_node_id":"0.0-5.0-11.0"},{"group":"dihedral group of order 12","fractal_assignment":["../images/ylw_slt.png","../images/grn_red.png","../images/org_blu.png","../images/wht_red.png","../images/grn_prp.png","../images/gry_blk.png","../images/grn_blu.png","../images/blu_wht.png","../images/ylw_pnk.png","../images/pnk_blu.png","../images/cyn_red.png","../images/red_prp.png"],"mutagen_generator_assignment":[0,1],"goal":2,"start":10,"action_noise":0.15,"location_history":"[10,4,5,0,6,11,5,11,10,9,8,7,1,2]","action_history":"[1,0,0,1,0,0,1,0,0,0,0,1,0]","mutagen_history":"[1,0,0,1,0,0,1,0,0,0,0,1,0]","location_rts":"[1235,50,695,1151,191,7,634,260,14,63,923,718,1208]","trial_type":"fractal-mutation","trial_index":51,"time_elapsed":2915957,"internal_node_id":"0.0-5.0-12.0"},{"group":"dihedral group of order 12","fractal_assignment":["../images/ylw_slt.png","../images/grn_red.png","../images/org_blu.png","../images/wht_red.png","../images/grn_prp.png","../images/gry_blk.png","../images/grn_blu.png","../images/blu_wht.png","../images/ylw_pnk.png","../images/pnk_blu.png","../images/cyn_red.png","../images/red_prp.png"],"mutagen_generator_assignment":[0,1],"goal":0,"start":2,"action_noise":0.15,"location_history":"[2,3,9,8,7,6,0]","action_history":"[0,1,0,0,0,1]","mutagen_history":"[0,1,0,0,0,1]","location_rts":"[929,32,1263,16,1080,432]","trial_type":"fractal-mutation","trial_index":52,"time_elapsed":2929382,"internal_node_id":"0.0-5.0-13.0"},{"group":"dihedral group of order 12","fractal_assignment":["../images/ylw_slt.png","../images/grn_red.png","../images/org_blu.png","../images/wht_red.png","../images/grn_prp.png","../images/gry_blk.png","../images/grn_blu.png","../images/blu_wht.png","../images/ylw_pnk.png","../images/pnk_blu.png","../images/cyn_red.png","../images/red_prp.png"],"mutagen_generator_assignment":[0,1],"goal":9,"start":0,"action_noise":0.15,"location_history":"[0,1,2,8,7,6,0,6,0,1,2,3,9]","action_history":"[0,1,1,0,0,1,1,1,0,0,0,1]","mutagen_history":"[0,1,1,0,0,1,1,1,0,0,0,1]","location_rts":"[281,230,645,567,704,667,727,1978,120,380,362,185]","trial_type":"fractal-mutation","trial_index":53,"time_elapsed":2952129,"internal_node_id":"0.0-5.0-14.0"},{"group":"dihedral group of order 12","fractal_assignment":["../images/ylw_slt.png","../images/grn_red.png","../images/org_blu.png","../images/wht_red.png","../images/grn_prp.png","../images/gry_blk.png","../images/grn_blu.png","../images/blu_wht.png","../images/ylw_pnk.png","../images/pnk_blu.png","../images/cyn_red.png","../images/red_prp.png"],"mutagen_generator_assignment":[0,1],"goal":8,"start":9,"action_noise":0.15,"location_history":"[9,3,9,8]","action_history":"[1,0,0]","mutagen_history":"[1,0,0]","location_rts":"[151,250,107]","trial_type":"fractal-mutation","trial_index":54,"time_elapsed":2959237,"internal_node_id":"0.0-5.0-15.0"},{"group":"dihedral group of order 12","fractal_assignment":["../images/ylw_slt.png","../images/grn_red.png","../images/org_blu.png","../images/wht_red.png","../images/grn_prp.png","../images/gry_blk.png","../images/grn_blu.png","../images/blu_wht.png","../images/ylw_pnk.png","../images/pnk_blu.png","../images/cyn_red.png","../images/red_prp.png"],"mutagen_generator_assignment":[0,1],"goal":6,"start":8,"action_noise":0.15,"location_history":"[8,7,6]","action_history":"[0,1]","mutagen_history":"[0,1]","location_rts":"[36,194]","trial_type":"fractal-mutation","trial_index":55,"time_elapsed":2965032,"internal_node_id":"0.0-5.0-16.0"},{"group":"dihedral group of order 12","fractal_assignment":["../images/ylw_slt.png","../images/grn_red.png","../images/org_blu.png","../images/wht_red.png","../images/grn_prp.png","../images/gry_blk.png","../images/grn_blu.png","../images/blu_wht.png","../images/ylw_pnk.png","../images/pnk_blu.png","../images/cyn_red.png","../images/red_prp.png"],"mutagen_generator_assignment":[0,1],"goal":1,"start":6,"action_noise":0.15,"location_history":"[6,0,1]","action_history":"[1,0]","mutagen_history":"[1,0]","location_rts":"[602,200]","trial_type":"fractal-mutation","trial_index":56,"time_elapsed":2971399,"internal_node_id":"0.0-5.0-17.0"},{"group":"dihedral group of order 12","fractal_assignment":["../images/ylw_slt.png","../images/grn_red.png","../images/org_blu.png","../images/wht_red.png","../images/grn_prp.png","../images/gry_blk.png","../images/grn_blu.png","../images/blu_wht.png","../images/ylw_pnk.png","../images/pnk_blu.png","../images/cyn_red.png","../images/red_prp.png"],"mutagen_generator_assignment":[0,1],"goal":4,"start":1,"action_noise":0.15,"location_history":"[1,7,6,11,10,4]","action_history":"[1,0,0,0,1]","mutagen_history":"[1,0,0,0,1]","location_rts":"[327,14,476,837,810]","trial_type":"fractal-mutation","trial_index":57,"time_elapsed":2982523,"internal_node_id":"0.0-5.0-18.0"},{"group":"dihedral group of order 12","fractal_assignment":["../images/ylw_slt.png","../images/grn_red.png","../images/org_blu.png","../images/wht_red.png","../images/grn_prp.png","../images/gry_blk.png","../images/grn_blu.png","../images/blu_wht.png","../images/ylw_pnk.png","../images/pnk_blu.png","../images/cyn_red.png","../images/red_prp.png"],"mutagen_generator_assignment":[0,1],"goal":11,"start":4,"action_noise":0.15,"location_history":"[4,5,11]","action_history":"[0,1]","mutagen_history":"[0,1]","location_rts":"[467,54]","trial_type":"fractal-mutation","trial_index":58,"time_elapsed":2988612,"internal_node_id":"0.0-5.0-19.0"},{"group":"dihedral group of order 12","fractal_assignment":["../images/ylw_slt.png","../images/grn_red.png","../images/org_blu.png","../images/wht_red.png","../images/grn_prp.png","../images/gry_blk.png","../images/grn_blu.png","../images/blu_wht.png","../images/ylw_pnk.png","../images/pnk_blu.png","../images/cyn_red.png","../images/red_prp.png"],"mutagen_generator_assignment":[0,1],"goal":3,"start":11,"action_noise":0.15,"location_history":"[11,5,0,6,0,1,7,1,7,6,11,10,9,3]","action_history":"[1,0,1,1,0,1,1,1,0,0,0,0,1]","mutagen_history":"[1,0,1,1,0,1,1,1,0,0,0,0,1]","location_rts":"[1245,819,1398,789,738,861,908,867,568,30,456,583,676]","trial_type":"fractal-mutation","trial_index":59,"time_elapsed":3015472,"internal_node_id":"0.0-5.0-20.0"},{"group":"dihedral group of order 12","fractal_assignment":["../images/ylw_slt.png","../images/grn_red.png","../images/org_blu.png","../images/wht_red.png","../images/grn_prp.png","../images/gry_blk.png","../images/grn_blu.png","../images/blu_wht.png","../images/ylw_pnk.png","../images/pnk_blu.png","../images/cyn_red.png","../images/red_prp.png"],"mutagen_generator_assignment":[0,1],"goal":5,"start":3,"action_noise":0.15,"location_history":"[3,4,10,4,10,4,10,9,3,4,5]","action_history":"[0,1,0,1,1,1,0,1,0,0]","mutagen_history":"[0,1,0,1,1,1,0,1,0,0]","location_rts":"[823,307,415,308,250,328,338,303,505,385]","trial_type":"fractal-mutation","trial_index":60,"time_elapsed":3033276,"internal_node_id":"0.0-5.0-21.0"},{"group":"dihedral group of order 12","fractal_assignment":["../images/ylw_slt.png","../images/grn_red.png","../images/org_blu.png","../images/wht_red.png","../images/grn_prp.png","../images/gry_blk.png","../images/grn_blu.png","../images/blu_wht.png","../images/ylw_pnk.png","../images/pnk_blu.png","../images/cyn_red.png","../images/red_prp.png"],"mutagen_generator_assignment":[0,1],"goal":7,"start":5,"action_noise":0.15,"location_history":"[5,11,10,4,10,4,5,0,6,0,1,7]","action_history":"[1,0,1,1,1,0,0,1,1,0,0]","mutagen_history":"[1,0,1,1,1,0,0,1,1,0,0]","location_rts":"[140,393,94,74,883,52,54,876,119,26,32]","trial_type":"fractal-mutation","trial_index":61,"time_elapsed":3050883,"internal_node_id":"0.0-5.0-22.0"},{"group":"dihedral group of order 12","fractal_assignment":["../images/ylw_slt.png","../images/grn_red.png","../images/org_blu.png","../images/wht_red.png","../images/grn_prp.png","../images/gry_blk.png","../images/grn_blu.png","../images/blu_wht.png","../images/ylw_pnk.png","../images/pnk_blu.png","../images/cyn_red.png","../images/red_prp.png"],"mutagen_generator_assignment":[0,1],"goal":3,"start":7,"action_noise":0.15,"location_history":"[7,1,7,1,7,6,0,1,7,6,11,5,11,10,4,5,11,10,9,3]","action_history":"[0,1,1,1,0,1,0,1,1,0,1,1,0,0,0,1,0,0,1]","mutagen_history":"[0,1,1,1,0,1,0,1,1,0,1,1,0,0,0,1,0,0,1]","location_rts":"[262,3,8,40,113,982,103,578,25,322,820,581,27,494,658,692,51,48,686]","trial_type":"fractal-mutation","trial_index":62,"time_elapsed":3080483,"internal_node_id":"0.0-5.0-23.0"},{"group":"dihedral group of order 12","fractal_assignment":["../images/ylw_slt.png","../images/grn_red.png","../images/org_blu.png","../images/wht_red.png","../images/grn_prp.png","../images/gry_blk.png","../images/grn_blu.png","../images/blu_wht.png","../images/ylw_pnk.png","../images/pnk_blu.png","../images/cyn_red.png","../images/red_prp.png"],"mutagen_generator_assignment":[0,1],"goal":4,"start":3,"action_noise":0.15,"location_history":"[3,4]","action_history":"[0]","mutagen_history":"[0]","location_rts":"[291]","trial_type":"fractal-mutation","trial_index":63,"time_elapsed":3085310,"internal_node_id":"0.0-5.0-24.0"},{"group":"dihedral group of order 12","fractal_assignment":["../images/ylw_slt.png","../images/grn_red.png","../images/org_blu.png","../images/wht_red.png","../images/grn_prp.png","../images/gry_blk.png","../images/grn_blu.png","../images/blu_wht.png","../images/ylw_pnk.png","../images/pnk_blu.png","../images/cyn_red.png","../images/red_prp.png"],"mutagen_generator_assignment":[0,1],"goal":8,"start":4,"action_noise":0.15,"location_history":"[4,10,9,8]","action_history":"[1,0,0]","mutagen_history":"[1,0,0]","location_rts":"[1842,511,553]","trial_type":"fractal-mutation","trial_index":64,"time_elapsed":3094811,"internal_node_id":"0.0-5.0-25.0"},{"group":"dihedral group of order 12","fractal_assignment":["../images/ylw_slt.png","../images/grn_red.png","../images/org_blu.png","../images/wht_red.png","../images/grn_prp.png","../images/gry_blk.png","../images/grn_blu.png","../images/blu_wht.png","../images/ylw_pnk.png","../images/pnk_blu.png","../images/cyn_red.png","../images/red_prp.png"],"mutagen_generator_assignment":[0,1],"goal":6,"start":8,"action_noise":0.15,"location_history":"[8,7,1,7,6]","action_history":"[0,1,1,0]","mutagen_history":"[0,1,1,0]","location_rts":"[2429,355,13,4214]","trial_type":"fractal-mutation","trial_index":65,"time_elapsed":3109447,"internal_node_id":"0.0-5.0-26.0"},{"group":"dihedral group of order 12","fractal_assignment":["../images/ylw_slt.png","../images/grn_red.png","../images/org_blu.png","../images/wht_red.png","../images/grn_prp.png","../images/gry_blk.png","../images/grn_blu.png","../images/blu_wht.png","../images/ylw_pnk.png","../images/pnk_blu.png","../images/cyn_red.png","../images/red_prp.png"],"mutagen_generator_assignment":[0,1],"goal":1,"start":6,"action_noise":0.15,"location_history":"[6,11,5,0,1]","action_history":"[0,1,0,1]","mutagen_history":"[0,1,0,1]","location_rts":"[7711,1602,9131,723]","trial_type":"fractal-mutation","trial_index":66,"time_elapsed":3136247,"internal_node_id":"0.0-5.0-27.0"},{"group":"dihedral group of order 12","fractal_assignment":["../images/ylw_slt.png","../images/grn_red.png","../images/org_blu.png","../images/wht_red.png","../images/grn_prp.png","../images/gry_blk.png","../images/grn_blu.png","../images/blu_wht.png","../images/ylw_pnk.png","../images/pnk_blu.png","../images/cyn_red.png","../images/red_prp.png"],"mutagen_generator_assignment":[0,1],"goal":5,"start":1,"action_noise":0.15,"location_history":"[1,2,3,9,3,4,5]","action_history":"[0,0,1,1,0,0]","mutagen_history":"[0,0,1,1,0,0]","location_rts":"[632,94,498,72,26,383]","trial_type":"fractal-mutation","trial_index":67,"time_elapsed":3147630,"internal_node_id":"0.0-5.0-28.0"},{"group":"dihedral group of order 12","fractal_assignment":["../images/ylw_slt.png","../images/grn_red.png","../images/org_blu.png","../images/wht_red.png","../images/grn_prp.png","../images/gry_blk.png","../images/grn_blu.png","../images/blu_wht.png","../images/ylw_pnk.png","../images/pnk_blu.png","../images/cyn_red.png","../images/red_prp.png"],"mutagen_generator_assignment":[0,1],"goal":9,"start":5,"action_noise":0.15,"location_history":"[5,0,6,11,10,4,10,9]","action_history":"[1,1,0,0,1,1,0]","mutagen_history":"[1,1,0,0,1,1,0]","location_rts":"[1169,54,6,85,60,577,900]","trial_type":"fractal-mutation","trial_index":68,"time_elapsed":3161192,"internal_node_id":"0.0-5.0-29.0"},{"group":"dihedral group of order 12","fractal_assignment":["../images/ylw_slt.png","../images/grn_red.png","../images/org_blu.png","../images/wht_red.png","../images/grn_prp.png","../images/gry_blk.png","../images/grn_blu.png","../images/blu_wht.png","../images/ylw_pnk.png","../images/pnk_blu.png","../images/cyn_red.png","../images/red_prp.png"],"mutagen_generator_assignment":[0,1],"goal":10,"start":9,"action_noise":0.15,"location_history":"[9,8,2,8,7,1,7,1,7,6,11,5,11,10]","action_history":"[0,1,1,0,0,1,1,0,0,0,1,1,0]","mutagen_history":"[0,1,1,0,0,1,1,0,0,0,1,1,0]","location_rts":"[818,572,47,1,24,278,395,889,157,545,611,594,85]","trial_type":"fractal-mutation","trial_index":69,"time_elapsed":3183117,"internal_node_id":"0.0-5.0-30.0"},{"group":"dihedral group of order 12","fractal_assignment":["../images/ylw_slt.png","../images/grn_red.png","../images/org_blu.png","../images/wht_red.png","../images/grn_prp.png","../images/gry_blk.png","../images/grn_blu.png","../images/blu_wht.png","../images/ylw_pnk.png","../images/pnk_blu.png","../images/cyn_red.png","../images/red_prp.png"],"mutagen_generator_assignment":[0,1],"goal":0,"start":10,"action_noise":0.15,"location_history":"[10,9,3,4,5,11,5,11,10,4,10,4,5,0]","action_history":"[0,1,0,0,0,1,1,0,0,1,1,0,0]","mutagen_history":"[0,1,0,0,0,1,1,0,0,1,1,0,0]","location_rts":"[266,96,297,835,712,173,849,69,32,151,865,20,1328]","trial_type":"fractal-mutation","trial_index":70,"time_elapsed":3205715,"internal_node_id":"0.0-5.0-31.0"},{"group":"dihedral group of order 12","fractal_assignment":["../images/ylw_slt.png","../images/grn_red.png","../images/org_blu.png","../images/wht_red.png","../images/grn_prp.png","../images/gry_blk.png","../images/grn_blu.png","../images/blu_wht.png","../images/ylw_pnk.png","../images/pnk_blu.png","../images/cyn_red.png","../images/red_prp.png"],"mutagen_generator_assignment":[0,1],"goal":7,"start":0,"action_noise":0.15,"location_history":"[0,6,11,5,11,5,0,6,0,1,7]","action_history":"[1,0,0,1,0,0,1,1,0,1]","mutagen_history":"[1,0,0,1,0,0,1,1,0,1]","location_rts":"[200,56,178,487,1,41,13,253,146,819]","trial_type":"fractal-mutation","trial_index":71,"time_elapsed":3221736,"internal_node_id":"0.0-5.0-32.0"},{"group":"dihedral group of order 12","fractal_assignment":["../images/ylw_slt.png","../images/grn_red.png","../images/org_blu.png","../images/wht_red.png","../images/grn_prp.png","../images/gry_blk.png","../images/grn_blu.png","../images/blu_wht.png","../images/ylw_pnk.png","../images/pnk_blu.png","../images/cyn_red.png","../images/red_prp.png"],"mutagen_generator_assignment":[0,1],"goal":11,"start":7,"action_noise":0.15,"location_history":"[7,6,11]","action_history":"[0,0]","mutagen_history":"[0,0]","location_rts":"[425,78]","trial_type":"fractal-mutation","trial_index":72,"time_elapsed":3227798,"internal_node_id":"0.0-5.0-33.0"},{"group":"dihedral group of order 12","fractal_assignment":["../images/ylw_slt.png","../images/grn_red.png","../images/org_blu.png","../images/wht_red.png","../images/grn_prp.png","../images/gry_blk.png","../images/grn_blu.png","../images/blu_wht.png","../images/ylw_pnk.png","../images/pnk_blu.png","../images/cyn_red.png","../images/red_prp.png"],"mutagen_generator_assignment":[0,1],"goal":2,"start":11,"action_noise":0.15,"location_history":"[11,5,11,5,0,6,0,1,2]","action_history":"[1,0,0,0,1,0,0,0]","mutagen_history":"[1,0,0,0,1,0,0,0]","location_rts":"[299,703,492,556,1095,98,457,25]","trial_type":"fractal-mutation","trial_index":73,"time_elapsed":3243272,"internal_node_id":"0.0-5.0-34.0"},{"view_history":"[{\"page_index\":0,\"viewing_time\":4048}]","rt":4049,"trial_type":"instructions","trial_index":74,"time_elapsed":3248322,"internal_node_id":"0.0-6.0"},{"rt":24742,"responses":"{\"Q0\":\"If we could recognize the pattern of which color leads to the other. The pattern is fixed but it switches sometimes.\"}","trial_type":"survey-text","trial_index":75,"time_elapsed":3274068,"internal_node_id":"0.0-7.0-0.0"},{"rt":28906,"responses":"{\"Q0\":\"The fact that the order was fixed on whether a or g would lead to another and see if we could get to the goal faster (or in less keystrokes) each experiment.\"}","trial_type":"survey-text","trial_index":76,"time_elapsed":3303977,"internal_node_id":"0.0-7.0-1.0"},{"rt":3700,"responses":"{\"Q0\":\"3\"}","trial_type":"survey-likert","trial_index":77,"time_elapsed":3308683,"internal_node_id":"0.0-7.0-2.0"},{"rt":118009,"responses":"{\"Q0\":\"They both had fixed paths and each option would always lead to the same thing. Like the grey door would always have green and olive and similar for the second experiment. It was just a matter of recognizing the pattern and knowing which lead to which (it was extremely easy to get lost). The second was a little easier because the order wouldn't switch the like the first experiment (like the white door wouldn't always lead to the green room from the grey room, it would switch and make things confusing). \"}","trial_type":"survey-text","trial_index":78,"time_elapsed":3427697,"internal_node_id":"0.0-7.0-3.0"},{"rt":6374,"responses":"{\"Q0\":\"Yes\"}","trial_type":"survey-multi-choice","trial_index":79,"time_elapsed":3435083,"internal_node_id":"0.0-7.0-4.0"},{"rt":8824,"responses":"{\"Q0\":\"During session 2\"}","trial_type":"survey-multi-choice","trial_index":80,"time_elapsed":3444914,"internal_node_id":"0.0-7.0-5.0"},{"rt":47948,"responses":"{\"Q0\":\"I found it while I was cycling through rooms and understood the relationship between the colors. And then I did a similar thing while trying to get a certain type of thing in the petri dish and was unable to. I recognized things would always be the same.\"}","trial_type":"survey-text","trial_index":81,"time_elapsed":3493866,"internal_node_id":"0.0-7.0-6.0"},{"rt":4796,"responses":"{\"Q0\":\"4\"}","trial_type":"survey-likert","trial_index":82,"time_elapsed":3499666,"internal_node_id":"0.0-7.0-7.0"},{"rt":9366,"responses":"{\"Q0\":\"Same structure\"}","trial_type":"survey-multi-choice","trial_index":83,"time_elapsed":3510034,"internal_node_id":"0.0-7.0-8.0"},{"rt":28618,"responses":"{\"Q0\":\"white door = acid, black door = ray\",\"Q1\":\"Slightly confident\"}","trial_type":"survey-multi-choice","trial_index":84,"time_elapsed":3539658,"internal_node_id":"0.0-7.0-9.0"},{"rt":7622,"responses":"{\"Q0\":\"25-35\",\"Q1\":\"Bachelor's degree\",\"Q2\":\"Male\",\"Q3\":\"White\"}","trial_type":"survey-multi-choice","trial_index":85,"time_elapsed":3548291,"internal_node_id":"0.0-8.0"},{"rt":14323,"responses":"{\"Q0\":\"None! It was great and definitely tested my patient and awareness of patterns.\"}","trial_type":"survey-text","trial_index":86,"time_elapsed":3563618,"internal_node_id":"0.0-9.0"}]