[{"view_history":"[{\"page_index\":0,\"viewing_time\":4800},{\"page_index\":1,\"viewing_time\":1890}]","rt":6691,"trial_type":"instructions","trial_index":0,"time_elapsed":6692,"internal_node_id":"0.0-0.0"},{"view_history":"[{\"page_index\":0,\"viewing_time\":3536},{\"page_index\":1,\"viewing_time\":1507}]","rt":5044,"trial_type":"instructions","trial_index":1,"time_elapsed":12737,"internal_node_id":"0.0-1.0"},{"group":"dicyclic group of order 12","room_assignment":["ivory","grey","yellow","orange","blue","purple","brown","cyan","green","red","olive","pink"],"door_color_assignment":["white","black"],"door_generator_assignment":[1,0],"goal":7,"start":3,"action_noise":0.15,"location_history":"[3,0,1,5,10,7]","action_history":"[0,0,0,0,0]","door_history":"[1,1,1,1,1]","location_rts":"[9832,623,678,525,574]","trial_type":"two-door-navigation","trial_index":2,"time_elapsed":33750,"internal_node_id":"0.0-2.0-0.0"},{"group":"dicyclic group of order 12","room_assignment":["ivory","grey","yellow","orange","blue","purple","brown","cyan","green","red","olive","pink"],"door_color_assignment":["white","black"],"door_generator_assignment":[1,0],"goal":5,"start":7,"action_noise":0.15,"location_history":"[7,11,3,0,4,9,6,11,4,9,1,5]","action_history":"[1,1,0,0,0,0,0,1,1,1,1]","door_history":"[0,0,1,1,1,1,1,0,0,0,0]","location_rts":"[2350,475,1470,326,2780,665,649,542,331,435,720]","trial_type":"two-door-navigation","trial_index":3,"time_elapsed":59761,"internal_node_id":"0.0-2.0-1.0"},{"group":"dicyclic group of order 12","room_assignment":["ivory","grey","yellow","orange","blue","purple","brown","cyan","green","red","olive","pink"],"door_color_assignment":["white","black"],"door_generator_assignment":[1,0],"goal":0,"start":5,"action_noise":0.15,"location_history":"[5,9,1,2,3,0]","action_history":"[1,1,0,0,0]","door_history":"[0,0,1,1,1]","location_rts":"[2091,494,1753,432,517]","trial_type":"two-door-navigation","trial_index":4,"time_elapsed":73931,"internal_node_id":"0.0-2.0-2.0"},{"group":"dicyclic group of order 12","room_assignment":["ivory","grey","yellow","orange","blue","purple","brown","cyan","green","red","olive","pink"],"door_color_assignment":["white","black"],"door_generator_assignment":[1,0],"goal":2,"start":0,"action_noise":0.15,"location_history":"[0,1,5,9,1,2]","action_history":"[0,1,1,1,0]","door_history":"[1,0,0,0,1]","location_rts":"[3649,1108,873,490,1755]","trial_type":"two-door-navigation","trial_index":5,"time_elapsed":90625,"internal_node_id":"0.0-2.0-3.0"},{"group":"dicyclic group of order 12","room_assignment":["ivory","grey","yellow","orange","blue","purple","brown","cyan","green","red","olive","pink"],"door_color_assignment":["white","black"],"door_generator_assignment":[1,0],"goal":10,"start":2,"action_noise":0.15,"location_history":"[2,3,0,1,2,6,11,3,7,8,5,9,1,2,3,0,1,2,6,11,4,9,6,11,4,9,6,10]","action_history":"[0,0,0,0,0,0,0,1,0,0,1,1,0,0,0,0,0,1,0,0,0,0,0,0,0,0,1]","door_history":"[1,1,1,1,1,1,1,0,1,1,0,0,1,1,1,1,1,0,1,1,1,1,1,1,1,1,0]","location_rts":"[1678,223,319,287,682,511,657,2069,666,845,2172,450,754,609,812,931,117,6047,9377,684,382,432,524,418,544,827,737]","trial_type":"two-door-navigation","trial_index":6,"time_elapsed":156734,"internal_node_id":"0.0-2.0-4.0"},{"group":"dicyclic group of order 12","room_assignment":["ivory","grey","yellow","orange","blue","purple","brown","cyan","green","red","olive","pink"],"door_color_assignment":["white","black"],"door_generator_assignment":[1,0],"goal":8,"start":10,"action_noise":0.15,"location_history":"[10,7,11,3,0,1,2,3,0,4,8]","action_history":"[0,1,1,0,0,0,0,0,0,1]","door_history":"[1,0,0,1,1,1,1,1,1,0]","location_rts":"[1730,938,665,376,919,299,891,479,404,696]","trial_type":"two-door-navigation","trial_index":7,"time_elapsed":178329,"internal_node_id":"0.0-2.0-5.0"},{"group":"dicyclic group of order 12","room_assignment":["ivory","grey","yellow","orange","blue","purple","brown","cyan","green","red","olive","pink"],"door_color_assignment":["white","black"],"door_generator_assignment":[1,0],"goal":11,"start":8,"action_noise":0.15,"location_history":"[8,0,4,9,6,11]","action_history":"[1,1,1,0,0]","door_history":"[0,0,0,1,1]","location_rts":"[2150,2974,584,1014,406]","trial_type":"two-door-navigation","trial_index":8,"time_elapsed":194319,"internal_node_id":"0.0-2.0-6.0"},{"group":"dicyclic group of order 12","room_assignment":["ivory","grey","yellow","orange","blue","purple","brown","cyan","green","red","olive","pink"],"door_color_assignment":["white","black"],"door_generator_assignment":[1,0],"goal":6,"start":11,"action_noise":0.15,"location_history":"[11,4,9,1,2,6]","action_history":"[0,0,1,1,1]","door_history":"[1,1,0,0,0]","location_rts":"[2780,468,858,515,5885]","trial_type":"two-door-navigation","trial_index":9,"time_elapsed":213657,"internal_node_id":"0.0-2.0-7.0"},{"group":"dicyclic group of order 12","room_assignment":["ivory","grey","yellow","orange","blue","purple","brown","cyan","green","red","olive","pink"],"door_color_assignment":["white","black"],"door_generator_assignment":[1,0],"goal":4,"start":6,"action_noise":0.15,"location_history":"[6,11,4]","action_history":"[0,0]","door_history":"[1,1]","location_rts":"[1899,850]","trial_type":"two-door-navigation","trial_index":10,"time_elapsed":222060,"internal_node_id":"0.0-2.0-8.0"},{"group":"dicyclic group of order 12","room_assignment":["ivory","grey","yellow","orange","blue","purple","brown","cyan","green","red","olive","pink"],"door_color_assignment":["white","black"],"door_generator_assignment":[1,0],"goal":1,"start":4,"action_noise":0.15,"location_history":"[4,8,0,4,9,6,11,4,8,5,9,6,11,4,8,0,1]","action_history":"[1,1,0,0,0,0,0,1,1,1,0,0,0,1,1,0]","door_history":"[0,0,1,1,1,1,1,0,0,0,1,1,1,0,0,1]","location_rts":"[3741,377,1529,793,466,1153,557,1236,517,532,483,1499,398,634,283,2339]","trial_type":"two-door-navigation","trial_index":11,"time_elapsed":259137,"internal_node_id":"0.0-2.0-9.0"},{"group":"dicyclic group of order 12","room_assignment":["ivory","grey","yellow","orange","blue","purple","brown","cyan","green","red","olive","pink"],"door_color_assignment":["white","black"],"door_generator_assignment":[1,0],"goal":9,"start":1,"action_noise":0.15,"location_history":"[1,5,10,7,11,4,8,0,4,8,5,10,7,11,3,0,4,9]","action_history":"[1,1,0,0,0,1,1,1,1,0,0,0,1,0,0,1,0]","door_history":"[0,0,1,1,1,0,0,0,0,1,1,1,0,1,1,0,1]","location_rts":"[1952,846,1073,389,600,3920,696,544,1005,1221,580,584,1302,1460,701,1058,1761]","trial_type":"two-door-navigation","trial_index":12,"time_elapsed":300538,"internal_node_id":"0.0-2.0-10.0"},{"group":"dicyclic group of order 12","room_assignment":["ivory","grey","yellow","orange","blue","purple","brown","cyan","green","red","olive","pink"],"door_color_assignment":["white","black"],"door_generator_assignment":[1,0],"goal":10,"start":9,"action_noise":0.15,"location_history":"[9,1,5,9,6,11,3,7,11,3,0,1,5,10]","action_history":"[1,0,0,0,0,1,1,1,0,0,0,0,0]","door_history":"[0,1,1,1,1,0,0,0,1,1,1,1,1]","location_rts":"[3851,1743,1056,772,715,1741,596,681,759,647,395,541,606]","trial_type":"two-door-navigation","trial_index":13,"time_elapsed":332051,"internal_node_id":"0.0-2.0-11.0"},{"group":"dicyclic group of order 12","room_assignment":["ivory","grey","yellow","orange","blue","purple","brown","cyan","green","red","olive","pink"],"door_color_assignment":["white","black"],"door_generator_assignment":[1,0],"goal":2,"start":10,"action_noise":0.15,"location_history":"[10,2]","action_history":"[1]","door_history":"[0]","location_rts":"[3188]","trial_type":"two-door-navigation","trial_index":14,"time_elapsed":339815,"internal_node_id":"0.0-2.0-12.0"},{"group":"dicyclic group of order 12","room_assignment":["ivory","grey","yellow","orange","blue","purple","brown","cyan","green","red","olive","pink"],"door_color_assignment":["white","black"],"door_generator_assignment":[1,0],"goal":0,"start":2,"action_noise":0.15,"location_history":"[2,3,7,11,3,0]","action_history":"[1,1,1,1,0]","door_history":"[0,0,0,0,1]","location_rts":"[2124,550,498,430,988]","trial_type":"two-door-navigation","trial_index":15,"time_elapsed":353270,"internal_node_id":"0.0-2.0-13.0"},{"group":"dicyclic group of order 12","room_assignment":["ivory","grey","yellow","orange","blue","purple","brown","cyan","green","red","olive","pink"],"door_color_assignment":["white","black"],"door_generator_assignment":[1,0],"goal":9,"start":0,"action_noise":0.15,"location_history":"[0,1,2,6,10,2,6,11,4,9]","action_history":"[0,0,1,1,1,1,0,0,0]","door_history":"[1,1,0,0,0,0,1,1,1]","location_rts":"[3009,2015,1615,598,713,808,154,1008,1684]","trial_type":"two-door-navigation","trial_index":16,"time_elapsed":377988,"internal_node_id":"0.0-2.0-14.0"},{"group":"dicyclic group of order 12","room_assignment":["ivory","grey","yellow","orange","blue","purple","brown","cyan","green","red","olive","pink"],"door_color_assignment":["white","black"],"door_generator_assignment":[1,0],"goal":8,"start":9,"action_noise":0.15,"location_history":"[9,1,5,10,7,8]","action_history":"[0,1,0,0,1]","door_history":"[1,0,1,1,0]","location_rts":"[2861,1607,2247,1214,846]","trial_type":"two-door-navigation","trial_index":17,"time_elapsed":395568,"internal_node_id":"0.0-2.0-15.0"},{"group":"dicyclic group of order 12","room_assignment":["ivory","grey","yellow","orange","blue","purple","brown","cyan","green","red","olive","pink"],"door_color_assignment":["white","black"],"door_generator_assignment":[1,0],"goal":6,"start":8,"action_noise":0.15,"location_history":"[8,5,9,6]","action_history":"[1,1,0]","door_history":"[0,0,1]","location_rts":"[1693,1043,479]","trial_type":"two-door-navigation","trial_index":18,"time_elapsed":405502,"internal_node_id":"0.0-2.0-16.0"},{"group":"dicyclic group of order 12","room_assignment":["ivory","grey","yellow","orange","blue","purple","brown","cyan","green","red","olive","pink"],"door_color_assignment":["white","black"],"door_generator_assignment":[1,0],"goal":1,"start":6,"action_noise":0.15,"location_history":"[6,10,2,6,11,4,8,0,1]","action_history":"[1,1,1,0,0,1,1,0]","door_history":"[0,0,0,1,1,0,0,1]","location_rts":"[3678,2296,834,386,1153,307,340,971]","trial_type":"two-door-navigation","trial_index":19,"time_elapsed":427464,"internal_node_id":"0.0-2.0-17.0"},{"group":"dicyclic group of order 12","room_assignment":["ivory","grey","yellow","orange","blue","purple","brown","cyan","green","red","olive","pink"],"door_color_assignment":["white","black"],"door_generator_assignment":[1,0],"goal":4,"start":1,"action_noise":0.15,"location_history":"[1,5,9,6,10,7,11,4]","action_history":"[1,1,0,1,1,1,0]","door_history":"[0,0,1,0,0,0,1]","location_rts":"[11343,2680,2703,1129,652,1149,1119]","trial_type":"two-door-navigation","trial_index":20,"time_elapsed":459240,"internal_node_id":"0.0-2.0-18.0"},{"group":"dicyclic group of order 12","room_assignment":["ivory","grey","yellow","orange","blue","purple","brown","cyan","green","red","olive","pink"],"door_color_assignment":["white","black"],"door_generator_assignment":[1,0],"goal":11,"start":4,"action_noise":0.15,"location_history":"[4,9,6,10,7,8,5,9,1,5,10,7,11]","action_history":"[1,1,1,1,1,0,0,0,1,1,0,1]","door_history":"[0,0,0,0,0,1,1,1,0,0,1,0]","location_rts":"[2304,515,531,703,1012,961,552,799,625,643,1098,642]","trial_type":"two-door-navigation","trial_index":21,"time_elapsed":485923,"internal_node_id":"0.0-2.0-19.0"},{"group":"dicyclic group of order 12","room_assignment":["ivory","grey","yellow","orange","blue","purple","brown","cyan","green","red","olive","pink"],"door_color_assignment":["white","black"],"door_generator_assignment":[1,0],"goal":3,"start":11,"action_noise":0.15,"location_history":"[11,3]","action_history":"[1]","door_history":"[0]","location_rts":"[16539]","trial_type":"two-door-navigation","trial_index":22,"time_elapsed":507038,"internal_node_id":"0.0-2.0-20.0"},{"group":"dicyclic group of order 12","room_assignment":["ivory","grey","yellow","orange","blue","purple","brown","cyan","green","red","olive","pink"],"door_color_assignment":["white","black"],"door_generator_assignment":[1,0],"goal":5,"start":3,"action_noise":0.15,"location_history":"[3,7,8,5]","action_history":"[1,0,0]","door_history":"[0,1,1]","location_rts":"[2530,1627,990]","trial_type":"two-door-navigation","trial_index":23,"time_elapsed":518909,"internal_node_id":"0.0-2.0-21.0"},{"group":"dicyclic group of order 12","room_assignment":["ivory","grey","yellow","orange","blue","purple","brown","cyan","green","red","olive","pink"],"door_color_assignment":["white","black"],"door_generator_assignment":[1,0],"goal":7,"start":5,"action_noise":0.15,"location_history":"[5,9,1,5,10,7]","action_history":"[1,1,1,1,0]","door_history":"[0,0,0,0,1]","location_rts":"[1593,768,425,561,1281]","trial_type":"two-door-navigation","trial_index":24,"time_elapsed":532390,"internal_node_id":"0.0-2.0-22.0"},{"group":"dicyclic group of order 12","room_assignment":["ivory","grey","yellow","orange","blue","purple","brown","cyan","green","red","olive","pink"],"door_color_assignment":["white","black"],"door_generator_assignment":[1,0],"goal":3,"start":7,"action_noise":0.15,"location_history":"[7,11,3]","action_history":"[1,1]","door_history":"[0,0]","location_rts":"[1592,698]","trial_type":"two-door-navigation","trial_index":25,"time_elapsed":540352,"internal_node_id":"0.0-2.0-23.0"},{"group":"dicyclic group of order 12","room_assignment":["ivory","grey","yellow","orange","blue","purple","brown","cyan","green","red","olive","pink"],"door_color_assignment":["white","black"],"door_generator_assignment":[1,0],"goal":4,"start":3,"action_noise":0.15,"location_history":"[3,7,8,0,4]","action_history":"[0,0,1,1]","door_history":"[1,1,0,0]","location_rts":"[1474,657,513,436]","trial_type":"two-door-navigation","trial_index":26,"time_elapsed":551172,"internal_node_id":"0.0-2.0-24.0"},{"group":"dicyclic group of order 12","room_assignment":["ivory","grey","yellow","orange","blue","purple","brown","cyan","green","red","olive","pink"],"door_color_assignment":["white","black"],"door_generator_assignment":[1,0],"goal":8,"start":4,"action_noise":0.15,"location_history":"[4,8]","action_history":"[1]","door_history":"[0]","location_rts":"[1511]","trial_type":"two-door-navigation","trial_index":27,"time_elapsed":557251,"internal_node_id":"0.0-2.0-25.0"},{"group":"dicyclic group of order 12","room_assignment":["ivory","grey","yellow","orange","blue","purple","brown","cyan","green","red","olive","pink"],"door_color_assignment":["white","black"],"door_generator_assignment":[1,0],"goal":6,"start":8,"action_noise":0.15,"location_history":"[8,0,4,9,6]","action_history":"[1,1,0,0]","door_history":"[0,0,1,1]","location_rts":"[2579,675,415,400]","trial_type":"two-door-navigation","trial_index":28,"time_elapsed":569081,"internal_node_id":"0.0-2.0-26.0"},{"group":"dicyclic group of order 12","room_assignment":["ivory","grey","yellow","orange","blue","purple","brown","cyan","green","red","olive","pink"],"door_color_assignment":["white","black"],"door_generator_assignment":[1,0],"goal":1,"start":6,"action_noise":0.15,"location_history":"[6,11,4,9,6,10,2,3,0,1]","action_history":"[0,0,0,0,1,1,0,0,0]","door_history":"[1,1,1,1,0,0,1,1,1]","location_rts":"[1337,626,1120,823,860,6543,738,552,407]","trial_type":"two-door-navigation","trial_index":29,"time_elapsed":595141,"internal_node_id":"0.0-2.0-27.0"},{"group":"dicyclic group of order 12","room_assignment":["ivory","grey","yellow","orange","blue","purple","brown","cyan","green","red","olive","pink"],"door_color_assignment":["white","black"],"door_generator_assignment":[1,0],"goal":5,"start":1,"action_noise":0.15,"location_history":"[1,5]","action_history":"[1]","door_history":"[0]","location_rts":"[1879]","trial_type":"two-door-navigation","trial_index":30,"time_elapsed":601591,"internal_node_id":"0.0-2.0-28.0"},{"group":"dicyclic group of order 12","room_assignment":["ivory","grey","yellow","orange","blue","purple","brown","cyan","green","red","olive","pink"],"door_color_assignment":["white","black"],"door_generator_assignment":[1,0],"goal":9,"start":5,"action_noise":0.15,"location_history":"[5,10,7,8,0,4,9]","action_history":"[0,0,0,1,1,0]","door_history":"[1,1,1,0,0,1]","location_rts":"[1650,520,2514,571,635,1029]","trial_type":"two-door-navigation","trial_index":31,"time_elapsed":618418,"internal_node_id":"0.0-2.0-29.0"},{"group":"dicyclic group of order 12","room_assignment":["ivory","grey","yellow","orange","blue","purple","brown","cyan","green","red","olive","pink"],"door_color_assignment":["white","black"],"door_generator_assignment":[1,0],"goal":10,"start":9,"action_noise":0.15,"location_history":"[9,1,2,3,0,4,9,6,11,4,8,5,10]","action_history":"[1,1,0,0,0,0,0,0,0,1,0,0]","door_history":"[0,0,1,1,1,1,1,1,1,0,1,1]","location_rts":"[2218,605,1091,808,763,405,2632,1258,2193,534,2057,512]","trial_type":"two-door-navigation","trial_index":32,"time_elapsed":649807,"internal_node_id":"0.0-2.0-30.0"},{"group":"dicyclic group of order 12","room_assignment":["ivory","grey","yellow","orange","blue","purple","brown","cyan","green","red","olive","pink"],"door_color_assignment":["white","black"],"door_generator_assignment":[1,0],"goal":0,"start":10,"action_noise":0.15,"location_history":"[10,2,3,0]","action_history":"[1,0,0]","door_history":"[0,1,1]","location_rts":"[5225,1343,758]","trial_type":"two-door-navigation","trial_index":33,"time_elapsed":663839,"internal_node_id":"0.0-2.0-31.0"},{"group":"dicyclic group of order 12","room_assignment":["ivory","grey","yellow","orange","blue","purple","brown","cyan","green","red","olive","pink"],"door_color_assignment":["white","black"],"door_generator_assignment":[1,0],"goal":7,"start":0,"action_noise":0.15,"location_history":"[0,1,5,9,1,5,10,7]","action_history":"[0,0,1,1,1,1,0]","door_history":"[1,1,0,0,0,0,1]","location_rts":"[2124,663,943,521,977,597,314]","trial_type":"two-door-navigation","trial_index":34,"time_elapsed":680951,"internal_node_id":"0.0-2.0-32.0"},{"group":"dicyclic group of order 12","room_assignment":["ivory","grey","yellow","orange","blue","purple","brown","cyan","green","red","olive","pink"],"door_color_assignment":["white","black"],"door_generator_assignment":[1,0],"goal":11,"start":7,"action_noise":0.15,"location_history":"[7,11]","action_history":"[1]","door_history":"[0]","location_rts":"[2190]","trial_type":"two-door-navigation","trial_index":35,"time_elapsed":687704,"internal_node_id":"0.0-2.0-33.0"},{"group":"dicyclic group of order 12","room_assignment":["ivory","grey","yellow","orange","blue","purple","brown","cyan","green","red","olive","pink"],"door_color_assignment":["white","black"],"door_generator_assignment":[1,0],"goal":2,"start":11,"action_noise":0.15,"location_history":"[11,4,9,6,10,2]","action_history":"[0,0,0,1,1]","door_history":"[1,1,1,0,0]","location_rts":"[4531,618,670,819,994]","trial_type":"two-door-navigation","trial_index":36,"time_elapsed":704154,"internal_node_id":"0.0-2.0-34.0"},{"view_history":"[{\"page_index\":0,\"viewing_time\":13777}]","rt":13778,"trial_type":"instructions","trial_index":37,"time_elapsed":718937,"internal_node_id":"0.0-3.0"},{"view_history":"[{\"page_index\":0,\"viewing_time\":2148},{\"page_index\":1,\"viewing_time\":3972}]","rt":6121,"trial_type":"instructions","trial_index":38,"time_elapsed":726060,"internal_node_id":"0.0-4.0"},{"group":"dihedral group of order 12","fractal_assignment":["../images/pnk_blu.png","../images/grn_prp.png","../images/cyn_red.png","../images/red_prp.png","../images/grn_red.png","../images/ylw_slt.png","../images/wht_red.png","../images/org_blu.png","../images/ylw_pnk.png","../images/grn_blu.png","../images/gry_blk.png","../images/blu_wht.png"],"mutagen_generator_assignment":[1,0],"goal":7,"start":3,"action_noise":0.15,"location_history":"[3,9,3,4,10,4,5,11,5,0,1,7]","action_history":"[1,1,0,1,1,0,1,1,0,0,1]","mutagen_history":"[0,0,1,0,0,1,0,0,1,1,0]","location_rts":"[7016,1251,968,3590,376,400,461,461,334,451,417]","trial_type":"fractal-mutation","trial_index":39,"time_elapsed":758989,"internal_node_id":"0.0-5.0-0.0"},{"group":"dihedral group of order 12","fractal_assignment":["../images/pnk_blu.png","../images/grn_prp.png","../images/cyn_red.png","../images/red_prp.png","../images/grn_red.png","../images/ylw_slt.png","../images/wht_red.png","../images/org_blu.png","../images/ylw_pnk.png","../images/grn_blu.png","../images/gry_blk.png","../images/blu_wht.png"],"mutagen_generator_assignment":[1,0],"goal":5,"start":7,"action_noise":0.15,"location_history":"[7,6,11,5]","action_history":"[0,0,1]","mutagen_history":"[1,1,0]","location_rts":"[2364,444,925]","trial_type":"fractal-mutation","trial_index":40,"time_elapsed":770135,"internal_node_id":"0.0-5.0-1.0"},{"group":"dihedral group of order 12","fractal_assignment":["../images/pnk_blu.png","../images/grn_prp.png","../images/cyn_red.png","../images/red_prp.png","../images/grn_red.png","../images/ylw_slt.png","../images/wht_red.png","../images/org_blu.png","../images/ylw_pnk.png","../images/grn_blu.png","../images/gry_blk.png","../images/blu_wht.png"],"mutagen_generator_assignment":[1,0],"goal":0,"start":5,"action_noise":0.15,"location_history":"[5,11,5,0]","action_history":"[0,0,0]","mutagen_history":"[1,1,1]","location_rts":"[1345,867,882]","trial_type":"fractal-mutation","trial_index":41,"time_elapsed":780871,"internal_node_id":"0.0-5.0-2.0"},{"group":"dihedral group of order 12","fractal_assignment":["../images/pnk_blu.png","../images/grn_prp.png","../images/cyn_red.png","../images/red_prp.png","../images/grn_red.png","../images/ylw_slt.png","../images/wht_red.png","../images/org_blu.png","../images/ylw_pnk.png","../images/grn_blu.png","../images/gry_blk.png","../images/blu_wht.png"],"mutagen_generator_assignment":[1,0],"goal":2,"start":0,"action_noise":0.15,"location_history":"[0,1,2]","action_history":"[0,0]","mutagen_history":"[1,1]","location_rts":"[5364,1160]","trial_type":"fractal-mutation","trial_index":42,"time_elapsed":793629,"internal_node_id":"0.0-5.0-3.0"},{"group":"dihedral group of order 12","fractal_assignment":["../images/pnk_blu.png","../images/grn_prp.png","../images/cyn_red.png","../images/red_prp.png","../images/grn_red.png","../images/ylw_slt.png","../images/wht_red.png","../images/org_blu.png","../images/ylw_pnk.png","../images/grn_blu.png","../images/gry_blk.png","../images/blu_wht.png"],"mutagen_generator_assignment":[1,0],"goal":10,"start":2,"action_noise":0.15,"location_history":"[2,3,9,3,4,5,0,1,7,6,11,10]","action_history":"[0,1,1,0,0,0,0,1,1,0,0]","mutagen_history":"[1,0,0,1,1,1,1,0,0,1,1]","location_rts":"[1390,4150,626,401,447,620,706,1290,1374,270,513]","trial_type":"fractal-mutation","trial_index":43,"time_elapsed":823381,"internal_node_id":"0.0-5.0-4.0"},{"group":"dihedral group of order 12","fractal_assignment":["../images/pnk_blu.png","../images/grn_prp.png","../images/cyn_red.png","../images/red_prp.png","../images/grn_red.png","../images/ylw_slt.png","../images/wht_red.png","../images/org_blu.png","../images/ylw_pnk.png","../images/grn_blu.png","../images/gry_blk.png","../images/blu_wht.png"],"mutagen_generator_assignment":[1,0],"goal":8,"start":10,"action_noise":0.15,"location_history":"[10,4,10,9,3,4,5,11,10,9,8]","action_history":"[1,0,0,1,1,0,0,0,0,1]","mutagen_history":"[0,1,1,0,0,1,1,1,1,0]","location_rts":"[4199,547,1188,2436,436,1,607,7351,971,1255]","trial_type":"fractal-mutation","trial_index":44,"time_elapsed":859595,"internal_node_id":"0.0-5.0-5.0"},{"group":"dihedral group of order 12","fractal_assignment":["../images/pnk_blu.png","../images/grn_prp.png","../images/cyn_red.png","../images/red_prp.png","../images/grn_red.png","../images/ylw_slt.png","../images/wht_red.png","../images/org_blu.png","../images/ylw_pnk.png","../images/grn_blu.png","../images/gry_blk.png","../images/blu_wht.png"],"mutagen_generator_assignment":[1,0],"goal":11,"start":8,"action_noise":0.15,"location_history":"[8,7,1,2,3,4,5,11]","action_history":"[0,0,0,0,0,0,1]","mutagen_history":"[1,1,1,1,1,1,0]","location_rts":"[4560,576,798,2538,869,698,852]","trial_type":"fractal-mutation","trial_index":45,"time_elapsed":884438,"internal_node_id":"0.0-5.0-6.0"},{"group":"dihedral group of order 12","fractal_assignment":["../images/pnk_blu.png","../images/grn_prp.png","../images/cyn_red.png","../images/red_prp.png","../images/grn_red.png","../images/ylw_slt.png","../images/wht_red.png","../images/org_blu.png","../images/ylw_pnk.png","../images/grn_blu.png","../images/gry_blk.png","../images/blu_wht.png"],"mutagen_generator_assignment":[1,0],"goal":6,"start":11,"action_noise":0.15,"location_history":"[11,5,0,6]","action_history":"[0,1,1]","mutagen_history":"[1,0,0]","location_rts":"[2666,561,509]","trial_type":"fractal-mutation","trial_index":46,"time_elapsed":895479,"internal_node_id":"0.0-5.0-7.0"},{"group":"dihedral group of order 12","fractal_assignment":["../images/pnk_blu.png","../images/grn_prp.png","../images/cyn_red.png","../images/red_prp.png","../images/grn_red.png","../images/ylw_slt.png","../images/wht_red.png","../images/org_blu.png","../images/ylw_pnk.png","../images/grn_blu.png","../images/gry_blk.png","../images/blu_wht.png"],"mutagen_generator_assignment":[1,0],"goal":4,"start":6,"action_noise":0.15,"location_history":"[6,11,10,4]","action_history":"[0,0,0]","mutagen_history":"[1,1,1]","location_rts":"[10866,1115,1935]","trial_type":"fractal-mutation","trial_index":47,"time_elapsed":916959,"internal_node_id":"0.0-5.0-8.0"},{"group":"dihedral group of order 12","fractal_assignment":["../images/pnk_blu.png","../images/grn_prp.png","../images/cyn_red.png","../images/red_prp.png","../images/grn_red.png","../images/ylw_slt.png","../images/wht_red.png","../images/org_blu.png","../images/ylw_pnk.png","../images/grn_blu.png","../images/gry_blk.png","../images/blu_wht.png"],"mutagen_generator_assignment":[1,0],"goal":1,"start":4,"action_noise":0.15,"location_history":"[4,5,11,5,11,10,9,8,2,8,7,1]","action_history":"[1,1,1,1,0,0,0,1,1,0,1]","mutagen_history":"[0,0,0,0,1,1,1,0,0,1,0]","location_rts":"[2998,586,454,499,954,1524,1201,1268,512,664,672]","trial_type":"fractal-mutation","trial_index":48,"time_elapsed":945307,"internal_node_id":"0.0-5.0-9.0"},{"group":"dihedral group of order 12","fractal_assignment":["../images/pnk_blu.png","../images/grn_prp.png","../images/cyn_red.png","../images/red_prp.png","../images/grn_red.png","../images/ylw_slt.png","../images/wht_red.png","../images/org_blu.png","../images/ylw_pnk.png","../images/grn_blu.png","../images/gry_blk.png","../images/blu_wht.png"],"mutagen_generator_assignment":[1,0],"goal":9,"start":1,"action_noise":0.15,"location_history":"[1,2,3,4,10,9]","action_history":"[0,0,0,0,0]","mutagen_history":"[1,1,1,1,1]","location_rts":"[7193,453,512,541,841]","trial_type":"fractal-mutation","trial_index":49,"time_elapsed":965198,"internal_node_id":"0.0-5.0-10.0"},{"group":"dihedral group of order 12","fractal_assignment":["../images/pnk_blu.png","../images/grn_prp.png","../images/cyn_red.png","../images/red_prp.png","../images/grn_red.png","../images/ylw_slt.png","../images/wht_red.png","../images/org_blu.png","../images/ylw_pnk.png","../images/grn_blu.png","../images/gry_blk.png","../images/blu_wht.png"],"mutagen_generator_assignment":[1,0],"goal":10,"start":9,"action_noise":0.15,"location_history":"[9,3,4,10]","action_history":"[0,0,1]","mutagen_history":"[1,1,0]","location_rts":"[3426,2208,2035]","trial_type":"fractal-mutation","trial_index":50,"time_elapsed":980364,"internal_node_id":"0.0-5.0-11.0"},{"group":"dihedral group of order 12","fractal_assignment":["../images/pnk_blu.png","../images/grn_prp.png","../images/cyn_red.png","../images/red_prp.png","../images/grn_red.png","../images/ylw_slt.png","../images/wht_red.png","../images/org_blu.png","../images/ylw_pnk.png","../images/grn_blu.png","../images/gry_blk.png","../images/blu_wht.png"],"mutagen_generator_assignment":[1,0],"goal":2,"start":10,"action_noise":0.15,"location_history":"[10,9,8,2]","action_history":"[0,0,1]","mutagen_history":"[1,1,0]","location_rts":"[3662,2853,1104]","trial_type":"fractal-mutation","trial_index":51,"time_elapsed":995447,"internal_node_id":"0.0-5.0-12.0"},{"group":"dihedral group of order 12","fractal_assignment":["../images/pnk_blu.png","../images/grn_prp.png","../images/cyn_red.png","../images/red_prp.png","../images/grn_red.png","../images/ylw_slt.png","../images/wht_red.png","../images/org_blu.png","../images/ylw_pnk.png","../images/grn_blu.png","../images/gry_blk.png","../images/blu_wht.png"],"mutagen_generator_assignment":[1,0],"goal":0,"start":2,"action_noise":0.15,"location_history":"[2,3,4,5,0]","action_history":"[0,0,0,0]","mutagen_history":"[1,1,1,1]","location_rts":"[984,491,417,432]","trial_type":"fractal-mutation","trial_index":52,"time_elapsed":1006599,"internal_node_id":"0.0-5.0-13.0"},{"group":"dihedral group of order 12","fractal_assignment":["../images/pnk_blu.png","../images/grn_prp.png","../images/cyn_red.png","../images/red_prp.png","../images/grn_red.png","../images/ylw_slt.png","../images/wht_red.png","../images/org_blu.png","../images/ylw_pnk.png","../images/grn_blu.png","../images/gry_blk.png","../images/blu_wht.png"],"mutagen_generator_assignment":[1,0],"goal":9,"start":0,"action_noise":0.15,"location_history":"[0,1,7,6,11,5,11,10,9]","action_history":"[0,0,0,0,1,1,0,0]","mutagen_history":"[1,1,1,1,0,0,1,1]","location_rts":"[2327,1021,508,595,650,844,665,1794]","trial_type":"fractal-mutation","trial_index":53,"time_elapsed":1028985,"internal_node_id":"0.0-5.0-14.0"},{"group":"dihedral group of order 12","fractal_assignment":["../images/pnk_blu.png","../images/grn_prp.png","../images/cyn_red.png","../images/red_prp.png","../images/grn_red.png","../images/ylw_slt.png","../images/wht_red.png","../images/org_blu.png","../images/ylw_pnk.png","../images/grn_blu.png","../images/gry_blk.png","../images/blu_wht.png"],"mutagen_generator_assignment":[1,0],"goal":8,"start":9,"action_noise":0.15,"location_history":"[9,8]","action_history":"[0]","mutagen_history":"[1]","location_rts":"[3064]","trial_type":"fractal-mutation","trial_index":54,"time_elapsed":1036895,"internal_node_id":"0.0-5.0-15.0"},{"group":"dihedral group of order 12","fractal_assignment":["../images/pnk_blu.png","../images/grn_prp.png","../images/cyn_red.png","../images/red_prp.png","../images/grn_red.png","../images/ylw_slt.png","../images/wht_red.png","../images/org_blu.png","../images/ylw_pnk.png","../images/grn_blu.png","../images/gry_blk.png","../images/blu_wht.png"],"mutagen_generator_assignment":[1,0],"goal":6,"start":8,"action_noise":0.15,"location_history":"[8,7,6]","action_history":"[0,0]","mutagen_history":"[1,1]","location_rts":"[1761,748]","trial_type":"fractal-mutation","trial_index":55,"time_elapsed":1045603,"internal_node_id":"0.0-5.0-16.0"},{"group":"dihedral group of order 12","fractal_assignment":["../images/pnk_blu.png","../images/grn_prp.png","../images/cyn_red.png","../images/red_prp.png","../images/grn_red.png","../images/ylw_slt.png","../images/wht_red.png","../images/org_blu.png","../images/ylw_pnk.png","../images/grn_blu.png","../images/gry_blk.png","../images/blu_wht.png"],"mutagen_generator_assignment":[1,0],"goal":1,"start":6,"action_noise":0.15,"location_history":"[6,0,1]","action_history":"[0,0]","mutagen_history":"[1,1]","location_rts":"[1827,730]","trial_type":"fractal-mutation","trial_index":56,"time_elapsed":1054418,"internal_node_id":"0.0-5.0-17.0"},{"group":"dihedral group of order 12","fractal_assignment":["../images/pnk_blu.png","../images/grn_prp.png","../images/cyn_red.png","../images/red_prp.png","../images/grn_red.png","../images/ylw_slt.png","../images/wht_red.png","../images/org_blu.png","../images/ylw_pnk.png","../images/grn_blu.png","../images/gry_blk.png","../images/blu_wht.png"],"mutagen_generator_assignment":[1,0],"goal":4,"start":1,"action_noise":0.15,"location_history":"[1,2,8,2,3,4]","action_history":"[0,1,1,0,0]","mutagen_history":"[1,0,0,1,1]","location_rts":"[927,1034,683,509,451]","trial_type":"fractal-mutation","trial_index":57,"time_elapsed":1068006,"internal_node_id":"0.0-5.0-18.0"},{"group":"dihedral group of order 12","fractal_assignment":["../images/pnk_blu.png","../images/grn_prp.png","../images/cyn_red.png","../images/red_prp.png","../images/grn_red.png","../images/ylw_slt.png","../images/wht_red.png","../images/org_blu.png","../images/ylw_pnk.png","../images/grn_blu.png","../images/gry_blk.png","../images/blu_wht.png"],"mutagen_generator_assignment":[1,0],"goal":11,"start":4,"action_noise":0.15,"location_history":"[4,10,9,3,9,3,9,8,7,6,0,6,0,6,11]","action_history":"[0,0,1,1,0,0,0,0,0,1,1,1,1,0]","mutagen_history":"[1,1,0,0,1,1,1,1,1,0,0,0,0,1]","location_rts":"[1504,994,806,641,266,435,670,583,3067,748,441,523,270,514]","trial_type":"fractal-mutation","trial_index":58,"time_elapsed":1100971,"internal_node_id":"0.0-5.0-19.0"},{"group":"dihedral group of order 12","fractal_assignment":["../images/pnk_blu.png","../images/grn_prp.png","../images/cyn_red.png","../images/red_prp.png","../images/grn_red.png","../images/ylw_slt.png","../images/wht_red.png","../images/org_blu.png","../images/ylw_pnk.png","../images/grn_blu.png","../images/gry_blk.png","../images/blu_wht.png"],"mutagen_generator_assignment":[1,0],"goal":3,"start":11,"action_noise":0.15,"location_history":"[11,10,4,10,9,8,7,1,7,6,11,10,4,10,4,10,9,3]","action_history":"[0,1,1,0,0,1,1,1,0,0,0,1,1,1,0,0,1]","mutagen_history":"[1,0,0,1,1,0,0,0,1,1,1,0,0,0,1,1,0]","location_rts":"[1203,2348,487,489,737,709,596,852,852,591,1173,738,490,344,338,783,964]","trial_type":"fractal-mutation","trial_index":59,"time_elapsed":1139949,"internal_node_id":"0.0-5.0-20.0"},{"group":"dihedral group of order 12","fractal_assignment":["../images/pnk_blu.png","../images/grn_prp.png","../images/cyn_red.png","../images/red_prp.png","../images/grn_red.png","../images/ylw_slt.png","../images/wht_red.png","../images/org_blu.png","../images/ylw_pnk.png","../images/grn_blu.png","../images/gry_blk.png","../images/blu_wht.png"],"mutagen_generator_assignment":[1,0],"goal":5,"start":3,"action_noise":0.15,"location_history":"[3,4,5]","action_history":"[0,0]","mutagen_history":"[1,1]","location_rts":"[2370,527]","trial_type":"fractal-mutation","trial_index":60,"time_elapsed":1149007,"internal_node_id":"0.0-5.0-21.0"},{"group":"dihedral group of order 12","fractal_assignment":["../images/pnk_blu.png","../images/grn_prp.png","../images/cyn_red.png","../images/red_prp.png","../images/grn_red.png","../images/ylw_slt.png","../images/wht_red.png","../images/org_blu.png","../images/ylw_pnk.png","../images/grn_blu.png","../images/gry_blk.png","../images/blu_wht.png"],"mutagen_generator_assignment":[1,0],"goal":7,"start":5,"action_noise":0.15,"location_history":"[5,0,6,0,1,7]","action_history":"[0,1,1,0,1]","mutagen_history":"[1,0,0,1,0]","location_rts":"[1026,1188,536,913,761]","trial_type":"fractal-mutation","trial_index":61,"time_elapsed":1163319,"internal_node_id":"0.0-5.0-22.0"},{"group":"dihedral group of order 12","fractal_assignment":["../images/pnk_blu.png","../images/grn_prp.png","../images/cyn_red.png","../images/red_prp.png","../images/grn_red.png","../images/ylw_slt.png","../images/wht_red.png","../images/org_blu.png","../images/ylw_pnk.png","../images/grn_blu.png","../images/gry_blk.png","../images/blu_wht.png"],"mutagen_generator_assignment":[1,0],"goal":3,"start":7,"action_noise":0.15,"location_history":"[7,6,11,5,0,6,11,10,9,8,2,3]","action_history":"[0,0,0,0,0,0,0,0,0,1,0]","mutagen_history":"[1,1,1,1,1,1,1,1,1,0,1]","location_rts":"[1708,380,500,853,588,403,100,670,641,623,427]","trial_type":"fractal-mutation","trial_index":62,"time_elapsed":1188432,"internal_node_id":"0.0-5.0-23.0"},{"group":"dihedral group of order 12","fractal_assignment":["../images/pnk_blu.png","../images/grn_prp.png","../images/cyn_red.png","../images/red_prp.png","../images/grn_red.png","../images/ylw_slt.png","../images/wht_red.png","../images/org_blu.png","../images/ylw_pnk.png","../images/grn_blu.png","../images/gry_blk.png","../images/blu_wht.png"],"mutagen_generator_assignment":[1,0],"goal":4,"start":3,"action_noise":0.15,"location_history":"[3,4]","action_history":"[0]","mutagen_history":"[1]","location_rts":"[1870]","trial_type":"fractal-mutation","trial_index":63,"time_elapsed":1195187,"internal_node_id":"0.0-5.0-24.0"},{"group":"dihedral group of order 12","fractal_assignment":["../images/pnk_blu.png","../images/grn_prp.png","../images/cyn_red.png","../images/red_prp.png","../images/grn_red.png","../images/ylw_slt.png","../images/wht_red.png","../images/org_blu.png","../images/ylw_pnk.png","../images/grn_blu.png","../images/gry_blk.png","../images/blu_wht.png"],"mutagen_generator_assignment":[1,0],"goal":8,"start":4,"action_noise":0.15,"location_history":"[4,10,9,8]","action_history":"[1,0,0]","mutagen_history":"[0,1,1]","location_rts":"[1127,403,443]","trial_type":"fractal-mutation","trial_index":64,"time_elapsed":1204476,"internal_node_id":"0.0-5.0-25.0"},{"group":"dihedral group of order 12","fractal_assignment":["../images/pnk_blu.png","../images/grn_prp.png","../images/cyn_red.png","../images/red_prp.png","../images/grn_red.png","../images/ylw_slt.png","../images/wht_red.png","../images/org_blu.png","../images/ylw_pnk.png","../images/grn_blu.png","../images/gry_blk.png","../images/blu_wht.png"],"mutagen_generator_assignment":[1,0],"goal":6,"start":8,"action_noise":0.15,"location_history":"[8,2,3,4,10,4,5,11,5,11,10,4,5,0,6]","action_history":"[0,0,0,1,1,0,1,1,1,0,1,0,0,1]","mutagen_history":"[1,1,1,0,0,1,0,0,0,1,0,1,1,0]","location_rts":"[2320,5002,684,905,478,376,597,458,2360,553,679,265,401,1165]","trial_type":"fractal-mutation","trial_index":65,"time_elapsed":1242273,"internal_node_id":"0.0-5.0-26.0"},{"group":"dihedral group of order 12","fractal_assignment":["../images/pnk_blu.png","../images/grn_prp.png","../images/cyn_red.png","../images/red_prp.png","../images/grn_red.png","../images/ylw_slt.png","../images/wht_red.png","../images/org_blu.png","../images/ylw_pnk.png","../images/grn_blu.png","../images/gry_blk.png","../images/blu_wht.png"],"mutagen_generator_assignment":[1,0],"goal":1,"start":6,"action_noise":0.15,"location_history":"[6,11,5,11,10,9,3,9,3,9,8,7,6,0,1]","action_history":"[0,1,1,0,0,0,1,1,0,0,0,1,1,0]","mutagen_history":"[1,0,0,1,1,1,0,0,1,1,1,0,0,1]","location_rts":"[5983,423,432,406,750,868,741,1383,431,5630,581,431,391,729]","trial_type":"fractal-mutation","trial_index":66,"time_elapsed":1283270,"internal_node_id":"0.0-5.0-27.0"},{"group":"dihedral group of order 12","fractal_assignment":["../images/pnk_blu.png","../images/grn_prp.png","../images/cyn_red.png","../images/red_prp.png","../images/grn_red.png","../images/ylw_slt.png","../images/wht_red.png","../images/org_blu.png","../images/ylw_pnk.png","../images/grn_blu.png","../images/gry_blk.png","../images/blu_wht.png"],"mutagen_generator_assignment":[1,0],"goal":5,"start":1,"action_noise":0.15,"location_history":"[1,2,3,9,8,7,6,11,5]","action_history":"[0,0,0,0,0,0,0,1]","mutagen_history":"[1,1,1,1,1,1,1,0]","location_rts":"[1219,2697,556,24882,389,430,419,361]","trial_type":"fractal-mutation","trial_index":67,"time_elapsed":1328391,"internal_node_id":"0.0-5.0-28.0"},{"group":"dihedral group of order 12","fractal_assignment":["../images/pnk_blu.png","../images/grn_prp.png","../images/cyn_red.png","../images/red_prp.png","../images/grn_red.png","../images/ylw_slt.png","../images/wht_red.png","../images/org_blu.png","../images/ylw_pnk.png","../images/grn_blu.png","../images/gry_blk.png","../images/blu_wht.png"],"mutagen_generator_assignment":[1,0],"goal":9,"start":5,"action_noise":0.15,"location_history":"[5,11,10,9]","action_history":"[0,0,0]","mutagen_history":"[1,1,1]","location_rts":"[1183,462,419]","trial_type":"fractal-mutation","trial_index":68,"time_elapsed":1338064,"internal_node_id":"0.0-5.0-29.0"},{"group":"dihedral group of order 12","fractal_assignment":["../images/pnk_blu.png","../images/grn_prp.png","../images/cyn_red.png","../images/red_prp.png","../images/grn_red.png","../images/ylw_slt.png","../images/wht_red.png","../images/org_blu.png","../images/ylw_pnk.png","../images/grn_blu.png","../images/gry_blk.png","../images/blu_wht.png"],"mutagen_generator_assignment":[1,0],"goal":10,"start":9,"action_noise":0.15,"location_history":"[9,8,2,8,7,6,11,10]","action_history":"[0,0,1,0,0,0,0]","mutagen_history":"[1,1,0,1,1,1,1]","location_rts":"[1795,1761,765,447,510,718,1034]","trial_type":"fractal-mutation","trial_index":69,"time_elapsed":1357964,"internal_node_id":"0.0-5.0-30.0"},{"group":"dihedral group of order 12","fractal_assignment":["../images/pnk_blu.png","../images/grn_prp.png","../images/cyn_red.png","../images/red_prp.png","../images/grn_red.png","../images/ylw_slt.png","../images/wht_red.png","../images/org_blu.png","../images/ylw_pnk.png","../images/grn_blu.png","../images/gry_blk.png","../images/blu_wht.png"],"mutagen_generator_assignment":[1,0],"goal":0,"start":10,"action_noise":0.15,"location_history":"[10,4,5,0]","action_history":"[0,0,0]","mutagen_history":"[1,1,1]","location_rts":"[1356,1134,663]","trial_type":"fractal-mutation","trial_index":70,"time_elapsed":1368751,"internal_node_id":"0.0-5.0-31.0"},{"group":"dihedral group of order 12","fractal_assignment":["../images/pnk_blu.png","../images/grn_prp.png","../images/cyn_red.png","../images/red_prp.png","../images/grn_red.png","../images/ylw_slt.png","../images/wht_red.png","../images/org_blu.png","../images/ylw_pnk.png","../images/grn_blu.png","../images/gry_blk.png","../images/blu_wht.png"],"mutagen_generator_assignment":[1,0],"goal":7,"start":0,"action_noise":0.15,"location_history":"[0,1,7]","action_history":"[0,0]","mutagen_history":"[1,1]","location_rts":"[973,2320]","trial_type":"fractal-mutation","trial_index":71,"time_elapsed":1378277,"internal_node_id":"0.0-5.0-32.0"},{"group":"dihedral group of order 12","fractal_assignment":["../images/pnk_blu.png","../images/grn_prp.png","../images/cyn_red.png","../images/red_prp.png","../images/grn_red.png","../images/ylw_slt.png","../images/wht_red.png","../images/org_blu.png","../images/ylw_pnk.png","../images/grn_blu.png","../images/gry_blk.png","../images/blu_wht.png"],"mutagen_generator_assignment":[1,0],"goal":11,"start":7,"action_noise":0.15,"location_history":"[7,6,11]","action_history":"[0,0]","mutagen_history":"[1,1]","location_rts":"[7486,448]","trial_type":"fractal-mutation","trial_index":72,"time_elapsed":1392508,"internal_node_id":"0.0-5.0-33.0"},{"group":"dihedral group of order 12","fractal_assignment":["../images/pnk_blu.png","../images/grn_prp.png","../images/cyn_red.png","../images/red_prp.png","../images/grn_red.png","../images/ylw_slt.png","../images/wht_red.png","../images/org_blu.png","../images/ylw_pnk.png","../images/grn_blu.png","../images/gry_blk.png","../images/blu_wht.png"],"mutagen_generator_assignment":[1,0],"goal":2,"start":11,"action_noise":0.15,"location_history":"[11,5,0,1,2]","action_history":"[0,0,0,0]","mutagen_history":"[1,1,1,1]","location_rts":"[1917,1355,699,872]","trial_type":"fractal-mutation","trial_index":73,"time_elapsed":1406173,"internal_node_id":"0.0-5.0-34.0"},{"view_history":"[{\"page_index\":0,\"viewing_time\":5601}]","rt":5601,"trial_type":"instructions","trial_index":74,"time_elapsed":1412775,"internal_node_id":"0.0-6.0"},{"rt":16535,"responses":"{\"Q0\":\"I don't know\"}","trial_type":"survey-text","trial_index":75,"time_elapsed":1430319,"internal_node_id":"0.0-7.0-0.0"},{"rt":5104,"responses":"{\"Q0\":\"I don't know\"}","trial_type":"survey-text","trial_index":76,"time_elapsed":1436430,"internal_node_id":"0.0-7.0-1.0"},{"rt":4592,"responses":"{\"Q0\":\"2\"}","trial_type":"survey-likert","trial_index":77,"time_elapsed":1442029,"internal_node_id":"0.0-7.0-2.0"},{"rt":32449,"responses":"{\"Q0\":\"The left or \\\"a\\\" button looped around quickly while the right or \\\"g\\\" lead you down more of a path.\"}","trial_type":"survey-text","trial_index":78,"time_elapsed":1475483,"internal_node_id":"0.0-7.0-3.0"},{"rt":3784,"responses":"{\"Q0\":\"Yes\"}","trial_type":"survey-multi-choice","trial_index":79,"time_elapsed":1480284,"internal_node_id":"0.0-7.0-4.0"},{"rt":9472,"responses":"{\"Q0\":\"During session 2\"}","trial_type":"survey-multi-choice","trial_index":80,"time_elapsed":1490769,"internal_node_id":"0.0-7.0-5.0"},{"rt":5537,"responses":"{\"Q0\":\"\"}","trial_type":"survey-text","trial_index":81,"time_elapsed":1497309,"internal_node_id":"0.0-7.0-6.0"},{"rt":10145,"responses":"{\"Q0\":\"1\"}","trial_type":"survey-likert","trial_index":82,"time_elapsed":1508457,"internal_node_id":"0.0-7.0-7.0"},{"rt":22185,"responses":"{\"Q0\":\"Same structure\"}","trial_type":"survey-multi-choice","trial_index":83,"time_elapsed":1531650,"internal_node_id":"0.0-7.0-8.0"},{"rt":45138,"responses":"{\"Q0\":\"white door = acid, black door = ray\",\"Q1\":\"Moderately confident\"}","trial_type":"survey-multi-choice","trial_index":84,"time_elapsed":1577804,"internal_node_id":"0.0-7.0-9.0"},{"rt":17685,"responses":"{\"Q0\":\"25-35\",\"Q1\":\"Associates or other two-year degree\",\"Q2\":\"Female\",\"Q3\":\"White\"}","trial_type":"survey-multi-choice","trial_index":85,"time_elapsed":1596517,"internal_node_id":"0.0-8.0"},{"rt":3795,"responses":"{\"Q0\":\"\"}","trial_type":"survey-text","trial_index":86,"time_elapsed":1601315,"internal_node_id":"0.0-9.0"}]