[{"view_history":"[{\"page_index\":0,\"viewing_time\":5110},{\"page_index\":1,\"viewing_time\":19205}]","rt":24318,"trial_type":"instructions","trial_index":0,"time_elapsed":24321,"internal_node_id":"0.0-0.0"},{"view_history":"[{\"page_index\":0,\"viewing_time\":1770},{\"page_index\":1,\"viewing_time\":3996}]","rt":5768,"trial_type":"instructions","trial_index":1,"time_elapsed":31092,"internal_node_id":"0.0-1.0"},{"group":"dihedral group of order 12","room_assignment":["grey","pink","blue","red","yellow","olive","cyan","green","purple","brown","ivory","orange"],"door_color_assignment":["white","black"],"door_generator_assignment":[0,1],"goal":7,"start":3,"action_noise":0.15,"location_history":"[3,4,5,11,10,4,10,9,8,7]","action_history":"[0,0,0,0,0,1,1,0,0]","door_history":"[0,0,0,0,0,1,1,0,0]","location_rts":"[3245,733,1180,811,482,1347,1992,2034,2067]","trial_type":"two-door-navigation","trial_index":2,"time_elapsed":57659,"internal_node_id":"0.0-2.0-0.0"},{"group":"dihedral group of order 12","room_assignment":["grey","pink","blue","red","yellow","olive","cyan","green","purple","brown","ivory","orange"],"door_color_assignment":["white","black"],"door_generator_assignment":[0,1],"goal":5,"start":7,"action_noise":0.15,"location_history":"[7,1,2,8,2,3,4,10,9,3,4,10,4,5]","action_history":"[1,0,0,1,1,1,0,0,1,1,1,1,0]","door_history":"[1,0,0,1,1,1,0,0,1,1,1,1,0]","location_rts":"[2741,1714,2147,1036,1356,1108,1750,1307,1063,697,926,1065,1425]","trial_type":"two-door-navigation","trial_index":3,"time_elapsed":92731,"internal_node_id":"0.0-2.0-1.0"},{"group":"dihedral group of order 12","room_assignment":["grey","pink","blue","red","yellow","olive","cyan","green","purple","brown","ivory","orange"],"door_color_assignment":["white","black"],"door_generator_assignment":[0,1],"goal":0,"start":5,"action_noise":0.15,"location_history":"[5,11,10,9,3,4,5,0]","action_history":"[1,0,0,0,0,0,0]","door_history":"[1,0,0,0,0,0,0]","location_rts":"[1816,885,473,633,642,442,2483]","trial_type":"two-door-navigation","trial_index":4,"time_elapsed":110735,"internal_node_id":"0.0-2.0-2.0"},{"group":"dihedral group of order 12","room_assignment":["grey","pink","blue","red","yellow","olive","cyan","green","purple","brown","ivory","orange"],"door_color_assignment":["white","black"],"door_generator_assignment":[0,1],"goal":2,"start":0,"action_noise":0.15,"location_history":"[0,1,7,1,7,6,0,1,2]","action_history":"[0,1,1,1,0,1,0,0]","door_history":"[0,1,1,1,0,1,0,0]","location_rts":"[1651,1539,3195,1370,818,1191,1080,975]","trial_type":"two-door-navigation","trial_index":5,"time_elapsed":134213,"internal_node_id":"0.0-2.0-3.0"},{"group":"dihedral group of order 12","room_assignment":["grey","pink","blue","red","yellow","olive","cyan","green","purple","brown","ivory","orange"],"door_color_assignment":["white","black"],"door_generator_assignment":[0,1],"goal":10,"start":2,"action_noise":0.15,"location_history":"[2,3,9,3,9,8,2,3,9,8,2,8,7,6,11,10]","action_history":"[0,1,1,1,0,1,1,1,0,1,1,1,1,0,0]","door_history":"[0,1,1,1,0,1,1,1,0,1,1,1,1,0,0]","location_rts":"[1137,1244,667,543,1620,948,1102,517,883,1667,930,1558,1261,1455,569]","trial_type":"two-door-navigation","trial_index":6,"time_elapsed":169083,"internal_node_id":"0.0-2.0-4.0"},{"group":"dihedral group of order 12","room_assignment":["grey","pink","blue","red","yellow","olive","cyan","green","purple","brown","ivory","orange"],"door_color_assignment":["white","black"],"door_generator_assignment":[0,1],"goal":8,"start":10,"action_noise":0.15,"location_history":"[10,4,10,4,5,11,5,11,5,11,10,9,3,9,8]","action_history":"[1,1,1,0,1,1,1,1,1,0,0,0,1,0]","door_history":"[1,1,1,0,1,1,1,1,1,0,0,0,1,0]","location_rts":"[2596,944,833,421,962,971,650,601,1363,472,1536,1178,2166,1037]","trial_type":"two-door-navigation","trial_index":7,"time_elapsed":202563,"internal_node_id":"0.0-2.0-5.0"},{"group":"dihedral group of order 12","room_assignment":["grey","pink","blue","red","yellow","olive","cyan","green","purple","brown","ivory","orange"],"door_color_assignment":["white","black"],"door_generator_assignment":[0,1],"goal":11,"start":8,"action_noise":0.15,"location_history":"[8,7,1,7,1,2,3,4,10,9,3,4,10,4,5,0,1,2,3,4,5,0,6,11]","action_history":"[1,1,0,0,0,0,0,0,1,1,0,1,1,0,0,0,0,0,0,0,0,1,0]","door_history":"[1,1,0,0,0,0,0,0,1,1,0,1,1,0,0,0,0,0,0,0,0,1,0]","location_rts":"[1600,986,655,951,451,857,748,659,1625,963,866,1747,1550,3370,749,370,1250,690,512,757,2231,1504,869]","trial_type":"two-door-navigation","trial_index":8,"time_elapsed":255421,"internal_node_id":"0.0-2.0-6.0"},{"group":"dihedral group of order 12","room_assignment":["grey","pink","blue","red","yellow","olive","cyan","green","purple","brown","ivory","orange"],"door_color_assignment":["white","black"],"door_generator_assignment":[0,1],"goal":6,"start":11,"action_noise":0.15,"location_history":"[11,10,9,3,4,10,9,8,2,3,4,5,11,5,11,5,0,1,7,6]","action_history":"[1,1,1,0,1,0,0,1,0,0,0,1,0,1,1,0,1,1,0]","door_history":"[1,1,1,0,1,0,0,1,0,0,0,1,0,1,1,0,1,1,0]","location_rts":"[1853,424,472,958,1591,612,646,2548,440,2510,877,1747,1406,926,788,771,1300,1122,1298]","trial_type":"two-door-navigation","trial_index":9,"time_elapsed":300513,"internal_node_id":"0.0-2.0-7.0"},{"group":"dihedral group of order 12","room_assignment":["grey","pink","blue","red","yellow","olive","cyan","green","purple","brown","ivory","orange"],"door_color_assignment":["white","black"],"door_generator_assignment":[0,1],"goal":4,"start":6,"action_noise":0.15,"location_history":"[6,0,1,7,1,7,1,7,6,0,6,0,6,0,1,2,3,9,8,7,1,7,1,2,3,4]","action_history":"[1,0,1,1,1,0,1,0,1,0,1,1,1,0,0,1,1,0,0,1,1,0,0,0,0]","door_history":"[1,0,1,1,1,0,1,0,1,0,1,1,1,0,0,1,1,0,0,1,1,0,0,0,0]","location_rts":"[4852,940,2955,1903,1587,356,2019,1044,1903,1713,934,533,1337,1848,758,2538,631,1114,817,1126,1549,1018,430,1501,686]","trial_type":"two-door-navigation","trial_index":10,"time_elapsed":365489,"internal_node_id":"0.0-2.0-8.0"},{"group":"dihedral group of order 12","room_assignment":["grey","pink","blue","red","yellow","olive","cyan","green","purple","brown","ivory","orange"],"door_color_assignment":["white","black"],"door_generator_assignment":[0,1],"goal":1,"start":4,"action_noise":0.15,"location_history":"[4,10,9,3,9,8,7,1]","action_history":"[1,1,1,1,0,0,1]","door_history":"[1,1,1,1,0,0,1]","location_rts":"[3006,795,742,1742,1404,4668,2084]","trial_type":"two-door-navigation","trial_index":11,"time_elapsed":390548,"internal_node_id":"0.0-2.0-9.0"},{"group":"dihedral group of order 12","room_assignment":["grey","pink","blue","red","yellow","olive","cyan","green","purple","brown","ivory","orange"],"door_color_assignment":["white","black"],"door_generator_assignment":[0,1],"goal":9,"start":1,"action_noise":0.15,"location_history":"[1,2,3,9]","action_history":"[0,0,1]","door_history":"[0,0,1]","location_rts":"[7240,1971,1825]","trial_type":"two-door-navigation","trial_index":12,"time_elapsed":408141,"internal_node_id":"0.0-2.0-10.0"},{"group":"dihedral group of order 12","room_assignment":["grey","pink","blue","red","yellow","olive","cyan","green","purple","brown","ivory","orange"],"door_color_assignment":["white","black"],"door_generator_assignment":[0,1],"goal":10,"start":9,"action_noise":0.15,"location_history":"[9,8,7,6,11,10]","action_history":"[1,0,0,0,0]","door_history":"[1,0,0,0,0]","location_rts":"[2682,953,822,2666,786]","trial_type":"two-door-navigation","trial_index":13,"time_elapsed":424625,"internal_node_id":"0.0-2.0-11.0"},{"group":"dihedral group of order 12","room_assignment":["grey","pink","blue","red","yellow","olive","cyan","green","purple","brown","ivory","orange"],"door_color_assignment":["white","black"],"door_generator_assignment":[0,1],"goal":2,"start":10,"action_noise":0.15,"location_history":"[10,4,10,4,5,0,1,7,1,2]","action_history":"[1,1,0,0,0,0,1,1,0]","door_history":"[1,1,0,0,0,0,1,1,0]","location_rts":"[2227,914,1308,528,437,813,1116,615,4059]","trial_type":"two-door-navigation","trial_index":14,"time_elapsed":449294,"internal_node_id":"0.0-2.0-12.0"},{"group":"dihedral group of order 12","room_assignment":["grey","pink","blue","red","yellow","olive","cyan","green","purple","brown","ivory","orange"],"door_color_assignment":["white","black"],"door_generator_assignment":[0,1],"goal":0,"start":2,"action_noise":0.15,"location_history":"[2,3,4,5,11,10,9,8,7,6,11,5,11,5,11,5,11,10,9,3,9,8,2,8,2,3,9,8,7,6,11,10,4,5,11,10,9,8,7,1,7,1,2,3,4,5,0]","action_history":"[0,0,0,1,0,0,0,0,0,0,1,1,1,1,0,1,0,0,1,0,0,1,1,1,0,1,0,0,0,0,1,1,0,1,0,0,0,0,1,1,1,0,1,0,0,0]","door_history":"[0,0,0,1,0,0,0,0,0,0,1,1,1,1,0,1,0,0,1,0,0,1,1,1,0,1,0,0,0,0,1,1,0,1,0,0,0,0,1,1,1,0,1,0,0,0]","location_rts":"[2092,704,579,1468,2123,1256,2099,2505,920,598,1404,1176,2649,671,792,2370,1141,396,1497,1502,705,1386,449,1046,304,918,1559,1027,751,1380,1115,584,775,1011,1097,537,709,832,989,1252,741,339,927,1370,1607,401]","trial_type":"two-door-navigation","trial_index":15,"time_elapsed":551309,"internal_node_id":"0.0-2.0-13.0"},{"group":"dihedral group of order 12","room_assignment":["grey","pink","blue","red","yellow","olive","cyan","green","purple","brown","ivory","orange"],"door_color_assignment":["white","black"],"door_generator_assignment":[0,1],"goal":9,"start":0,"action_noise":0.15,"location_history":"[0,6,0,1,7,1,7,6,11,5,11,10,9]","action_history":"[1,1,1,1,1,1,0,0,1,0,0,0]","door_history":"[1,1,1,1,1,1,0,0,1,0,0,0]","location_rts":"[1441,13368,909,1615,545,701,730,1691,2152,785,466,283]","trial_type":"two-door-navigation","trial_index":16,"time_elapsed":591703,"internal_node_id":"0.0-2.0-14.0"},{"group":"dihedral group of order 12","room_assignment":["grey","pink","blue","red","yellow","olive","cyan","green","purple","brown","ivory","orange"],"door_color_assignment":["white","black"],"door_generator_assignment":[0,1],"goal":8,"start":9,"action_noise":0.15,"location_history":"[9,8]","action_history":"[0]","door_history":"[0]","location_rts":"[1653]","trial_type":"two-door-navigation","trial_index":17,"time_elapsed":597878,"internal_node_id":"0.0-2.0-15.0"},{"group":"dihedral group of order 12","room_assignment":["grey","pink","blue","red","yellow","olive","cyan","green","purple","brown","ivory","orange"],"door_color_assignment":["white","black"],"door_generator_assignment":[0,1],"goal":6,"start":8,"action_noise":0.15,"location_history":"[8,7,1,2,8,2,3,4,10,9,8,7,6]","action_history":"[0,1,1,1,1,0,0,1,1,0,0,0]","door_history":"[0,1,1,1,1,0,0,1,1,0,0,0]","location_rts":"[1579,1051,1492,2806,1262,856,1270,1192,1382,877,722,522]","trial_type":"two-door-navigation","trial_index":18,"time_elapsed":628593,"internal_node_id":"0.0-2.0-16.0"},{"group":"dihedral group of order 12","room_assignment":["grey","pink","blue","red","yellow","olive","cyan","green","purple","brown","ivory","orange"],"door_color_assignment":["white","black"],"door_generator_assignment":[0,1],"goal":1,"start":6,"action_noise":0.15,"location_history":"[6,0,6,0,6,0,6,11,5,0,1]","action_history":"[1,1,1,1,1,1,0,1,0,0]","door_history":"[1,1,1,1,1,1,0,1,0,0]","location_rts":"[2237,692,633,405,624,523,1320,1114,1714,699]","trial_type":"two-door-navigation","trial_index":19,"time_elapsed":652217,"internal_node_id":"0.0-2.0-17.0"},{"group":"dihedral group of order 12","room_assignment":["grey","pink","blue","red","yellow","olive","cyan","green","purple","brown","ivory","orange"],"door_color_assignment":["white","black"],"door_generator_assignment":[0,1],"goal":4,"start":1,"action_noise":0.15,"location_history":"[1,7,1,7,6,0,1,2,8,7,6,11,5,11,5,11,10,9,8,2,8,7,1,2,3,4]","action_history":"[1,1,1,1,1,1,0,1,1,1,0,1,1,1,1,0,0,0,1,1,0,1,0,0,0]","door_history":"[1,1,1,1,1,1,0,1,1,1,0,1,1,1,1,0,0,0,1,1,0,1,0,0,0]","location_rts":"[5626,799,605,1283,809,499,1248,1219,1162,787,886,1147,452,477,611,708,1332,763,1414,851,1217,1235,754,865,601]","trial_type":"two-door-navigation","trial_index":20,"time_elapsed":708457,"internal_node_id":"0.0-2.0-18.0"},{"group":"dihedral group of order 12","room_assignment":["grey","pink","blue","red","yellow","olive","cyan","green","purple","brown","ivory","orange"],"door_color_assignment":["white","black"],"door_generator_assignment":[0,1],"goal":11,"start":4,"action_noise":0.15,"location_history":"[4,10,9,8,7,1,7,6,0,1,2,8,7,1,2,3,4,5,0,6,11]","action_history":"[1,0,0,0,1,1,1,1,1,0,1,1,1,0,0,0,0,0,0,0]","door_history":"[1,0,0,0,1,1,1,1,1,0,1,1,1,0,0,0,0,0,0,0]","location_rts":"[2059,788,899,754,835,782,665,1092,617,973,1690,822,1112,867,406,384,2076,562,699,401]","trial_type":"two-door-navigation","trial_index":21,"time_elapsed":750783,"internal_node_id":"0.0-2.0-19.0"},{"group":"dihedral group of order 12","room_assignment":["grey","pink","blue","red","yellow","olive","cyan","green","purple","brown","ivory","orange"],"door_color_assignment":["white","black"],"door_generator_assignment":[0,1],"goal":3,"start":11,"action_noise":0.15,"location_history":"[11,5,11,5,11,10,9,8,7,1,7,6,11,5,11,10,9,3]","action_history":"[1,1,1,1,0,0,0,1,1,1,0,0,0,1,1,1,1]","door_history":"[1,1,1,1,0,0,0,1,1,1,0,0,0,1,1,1,1]","location_rts":"[11681,548,835,779,1436,691,3131,1242,894,671,780,1105,1171,612,281,319,370]","trial_type":"two-door-navigation","trial_index":22,"time_elapsed":798133,"internal_node_id":"0.0-2.0-20.0"},{"group":"dihedral group of order 12","room_assignment":["grey","pink","blue","red","yellow","olive","cyan","green","purple","brown","ivory","orange"],"door_color_assignment":["white","black"],"door_generator_assignment":[0,1],"goal":5,"start":3,"action_noise":0.15,"location_history":"[3,9,3,9,8,7,6,0,6,11,10,4,5]","action_history":"[1,1,1,0,0,0,0,1,0,0,0,0]","door_history":"[1,1,1,0,0,0,0,1,0,0,0,0]","location_rts":"[1623,863,389,1237,1112,1997,1253,1150,723,406,994,1009]","trial_type":"two-door-navigation","trial_index":23,"time_elapsed":826579,"internal_node_id":"0.0-2.0-21.0"},{"group":"dihedral group of order 12","room_assignment":["grey","pink","blue","red","yellow","olive","cyan","green","purple","brown","ivory","orange"],"door_color_assignment":["white","black"],"door_generator_assignment":[0,1],"goal":7,"start":5,"action_noise":0.15,"location_history":"[5,11,5,11,10,4,10,4,10,9,8,2,3,9,3,4,10,9,8,2,8,2,3,9,3,9,3,4,10,4,10,4,5,11,10,4,10,4,10,4,5,11,10,9,3,4,5,11,10,4,10,4,10,4,10,9,8,2,8,7]","action_history":"[1,1,1,0,1,1,1,0,0,0,1,1,1,1,0,1,0,0,0,1,1,0,0,1,1,1,0,1,1,1,1,0,0,0,1,1,1,1,1,0,0,0,0,1,0,0,1,1,1,1,1,1,1,0,0,0,0,1,1]","door_history":"[1,1,1,0,1,1,1,0,0,0,1,1,1,1,0,1,0,0,0,1,1,0,0,1,1,1,0,1,1,1,1,0,0,0,1,1,1,1,1,0,0,0,0,1,0,0,1,1,1,1,1,1,1,0,0,0,0,1,1]","location_rts":"[1993,518,419,600,1028,808,1832,609,1032,940,1826,2775,607,561,745,2469,920,520,1820,2452,497,993,1390,1119,1758,2228,1872,1124,717,954,514,828,918,744,1637,471,414,365,428,378,599,1122,1351,1185,3083,718,1042,465,685,489,295,298,310,805,368,664,783,2740,589]","trial_type":"two-door-navigation","trial_index":24,"time_elapsed":951479,"internal_node_id":"0.0-2.0-22.0"},{"group":"dihedral group of order 12","room_assignment":["grey","pink","blue","red","yellow","olive","cyan","green","purple","brown","ivory","orange"],"door_color_assignment":["white","black"],"door_generator_assignment":[0,1],"goal":3,"start":7,"action_noise":0.15,"location_history":"[7,1,7,1,2,3]","action_history":"[1,1,1,1,1]","door_history":"[1,1,1,1,1]","location_rts":"[2075,505,282,386,299]","trial_type":"two-door-navigation","trial_index":25,"time_elapsed":963614,"internal_node_id":"0.0-2.0-23.0"},{"group":"dihedral group of order 12","room_assignment":["grey","pink","blue","red","yellow","olive","cyan","green","purple","brown","ivory","orange"],"door_color_assignment":["white","black"],"door_generator_assignment":[0,1],"goal":4,"start":3,"action_noise":0.15,"location_history":"[3,9,8,2,8,7,6,0,6,11,5,11,10,4]","action_history":"[1,0,0,0,0,0,1,0,0,1,1,1,1]","door_history":"[1,0,0,0,0,0,1,0,0,1,1,1,1]","location_rts":"[1096,1503,461,1039,1269,1373,1769,941,528,529,408,461,541]","trial_type":"two-door-navigation","trial_index":26,"time_elapsed":992257,"internal_node_id":"0.0-2.0-24.0"},{"group":"dihedral group of order 12","room_assignment":["grey","pink","blue","red","yellow","olive","cyan","green","purple","brown","ivory","orange"],"door_color_assignment":["white","black"],"door_generator_assignment":[0,1],"goal":8,"start":4,"action_noise":0.15,"location_history":"[4,10,4,10,9,8]","action_history":"[1,1,0,0,0]","door_history":"[1,1,0,0,0]","location_rts":"[1971,541,1329,1297,747]","trial_type":"two-door-navigation","trial_index":27,"time_elapsed":1006724,"internal_node_id":"0.0-2.0-25.0"},{"group":"dihedral group of order 12","room_assignment":["grey","pink","blue","red","yellow","olive","cyan","green","purple","brown","ivory","orange"],"door_color_assignment":["white","black"],"door_generator_assignment":[0,1],"goal":6,"start":8,"action_noise":0.15,"location_history":"[8,2,8,7,1,2,8,7,6]","action_history":"[1,1,1,1,0,0,0,0]","door_history":"[1,1,1,1,0,0,0,0]","location_rts":"[1641,1083,942,1894,1201,646,691,843]","trial_type":"two-door-navigation","trial_index":28,"time_elapsed":1027297,"internal_node_id":"0.0-2.0-26.0"},{"group":"dihedral group of order 12","room_assignment":["grey","pink","blue","red","yellow","olive","cyan","green","purple","brown","ivory","orange"],"door_color_assignment":["white","black"],"door_generator_assignment":[0,1],"goal":1,"start":6,"action_noise":0.15,"location_history":"[6,0,6,0,1]","action_history":"[1,1,0,0]","door_history":"[1,1,0,0]","location_rts":"[1693,512,815,879]","trial_type":"two-door-navigation","trial_index":29,"time_elapsed":1038770,"internal_node_id":"0.0-2.0-27.0"},{"group":"dihedral group of order 12","room_assignment":["grey","pink","blue","red","yellow","olive","cyan","green","purple","brown","ivory","orange"],"door_color_assignment":["white","black"],"door_generator_assignment":[0,1],"goal":5,"start":1,"action_noise":0.15,"location_history":"[1,2,3,4,5]","action_history":"[0,0,0,0]","door_history":"[0,0,0,0]","location_rts":"[1411,430,342,361]","trial_type":"two-door-navigation","trial_index":30,"time_elapsed":1048881,"internal_node_id":"0.0-2.0-28.0"},{"group":"dihedral group of order 12","room_assignment":["grey","pink","blue","red","yellow","olive","cyan","green","purple","brown","ivory","orange"],"door_color_assignment":["white","black"],"door_generator_assignment":[0,1],"goal":9,"start":5,"action_noise":0.15,"location_history":"[5,0,1,7,1,7,1,2,3,9]","action_history":"[0,0,0,1,1,0,0,1,1]","door_history":"[0,0,0,1,1,0,0,1,1]","location_rts":"[1195,409,416,1917,1549,1223,503,2240,1784]","trial_type":"two-door-navigation","trial_index":31,"time_elapsed":1072776,"internal_node_id":"0.0-2.0-29.0"},{"group":"dihedral group of order 12","room_assignment":["grey","pink","blue","red","yellow","olive","cyan","green","purple","brown","ivory","orange"],"door_color_assignment":["white","black"],"door_generator_assignment":[0,1],"goal":10,"start":9,"action_noise":0.15,"location_history":"[9,8,2,3,4,5,0,1,7,1,2,3,4,10]","action_history":"[0,0,0,0,0,0,0,0,0,0,0,0,1]","door_history":"[0,0,0,0,0,0,0,0,0,0,0,0,1]","location_rts":"[1520,470,660,868,1113,793,839,898,611,889,580,1371,1834]","trial_type":"two-door-navigation","trial_index":32,"time_elapsed":1101987,"internal_node_id":"0.0-2.0-30.0"},{"group":"dihedral group of order 12","room_assignment":["grey","pink","blue","red","yellow","olive","cyan","green","purple","brown","ivory","orange"],"door_color_assignment":["white","black"],"door_generator_assignment":[0,1],"goal":0,"start":10,"action_noise":0.15,"location_history":"[10,4,10,9,8,7,6,11,10,9,8,7,6,11,5,0]","action_history":"[1,1,0,0,0,0,0,0,0,0,0,0,0,1,1]","door_history":"[1,1,0,0,0,0,0,0,0,0,0,0,0,1,1]","location_rts":"[3099,587,1285,493,2695,486,474,673,267,1154,494,636,576,762,1318]","trial_type":"two-door-navigation","trial_index":33,"time_elapsed":1135720,"internal_node_id":"0.0-2.0-31.0"},{"group":"dihedral group of order 12","room_assignment":["grey","pink","blue","red","yellow","olive","cyan","green","purple","brown","ivory","orange"],"door_color_assignment":["white","black"],"door_generator_assignment":[0,1],"goal":7,"start":0,"action_noise":0.15,"location_history":"[0,6,0,6,0,1,2,8,2,3,9,8,7]","action_history":"[1,1,1,1,0,0,1,1,1,1,0,0]","door_history":"[1,1,1,1,0,0,1,1,1,1,0,0]","location_rts":"[1293,497,466,360,772,335,1002,392,619,517,980,576]","trial_type":"two-door-navigation","trial_index":34,"time_elapsed":1159232,"internal_node_id":"0.0-2.0-32.0"},{"group":"dihedral group of order 12","room_assignment":["grey","pink","blue","red","yellow","olive","cyan","green","purple","brown","ivory","orange"],"door_color_assignment":["white","black"],"door_generator_assignment":[0,1],"goal":11,"start":7,"action_noise":0.15,"location_history":"[7,6,11]","action_history":"[0,0]","door_history":"[0,0]","location_rts":"[2283,691]","trial_type":"two-door-navigation","trial_index":35,"time_elapsed":1167738,"internal_node_id":"0.0-2.0-33.0"},{"group":"dihedral group of order 12","room_assignment":["grey","pink","blue","red","yellow","olive","cyan","green","purple","brown","ivory","orange"],"door_color_assignment":["white","black"],"door_generator_assignment":[0,1],"goal":2,"start":11,"action_noise":0.15,"location_history":"[11,10,9,8,2]","action_history":"[0,0,0,1]","door_history":"[0,0,0,1]","location_rts":"[990,1536,1084,1637]","trial_type":"two-door-navigation","trial_index":36,"time_elapsed":1180560,"internal_node_id":"0.0-2.0-34.0"},{"view_history":"[{\"page_index\":0,\"viewing_time\":43777}]","rt":43779,"trial_type":"instructions","trial_index":37,"time_elapsed":1225340,"internal_node_id":"0.0-3.0"},{"view_history":"[{\"page_index\":0,\"viewing_time\":2442},{\"page_index\":1,\"viewing_time\":2506}]","rt":4949,"trial_type":"instructions","trial_index":38,"time_elapsed":1231289,"internal_node_id":"0.0-4.0"},{"group":"dihedral group of order 12","fractal_assignment":["../images/cyn_red.png","../images/grn_prp.png","../images/org_blu.png","../images/grn_blu.png","../images/pnk_blu.png","../images/ylw_pnk.png","../images/grn_red.png","../images/red_prp.png","../images/gry_blk.png","../images/wht_red.png","../images/ylw_slt.png","../images/blu_wht.png"],"mutagen_generator_assignment":[0,1],"goal":7,"start":3,"action_noise":0.15,"location_history":"[3,9,3,4,5,0,1,2,3,4,5,0,6,11,5,0,1,7]","action_history":"[1,1,0,0,0,0,0,0,1,0,0,1,0,0,0,0,1]","mutagen_history":"[1,1,0,0,0,0,0,0,1,0,0,1,0,0,0,0,1]","location_rts":"[2926,1375,949,555,432,425,448,855,2446,730,514,562,516,474,426,926,325]","trial_type":"fractal-mutation","trial_index":39,"time_elapsed":1267339,"internal_node_id":"0.0-5.0-0.0"},{"group":"dihedral group of order 12","fractal_assignment":["../images/cyn_red.png","../images/grn_prp.png","../images/org_blu.png","../images/grn_blu.png","../images/pnk_blu.png","../images/ylw_pnk.png","../images/grn_red.png","../images/red_prp.png","../images/gry_blk.png","../images/wht_red.png","../images/ylw_slt.png","../images/blu_wht.png"],"mutagen_generator_assignment":[0,1],"goal":5,"start":7,"action_noise":0.15,"location_history":"[7,1,2,3,4,5]","action_history":"[1,0,0,0,0]","mutagen_history":"[1,0,0,0,0]","location_rts":"[3573,475,279,360,398]","trial_type":"fractal-mutation","trial_index":40,"time_elapsed":1281096,"internal_node_id":"0.0-5.0-1.0"},{"group":"dihedral group of order 12","fractal_assignment":["../images/cyn_red.png","../images/grn_prp.png","../images/org_blu.png","../images/grn_blu.png","../images/pnk_blu.png","../images/ylw_pnk.png","../images/grn_red.png","../images/red_prp.png","../images/gry_blk.png","../images/wht_red.png","../images/ylw_slt.png","../images/blu_wht.png"],"mutagen_generator_assignment":[0,1],"goal":0,"start":5,"action_noise":0.15,"location_history":"[5,0]","action_history":"[0]","mutagen_history":"[0]","location_rts":"[1412]","trial_type":"fractal-mutation","trial_index":41,"time_elapsed":1287042,"internal_node_id":"0.0-5.0-2.0"},{"group":"dihedral group of order 12","fractal_assignment":["../images/cyn_red.png","../images/grn_prp.png","../images/org_blu.png","../images/grn_blu.png","../images/pnk_blu.png","../images/ylw_pnk.png","../images/grn_red.png","../images/red_prp.png","../images/gry_blk.png","../images/wht_red.png","../images/ylw_slt.png","../images/blu_wht.png"],"mutagen_generator_assignment":[0,1],"goal":2,"start":0,"action_noise":0.15,"location_history":"[0,1,2]","action_history":"[0,0]","mutagen_history":"[0,0]","location_rts":"[1295,279]","trial_type":"fractal-mutation","trial_index":42,"time_elapsed":1294183,"internal_node_id":"0.0-5.0-3.0"},{"group":"dihedral group of order 12","fractal_assignment":["../images/cyn_red.png","../images/grn_prp.png","../images/org_blu.png","../images/grn_blu.png","../images/pnk_blu.png","../images/ylw_pnk.png","../images/grn_red.png","../images/red_prp.png","../images/gry_blk.png","../images/wht_red.png","../images/ylw_slt.png","../images/blu_wht.png"],"mutagen_generator_assignment":[0,1],"goal":10,"start":2,"action_noise":0.15,"location_history":"[2,8,7,6,0,1,7,6,11,5,0,1,7,6,11,10]","action_history":"[1,0,0,0,0,1,0,0,1,0,0,1,0,0,0]","mutagen_history":"[1,0,0,0,0,1,0,0,1,0,0,1,0,0,0]","location_rts":"[3322,558,1054,379,307,3285,508,453,2020,1574,975,466,352,387,846]","trial_type":"fractal-mutation","trial_index":43,"time_elapsed":1329692,"internal_node_id":"0.0-5.0-4.0"},{"group":"dihedral group of order 12","fractal_assignment":["../images/cyn_red.png","../images/grn_prp.png","../images/org_blu.png","../images/grn_blu.png","../images/pnk_blu.png","../images/ylw_pnk.png","../images/grn_red.png","../images/red_prp.png","../images/gry_blk.png","../images/wht_red.png","../images/ylw_slt.png","../images/blu_wht.png"],"mutagen_generator_assignment":[0,1],"goal":8,"start":10,"action_noise":0.15,"location_history":"[10,9,8]","action_history":"[0,0]","mutagen_history":"[0,0]","location_rts":"[2093,1219]","trial_type":"fractal-mutation","trial_index":44,"time_elapsed":1338575,"internal_node_id":"0.0-5.0-5.0"},{"group":"dihedral group of order 12","fractal_assignment":["../images/cyn_red.png","../images/grn_prp.png","../images/org_blu.png","../images/grn_blu.png","../images/pnk_blu.png","../images/ylw_pnk.png","../images/grn_red.png","../images/red_prp.png","../images/gry_blk.png","../images/wht_red.png","../images/ylw_slt.png","../images/blu_wht.png"],"mutagen_generator_assignment":[0,1],"goal":11,"start":8,"action_noise":0.15,"location_history":"[8,2,3,4,10,9,3,4,5,0,1,2,3,4,10,9,8,7,1,7,6,0,6,0,6,0,1,7,1,2,8,2,8,7,6,0,1,2,8,7,6,11]","action_history":"[1,0,0,1,0,1,0,0,0,0,0,0,0,1,0,0,0,1,0,1,1,1,1,1,1,0,1,1,1,1,1,1,0,0,1,1,1,0,0,0,0]","mutagen_history":"[1,0,0,1,0,1,0,0,0,0,0,0,0,1,0,0,0,1,0,1,1,1,1,1,1,0,1,1,1,1,1,1,0,0,1,1,1,0,0,0,0]","location_rts":"[6427,1160,389,789,939,1635,719,737,385,469,332,433,392,456,364,586,1583,970,833,721,406,879,792,347,378,370,328,453,449,723,1080,477,761,1722,471,1261,2822,1674,1094,700,1110]","trial_type":"fractal-mutation","trial_index":45,"time_elapsed":1423149,"internal_node_id":"0.0-5.0-6.0"},{"group":"dihedral group of order 12","fractal_assignment":["../images/cyn_red.png","../images/grn_prp.png","../images/org_blu.png","../images/grn_blu.png","../images/pnk_blu.png","../images/ylw_pnk.png","../images/grn_red.png","../images/red_prp.png","../images/gry_blk.png","../images/wht_red.png","../images/ylw_slt.png","../images/blu_wht.png"],"mutagen_generator_assignment":[0,1],"goal":6,"start":11,"action_noise":0.15,"location_history":"[11,5,11,10,9,8,2,8,2,3,4,10,9,3,9,3,4,5,0,6]","action_history":"[1,0,0,0,0,0,0,1,0,0,1,1,1,1,1,0,0,0,0]","mutagen_history":"[1,0,0,0,0,0,0,1,0,0,1,1,1,1,1,0,0,0,0]","location_rts":"[1842,541,669,673,451,332,527,1022,400,1199,608,1174,428,8042,691,1809,1115,1620,427]","trial_type":"fractal-mutation","trial_index":46,"time_elapsed":1469860,"internal_node_id":"0.0-5.0-7.0"},{"group":"dihedral group of order 12","fractal_assignment":["../images/cyn_red.png","../images/grn_prp.png","../images/org_blu.png","../images/grn_blu.png","../images/pnk_blu.png","../images/ylw_pnk.png","../images/grn_red.png","../images/red_prp.png","../images/gry_blk.png","../images/wht_red.png","../images/ylw_slt.png","../images/blu_wht.png"],"mutagen_generator_assignment":[0,1],"goal":4,"start":6,"action_noise":0.15,"location_history":"[6,0,1,7,1,2,3,4]","action_history":"[1,0,0,0,0,0,0]","mutagen_history":"[1,0,0,0,0,0,0]","location_rts":"[2176,353,367,489,525,453,500]","trial_type":"fractal-mutation","trial_index":47,"time_elapsed":1485451,"internal_node_id":"0.0-5.0-8.0"},{"group":"dihedral group of order 12","fractal_assignment":["../images/cyn_red.png","../images/grn_prp.png","../images/org_blu.png","../images/grn_blu.png","../images/pnk_blu.png","../images/ylw_pnk.png","../images/grn_red.png","../images/red_prp.png","../images/gry_blk.png","../images/wht_red.png","../images/ylw_slt.png","../images/blu_wht.png"],"mutagen_generator_assignment":[0,1],"goal":1,"start":4,"action_noise":0.15,"location_history":"[4,5,0,1]","action_history":"[0,0,0]","mutagen_history":"[0,0,0]","location_rts":"[2176,1401,518]","trial_type":"fractal-mutation","trial_index":48,"time_elapsed":1496145,"internal_node_id":"0.0-5.0-9.0"},{"group":"dihedral group of order 12","fractal_assignment":["../images/cyn_red.png","../images/grn_prp.png","../images/org_blu.png","../images/grn_blu.png","../images/pnk_blu.png","../images/ylw_pnk.png","../images/grn_red.png","../images/red_prp.png","../images/gry_blk.png","../images/wht_red.png","../images/ylw_slt.png","../images/blu_wht.png"],"mutagen_generator_assignment":[0,1],"goal":9,"start":1,"action_noise":0.15,"location_history":"[1,7,1,7,1,2,8,2,3,9]","action_history":"[0,1,1,0,0,1,1,1,1]","mutagen_history":"[0,1,1,0,0,1,1,1,1]","location_rts":"[1697,1636,576,732,1286,552,682,1050,531]","trial_type":"fractal-mutation","trial_index":49,"time_elapsed":1517701,"internal_node_id":"0.0-5.0-10.0"},{"group":"dihedral group of order 12","fractal_assignment":["../images/cyn_red.png","../images/grn_prp.png","../images/org_blu.png","../images/grn_blu.png","../images/pnk_blu.png","../images/ylw_pnk.png","../images/grn_red.png","../images/red_prp.png","../images/gry_blk.png","../images/wht_red.png","../images/ylw_slt.png","../images/blu_wht.png"],"mutagen_generator_assignment":[0,1],"goal":10,"start":9,"action_noise":0.15,"location_history":"[9,8,2,3,4,5,0,1,7,6,11,10]","action_history":"[0,1,0,0,0,0,0,1,0,0,0]","mutagen_history":"[0,1,0,0,0,0,0,1,0,0,0]","location_rts":"[2581,1696,1151,491,522,425,812,549,489,1283,833]","trial_type":"fractal-mutation","trial_index":50,"time_elapsed":1543400,"internal_node_id":"0.0-5.0-11.0"},{"group":"dihedral group of order 12","fractal_assignment":["../images/cyn_red.png","../images/grn_prp.png","../images/org_blu.png","../images/grn_blu.png","../images/pnk_blu.png","../images/ylw_pnk.png","../images/grn_red.png","../images/red_prp.png","../images/gry_blk.png","../images/wht_red.png","../images/ylw_slt.png","../images/blu_wht.png"],"mutagen_generator_assignment":[0,1],"goal":2,"start":10,"action_noise":0.15,"location_history":"[10,9,3,4,5,0,1,2]","action_history":"[0,1,0,0,0,0,0]","mutagen_history":"[0,1,0,0,0,0,0]","location_rts":"[1658,993,2214,286,329,664,377]","trial_type":"fractal-mutation","trial_index":51,"time_elapsed":1560657,"internal_node_id":"0.0-5.0-12.0"},{"group":"dihedral group of order 12","fractal_assignment":["../images/cyn_red.png","../images/grn_prp.png","../images/org_blu.png","../images/grn_blu.png","../images/pnk_blu.png","../images/ylw_pnk.png","../images/grn_red.png","../images/red_prp.png","../images/gry_blk.png","../images/wht_red.png","../images/ylw_slt.png","../images/blu_wht.png"],"mutagen_generator_assignment":[0,1],"goal":0,"start":2,"action_noise":0.15,"location_history":"[2,3,4,5,11,10,4,5,0]","action_history":"[0,0,0,0,0,0,0,0]","mutagen_history":"[0,0,0,0,0,0,0,0]","location_rts":"[1065,423,449,366,549,386,366,358]","trial_type":"fractal-mutation","trial_index":52,"time_elapsed":1576365,"internal_node_id":"0.0-5.0-13.0"},{"group":"dihedral group of order 12","fractal_assignment":["../images/cyn_red.png","../images/grn_prp.png","../images/org_blu.png","../images/grn_blu.png","../images/pnk_blu.png","../images/ylw_pnk.png","../images/grn_red.png","../images/red_prp.png","../images/gry_blk.png","../images/wht_red.png","../images/ylw_slt.png","../images/blu_wht.png"],"mutagen_generator_assignment":[0,1],"goal":9,"start":0,"action_noise":0.15,"location_history":"[0,1,2,8,2,8,7,1,7,6,0,1,7,1,2,3,4,10,4,10,9]","action_history":"[0,0,1,1,1,0,1,1,1,1,1,1,1,0,1,1,1,1,1,0]","mutagen_history":"[0,0,1,1,1,0,1,1,1,1,1,1,1,0,1,1,1,1,1,0]","location_rts":"[1958,955,1109,1036,1571,793,564,951,903,528,521,392,839,330,328,521,383,570,380,611]","trial_type":"fractal-mutation","trial_index":53,"time_elapsed":1615839,"internal_node_id":"0.0-5.0-14.0"},{"group":"dihedral group of order 12","fractal_assignment":["../images/cyn_red.png","../images/grn_prp.png","../images/org_blu.png","../images/grn_blu.png","../images/pnk_blu.png","../images/ylw_pnk.png","../images/grn_red.png","../images/red_prp.png","../images/gry_blk.png","../images/wht_red.png","../images/ylw_slt.png","../images/blu_wht.png"],"mutagen_generator_assignment":[0,1],"goal":8,"start":9,"action_noise":0.15,"location_history":"[9,8]","action_history":"[0]","mutagen_history":"[0]","location_rts":"[6388]","trial_type":"fractal-mutation","trial_index":54,"time_elapsed":1626760,"internal_node_id":"0.0-5.0-15.0"},{"group":"dihedral group of order 12","fractal_assignment":["../images/cyn_red.png","../images/grn_prp.png","../images/org_blu.png","../images/grn_blu.png","../images/pnk_blu.png","../images/ylw_pnk.png","../images/grn_red.png","../images/red_prp.png","../images/gry_blk.png","../images/wht_red.png","../images/ylw_slt.png","../images/blu_wht.png"],"mutagen_generator_assignment":[0,1],"goal":6,"start":8,"action_noise":0.15,"location_history":"[8,2,3,4,10,9,8,7,6]","action_history":"[1,0,0,1,0,0,0,0]","mutagen_history":"[1,0,0,1,0,0,0,0]","location_rts":"[7037,3265,728,615,405,297,239,323]","trial_type":"fractal-mutation","trial_index":55,"time_elapsed":1651429,"internal_node_id":"0.0-5.0-16.0"},{"group":"dihedral group of order 12","fractal_assignment":["../images/cyn_red.png","../images/grn_prp.png","../images/org_blu.png","../images/grn_blu.png","../images/pnk_blu.png","../images/ylw_pnk.png","../images/grn_red.png","../images/red_prp.png","../images/gry_blk.png","../images/wht_red.png","../images/ylw_slt.png","../images/blu_wht.png"],"mutagen_generator_assignment":[0,1],"goal":1,"start":6,"action_noise":0.15,"location_history":"[6,11,10,9,3,4,5,0,6,11,10,9,8,7,1]","action_history":"[0,0,0,0,0,0,0,1,0,0,0,0,0,1]","mutagen_history":"[0,0,0,0,0,0,0,1,0,0,0,0,0,1]","location_rts":"[1805,354,511,348,481,1032,642,2254,2606,427,366,309,978,1856]","trial_type":"fractal-mutation","trial_index":56,"time_elapsed":1683340,"internal_node_id":"0.0-5.0-17.0"},{"group":"dihedral group of order 12","fractal_assignment":["../images/cyn_red.png","../images/grn_prp.png","../images/org_blu.png","../images/grn_blu.png","../images/pnk_blu.png","../images/ylw_pnk.png","../images/grn_red.png","../images/red_prp.png","../images/gry_blk.png","../images/wht_red.png","../images/ylw_slt.png","../images/blu_wht.png"],"mutagen_generator_assignment":[0,1],"goal":4,"start":1,"action_noise":0.15,"location_history":"[1,2,3,9,8,7,1,2,3,4]","action_history":"[0,0,0,0,0,1,0,0,0]","mutagen_history":"[0,0,0,0,0,1,0,0,0]","location_rts":"[1919,308,445,634,1068,476,385,369,1113]","trial_type":"fractal-mutation","trial_index":57,"time_elapsed":1702844,"internal_node_id":"0.0-5.0-18.0"},{"group":"dihedral group of order 12","fractal_assignment":["../images/cyn_red.png","../images/grn_prp.png","../images/org_blu.png","../images/grn_blu.png","../images/pnk_blu.png","../images/ylw_pnk.png","../images/grn_red.png","../images/red_prp.png","../images/gry_blk.png","../images/wht_red.png","../images/ylw_slt.png","../images/blu_wht.png"],"mutagen_generator_assignment":[0,1],"goal":11,"start":4,"action_noise":0.15,"location_history":"[4,10,9,3,4,5,0,1,7,1,7,1,2,8,2,8,2,3,9,3,4,10,9,3,9,8,2,8,2,3,4,10,4,10,4,5,11]","action_history":"[1,0,1,0,0,0,0,0,0,1,1,0,1,1,1,1,0,1,1,1,1,1,1,1,0,1,1,0,0,1,1,1,1,1,0,1]","mutagen_history":"[1,0,1,0,0,0,0,0,0,1,1,0,1,1,1,1,0,1,1,1,1,1,1,1,0,1,1,0,0,1,1,1,1,1,0,1]","location_rts":"[2465,978,1476,1011,735,640,681,990,499,555,604,521,414,646,319,334,608,295,531,421,873,610,1046,2242,450,474,480,1244,717,464,936,1028,1092,503,335,534]","trial_type":"fractal-mutation","trial_index":58,"time_elapsed":1771451,"internal_node_id":"0.0-5.0-19.0"},{"group":"dihedral group of order 12","fractal_assignment":["../images/cyn_red.png","../images/grn_prp.png","../images/org_blu.png","../images/grn_blu.png","../images/pnk_blu.png","../images/ylw_pnk.png","../images/grn_red.png","../images/red_prp.png","../images/gry_blk.png","../images/wht_red.png","../images/ylw_slt.png","../images/blu_wht.png"],"mutagen_generator_assignment":[0,1],"goal":3,"start":11,"action_noise":0.15,"location_history":"[11,10,9,8,7,6,11,5,0,1,2,3]","action_history":"[0,0,0,0,0,0,1,0,0,0,0]","mutagen_history":"[0,0,0,0,0,0,1,0,0,0,0]","location_rts":"[1634,482,502,552,471,830,1264,529,295,502,366]","trial_type":"fractal-mutation","trial_index":59,"time_elapsed":1793752,"internal_node_id":"0.0-5.0-20.0"},{"group":"dihedral group of order 12","fractal_assignment":["../images/cyn_red.png","../images/grn_prp.png","../images/org_blu.png","../images/grn_blu.png","../images/pnk_blu.png","../images/ylw_pnk.png","../images/grn_red.png","../images/red_prp.png","../images/gry_blk.png","../images/wht_red.png","../images/ylw_slt.png","../images/blu_wht.png"],"mutagen_generator_assignment":[0,1],"goal":5,"start":3,"action_noise":0.15,"location_history":"[3,4,5]","action_history":"[0,0]","mutagen_history":"[0,0]","location_rts":"[979,265]","trial_type":"fractal-mutation","trial_index":60,"time_elapsed":1800565,"internal_node_id":"0.0-5.0-21.0"},{"group":"dihedral group of order 12","fractal_assignment":["../images/cyn_red.png","../images/grn_prp.png","../images/org_blu.png","../images/grn_blu.png","../images/pnk_blu.png","../images/ylw_pnk.png","../images/grn_red.png","../images/red_prp.png","../images/gry_blk.png","../images/wht_red.png","../images/ylw_slt.png","../images/blu_wht.png"],"mutagen_generator_assignment":[0,1],"goal":7,"start":5,"action_noise":0.15,"location_history":"[5,0,1,2,8,7]","action_history":"[0,0,0,0,0]","mutagen_history":"[0,0,0,0,0]","location_rts":"[2190,717,1233,1450,577]","trial_type":"fractal-mutation","trial_index":61,"time_elapsed":1815375,"internal_node_id":"0.0-5.0-22.0"},{"group":"dihedral group of order 12","fractal_assignment":["../images/cyn_red.png","../images/grn_prp.png","../images/org_blu.png","../images/grn_blu.png","../images/pnk_blu.png","../images/ylw_pnk.png","../images/grn_red.png","../images/red_prp.png","../images/gry_blk.png","../images/wht_red.png","../images/ylw_slt.png","../images/blu_wht.png"],"mutagen_generator_assignment":[0,1],"goal":3,"start":7,"action_noise":0.15,"location_history":"[7,6,11,5,0,1,2,3]","action_history":"[0,0,0,0,0,0,0]","mutagen_history":"[0,0,0,0,0,0,0]","location_rts":"[1203,358,400,373,390,493,417]","trial_type":"fractal-mutation","trial_index":62,"time_elapsed":1829726,"internal_node_id":"0.0-5.0-23.0"},{"group":"dihedral group of order 12","fractal_assignment":["../images/cyn_red.png","../images/grn_prp.png","../images/org_blu.png","../images/grn_blu.png","../images/pnk_blu.png","../images/ylw_pnk.png","../images/grn_red.png","../images/red_prp.png","../images/gry_blk.png","../images/wht_red.png","../images/ylw_slt.png","../images/blu_wht.png"],"mutagen_generator_assignment":[0,1],"goal":4,"start":3,"action_noise":0.15,"location_history":"[3,9,8,7,6,11,10,9,8,7,6,11,5,0,1,2,3,4]","action_history":"[1,0,0,0,0,0,0,0,0,0,0,1,0,0,0,0,0]","mutagen_history":"[1,0,0,0,0,0,0,0,0,0,0,1,0,0,0,0,0]","location_rts":"[3486,512,352,352,371,438,461,471,556,715,758,1778,555,300,329,319,396]","trial_type":"fractal-mutation","trial_index":63,"time_elapsed":1862936,"internal_node_id":"0.0-5.0-24.0"},{"group":"dihedral group of order 12","fractal_assignment":["../images/cyn_red.png","../images/grn_prp.png","../images/org_blu.png","../images/grn_blu.png","../images/pnk_blu.png","../images/ylw_pnk.png","../images/grn_red.png","../images/red_prp.png","../images/gry_blk.png","../images/wht_red.png","../images/ylw_slt.png","../images/blu_wht.png"],"mutagen_generator_assignment":[0,1],"goal":8,"start":4,"action_noise":0.15,"location_history":"[4,10,9,8]","action_history":"[1,0,0]","mutagen_history":"[1,0,0]","location_rts":"[4319,1074,458]","trial_type":"fractal-mutation","trial_index":64,"time_elapsed":1875392,"internal_node_id":"0.0-5.0-25.0"},{"group":"dihedral group of order 12","fractal_assignment":["../images/cyn_red.png","../images/grn_prp.png","../images/org_blu.png","../images/grn_blu.png","../images/pnk_blu.png","../images/ylw_pnk.png","../images/grn_red.png","../images/red_prp.png","../images/gry_blk.png","../images/wht_red.png","../images/ylw_slt.png","../images/blu_wht.png"],"mutagen_generator_assignment":[0,1],"goal":6,"start":8,"action_noise":0.15,"location_history":"[8,7,1,2,3,4,5,0,6]","action_history":"[0,0,0,0,0,0,0,1]","mutagen_history":"[0,0,0,0,0,0,0,1]","location_rts":"[2379,304,441,304,719,372,346,1168]","trial_type":"fractal-mutation","trial_index":65,"time_elapsed":1893168,"internal_node_id":"0.0-5.0-26.0"},{"group":"dihedral group of order 12","fractal_assignment":["../images/cyn_red.png","../images/grn_prp.png","../images/org_blu.png","../images/grn_blu.png","../images/pnk_blu.png","../images/ylw_pnk.png","../images/grn_red.png","../images/red_prp.png","../images/gry_blk.png","../images/wht_red.png","../images/ylw_slt.png","../images/blu_wht.png"],"mutagen_generator_assignment":[0,1],"goal":1,"start":6,"action_noise":0.15,"location_history":"[6,0,1]","action_history":"[1,0]","mutagen_history":"[1,0]","location_rts":"[3090,1362]","trial_type":"fractal-mutation","trial_index":66,"time_elapsed":1903211,"internal_node_id":"0.0-5.0-27.0"},{"group":"dihedral group of order 12","fractal_assignment":["../images/cyn_red.png","../images/grn_prp.png","../images/org_blu.png","../images/grn_blu.png","../images/pnk_blu.png","../images/ylw_pnk.png","../images/grn_red.png","../images/red_prp.png","../images/gry_blk.png","../images/wht_red.png","../images/ylw_slt.png","../images/blu_wht.png"],"mutagen_generator_assignment":[0,1],"goal":5,"start":1,"action_noise":0.15,"location_history":"[1,7,6,11,10,9,8,7,6,0,1,2,3,9,3,4,5]","action_history":"[1,0,0,0,0,0,1,0,0,0,0,0,0,0,0,0]","mutagen_history":"[1,0,0,0,0,0,1,0,0,0,0,0,0,0,0,0]","location_rts":"[2125,380,298,321,322,337,2910,414,349,1181,317,408,308,455,1038,873]","trial_type":"fractal-mutation","trial_index":67,"time_elapsed":1935244,"internal_node_id":"0.0-5.0-28.0"},{"group":"dihedral group of order 12","fractal_assignment":["../images/cyn_red.png","../images/grn_prp.png","../images/org_blu.png","../images/grn_blu.png","../images/pnk_blu.png","../images/ylw_pnk.png","../images/grn_red.png","../images/red_prp.png","../images/gry_blk.png","../images/wht_red.png","../images/ylw_slt.png","../images/blu_wht.png"],"mutagen_generator_assignment":[0,1],"goal":9,"start":5,"action_noise":0.15,"location_history":"[5,11,10,9]","action_history":"[1,0,0]","mutagen_history":"[1,0,0]","location_rts":"[3552,977,341]","trial_type":"fractal-mutation","trial_index":68,"time_elapsed":1946703,"internal_node_id":"0.0-5.0-29.0"},{"group":"dihedral group of order 12","fractal_assignment":["../images/cyn_red.png","../images/grn_prp.png","../images/org_blu.png","../images/grn_blu.png","../images/pnk_blu.png","../images/ylw_pnk.png","../images/grn_red.png","../images/red_prp.png","../images/gry_blk.png","../images/wht_red.png","../images/ylw_slt.png","../images/blu_wht.png"],"mutagen_generator_assignment":[0,1],"goal":10,"start":9,"action_noise":0.15,"location_history":"[9,3,9,3,4,5,0,1,2,3,4,5,11,10]","action_history":"[1,1,0,0,0,0,0,0,0,0,0,1,0]","mutagen_history":"[1,1,0,0,0,0,0,0,0,0,0,1,0]","location_rts":"[4643,1375,653,500,358,437,537,518,627,383,414,893,671]","trial_type":"fractal-mutation","trial_index":69,"time_elapsed":1975668,"internal_node_id":"0.0-5.0-30.0"},{"group":"dihedral group of order 12","fractal_assignment":["../images/cyn_red.png","../images/grn_prp.png","../images/org_blu.png","../images/grn_blu.png","../images/pnk_blu.png","../images/ylw_pnk.png","../images/grn_red.png","../images/red_prp.png","../images/gry_blk.png","../images/wht_red.png","../images/ylw_slt.png","../images/blu_wht.png"],"mutagen_generator_assignment":[0,1],"goal":0,"start":10,"action_noise":0.15,"location_history":"[10,9,8,7,6,11,10,9,8,2,3,9,3,4,5,0]","action_history":"[0,0,0,0,0,0,0,0,1,0,0,1,0,0,0]","mutagen_history":"[0,0,0,0,0,0,0,0,1,0,0,1,0,0,0]","location_rts":"[2234,663,386,1120,437,552,341,739,1275,486,514,671,1291,985,845]","trial_type":"fractal-mutation","trial_index":70,"time_elapsed":2007217,"internal_node_id":"0.0-5.0-31.0"},{"group":"dihedral group of order 12","fractal_assignment":["../images/cyn_red.png","../images/grn_prp.png","../images/org_blu.png","../images/grn_blu.png","../images/pnk_blu.png","../images/ylw_pnk.png","../images/grn_red.png","../images/red_prp.png","../images/gry_blk.png","../images/wht_red.png","../images/ylw_slt.png","../images/blu_wht.png"],"mutagen_generator_assignment":[0,1],"goal":7,"start":0,"action_noise":0.15,"location_history":"[0,1,7]","action_history":"[0,0]","mutagen_history":"[0,0]","location_rts":"[2828,317]","trial_type":"fractal-mutation","trial_index":71,"time_elapsed":2015927,"internal_node_id":"0.0-5.0-32.0"},{"group":"dihedral group of order 12","fractal_assignment":["../images/cyn_red.png","../images/grn_prp.png","../images/org_blu.png","../images/grn_blu.png","../images/pnk_blu.png","../images/ylw_pnk.png","../images/grn_red.png","../images/red_prp.png","../images/gry_blk.png","../images/wht_red.png","../images/ylw_slt.png","../images/blu_wht.png"],"mutagen_generator_assignment":[0,1],"goal":11,"start":7,"action_noise":0.15,"location_history":"[7,6,0,1,7,1,7,1,2,3,9,8,7,1,2,3,4,5,11]","action_history":"[0,1,0,1,0,1,1,0,0,1,0,0,0,0,0,0,0,0]","mutagen_history":"[0,1,0,1,0,1,1,0,0,1,0,0,0,0,0,0,0,0]","location_rts":"[1635,678,282,763,387,413,406,402,350,359,530,1046,560,506,400,397,382,275]","trial_type":"fractal-mutation","trial_index":72,"time_elapsed":2047769,"internal_node_id":"0.0-5.0-33.0"},{"group":"dihedral group of order 12","fractal_assignment":["../images/cyn_red.png","../images/grn_prp.png","../images/org_blu.png","../images/grn_blu.png","../images/pnk_blu.png","../images/ylw_pnk.png","../images/grn_red.png","../images/red_prp.png","../images/gry_blk.png","../images/wht_red.png","../images/ylw_slt.png","../images/blu_wht.png"],"mutagen_generator_assignment":[0,1],"goal":2,"start":11,"action_noise":0.15,"location_history":"[11,10,9,3,4,5,0,1,2]","action_history":"[0,0,0,0,0,0,0,1]","mutagen_history":"[0,0,0,0,0,0,0,1]","location_rts":"[1275,377,356,310,307,314,322,1063]","trial_type":"fractal-mutation","trial_index":73,"time_elapsed":2063857,"internal_node_id":"0.0-5.0-34.0"},{"view_history":"[{\"page_index\":0,\"viewing_time\":5265}]","rt":5266,"trial_type":"instructions","trial_index":74,"time_elapsed":2070123,"internal_node_id":"0.0-6.0"},{"rt":75528,"responses":"{\"Q0\":\"The ability to map paths mentally using reference markers (color)? Or the ability to adapt mental maps to conflicting info?\"}","trial_type":"survey-text","trial_index":75,"time_elapsed":2146662,"internal_node_id":"0.0-7.0-0.0"},{"rt":41401,"responses":"{\"Q0\":\"the ability to remember shapes shapes and multiple relationships between shapes?\"}","trial_type":"survey-text","trial_index":76,"time_elapsed":2189068,"internal_node_id":"0.0-7.0-1.0"},{"rt":8541,"responses":"{\"Q0\":\"2\"}","trial_type":"survey-likert","trial_index":77,"time_elapsed":2198618,"internal_node_id":"0.0-7.0-2.0"},{"rt":30297,"responses":"{\"Q0\":\"The both involved trying to learn/remember multiple steps for getting from a starting position to a goal.\"}","trial_type":"survey-text","trial_index":78,"time_elapsed":2229921,"internal_node_id":"0.0-7.0-3.0"},{"rt":13299,"responses":"{\"Q0\":\"No\"}","trial_type":"survey-multi-choice","trial_index":79,"time_elapsed":2244254,"internal_node_id":"0.0-7.0-4.0"},{"rt":6401,"responses":"{\"Q0\":\"During these questions/I wasn't aware until you pointed it out\"}","trial_type":"survey-multi-choice","trial_index":80,"time_elapsed":2251674,"internal_node_id":"0.0-7.0-5.0"},{"rt":10031,"responses":"{\"Q0\":\"\"}","trial_type":"survey-text","trial_index":81,"time_elapsed":2262709,"internal_node_id":"0.0-7.0-6.0"},{"rt":4894,"responses":"{\"Q0\":\"0\"}","trial_type":"survey-likert","trial_index":82,"time_elapsed":2268608,"internal_node_id":"0.0-7.0-7.0"},{"rt":10507,"responses":"{\"Q0\":\"Different structure\"}","trial_type":"survey-multi-choice","trial_index":83,"time_elapsed":2280123,"internal_node_id":"0.0-7.0-8.0"},{"rt":12966,"responses":"{\"Q0\":\"white door = acid, black door = ray\",\"Q1\":\"Not at all confident\"}","trial_type":"survey-multi-choice","trial_index":84,"time_elapsed":2294106,"internal_node_id":"0.0-7.0-9.0"},{"rt":8584,"responses":"{\"Q0\":\"35-45\",\"Q1\":\"Bachelor's degree\",\"Q2\":\"Female\",\"Q3\":\"White\"}","trial_type":"survey-multi-choice","trial_index":85,"time_elapsed":2303720,"internal_node_id":"0.0-8.0"},{"rt":21988,"responses":"{\"Q0\":\"\"}","trial_type":"survey-text","trial_index":86,"time_elapsed":2326726,"internal_node_id":"0.0-9.0"}]