[{"view_history":"[{\"page_index\":0,\"viewing_time\":337415},{\"page_index\":1,\"viewing_time\":758112}]","rt":1095528,"trial_type":"instructions","trial_index":0,"time_elapsed":1095529,"internal_node_id":"0.0-0.0"},{"view_history":"[{\"page_index\":0,\"viewing_time\":2013},{\"page_index\":1,\"viewing_time\":8744}]","rt":10757,"trial_type":"instructions","trial_index":1,"time_elapsed":1107287,"internal_node_id":"0.0-1.0"},{"group":"dihedral group of order 12","room_assignment":["pink","yellow","purple","cyan","red","green","grey","olive","ivory","brown","blue","orange"],"door_color_assignment":["white","black"],"door_generator_assignment":[1,0],"goal":7,"start":3,"action_noise":0.15,"location_history":"[3,4,10,4,5,0,6,11,5,0,1,7]","action_history":"[0,1,0,0,0,1,0,1,0,0,1]","door_history":"[1,0,1,1,1,0,1,0,1,1,0]","location_rts":"[1908,610,221,602,862,840,657,708,442,736,894]","trial_type":"two-door-navigation","trial_index":2,"time_elapsed":1130416,"internal_node_id":"0.0-2.0-0.0"},{"group":"dihedral group of order 12","room_assignment":["pink","yellow","purple","cyan","red","green","grey","olive","ivory","brown","blue","orange"],"door_color_assignment":["white","black"],"door_generator_assignment":[1,0],"goal":5,"start":7,"action_noise":0.15,"location_history":"[7,6,11,10,9,3,9,8,2,3,9,8,7,6,11,5]","action_history":"[0,0,0,0,1,0,0,1,0,1,0,0,0,0,1]","door_history":"[1,1,1,1,0,1,1,0,1,0,1,1,1,1,0]","location_rts":"[2317,479,439,629,1223,830,552,908,547,633,467,487,755,630,582]","trial_type":"two-door-navigation","trial_index":3,"time_elapsed":1160596,"internal_node_id":"0.0-2.0-1.0"},{"group":"dihedral group of order 12","room_assignment":["pink","yellow","purple","cyan","red","green","grey","olive","ivory","brown","blue","orange"],"door_color_assignment":["white","black"],"door_generator_assignment":[1,0],"goal":0,"start":5,"action_noise":0.15,"location_history":"[5,0]","action_history":"[0]","door_history":"[1]","location_rts":"[1823]","trial_type":"two-door-navigation","trial_index":4,"time_elapsed":1166935,"internal_node_id":"0.0-2.0-2.0"},{"group":"dihedral group of order 12","room_assignment":["pink","yellow","purple","cyan","red","green","grey","olive","ivory","brown","blue","orange"],"door_color_assignment":["white","black"],"door_generator_assignment":[1,0],"goal":2,"start":0,"action_noise":0.15,"location_history":"[0,1,2]","action_history":"[0,0]","door_history":"[1,1]","location_rts":"[8156,588]","trial_type":"two-door-navigation","trial_index":5,"time_elapsed":1181209,"internal_node_id":"0.0-2.0-3.0"},{"group":"dihedral group of order 12","room_assignment":["pink","yellow","purple","cyan","red","green","grey","olive","ivory","brown","blue","orange"],"door_color_assignment":["white","black"],"door_generator_assignment":[1,0],"goal":10,"start":2,"action_noise":0.15,"location_history":"[2,3,4,10]","action_history":"[0,0,1]","door_history":"[1,1,0]","location_rts":"[1827,652,680]","trial_type":"two-door-navigation","trial_index":6,"time_elapsed":1190904,"internal_node_id":"0.0-2.0-4.0"},{"group":"dihedral group of order 12","room_assignment":["pink","yellow","purple","cyan","red","green","grey","olive","ivory","brown","blue","orange"],"door_color_assignment":["white","black"],"door_generator_assignment":[1,0],"goal":8,"start":10,"action_noise":0.15,"location_history":"[10,9,3,9,8]","action_history":"[0,1,1,0]","door_history":"[1,0,0,1]","location_rts":"[509,715,1035,659]","trial_type":"two-door-navigation","trial_index":7,"time_elapsed":1201400,"internal_node_id":"0.0-2.0-5.0"},{"group":"dihedral group of order 12","room_assignment":["pink","yellow","purple","cyan","red","green","grey","olive","ivory","brown","blue","orange"],"door_color_assignment":["white","black"],"door_generator_assignment":[1,0],"goal":11,"start":8,"action_noise":0.15,"location_history":"[8,7,6,11]","action_history":"[1,0,0]","door_history":"[0,1,1]","location_rts":"[1677,842,488]","trial_type":"two-door-navigation","trial_index":8,"time_elapsed":1210935,"internal_node_id":"0.0-2.0-6.0"},{"group":"dihedral group of order 12","room_assignment":["pink","yellow","purple","cyan","red","green","grey","olive","ivory","brown","blue","orange"],"door_color_assignment":["white","black"],"door_generator_assignment":[1,0],"goal":6,"start":11,"action_noise":0.15,"location_history":"[11,5,0,1,2,3,9,8,7,1,2,3,4,10,9,8,7,6]","action_history":"[1,0,0,0,0,1,0,0,0,0,0,0,0,0,0,0,0]","door_history":"[0,1,1,1,1,0,1,1,1,1,1,1,1,1,1,1,1]","location_rts":"[1061,592,856,537,487,1037,606,599,725,539,1069,634,509,441,565,781,536]","trial_type":"two-door-navigation","trial_index":9,"time_elapsed":1243198,"internal_node_id":"0.0-2.0-7.0"},{"group":"dihedral group of order 12","room_assignment":["pink","yellow","purple","cyan","red","green","grey","olive","ivory","brown","blue","orange"],"door_color_assignment":["white","black"],"door_generator_assignment":[1,0],"goal":4,"start":6,"action_noise":0.15,"location_history":"[6,0,1,2,3,9,8,2,3,4]","action_history":"[1,0,0,0,0,0,0,0,0]","door_history":"[0,1,1,1,1,1,1,1,1]","location_rts":"[1023,544,705,498,566,533,479,497,495]","trial_type":"two-door-navigation","trial_index":10,"time_elapsed":1261148,"internal_node_id":"0.0-2.0-8.0"},{"group":"dihedral group of order 12","room_assignment":["pink","yellow","purple","cyan","red","green","grey","olive","ivory","brown","blue","orange"],"door_color_assignment":["white","black"],"door_generator_assignment":[1,0],"goal":1,"start":4,"action_noise":0.15,"location_history":"[4,5,0,1]","action_history":"[0,1,0]","door_history":"[1,0,1]","location_rts":"[1029,1480,407]","trial_type":"two-door-navigation","trial_index":11,"time_elapsed":1270598,"internal_node_id":"0.0-2.0-9.0"},{"group":"dihedral group of order 12","room_assignment":["pink","yellow","purple","cyan","red","green","grey","olive","ivory","brown","blue","orange"],"door_color_assignment":["white","black"],"door_generator_assignment":[1,0],"goal":9,"start":1,"action_noise":0.15,"location_history":"[1,2,8,7,1,7,6,0,1,2,3,4,10,9]","action_history":"[0,1,0,1,0,0,1,0,0,0,0,0,0]","door_history":"[1,0,1,0,1,1,0,1,1,1,1,1,1]","location_rts":"[2014,789,529,784,406,753,1056,1241,473,523,502,542,399]","trial_type":"two-door-navigation","trial_index":12,"time_elapsed":1297264,"internal_node_id":"0.0-2.0-10.0"},{"group":"dihedral group of order 12","room_assignment":["pink","yellow","purple","cyan","red","green","grey","olive","ivory","brown","blue","orange"],"door_color_assignment":["white","black"],"door_generator_assignment":[1,0],"goal":10,"start":9,"action_noise":0.15,"location_history":"[9,3,4,10]","action_history":"[0,0,1]","door_history":"[1,1,0]","location_rts":"[2044,546,751]","trial_type":"two-door-navigation","trial_index":13,"time_elapsed":1307160,"internal_node_id":"0.0-2.0-11.0"},{"group":"dihedral group of order 12","room_assignment":["pink","yellow","purple","cyan","red","green","grey","olive","ivory","brown","blue","orange"],"door_color_assignment":["white","black"],"door_generator_assignment":[1,0],"goal":2,"start":10,"action_noise":0.15,"location_history":"[10,9,8,7,6,11,5,0,1,2]","action_history":"[0,0,0,0,0,1,0,0,0]","door_history":"[1,1,1,1,1,0,1,1,1]","location_rts":"[1309,142,442,458,543,759,454,558,550]","trial_type":"two-door-navigation","trial_index":14,"time_elapsed":1324991,"internal_node_id":"0.0-2.0-12.0"},{"group":"dihedral group of order 12","room_assignment":["pink","yellow","purple","cyan","red","green","grey","olive","ivory","brown","blue","orange"],"door_color_assignment":["white","black"],"door_generator_assignment":[1,0],"goal":0,"start":2,"action_noise":0.15,"location_history":"[2,3,9,3,9,3,4,10,9,8,7,6,11,5,0]","action_history":"[0,1,0,0,1,0,1,0,0,0,0,1,1,0]","door_history":"[1,0,1,1,0,1,0,1,1,1,1,0,0,1]","location_rts":"[2789,1388,494,525,12251,74,585,350,1431,2095,526,780,685,419]","trial_type":"two-door-navigation","trial_index":15,"time_elapsed":1367047,"internal_node_id":"0.0-2.0-13.0"},{"group":"dihedral group of order 12","room_assignment":["pink","yellow","purple","cyan","red","green","grey","olive","ivory","brown","blue","orange"],"door_color_assignment":["white","black"],"door_generator_assignment":[1,0],"goal":9,"start":0,"action_noise":0.15,"location_history":"[0,1,7,6,11,10,9]","action_history":"[0,1,0,0,0,0]","door_history":"[1,0,1,1,1,1]","location_rts":"[821,525,109,486,459,734]","trial_type":"two-door-navigation","trial_index":16,"time_elapsed":1379759,"internal_node_id":"0.0-2.0-14.0"},{"group":"dihedral group of order 12","room_assignment":["pink","yellow","purple","cyan","red","green","grey","olive","ivory","brown","blue","orange"],"door_color_assignment":["white","black"],"door_generator_assignment":[1,0],"goal":8,"start":9,"action_noise":0.15,"location_history":"[9,8]","action_history":"[0]","door_history":"[1]","location_rts":"[709]","trial_type":"two-door-navigation","trial_index":17,"time_elapsed":1384986,"internal_node_id":"0.0-2.0-15.0"},{"group":"dihedral group of order 12","room_assignment":["pink","yellow","purple","cyan","red","green","grey","olive","ivory","brown","blue","orange"],"door_color_assignment":["white","black"],"door_generator_assignment":[1,0],"goal":6,"start":8,"action_noise":0.15,"location_history":"[8,7,6]","action_history":"[0,0]","door_history":"[1,1]","location_rts":"[865,694]","trial_type":"two-door-navigation","trial_index":18,"time_elapsed":1392068,"internal_node_id":"0.0-2.0-16.0"},{"group":"dihedral group of order 12","room_assignment":["pink","yellow","purple","cyan","red","green","grey","olive","ivory","brown","blue","orange"],"door_color_assignment":["white","black"],"door_generator_assignment":[1,0],"goal":1,"start":6,"action_noise":0.15,"location_history":"[6,11,10,9,8,7,1]","action_history":"[0,0,0,0,0,1]","door_history":"[1,1,1,1,1,0]","location_rts":"[1080,814,487,637,729,712]","trial_type":"two-door-navigation","trial_index":19,"time_elapsed":1406134,"internal_node_id":"0.0-2.0-17.0"},{"group":"dihedral group of order 12","room_assignment":["pink","yellow","purple","cyan","red","green","grey","olive","ivory","brown","blue","orange"],"door_color_assignment":["white","black"],"door_generator_assignment":[1,0],"goal":4,"start":1,"action_noise":0.15,"location_history":"[1,2,3,4]","action_history":"[0,0,0]","door_history":"[1,1,1]","location_rts":"[774,472,436]","trial_type":"two-door-navigation","trial_index":20,"time_elapsed":1414355,"internal_node_id":"0.0-2.0-18.0"},{"group":"dihedral group of order 12","room_assignment":["pink","yellow","purple","cyan","red","green","grey","olive","ivory","brown","blue","orange"],"door_color_assignment":["white","black"],"door_generator_assignment":[1,0],"goal":11,"start":4,"action_noise":0.15,"location_history":"[4,10,9,8,7,6,11]","action_history":"[0,0,1,0,0,0]","door_history":"[1,1,0,1,1,1]","location_rts":"[818,502,753,591,1244,729]","trial_type":"two-door-navigation","trial_index":21,"time_elapsed":1428574,"internal_node_id":"0.0-2.0-19.0"},{"group":"dihedral group of order 12","room_assignment":["pink","yellow","purple","cyan","red","green","grey","olive","ivory","brown","blue","orange"],"door_color_assignment":["white","black"],"door_generator_assignment":[1,0],"goal":3,"start":11,"action_noise":0.15,"location_history":"[11,10,9,8,7,6,0,6,0,1,7,6,0,1,7,6,11,10,9,3]","action_history":"[0,0,0,0,0,0,1,1,0,0,0,1,0,1,0,0,0,0,0]","door_history":"[1,1,1,1,1,1,0,0,1,1,1,0,1,0,1,1,1,1,1]","location_rts":"[1783,936,527,875,502,479,560,1207,256,644,728,1158,499,703,196,1080,482,533,462]","trial_type":"two-door-navigation","trial_index":22,"time_elapsed":1464885,"internal_node_id":"0.0-2.0-20.0"},{"group":"dihedral group of order 12","room_assignment":["pink","yellow","purple","cyan","red","green","grey","olive","ivory","brown","blue","orange"],"door_color_assignment":["white","black"],"door_generator_assignment":[1,0],"goal":5,"start":3,"action_noise":0.15,"location_history":"[3,4,5]","action_history":"[0,0]","door_history":"[1,1]","location_rts":"[1993,537]","trial_type":"two-door-navigation","trial_index":23,"time_elapsed":1472954,"internal_node_id":"0.0-2.0-21.0"},{"group":"dihedral group of order 12","room_assignment":["pink","yellow","purple","cyan","red","green","grey","olive","ivory","brown","blue","orange"],"door_color_assignment":["white","black"],"door_generator_assignment":[1,0],"goal":7,"start":5,"action_noise":0.15,"location_history":"[5,0,6,11,10,9,8,7]","action_history":"[0,0,0,0,0,0,0]","door_history":"[1,1,1,1,1,1,1]","location_rts":"[3059,497,471,643,1079,529,519]","trial_type":"two-door-navigation","trial_index":24,"time_elapsed":1490327,"internal_node_id":"0.0-2.0-22.0"},{"group":"dihedral group of order 12","room_assignment":["pink","yellow","purple","cyan","red","green","grey","olive","ivory","brown","blue","orange"],"door_color_assignment":["white","black"],"door_generator_assignment":[1,0],"goal":3,"start":7,"action_noise":0.15,"location_history":"[7,1,2,3]","action_history":"[0,0,0]","door_history":"[1,1,1]","location_rts":"[1039,469,893]","trial_type":"two-door-navigation","trial_index":25,"time_elapsed":1499277,"internal_node_id":"0.0-2.0-23.0"},{"group":"dihedral group of order 12","room_assignment":["pink","yellow","purple","cyan","red","green","grey","olive","ivory","brown","blue","orange"],"door_color_assignment":["white","black"],"door_generator_assignment":[1,0],"goal":4,"start":3,"action_noise":0.15,"location_history":"[3,4]","action_history":"[0]","door_history":"[1]","location_rts":"[1167]","trial_type":"two-door-navigation","trial_index":26,"time_elapsed":1504961,"internal_node_id":"0.0-2.0-24.0"},{"group":"dihedral group of order 12","room_assignment":["pink","yellow","purple","cyan","red","green","grey","olive","ivory","brown","blue","orange"],"door_color_assignment":["white","black"],"door_generator_assignment":[1,0],"goal":8,"start":4,"action_noise":0.15,"location_history":"[4,5,0,1,2,3,9,3,9,8]","action_history":"[0,0,0,0,0,0,1,1,0]","door_history":"[1,1,1,1,1,1,0,0,1]","location_rts":"[996,516,710,1253,855,1101,1374,1312,493]","trial_type":"two-door-navigation","trial_index":27,"time_elapsed":1526199,"internal_node_id":"0.0-2.0-25.0"},{"group":"dihedral group of order 12","room_assignment":["pink","yellow","purple","cyan","red","green","grey","olive","ivory","brown","blue","orange"],"door_color_assignment":["white","black"],"door_generator_assignment":[1,0],"goal":6,"start":8,"action_noise":0.15,"location_history":"[8,2,3,4,5,0,1,2,3,4,5,11,5,0,6]","action_history":"[1,0,0,0,0,0,0,0,0,1,0,1,0,1]","door_history":"[0,1,1,1,1,1,1,1,1,0,1,0,1,0]","location_rts":"[1406,294,477,518,561,612,1007,776,537,564,176,1252,527,844]","trial_type":"two-door-navigation","trial_index":28,"time_elapsed":1553421,"internal_node_id":"0.0-2.0-26.0"},{"group":"dihedral group of order 12","room_assignment":["pink","yellow","purple","cyan","red","green","grey","olive","ivory","brown","blue","orange"],"door_color_assignment":["white","black"],"door_generator_assignment":[1,0],"goal":1,"start":6,"action_noise":0.15,"location_history":"[6,11,5,0,6,11,10,9,8,7,6,0,1]","action_history":"[0,1,0,0,0,0,0,0,0,0,0,0]","door_history":"[1,0,1,1,1,1,1,1,1,1,1,1]","location_rts":"[1800,950,557,550,523,590,599,601,496,510,946,418]","trial_type":"two-door-navigation","trial_index":29,"time_elapsed":1577606,"internal_node_id":"0.0-2.0-27.0"},{"group":"dihedral group of order 12","room_assignment":["pink","yellow","purple","cyan","red","green","grey","olive","ivory","brown","blue","orange"],"door_color_assignment":["white","black"],"door_generator_assignment":[1,0],"goal":5,"start":1,"action_noise":0.15,"location_history":"[1,2,3,9,8,7,6,0,1,2,3,4,5]","action_history":"[0,0,0,0,0,0,0,0,0,0,0,0]","door_history":"[1,1,1,1,1,1,1,1,1,1,1,1]","location_rts":"[10886,510,777,519,509,1006,545,498,455,496,546,459]","trial_type":"two-door-navigation","trial_index":30,"time_elapsed":1610469,"internal_node_id":"0.0-2.0-28.0"},{"group":"dihedral group of order 12","room_assignment":["pink","yellow","purple","cyan","red","green","grey","olive","ivory","brown","blue","orange"],"door_color_assignment":["white","black"],"door_generator_assignment":[1,0],"goal":9,"start":5,"action_noise":0.15,"location_history":"[5,11,10,9]","action_history":"[1,0,0]","door_history":"[0,1,1]","location_rts":"[863,639,526]","trial_type":"two-door-navigation","trial_index":31,"time_elapsed":1619042,"internal_node_id":"0.0-2.0-29.0"},{"group":"dihedral group of order 12","room_assignment":["pink","yellow","purple","cyan","red","green","grey","olive","ivory","brown","blue","orange"],"door_color_assignment":["white","black"],"door_generator_assignment":[1,0],"goal":10,"start":9,"action_noise":0.15,"location_history":"[9,8,7,6,11,10]","action_history":"[0,0,0,0,0]","door_history":"[1,1,1,1,1]","location_rts":"[1323,707,1041,521,471]","trial_type":"two-door-navigation","trial_index":32,"time_elapsed":1631702,"internal_node_id":"0.0-2.0-30.0"},{"group":"dihedral group of order 12","room_assignment":["pink","yellow","purple","cyan","red","green","grey","olive","ivory","brown","blue","orange"],"door_color_assignment":["white","black"],"door_generator_assignment":[1,0],"goal":0,"start":10,"action_noise":0.15,"location_history":"[10,4,5,0]","action_history":"[0,0,0]","door_history":"[1,1,1]","location_rts":"[1472,551,565]","trial_type":"two-door-navigation","trial_index":33,"time_elapsed":1640845,"internal_node_id":"0.0-2.0-31.0"},{"group":"dihedral group of order 12","room_assignment":["pink","yellow","purple","cyan","red","green","grey","olive","ivory","brown","blue","orange"],"door_color_assignment":["white","black"],"door_generator_assignment":[1,0],"goal":7,"start":0,"action_noise":0.15,"location_history":"[0,1,7]","action_history":"[0,1]","door_history":"[1,0]","location_rts":"[721,650]","trial_type":"two-door-navigation","trial_index":34,"time_elapsed":1647744,"internal_node_id":"0.0-2.0-32.0"},{"group":"dihedral group of order 12","room_assignment":["pink","yellow","purple","cyan","red","green","grey","olive","ivory","brown","blue","orange"],"door_color_assignment":["white","black"],"door_generator_assignment":[1,0],"goal":11,"start":7,"action_noise":0.15,"location_history":"[7,6,11]","action_history":"[0,0]","door_history":"[1,1]","location_rts":"[74556,594]","trial_type":"two-door-navigation","trial_index":35,"time_elapsed":1728421,"internal_node_id":"0.0-2.0-33.0"},{"group":"dihedral group of order 12","room_assignment":["pink","yellow","purple","cyan","red","green","grey","olive","ivory","brown","blue","orange"],"door_color_assignment":["white","black"],"door_generator_assignment":[1,0],"goal":2,"start":11,"action_noise":0.15,"location_history":"[11,10,4,5,0,1,2]","action_history":"[0,0,0,1,0,0]","door_history":"[1,1,1,0,1,1]","location_rts":"[1312,695,460,1030,9682,583]","trial_type":"two-door-navigation","trial_index":36,"time_elapsed":1751761,"internal_node_id":"0.0-2.0-34.0"},{"view_history":"[{\"page_index\":0,\"viewing_time\":1398}]","rt":1398,"trial_type":"instructions","trial_index":37,"time_elapsed":1754160,"internal_node_id":"0.0-3.0"},{"view_history":"[{\"page_index\":0,\"viewing_time\":2767},{\"page_index\":1,\"viewing_time\":7201}]","rt":9968,"trial_type":"instructions","trial_index":38,"time_elapsed":1765128,"internal_node_id":"0.0-4.0"},{"group":"dicyclic group of order 12","fractal_assignment":["../images/ylw_pnk.png","../images/pnk_blu.png","../images/gry_blk.png","../images/ylw_slt.png","../images/wht_red.png","../images/grn_blu.png","../images/org_blu.png","../images/blu_wht.png","../images/red_prp.png","../images/cyn_red.png","../images/grn_prp.png","../images/grn_red.png"],"mutagen_generator_assignment":[1,0],"goal":7,"start":3,"action_noise":0.15,"location_history":"[3,7]","action_history":"[1]","mutagen_history":"[0]","location_rts":"[1059]","trial_type":"fractal-mutation","trial_index":39,"time_elapsed":1770743,"internal_node_id":"0.0-5.0-0.0"},{"group":"dicyclic group of order 12","fractal_assignment":["../images/ylw_pnk.png","../images/pnk_blu.png","../images/gry_blk.png","../images/ylw_slt.png","../images/wht_red.png","../images/grn_blu.png","../images/org_blu.png","../images/blu_wht.png","../images/red_prp.png","../images/cyn_red.png","../images/grn_prp.png","../images/grn_red.png"],"mutagen_generator_assignment":[1,0],"goal":5,"start":7,"action_noise":0.15,"location_history":"[7,11,4,9,6,11,4,8,5]","action_history":"[1,0,0,0,0,0,1,0]","mutagen_history":"[0,1,1,1,1,1,0,1]","location_rts":"[997,561,210,417,481,608,307,644]","trial_type":"fractal-mutation","trial_index":40,"time_elapsed":1786992,"internal_node_id":"0.0-5.0-1.0"},{"group":"dicyclic group of order 12","fractal_assignment":["../images/ylw_pnk.png","../images/pnk_blu.png","../images/gry_blk.png","../images/ylw_slt.png","../images/wht_red.png","../images/grn_blu.png","../images/org_blu.png","../images/blu_wht.png","../images/red_prp.png","../images/cyn_red.png","../images/grn_prp.png","../images/grn_red.png"],"mutagen_generator_assignment":[1,0],"goal":0,"start":5,"action_noise":0.15,"location_history":"[5,9,1,5,9,6,11,4,8,5,10,7,8,5,10,7,8,5,9,6,11,3,0]","action_history":"[1,1,1,1,0,0,0,1,0,0,0,0,0,1,0,0,0,1,0,0,1,0]","mutagen_history":"[0,0,0,0,1,1,1,0,1,1,1,1,1,0,1,1,1,0,1,1,0,1]","location_rts":"[1012,878,639,529,668,289,418,571,506,546,561,23,370,325,599,408,133,165,559,2,130,812]","trial_type":"fractal-mutation","trial_index":41,"time_elapsed":1823897,"internal_node_id":"0.0-5.0-2.0"},{"group":"dicyclic group of order 12","fractal_assignment":["../images/ylw_pnk.png","../images/pnk_blu.png","../images/gry_blk.png","../images/ylw_slt.png","../images/wht_red.png","../images/grn_blu.png","../images/org_blu.png","../images/blu_wht.png","../images/red_prp.png","../images/cyn_red.png","../images/grn_prp.png","../images/grn_red.png"],"mutagen_generator_assignment":[1,0],"goal":2,"start":0,"action_noise":0.15,"location_history":"[0,4,9,6,10,7,11,3,0,1,2]","action_history":"[1,0,0,1,0,0,1,0,0,0]","mutagen_history":"[0,1,1,0,1,1,0,1,1,1]","location_rts":"[883,511,378,524,712,465,1094,459,614,633]","trial_type":"fractal-mutation","trial_index":42,"time_elapsed":1844292,"internal_node_id":"0.0-5.0-3.0"},{"group":"dicyclic group of order 12","fractal_assignment":["../images/ylw_pnk.png","../images/pnk_blu.png","../images/gry_blk.png","../images/ylw_slt.png","../images/wht_red.png","../images/grn_blu.png","../images/org_blu.png","../images/blu_wht.png","../images/red_prp.png","../images/cyn_red.png","../images/grn_prp.png","../images/grn_red.png"],"mutagen_generator_assignment":[1,0],"goal":10,"start":2,"action_noise":0.15,"location_history":"[2,6,11,4,9,1,2,6,11,4,9,1,2,3,0,1,2,6,11,4,9,6,11,3,7,11,3,7,8,0,4,9,6,10]","action_history":"[1,0,0,0,0,0,1,0,0,0,1,1,0,0,0,0,1,0,0,1,0,0,1,1,1,1,1,1,1,1,0,0,1]","mutagen_history":"[0,1,1,1,1,1,0,1,1,1,0,0,1,1,1,1,0,1,1,0,1,1,0,0,0,0,0,0,0,0,1,1,0]","location_rts":"[1551,604,439,531,554,507,375,508,439,506,718,704,675,350,283,600,336,551,345,510,424,612,342,663,468,583,455,482,591,640,641,703,653]","trial_type":"fractal-mutation","trial_index":43,"time_elapsed":1900928,"internal_node_id":"0.0-5.0-4.0"},{"group":"dicyclic group of order 12","fractal_assignment":["../images/ylw_pnk.png","../images/pnk_blu.png","../images/gry_blk.png","../images/ylw_slt.png","../images/wht_red.png","../images/grn_blu.png","../images/org_blu.png","../images/blu_wht.png","../images/red_prp.png","../images/cyn_red.png","../images/grn_prp.png","../images/grn_red.png"],"mutagen_generator_assignment":[1,0],"goal":8,"start":10,"action_noise":0.15,"location_history":"[10,2,3,0,1,2,3,0,1,2,3,7,8]","action_history":"[1,0,1,1,1,0,0,0,0,0,1,0]","mutagen_history":"[0,1,0,0,0,1,1,1,1,1,0,1]","location_rts":"[957,566,442,622,487,601,474,323,501,544,728,477]","trial_type":"fractal-mutation","trial_index":44,"time_elapsed":1923817,"internal_node_id":"0.0-5.0-5.0"},{"group":"dicyclic group of order 12","fractal_assignment":["../images/ylw_pnk.png","../images/pnk_blu.png","../images/gry_blk.png","../images/ylw_slt.png","../images/wht_red.png","../images/grn_blu.png","../images/org_blu.png","../images/blu_wht.png","../images/red_prp.png","../images/cyn_red.png","../images/grn_prp.png","../images/grn_red.png"],"mutagen_generator_assignment":[1,0],"goal":11,"start":8,"action_noise":0.15,"location_history":"[8,5,9,6,11]","action_history":"[0,1,0,0]","mutagen_history":"[1,0,1,1]","location_rts":"[3212,556,710,465]","trial_type":"fractal-mutation","trial_index":45,"time_elapsed":1936516,"internal_node_id":"0.0-5.0-6.0"},{"group":"dicyclic group of order 12","fractal_assignment":["../images/ylw_pnk.png","../images/pnk_blu.png","../images/gry_blk.png","../images/ylw_slt.png","../images/wht_red.png","../images/grn_blu.png","../images/org_blu.png","../images/blu_wht.png","../images/red_prp.png","../images/cyn_red.png","../images/grn_prp.png","../images/grn_red.png"],"mutagen_generator_assignment":[1,0],"goal":6,"start":11,"action_noise":0.15,"location_history":"[11,4,9,6]","action_history":"[0,0,0]","mutagen_history":"[1,1,1]","location_rts":"[1440,408,455]","trial_type":"fractal-mutation","trial_index":46,"time_elapsed":1945519,"internal_node_id":"0.0-5.0-7.0"},{"group":"dicyclic group of order 12","fractal_assignment":["../images/ylw_pnk.png","../images/pnk_blu.png","../images/gry_blk.png","../images/ylw_slt.png","../images/wht_red.png","../images/grn_blu.png","../images/org_blu.png","../images/blu_wht.png","../images/red_prp.png","../images/cyn_red.png","../images/grn_prp.png","../images/grn_red.png"],"mutagen_generator_assignment":[1,0],"goal":4,"start":6,"action_noise":0.15,"location_history":"[6,11,4]","action_history":"[0,0]","mutagen_history":"[1,1]","location_rts":"[1086,439]","trial_type":"fractal-mutation","trial_index":47,"time_elapsed":1952678,"internal_node_id":"0.0-5.0-8.0"},{"group":"dicyclic group of order 12","fractal_assignment":["../images/ylw_pnk.png","../images/pnk_blu.png","../images/gry_blk.png","../images/ylw_slt.png","../images/wht_red.png","../images/grn_blu.png","../images/org_blu.png","../images/blu_wht.png","../images/red_prp.png","../images/cyn_red.png","../images/grn_prp.png","../images/grn_red.png"],"mutagen_generator_assignment":[1,0],"goal":1,"start":4,"action_noise":0.15,"location_history":"[4,9,1]","action_history":"[0,1]","mutagen_history":"[1,0]","location_rts":"[919,229]","trial_type":"fractal-mutation","trial_index":48,"time_elapsed":1959450,"internal_node_id":"0.0-5.0-9.0"},{"group":"dicyclic group of order 12","fractal_assignment":["../images/ylw_pnk.png","../images/pnk_blu.png","../images/gry_blk.png","../images/ylw_slt.png","../images/wht_red.png","../images/grn_blu.png","../images/org_blu.png","../images/blu_wht.png","../images/red_prp.png","../images/cyn_red.png","../images/grn_prp.png","../images/grn_red.png"],"mutagen_generator_assignment":[1,0],"goal":9,"start":1,"action_noise":0.15,"location_history":"[1,2,6,10,2,3,0,4,8,5,10,2,6,10,2,3,0,4,8,0,4,8,5,10,7,8,5,10,7,8,0,4,9]","action_history":"[1,1,1,1,0,0,0,1,1,1,1,1,1,1,0,0,1,1,1,1,0,0,0,0,0,0,0,0,0,1,1,1]","mutagen_history":"[0,0,0,0,1,1,1,0,0,0,0,0,0,0,1,1,0,0,0,0,1,1,1,1,1,1,1,1,1,0,0,0]","location_rts":"[1143,624,766,531,571,496,507,439,677,507,403,379,480,541,334,421,769,553,784,564,441,629,370,500,195,619,953,510,930,378,409,458]","trial_type":"fractal-mutation","trial_index":49,"time_elapsed":2014540,"internal_node_id":"0.0-5.0-10.0"},{"group":"dicyclic group of order 12","fractal_assignment":["../images/ylw_pnk.png","../images/pnk_blu.png","../images/gry_blk.png","../images/ylw_slt.png","../images/wht_red.png","../images/grn_blu.png","../images/org_blu.png","../images/blu_wht.png","../images/red_prp.png","../images/cyn_red.png","../images/grn_prp.png","../images/grn_red.png"],"mutagen_generator_assignment":[1,0],"goal":10,"start":9,"action_noise":0.15,"location_history":"[9,6,10]","action_history":"[0,1]","mutagen_history":"[1,0]","location_rts":"[1057,1161]","trial_type":"fractal-mutation","trial_index":50,"time_elapsed":2022365,"internal_node_id":"0.0-5.0-11.0"},{"group":"dicyclic group of order 12","fractal_assignment":["../images/ylw_pnk.png","../images/pnk_blu.png","../images/gry_blk.png","../images/ylw_slt.png","../images/wht_red.png","../images/grn_blu.png","../images/org_blu.png","../images/blu_wht.png","../images/red_prp.png","../images/cyn_red.png","../images/grn_prp.png","../images/grn_red.png"],"mutagen_generator_assignment":[1,0],"goal":2,"start":10,"action_noise":0.15,"location_history":"[10,2]","action_history":"[0]","mutagen_history":"[1]","location_rts":"[1063]","trial_type":"fractal-mutation","trial_index":51,"time_elapsed":2027996,"internal_node_id":"0.0-5.0-12.0"},{"group":"dicyclic group of order 12","fractal_assignment":["../images/ylw_pnk.png","../images/pnk_blu.png","../images/gry_blk.png","../images/ylw_slt.png","../images/wht_red.png","../images/grn_blu.png","../images/org_blu.png","../images/blu_wht.png","../images/red_prp.png","../images/cyn_red.png","../images/grn_prp.png","../images/grn_red.png"],"mutagen_generator_assignment":[1,0],"goal":0,"start":2,"action_noise":0.15,"location_history":"[2,6,11,3,7,8,5,10,7,8,5,10,7,8,0]","action_history":"[0,0,1,1,0,0,0,0,0,1,1,0,0,1]","mutagen_history":"[1,1,0,0,1,1,1,1,1,0,0,1,1,0]","location_rts":"[3193,643,682,958,604,495,482,515,505,511,977,518,661,399]","trial_type":"fractal-mutation","trial_index":52,"time_elapsed":2057433,"internal_node_id":"0.0-5.0-13.0"},{"group":"dicyclic group of order 12","fractal_assignment":["../images/ylw_pnk.png","../images/pnk_blu.png","../images/gry_blk.png","../images/ylw_slt.png","../images/wht_red.png","../images/grn_blu.png","../images/org_blu.png","../images/blu_wht.png","../images/red_prp.png","../images/cyn_red.png","../images/grn_prp.png","../images/grn_red.png"],"mutagen_generator_assignment":[1,0],"goal":9,"start":0,"action_noise":0.15,"location_history":"[0,1,5,10,2,6,10,2,3,0,1,2,6,11,3,0,1,2,6,11,3,0,1,2,6,10,2,3,0,1,2,3,7,8,5,10,7,11,4,8,0,1,5,10,7,8,5,10,7,8,0,4,8,0,4,8,0,1,5,10,7,8,5,10,2,3,0,1,5,10,7,11,4,8,0,4,8,0,4,9]","action_history":"[0,1,0,0,1,1,1,0,0,0,0,1,0,0,0,0,0,1,1,0,0,0,0,1,1,1,0,0,0,0,0,1,0,0,0,0,0,0,1,1,1,1,0,0,0,0,0,0,0,1,1,1,1,1,1,1,1,1,0,0,0,0,0,0,0,0,0,0,0,0,0,0,1,1,1,1,1,1,1]","mutagen_history":"[1,0,1,1,0,0,0,1,1,1,1,0,1,1,1,1,1,0,0,1,1,1,1,0,0,0,1,1,1,1,1,0,1,1,1,1,1,1,0,0,0,0,1,1,1,1,1,1,1,0,0,0,0,0,0,0,0,0,1,1,1,1,1,1,1,1,1,1,1,1,1,1,0,0,0,0,0,0,0]","location_rts":"[1174,2318,625,15027,415,599,444,497,506,504,513,497,586,416,386,158,441,696,593,777,457,706,635,506,563,613,617,485,698,530,650,475,489,851,347,34,567,42,467,624,461,571,497,440,416,772,161,271,514,612,532,478,598,584,643,503,309,502,485,597,464,547,562,1372,341,800,546,59,750,619,889,245,509,581,416,659,533,430,547]","trial_type":"fractal-mutation","trial_index":53,"time_elapsed":2203652,"internal_node_id":"0.0-5.0-14.0"},{"group":"dicyclic group of order 12","fractal_assignment":["../images/ylw_pnk.png","../images/pnk_blu.png","../images/gry_blk.png","../images/ylw_slt.png","../images/wht_red.png","../images/grn_blu.png","../images/org_blu.png","../images/blu_wht.png","../images/red_prp.png","../images/cyn_red.png","../images/grn_prp.png","../images/grn_red.png"],"mutagen_generator_assignment":[1,0],"goal":8,"start":9,"action_noise":0.15,"location_history":"[9,1,2,6,11,4,9,6,11,4,9,1,5,10,2,3,7,11,3,7,11,3,0,4,9,6,11,4,8]","action_history":"[1,1,1,1,0,0,0,0,1,1,1,1,1,1,1,1,1,1,1,1,1,0,0,0,0,0,0,1]","mutagen_history":"[0,0,0,0,1,1,1,1,0,0,0,0,0,0,0,0,0,0,0,0,0,1,1,1,1,1,1,0]","location_rts":"[791,510,160,423,492,479,446,640,605,533,695,407,535,155,399,66,292,440,454,561,652,413,557,534,804,11002,310,763]","trial_type":"fractal-mutation","trial_index":54,"time_elapsed":2260713,"internal_node_id":"0.0-5.0-15.0"},{"group":"dicyclic group of order 12","fractal_assignment":["../images/ylw_pnk.png","../images/pnk_blu.png","../images/gry_blk.png","../images/ylw_slt.png","../images/wht_red.png","../images/grn_blu.png","../images/org_blu.png","../images/blu_wht.png","../images/red_prp.png","../images/cyn_red.png","../images/grn_prp.png","../images/grn_red.png"],"mutagen_generator_assignment":[1,0],"goal":6,"start":8,"action_noise":0.15,"location_history":"[8,0,4,9,6]","action_history":"[1,1,0,0]","mutagen_history":"[0,0,1,1]","location_rts":"[644,862,619,482]","trial_type":"fractal-mutation","trial_index":55,"time_elapsed":2271053,"internal_node_id":"0.0-5.0-16.0"},{"group":"dicyclic group of order 12","fractal_assignment":["../images/ylw_pnk.png","../images/pnk_blu.png","../images/gry_blk.png","../images/ylw_slt.png","../images/wht_red.png","../images/grn_blu.png","../images/org_blu.png","../images/blu_wht.png","../images/red_prp.png","../images/cyn_red.png","../images/grn_prp.png","../images/grn_red.png"],"mutagen_generator_assignment":[1,0],"goal":1,"start":6,"action_noise":0.15,"location_history":"[6,10,2,6,11,3,7,11,3,7,11,4,8,0,4,9,6,11,3,7,11,3,0,1]","action_history":"[1,1,1,1,1,1,1,1,1,1,0,1,1,1,1,0,0,1,1,1,1,0,0]","mutagen_history":"[0,0,0,0,0,0,0,0,0,0,1,0,0,0,0,1,1,0,0,0,0,1,1]","location_rts":"[1025,482,445,478,382,237,584,390,616,562,527,538,331,164,60,536,562,723,333,357,671,644,420]","trial_type":"fractal-mutation","trial_index":56,"time_elapsed":2309768,"internal_node_id":"0.0-5.0-17.0"},{"group":"dicyclic group of order 12","fractal_assignment":["../images/ylw_pnk.png","../images/pnk_blu.png","../images/gry_blk.png","../images/ylw_slt.png","../images/wht_red.png","../images/grn_blu.png","../images/org_blu.png","../images/blu_wht.png","../images/red_prp.png","../images/cyn_red.png","../images/grn_prp.png","../images/grn_red.png"],"mutagen_generator_assignment":[1,0],"goal":4,"start":1,"action_noise":0.15,"location_history":"[1,5,9,6,11,4]","action_history":"[0,1,0,0,0]","mutagen_history":"[1,0,1,1,1]","location_rts":"[693,595,686,1272,541]","trial_type":"fractal-mutation","trial_index":57,"time_elapsed":2322374,"internal_node_id":"0.0-5.0-18.0"},{"group":"dicyclic group of order 12","fractal_assignment":["../images/ylw_pnk.png","../images/pnk_blu.png","../images/gry_blk.png","../images/ylw_slt.png","../images/wht_red.png","../images/grn_blu.png","../images/org_blu.png","../images/blu_wht.png","../images/red_prp.png","../images/cyn_red.png","../images/grn_prp.png","../images/grn_red.png"],"mutagen_generator_assignment":[1,0],"goal":11,"start":4,"action_noise":0.15,"location_history":"[4,8,0,4,9,6,11]","action_history":"[1,1,1,0,0,0]","mutagen_history":"[0,0,0,1,1,1]","location_rts":"[847,863,757,322,366,376]","trial_type":"fractal-mutation","trial_index":58,"time_elapsed":2335731,"internal_node_id":"0.0-5.0-19.0"},{"group":"dicyclic group of order 12","fractal_assignment":["../images/ylw_pnk.png","../images/pnk_blu.png","../images/gry_blk.png","../images/ylw_slt.png","../images/wht_red.png","../images/grn_blu.png","../images/org_blu.png","../images/blu_wht.png","../images/red_prp.png","../images/cyn_red.png","../images/grn_prp.png","../images/grn_red.png"],"mutagen_generator_assignment":[1,0],"goal":3,"start":11,"action_noise":0.15,"location_history":"[11,4,9,1,5,9,1,5,10,2,6,10,7,8,5,10,2,6,10,7,11,4,8,0,1,2,3]","action_history":"[0,0,1,1,1,1,0,0,1,1,1,1,0,0,1,1,1,1,0,0,0,1,1,1,0,0]","mutagen_history":"[1,1,0,0,0,0,1,1,0,0,0,0,1,1,0,0,0,0,1,1,1,0,0,0,1,1]","location_rts":"[11281,647,452,521,320,486,341,960,859,386,463,686,402,584,677,400,432,537,383,463,473,463,480,527,516,600]","trial_type":"fractal-mutation","trial_index":59,"time_elapsed":2390973,"internal_node_id":"0.0-5.0-20.0"},{"group":"dicyclic group of order 12","fractal_assignment":["../images/ylw_pnk.png","../images/pnk_blu.png","../images/gry_blk.png","../images/ylw_slt.png","../images/wht_red.png","../images/grn_blu.png","../images/org_blu.png","../images/blu_wht.png","../images/red_prp.png","../images/cyn_red.png","../images/grn_prp.png","../images/grn_red.png"],"mutagen_generator_assignment":[1,0],"goal":5,"start":3,"action_noise":0.15,"location_history":"[3,0,4,8,5]","action_history":"[1,1,1,0]","mutagen_history":"[0,0,0,1]","location_rts":"[792,903,448,607]","trial_type":"fractal-mutation","trial_index":60,"time_elapsed":2401416,"internal_node_id":"0.0-5.0-21.0"},{"group":"dicyclic group of order 12","fractal_assignment":["../images/ylw_pnk.png","../images/pnk_blu.png","../images/gry_blk.png","../images/ylw_slt.png","../images/wht_red.png","../images/grn_blu.png","../images/org_blu.png","../images/blu_wht.png","../images/red_prp.png","../images/cyn_red.png","../images/grn_prp.png","../images/grn_red.png"],"mutagen_generator_assignment":[1,0],"goal":7,"start":5,"action_noise":0.15,"location_history":"[5,10,7]","action_history":"[0,0]","mutagen_history":"[1,1]","location_rts":"[772,1188]","trial_type":"fractal-mutation","trial_index":61,"time_elapsed":2409032,"internal_node_id":"0.0-5.0-22.0"},{"group":"dicyclic group of order 12","fractal_assignment":["../images/ylw_pnk.png","../images/pnk_blu.png","../images/gry_blk.png","../images/ylw_slt.png","../images/wht_red.png","../images/grn_blu.png","../images/org_blu.png","../images/blu_wht.png","../images/red_prp.png","../images/cyn_red.png","../images/grn_prp.png","../images/grn_red.png"],"mutagen_generator_assignment":[1,0],"goal":3,"start":7,"action_noise":0.15,"location_history":"[7,11,3]","action_history":"[1,1]","mutagen_history":"[0,0]","location_rts":"[781,563]","trial_type":"fractal-mutation","trial_index":62,"time_elapsed":2415968,"internal_node_id":"0.0-5.0-23.0"},{"group":"dicyclic group of order 12","fractal_assignment":["../images/ylw_pnk.png","../images/pnk_blu.png","../images/gry_blk.png","../images/ylw_slt.png","../images/wht_red.png","../images/grn_blu.png","../images/org_blu.png","../images/blu_wht.png","../images/red_prp.png","../images/cyn_red.png","../images/grn_prp.png","../images/grn_red.png"],"mutagen_generator_assignment":[1,0],"goal":4,"start":3,"action_noise":0.15,"location_history":"[3,7,11,4]","action_history":"[1,1,0]","mutagen_history":"[0,0,1]","location_rts":"[3093,768,743]","trial_type":"fractal-mutation","trial_index":63,"time_elapsed":2427225,"internal_node_id":"0.0-5.0-24.0"},{"group":"dicyclic group of order 12","fractal_assignment":["../images/ylw_pnk.png","../images/pnk_blu.png","../images/gry_blk.png","../images/ylw_slt.png","../images/wht_red.png","../images/grn_blu.png","../images/org_blu.png","../images/blu_wht.png","../images/red_prp.png","../images/cyn_red.png","../images/grn_prp.png","../images/grn_red.png"],"mutagen_generator_assignment":[1,0],"goal":8,"start":4,"action_noise":0.15,"location_history":"[4,8]","action_history":"[1]","mutagen_history":"[0]","location_rts":"[891]","trial_type":"fractal-mutation","trial_index":64,"time_elapsed":2432667,"internal_node_id":"0.0-5.0-25.0"},{"group":"dicyclic group of order 12","fractal_assignment":["../images/ylw_pnk.png","../images/pnk_blu.png","../images/gry_blk.png","../images/ylw_slt.png","../images/wht_red.png","../images/grn_blu.png","../images/org_blu.png","../images/blu_wht.png","../images/red_prp.png","../images/cyn_red.png","../images/grn_prp.png","../images/grn_red.png"],"mutagen_generator_assignment":[1,0],"goal":6,"start":8,"action_noise":0.15,"location_history":"[8,5,9,1,5,9,6]","action_history":"[0,0,1,1,1,0]","mutagen_history":"[1,1,0,0,0,1]","location_rts":"[1032,524,770,717,550,674]","trial_type":"fractal-mutation","trial_index":65,"time_elapsed":2446783,"internal_node_id":"0.0-5.0-26.0"},{"group":"dicyclic group of order 12","fractal_assignment":["../images/ylw_pnk.png","../images/pnk_blu.png","../images/gry_blk.png","../images/ylw_slt.png","../images/wht_red.png","../images/grn_blu.png","../images/org_blu.png","../images/blu_wht.png","../images/red_prp.png","../images/cyn_red.png","../images/grn_prp.png","../images/grn_red.png"],"mutagen_generator_assignment":[1,0],"goal":1,"start":6,"action_noise":0.15,"location_history":"[6,11,3,7,8,0,4,9,6,11,3,0,4,8,0,4,8,5,10,7,8,5,10,7,11,3,7,8,0,4,8,0,4,8,0,4,8,0,4,8,5,9,1]","action_history":"[1,1,0,0,0,1,1,0,0,1,0,1,1,1,1,1,1,0,0,0,0,0,0,1,0,1,1,1,1,1,1,1,1,1,1,1,1,1,1,1,1,1]","mutagen_history":"[0,0,1,1,1,0,0,1,1,0,1,0,0,0,0,0,0,1,1,1,1,1,1,0,1,0,0,0,0,0,0,0,0,0,0,0,0,0,0,0,0,0]","location_rts":"[718,524,755,574,519,582,543,664,546,1396,2005,487,417,428,472,189,232,510,509,540,316,590,254,874,2167,465,706,462,520,468,222,386,356,417,720,270,551,728,397,358,477,447]","trial_type":"fractal-mutation","trial_index":66,"time_elapsed":2519225,"internal_node_id":"0.0-5.0-27.0"},{"group":"dicyclic group of order 12","fractal_assignment":["../images/ylw_pnk.png","../images/pnk_blu.png","../images/gry_blk.png","../images/ylw_slt.png","../images/wht_red.png","../images/grn_blu.png","../images/org_blu.png","../images/blu_wht.png","../images/red_prp.png","../images/cyn_red.png","../images/grn_prp.png","../images/grn_red.png"],"mutagen_generator_assignment":[1,0],"goal":5,"start":1,"action_noise":0.15,"location_history":"[1,2,3,7,8,0,4,8,0,4,8,0,1,2,6,10,2,3,0,4,8,5]","action_history":"[0,1,1,0,1,1,1,1,1,1,1,0,1,1,1,1,0,0,1,1,1]","mutagen_history":"[1,0,0,1,0,0,0,0,0,0,0,1,0,0,0,0,1,1,0,0,0]","location_rts":"[700,5052,499,617,666,417,368,671,692,524,495,1124,924,573,296,1449,908,384,830,1138,545]","trial_type":"fractal-mutation","trial_index":67,"time_elapsed":2563680,"internal_node_id":"0.0-5.0-28.0"},{"group":"dicyclic group of order 12","fractal_assignment":["../images/ylw_pnk.png","../images/pnk_blu.png","../images/gry_blk.png","../images/ylw_slt.png","../images/wht_red.png","../images/grn_blu.png","../images/org_blu.png","../images/blu_wht.png","../images/red_prp.png","../images/cyn_red.png","../images/grn_prp.png","../images/grn_red.png"],"mutagen_generator_assignment":[1,0],"goal":9,"start":5,"action_noise":0.15,"location_history":"[5,10,7,11,4,8,5,10,2,6,10,2,6,11,4,9]","action_history":"[0,1,1,0,0,0,0,0,1,1,1,1,0,0,0]","mutagen_history":"[1,0,0,1,1,1,1,1,0,0,0,0,1,1,1]","location_rts":"[844,736,545,775,516,749,613,50,183,485,660,622,595,557,639]","trial_type":"fractal-mutation","trial_index":68,"time_elapsed":2591638,"internal_node_id":"0.0-5.0-29.0"},{"group":"dicyclic group of order 12","fractal_assignment":["../images/ylw_pnk.png","../images/pnk_blu.png","../images/gry_blk.png","../images/ylw_slt.png","../images/wht_red.png","../images/grn_blu.png","../images/org_blu.png","../images/blu_wht.png","../images/red_prp.png","../images/cyn_red.png","../images/grn_prp.png","../images/grn_red.png"],"mutagen_generator_assignment":[1,0],"goal":10,"start":9,"action_noise":0.15,"location_history":"[9,6,11,4,8,0,1,2,3,0,4,8,5,10]","action_history":"[1,0,0,0,0,0,0,0,0,1,1,0,0]","mutagen_history":"[0,1,1,1,1,1,1,1,1,0,0,1,1]","location_rts":"[791,719,379,576,254,148,65,601,722,368,451,241,366]","trial_type":"fractal-mutation","trial_index":69,"time_elapsed":2614598,"internal_node_id":"0.0-5.0-30.0"},{"group":"dicyclic group of order 12","fractal_assignment":["../images/ylw_pnk.png","../images/pnk_blu.png","../images/gry_blk.png","../images/ylw_slt.png","../images/wht_red.png","../images/grn_blu.png","../images/org_blu.png","../images/blu_wht.png","../images/red_prp.png","../images/cyn_red.png","../images/grn_prp.png","../images/grn_red.png"],"mutagen_generator_assignment":[1,0],"goal":0,"start":10,"action_noise":0.15,"location_history":"[10,2,6,11,4,9,1,2,3,7,8,5,9,6,11,3,0]","action_history":"[0,1,0,0,0,1,0,0,1,0,0,0,0,0,1,0]","mutagen_history":"[1,0,1,1,1,0,1,1,0,1,1,1,1,1,0,1]","location_rts":"[575,444,965,187,258,499,601,396,253,368,281,264,409,729,634,504]","trial_type":"fractal-mutation","trial_index":70,"time_elapsed":2642407,"internal_node_id":"0.0-5.0-31.0"},{"group":"dicyclic group of order 12","fractal_assignment":["../images/ylw_pnk.png","../images/pnk_blu.png","../images/gry_blk.png","../images/ylw_slt.png","../images/wht_red.png","../images/grn_blu.png","../images/org_blu.png","../images/blu_wht.png","../images/red_prp.png","../images/cyn_red.png","../images/grn_prp.png","../images/grn_red.png"],"mutagen_generator_assignment":[1,0],"goal":7,"start":0,"action_noise":0.15,"location_history":"[0,4,8,5,10,2,3,0,1,2,3,7]","action_history":"[1,1,0,0,1,0,0,0,0,0,1]","mutagen_history":"[0,0,1,1,0,1,1,1,1,1,0]","location_rts":"[1067,542,674,525,525,803,521,506,618,567,330]","trial_type":"fractal-mutation","trial_index":71,"time_elapsed":2664202,"internal_node_id":"0.0-5.0-32.0"},{"group":"dicyclic group of order 12","fractal_assignment":["../images/ylw_pnk.png","../images/pnk_blu.png","../images/gry_blk.png","../images/ylw_slt.png","../images/wht_red.png","../images/grn_blu.png","../images/org_blu.png","../images/blu_wht.png","../images/red_prp.png","../images/cyn_red.png","../images/grn_prp.png","../images/grn_red.png"],"mutagen_generator_assignment":[1,0],"goal":11,"start":7,"action_noise":0.15,"location_history":"[7,11]","action_history":"[1]","mutagen_history":"[0]","location_rts":"[803]","trial_type":"fractal-mutation","trial_index":72,"time_elapsed":2669553,"internal_node_id":"0.0-5.0-33.0"},{"group":"dicyclic group of order 12","fractal_assignment":["../images/ylw_pnk.png","../images/pnk_blu.png","../images/gry_blk.png","../images/ylw_slt.png","../images/wht_red.png","../images/grn_blu.png","../images/org_blu.png","../images/blu_wht.png","../images/red_prp.png","../images/cyn_red.png","../images/grn_prp.png","../images/grn_red.png"],"mutagen_generator_assignment":[1,0],"goal":2,"start":11,"action_noise":0.15,"location_history":"[11,3,7,8,0,1,2]","action_history":"[1,1,0,0,0,0]","mutagen_history":"[0,0,1,1,1,1]","location_rts":"[802,693,740,547,585,692]","trial_type":"fractal-mutation","trial_index":73,"time_elapsed":2683462,"internal_node_id":"0.0-5.0-34.0"},{"view_history":"[{\"page_index\":0,\"viewing_time\":3354}]","rt":3354,"trial_type":"instructions","trial_index":74,"time_elapsed":2687817,"internal_node_id":"0.0-6.0"},{"rt":16012,"responses":"{\"Q0\":\"How people learn patterns over time and how they use them to solve a problem. \"}","trial_type":"survey-text","trial_index":75,"time_elapsed":2704835,"internal_node_id":"0.0-7.0-0.0"},{"rt":54058,"responses":"{\"Q0\":\"How to solve a problem with a different set of images that are sometimes harder to use. \"}","trial_type":"survey-text","trial_index":76,"time_elapsed":2759898,"internal_node_id":"0.0-7.0-1.0"},{"rt":11043,"responses":"{\"Q0\":\"2\"}","trial_type":"survey-likert","trial_index":77,"time_elapsed":2771946,"internal_node_id":"0.0-7.0-2.0"},{"rt":43636,"responses":"{\"Q0\":\"There were patterns and \\\"doorways\\\" that you could rely on each time or at least some of the time. \"}","trial_type":"survey-text","trial_index":78,"time_elapsed":2816586,"internal_node_id":"0.0-7.0-3.0"},{"rt":8853,"responses":"{\"Q0\":\"Yes\"}","trial_type":"survey-multi-choice","trial_index":79,"time_elapsed":2826443,"internal_node_id":"0.0-7.0-4.0"},{"rt":5866,"responses":"{\"Q0\":\"During session 1\"}","trial_type":"survey-multi-choice","trial_index":80,"time_elapsed":2833314,"internal_node_id":"0.0-7.0-5.0"},{"rt":45070,"responses":"{\"Q0\":\"Each task had patterns that could be reliable used. Sometimes they changed but they tended to stay the same for the most part. \"}","trial_type":"survey-text","trial_index":81,"time_elapsed":2879386,"internal_node_id":"0.0-7.0-6.0"},{"rt":7443,"responses":"{\"Q0\":\"1\"}","trial_type":"survey-likert","trial_index":82,"time_elapsed":2887834,"internal_node_id":"0.0-7.0-7.0"},{"rt":9574,"responses":"{\"Q0\":\"Same structure\"}","trial_type":"survey-multi-choice","trial_index":83,"time_elapsed":2898410,"internal_node_id":"0.0-7.0-8.0"},{"rt":21812,"responses":"{\"Q0\":\"black door = acid, white door = ray\",\"Q1\":\"Moderately confident\"}","trial_type":"survey-multi-choice","trial_index":84,"time_elapsed":2921227,"internal_node_id":"0.0-7.0-9.0"},{"rt":12569,"responses":"{\"Q0\":\"25-35\",\"Q1\":\"Some college\",\"Q2\":\"Male\",\"Q3\":\"Hispanic\"}","trial_type":"survey-multi-choice","trial_index":85,"time_elapsed":2934806,"internal_node_id":"0.0-8.0"},{"rt":13320,"responses":"{\"Q0\":\"no\"}","trial_type":"survey-text","trial_index":86,"time_elapsed":2949130,"internal_node_id":"0.0-9.0"}]