[{"view_history":"[{\"page_index\":0,\"viewing_time\":2608934},{\"page_index\":1,\"viewing_time\":41628}]","rt":2650573,"trial_type":"instructions","trial_index":0,"time_elapsed":2650576,"internal_node_id":"0.0-0.0"},{"view_history":"[{\"page_index\":0,\"viewing_time\":2005},{\"page_index\":1,\"viewing_time\":6795}]","rt":8802,"trial_type":"instructions","trial_index":1,"time_elapsed":2660380,"internal_node_id":"0.0-1.0"},{"group":"dihedral group of order 12","room_assignment":["olive","orange","ivory","yellow","cyan","green","grey","pink","purple","red","brown","blue"],"door_color_assignment":["white","black"],"door_generator_assignment":[1,0],"goal":7,"start":3,"action_noise":0.15,"location_history":"[3,4,5,11,5,0,6,11,10,9,8,7]","action_history":"[0,0,1,1,0,1,0,0,0,0,0]","door_history":"[1,1,0,0,1,0,1,1,1,1,1]","location_rts":"[1698,2876,1824,680,3553,1936,644,279,4684,489,532]","trial_type":"two-door-navigation","trial_index":2,"time_elapsed":2696375,"internal_node_id":"0.0-2.0-0.0"},{"group":"dihedral group of order 12","room_assignment":["olive","orange","ivory","yellow","cyan","green","grey","pink","purple","red","brown","blue"],"door_color_assignment":["white","black"],"door_generator_assignment":[1,0],"goal":5,"start":7,"action_noise":0.15,"location_history":"[7,6,11,10,9,8,7,1,2,8,7,6,11,10,4,5]","action_history":"[0,0,0,0,0,0,0,0,0,0,0,0,0,0,0]","door_history":"[1,1,1,1,1,1,1,1,1,1,1,1,1,1,1]","location_rts":"[777,404,634,735,3298,547,451,502,3425,554,499,405,3730,454,683]","trial_type":"two-door-navigation","trial_index":3,"time_elapsed":2736708,"internal_node_id":"0.0-2.0-1.0"},{"group":"dihedral group of order 12","room_assignment":["olive","orange","ivory","yellow","cyan","green","grey","pink","purple","red","brown","blue"],"door_color_assignment":["white","black"],"door_generator_assignment":[1,0],"goal":0,"start":5,"action_noise":0.15,"location_history":"[5,0]","action_history":"[0]","door_history":"[1]","location_rts":"[8632]","trial_type":"two-door-navigation","trial_index":4,"time_elapsed":2750162,"internal_node_id":"0.0-2.0-2.0"},{"group":"dihedral group of order 12","room_assignment":["olive","orange","ivory","yellow","cyan","green","grey","pink","purple","red","brown","blue"],"door_color_assignment":["white","black"],"door_generator_assignment":[1,0],"goal":2,"start":0,"action_noise":0.15,"location_history":"[0,6,0,1,2]","action_history":"[1,0,0,0]","door_history":"[0,1,1,1]","location_rts":"[1452,2116,1879,594]","trial_type":"two-door-navigation","trial_index":5,"time_elapsed":2764595,"internal_node_id":"0.0-2.0-3.0"},{"group":"dihedral group of order 12","room_assignment":["olive","orange","ivory","yellow","cyan","green","grey","pink","purple","red","brown","blue"],"door_color_assignment":["white","black"],"door_generator_assignment":[1,0],"goal":10,"start":2,"action_noise":0.15,"location_history":"[2,3,4,5,0,6,0,1,2,8,7,1,2,3,4,5,0,1,2,3,4,5,0,6,11,5,0,1,2,3,4,5,0,1,2,3,4,5,0,6,11,10]","action_history":"[0,0,0,0,0,0,0,0,0,0,1,0,0,0,0,0,0,0,0,0,0,0,0,0,0,0,0,0,0,0,0,0,0,0,0,0,0,0,0,1,0]","door_history":"[1,1,1,1,1,1,1,1,1,1,0,1,1,1,1,1,1,1,1,1,1,1,1,1,1,1,1,1,1,1,1,1,1,1,1,1,1,1,1,0,1]","location_rts":"[3307,4717,4062,409,667,5200,383,522,406,1445,1061,978,378,346,2253,2257,458,4723,1528,345,267,3348,996,320,412,328,2444,632,600,320,7194,556,639,3058,103017,577,399,448,4898,39790,678]","trial_type":"two-door-navigation","trial_index":6,"time_elapsed":3023644,"internal_node_id":"0.0-2.0-4.0"},{"group":"dihedral group of order 12","room_assignment":["olive","orange","ivory","yellow","cyan","green","grey","pink","purple","red","brown","blue"],"door_color_assignment":["white","black"],"door_generator_assignment":[1,0],"goal":8,"start":10,"action_noise":0.15,"location_history":"[10,4,5,11,10,9,8]","action_history":"[0,0,0,0,0,0]","door_history":"[1,1,1,1,1,1]","location_rts":"[3386,566,512,1574,321,1264]","trial_type":"two-door-navigation","trial_index":7,"time_elapsed":3042181,"internal_node_id":"0.0-2.0-5.0"},{"group":"dihedral group of order 12","room_assignment":["olive","orange","ivory","yellow","cyan","green","grey","pink","purple","red","brown","blue"],"door_color_assignment":["white","black"],"door_generator_assignment":[1,0],"goal":11,"start":8,"action_noise":0.15,"location_history":"[8,2,3,4,5,0,1,2,3,4,10,9,8,7,6,11]","action_history":"[0,0,0,0,1,0,0,0,0,0,0,0,0,0,0]","door_history":"[1,1,1,1,0,1,1,1,1,1,1,1,1,1,1]","location_rts":"[4913,481,44451,655,1405,1135,2667,434,1397,488,1710,536,339,315,1107]","trial_type":"two-door-navigation","trial_index":8,"time_elapsed":3126242,"internal_node_id":"0.0-2.0-6.0"},{"group":"dihedral group of order 12","room_assignment":["olive","orange","ivory","yellow","cyan","green","grey","pink","purple","red","brown","blue"],"door_color_assignment":["white","black"],"door_generator_assignment":[1,0],"goal":6,"start":11,"action_noise":0.15,"location_history":"[11,10,9,8,7,6]","action_history":"[0,0,0,0,0]","door_history":"[1,1,1,1,1]","location_rts":"[25000,368,521,2508,2084]","trial_type":"two-door-navigation","trial_index":9,"time_elapsed":3170722,"internal_node_id":"0.0-2.0-7.0"},{"group":"dihedral group of order 12","room_assignment":["olive","orange","ivory","yellow","cyan","green","grey","pink","purple","red","brown","blue"],"door_color_assignment":["white","black"],"door_generator_assignment":[1,0],"goal":4,"start":6,"action_noise":0.15,"location_history":"[6,11,10,4]","action_history":"[0,0,1]","door_history":"[1,1,0]","location_rts":"[1852,1679,1383]","trial_type":"two-door-navigation","trial_index":10,"time_elapsed":3182490,"internal_node_id":"0.0-2.0-8.0"},{"group":"dihedral group of order 12","room_assignment":["olive","orange","ivory","yellow","cyan","green","grey","pink","purple","red","brown","blue"],"door_color_assignment":["white","black"],"door_generator_assignment":[1,0],"goal":1,"start":4,"action_noise":0.15,"location_history":"[4,5,0,1]","action_history":"[0,0,0]","door_history":"[1,1,1]","location_rts":"[1991,1337,412]","trial_type":"two-door-navigation","trial_index":11,"time_elapsed":3193357,"internal_node_id":"0.0-2.0-9.0"},{"group":"dihedral group of order 12","room_assignment":["olive","orange","ivory","yellow","cyan","green","grey","pink","purple","red","brown","blue"],"door_color_assignment":["white","black"],"door_generator_assignment":[1,0],"goal":9,"start":1,"action_noise":0.15,"location_history":"[1,2,3,4,5,11,5,0,6,11,10,4,5,0,1,7,6,11,10,9]","action_history":"[0,0,0,0,0,0,0,0,0,0,0,0,0,0,0,0,0,0,0]","door_history":"[1,1,1,1,1,1,1,1,1,1,1,1,1,1,1,1,1,1,1]","location_rts":"[2230,312,368,397,4177,762,376,316,2776,1093,453,338,1211,775,2944,377,386,2078,769]","trial_type":"two-door-navigation","trial_index":12,"time_elapsed":3242312,"internal_node_id":"0.0-2.0-10.0"},{"group":"dihedral group of order 12","room_assignment":["olive","orange","ivory","yellow","cyan","green","grey","pink","purple","red","brown","blue"],"door_color_assignment":["white","black"],"door_generator_assignment":[1,0],"goal":10,"start":9,"action_noise":0.15,"location_history":"[9,8,7,6,11,10]","action_history":"[0,0,0,0,0]","door_history":"[1,1,1,1,1]","location_rts":"[1482,1120,662,561,1261]","trial_type":"two-door-navigation","trial_index":13,"time_elapsed":3257204,"internal_node_id":"0.0-2.0-11.0"},{"group":"dihedral group of order 12","room_assignment":["olive","orange","ivory","yellow","cyan","green","grey","pink","purple","red","brown","blue"],"door_color_assignment":["white","black"],"door_generator_assignment":[1,0],"goal":2,"start":10,"action_noise":0.15,"location_history":"[10,9,8,7,6,11,10,9,8,7,6,11,10,4,5,11,10,4,10,9,3,4,10,4,5,0,6,11,10,9,3,4,5,0,1,2]","action_history":"[0,0,0,0,0,0,0,0,0,0,0,1,1,1,1,0,1,1,0,1,1,1,1,0,0,0,0,1,0,1,0,0,0,0,0]","door_history":"[1,1,1,1,1,1,1,1,1,1,1,0,0,0,0,1,0,0,1,0,0,0,0,1,1,1,1,0,1,0,1,1,1,1,1]","location_rts":"[1431,411,437,828,1454,908,324,392,289,729,1238,487,436,2198,1083,410,421,334,426,1917,530,335,434,348,1242,338,678,449,412,1960,573,1444,2603,630,439]","trial_type":"two-door-navigation","trial_index":14,"time_elapsed":3332228,"internal_node_id":"0.0-2.0-12.0"},{"group":"dihedral group of order 12","room_assignment":["olive","orange","ivory","yellow","cyan","green","grey","pink","purple","red","brown","blue"],"door_color_assignment":["white","black"],"door_generator_assignment":[1,0],"goal":0,"start":2,"action_noise":0.15,"location_history":"[2,3,9,8,2,3,4,5,0]","action_history":"[0,1,0,1,0,0,0,0]","door_history":"[1,0,1,0,1,1,1,1]","location_rts":"[1026,1776,906,716,447,1923,660,1493]","trial_type":"two-door-navigation","trial_index":15,"time_elapsed":3354615,"internal_node_id":"0.0-2.0-13.0"},{"group":"dihedral group of order 12","room_assignment":["olive","orange","ivory","yellow","cyan","green","grey","pink","purple","red","brown","blue"],"door_color_assignment":["white","black"],"door_generator_assignment":[1,0],"goal":9,"start":0,"action_noise":0.15,"location_history":"[0,1,2,3,4,5,0,1,2,3,4,5,0,1,2,3,4,5,0,1,2,3,9]","action_history":"[0,0,0,0,0,0,0,0,0,1,0,1,0,0,0,0,0,0,0,0,0,1]","door_history":"[1,1,1,1,1,1,1,1,1,0,1,0,1,1,1,1,1,1,1,1,1,0]","location_rts":"[2522,476,687,297,3753,317,316,572,418,8594,3207,11746,1132,2512,560,759,1030,2254,1552,363,453,1915]","trial_type":"two-door-navigation","trial_index":16,"time_elapsed":3430589,"internal_node_id":"0.0-2.0-14.0"},{"group":"dihedral group of order 12","room_assignment":["olive","orange","ivory","yellow","cyan","green","grey","pink","purple","red","brown","blue"],"door_color_assignment":["white","black"],"door_generator_assignment":[1,0],"goal":8,"start":9,"action_noise":0.15,"location_history":"[9,8]","action_history":"[0]","door_history":"[1]","location_rts":"[1350]","trial_type":"two-door-navigation","trial_index":17,"time_elapsed":3436730,"internal_node_id":"0.0-2.0-15.0"},{"group":"dihedral group of order 12","room_assignment":["olive","orange","ivory","yellow","cyan","green","grey","pink","purple","red","brown","blue"],"door_color_assignment":["white","black"],"door_generator_assignment":[1,0],"goal":6,"start":8,"action_noise":0.15,"location_history":"[8,7,6]","action_history":"[0,0]","door_history":"[1,1]","location_rts":"[2275,609]","trial_type":"two-door-navigation","trial_index":18,"time_elapsed":3445666,"internal_node_id":"0.0-2.0-16.0"},{"group":"dihedral group of order 12","room_assignment":["olive","orange","ivory","yellow","cyan","green","grey","pink","purple","red","brown","blue"],"door_color_assignment":["white","black"],"door_generator_assignment":[1,0],"goal":1,"start":6,"action_noise":0.15,"location_history":"[6,11,5,0,6,11,10,9,8,7,6,11,10,4,5,0,1]","action_history":"[0,0,0,0,0,0,0,0,0,0,0,0,0,0,0,0]","door_history":"[1,1,1,1,1,1,1,1,1,1,1,1,1,1,1,1]","location_rts":"[1717,1301,672,509,1870,1074,541,528,449,1711,1594,542,286,2564,1337,1487]","trial_type":"two-door-navigation","trial_index":19,"time_elapsed":3487615,"internal_node_id":"0.0-2.0-17.0"},{"group":"dihedral group of order 12","room_assignment":["olive","orange","ivory","yellow","cyan","green","grey","pink","purple","red","brown","blue"],"door_color_assignment":["white","black"],"door_generator_assignment":[1,0],"goal":4,"start":1,"action_noise":0.15,"location_history":"[1,7,1,2,3,4]","action_history":"[1,1,0,0,0]","door_history":"[0,0,1,1,1]","location_rts":"[4099,1170,5652,576,6660]","trial_type":"two-door-navigation","trial_index":20,"time_elapsed":3516662,"internal_node_id":"0.0-2.0-18.0"},{"group":"dihedral group of order 12","room_assignment":["olive","orange","ivory","yellow","cyan","green","grey","pink","purple","red","brown","blue"],"door_color_assignment":["white","black"],"door_generator_assignment":[1,0],"goal":11,"start":4,"action_noise":0.15,"location_history":"[4,5,0,6,11]","action_history":"[0,0,0,0]","door_history":"[1,1,1,1]","location_rts":"[4271,633,2679,199882]","trial_type":"two-door-navigation","trial_index":21,"time_elapsed":3733742,"internal_node_id":"0.0-2.0-19.0"},{"group":"dihedral group of order 12","room_assignment":["olive","orange","ivory","yellow","cyan","green","grey","pink","purple","red","brown","blue"],"door_color_assignment":["white","black"],"door_generator_assignment":[1,0],"goal":3,"start":11,"action_noise":0.15,"location_history":"[11,10,4,5,11,10,9,8,7,6,11,5,11,10,9,3]","action_history":"[0,0,0,1,0,0,0,0,0,0,0,0,0,0,1]","door_history":"[1,1,1,0,1,1,1,1,1,1,1,1,1,1,0]","location_rts":"[1359,459,1557,1758,1456,395,1287,435,868,486,391,260,1188,1587,706]","trial_type":"two-door-navigation","trial_index":22,"time_elapsed":3769312,"internal_node_id":"0.0-2.0-20.0"},{"group":"dihedral group of order 12","room_assignment":["olive","orange","ivory","yellow","cyan","green","grey","pink","purple","red","brown","blue"],"door_color_assignment":["white","black"],"door_generator_assignment":[1,0],"goal":5,"start":3,"action_noise":0.15,"location_history":"[3,4,5]","action_history":"[0,0]","door_history":"[1,1]","location_rts":"[1615,984]","trial_type":"two-door-navigation","trial_index":23,"time_elapsed":3777754,"internal_node_id":"0.0-2.0-21.0"},{"group":"dihedral group of order 12","room_assignment":["olive","orange","ivory","yellow","cyan","green","grey","pink","purple","red","brown","blue"],"door_color_assignment":["white","black"],"door_generator_assignment":[1,0],"goal":7,"start":5,"action_noise":0.15,"location_history":"[5,0,1,2,3,4,5,0,1,7]","action_history":"[0,0,0,0,0,0,0,0,1]","door_history":"[1,1,1,1,1,1,1,1,0]","location_rts":"[646,1444,1556,506,703,1017,1479,593,1065]","trial_type":"two-door-navigation","trial_index":24,"time_elapsed":3801408,"internal_node_id":"0.0-2.0-22.0"},{"group":"dihedral group of order 12","room_assignment":["olive","orange","ivory","yellow","cyan","green","grey","pink","purple","red","brown","blue"],"door_color_assignment":["white","black"],"door_generator_assignment":[1,0],"goal":3,"start":7,"action_noise":0.15,"location_history":"[7,6,11,10,9,3]","action_history":"[0,0,0,0,1]","door_history":"[1,1,1,1,0]","location_rts":"[2868,451,416,1382,1747]","trial_type":"two-door-navigation","trial_index":25,"time_elapsed":3818156,"internal_node_id":"0.0-2.0-23.0"},{"group":"dihedral group of order 12","room_assignment":["olive","orange","ivory","yellow","cyan","green","grey","pink","purple","red","brown","blue"],"door_color_assignment":["white","black"],"door_generator_assignment":[1,0],"goal":4,"start":3,"action_noise":0.15,"location_history":"[3,4]","action_history":"[0]","door_history":"[1]","location_rts":"[1725]","trial_type":"two-door-navigation","trial_index":26,"time_elapsed":3825016,"internal_node_id":"0.0-2.0-24.0"},{"group":"dihedral group of order 12","room_assignment":["olive","orange","ivory","yellow","cyan","green","grey","pink","purple","red","brown","blue"],"door_color_assignment":["white","black"],"door_generator_assignment":[1,0],"goal":8,"start":4,"action_noise":0.15,"location_history":"[4,5,11,10,9,8]","action_history":"[0,0,0,0,0]","door_history":"[1,1,1,1,1]","location_rts":"[1501,757,1446,1373,702]","trial_type":"two-door-navigation","trial_index":27,"time_elapsed":3840129,"internal_node_id":"0.0-2.0-25.0"},{"group":"dihedral group of order 12","room_assignment":["olive","orange","ivory","yellow","cyan","green","grey","pink","purple","red","brown","blue"],"door_color_assignment":["white","black"],"door_generator_assignment":[1,0],"goal":6,"start":8,"action_noise":0.15,"location_history":"[8,2,3,4,5,11,10,9,8,7,1,2,8,7,1,2,8,7,6]","action_history":"[0,0,0,0,1,0,0,0,0,1,0,0,0,0,0,1,1,0]","door_history":"[1,1,1,1,0,1,1,1,1,0,1,1,1,1,1,0,0,1]","location_rts":"[3511,1224,631,431,403,2300,940,373,1837,1837,1437,556,2384,1017,426,1755,1392,2745]","trial_type":"two-door-navigation","trial_index":28,"time_elapsed":3890707,"internal_node_id":"0.0-2.0-26.0"},{"group":"dihedral group of order 12","room_assignment":["olive","orange","ivory","yellow","cyan","green","grey","pink","purple","red","brown","blue"],"door_color_assignment":["white","black"],"door_generator_assignment":[1,0],"goal":1,"start":6,"action_noise":0.15,"location_history":"[6,11,10,9,3,9,8,7,6,11,5,11,10,9,3,4,10,4,10,9,8,7,6,11,5,0,1]","action_history":"[0,0,0,1,1,0,0,0,0,1,1,0,1,1,0,1,1,0,0,0,0,0,0,1,0,0]","door_history":"[1,1,1,0,0,1,1,1,1,0,0,1,0,0,1,0,0,1,1,1,1,1,1,0,1,1]","location_rts":"[1688,482,1432,1793,342,1290,1187,1195,1102,2821,1302,488,713,3756,909,2769,566,1427,1799,2065,1570,881,3147,1768,1258,313]","trial_type":"two-door-navigation","trial_index":29,"time_elapsed":3964073,"internal_node_id":"0.0-2.0-27.0"},{"group":"dihedral group of order 12","room_assignment":["olive","orange","ivory","yellow","cyan","green","grey","pink","purple","red","brown","blue"],"door_color_assignment":["white","black"],"door_generator_assignment":[1,0],"goal":5,"start":1,"action_noise":0.15,"location_history":"[1,7,1,2,3,4,5]","action_history":"[1,1,0,0,0,0]","door_history":"[0,0,1,1,1,1]","location_rts":"[1944,495,267,3517,1228,475]","trial_type":"two-door-navigation","trial_index":30,"time_elapsed":3982720,"internal_node_id":"0.0-2.0-28.0"},{"group":"dihedral group of order 12","room_assignment":["olive","orange","ivory","yellow","cyan","green","grey","pink","purple","red","brown","blue"],"door_color_assignment":["white","black"],"door_generator_assignment":[1,0],"goal":9,"start":5,"action_noise":0.15,"location_history":"[5,0,1,2,3,9]","action_history":"[0,0,0,0,1]","door_history":"[1,1,1,1,0]","location_rts":"[2914,488,631,1350,2115]","trial_type":"two-door-navigation","trial_index":31,"time_elapsed":4000009,"internal_node_id":"0.0-2.0-29.0"},{"group":"dihedral group of order 12","room_assignment":["olive","orange","ivory","yellow","cyan","green","grey","pink","purple","red","brown","blue"],"door_color_assignment":["white","black"],"door_generator_assignment":[1,0],"goal":10,"start":9,"action_noise":0.15,"location_history":"[9,8,7,6,11,10]","action_history":"[0,0,0,0,0]","door_history":"[1,1,1,1,1]","location_rts":"[2421,1056,1228,506,1212]","trial_type":"two-door-navigation","trial_index":32,"time_elapsed":4016456,"internal_node_id":"0.0-2.0-30.0"},{"group":"dihedral group of order 12","room_assignment":["olive","orange","ivory","yellow","cyan","green","grey","pink","purple","red","brown","blue"],"door_color_assignment":["white","black"],"door_generator_assignment":[1,0],"goal":0,"start":10,"action_noise":0.15,"location_history":"[10,4,5,0]","action_history":"[0,0,0]","door_history":"[1,1,1]","location_rts":"[2029,647,1514]","trial_type":"two-door-navigation","trial_index":33,"time_elapsed":4027894,"internal_node_id":"0.0-2.0-31.0"},{"group":"dihedral group of order 12","room_assignment":["olive","orange","ivory","yellow","cyan","green","grey","pink","purple","red","brown","blue"],"door_color_assignment":["white","black"],"door_generator_assignment":[1,0],"goal":7,"start":0,"action_noise":0.15,"location_history":"[0,1,2,8,2,8,7]","action_history":"[0,0,0,1,1,0]","door_history":"[1,1,1,0,0,1]","location_rts":"[1054,1609,3804,702,1052,1206]","trial_type":"two-door-navigation","trial_index":34,"time_elapsed":4048280,"internal_node_id":"0.0-2.0-32.0"},{"group":"dihedral group of order 12","room_assignment":["olive","orange","ivory","yellow","cyan","green","grey","pink","purple","red","brown","blue"],"door_color_assignment":["white","black"],"door_generator_assignment":[1,0],"goal":11,"start":7,"action_noise":0.15,"location_history":"[7,6,11]","action_history":"[0,0]","door_history":"[1,1]","location_rts":"[1634,1333]","trial_type":"two-door-navigation","trial_index":35,"time_elapsed":4057495,"internal_node_id":"0.0-2.0-33.0"},{"group":"dihedral group of order 12","room_assignment":["olive","orange","ivory","yellow","cyan","green","grey","pink","purple","red","brown","blue"],"door_color_assignment":["white","black"],"door_generator_assignment":[1,0],"goal":2,"start":11,"action_noise":0.15,"location_history":"[11,5,0,1,2]","action_history":"[1,0,0,0]","door_history":"[0,1,1,1]","location_rts":"[1869,1978,446,408]","trial_type":"two-door-navigation","trial_index":36,"time_elapsed":4071397,"internal_node_id":"0.0-2.0-34.0"},{"view_history":"[{\"page_index\":0,\"viewing_time\":1923}]","rt":1923,"trial_type":"instructions","trial_index":37,"time_elapsed":4074340,"internal_node_id":"0.0-3.0"},{"view_history":"[{\"page_index\":0,\"viewing_time\":1336},{\"page_index\":1,\"viewing_time\":2399}]","rt":3736,"trial_type":"instructions","trial_index":38,"time_elapsed":4079101,"internal_node_id":"0.0-4.0"},{"group":"dihedral group of order 12","fractal_assignment":["../images/wht_red.png","../images/cyn_red.png","../images/pnk_blu.png","../images/blu_wht.png","../images/org_blu.png","../images/red_prp.png","../images/grn_red.png","../images/ylw_pnk.png","../images/ylw_slt.png","../images/grn_prp.png","../images/grn_blu.png","../images/gry_blk.png"],"mutagen_generator_assignment":[0,1],"goal":7,"start":3,"action_noise":0.15,"location_history":"[3,9,8,2,3,4,5,0,6,11,10,9,8,7]","action_history":"[0,0,1,0,0,0,0,1,0,0,0,0,0]","mutagen_history":"[0,0,1,0,0,0,0,1,0,0,0,0,0]","location_rts":"[25534,3017,2257,1134,5889,2260,3642,1721,2083,1237,703,2227,3672]","trial_type":"fractal-mutation","trial_index":39,"time_elapsed":4161737,"internal_node_id":"0.0-5.0-0.0"},{"group":"dihedral group of order 12","fractal_assignment":["../images/wht_red.png","../images/cyn_red.png","../images/pnk_blu.png","../images/blu_wht.png","../images/org_blu.png","../images/red_prp.png","../images/grn_red.png","../images/ylw_pnk.png","../images/ylw_slt.png","../images/grn_prp.png","../images/grn_blu.png","../images/gry_blk.png"],"mutagen_generator_assignment":[0,1],"goal":5,"start":7,"action_noise":0.15,"location_history":"[7,6,11,10,4,10,4,5]","action_history":"[0,0,0,1,1,0,0]","mutagen_history":"[0,0,0,1,1,0,0]","location_rts":"[1448,719,1170,1794,2603,4881,2353]","trial_type":"fractal-mutation","trial_index":40,"time_elapsed":4193373,"internal_node_id":"0.0-5.0-1.0"},{"group":"dihedral group of order 12","fractal_assignment":["../images/wht_red.png","../images/cyn_red.png","../images/pnk_blu.png","../images/blu_wht.png","../images/org_blu.png","../images/red_prp.png","../images/grn_red.png","../images/ylw_pnk.png","../images/ylw_slt.png","../images/grn_prp.png","../images/grn_blu.png","../images/gry_blk.png"],"mutagen_generator_assignment":[0,1],"goal":0,"start":5,"action_noise":0.15,"location_history":"[5,0]","action_history":"[0]","mutagen_history":"[0]","location_rts":"[57378]","trial_type":"fractal-mutation","trial_index":41,"time_elapsed":4256136,"internal_node_id":"0.0-5.0-2.0"},{"group":"dihedral group of order 12","fractal_assignment":["../images/wht_red.png","../images/cyn_red.png","../images/pnk_blu.png","../images/blu_wht.png","../images/org_blu.png","../images/red_prp.png","../images/grn_red.png","../images/ylw_pnk.png","../images/ylw_slt.png","../images/grn_prp.png","../images/grn_blu.png","../images/gry_blk.png"],"mutagen_generator_assignment":[0,1],"goal":2,"start":0,"action_noise":0.15,"location_history":"[0,6,11,10,9,3,4,10,4,10,9,8,2]","action_history":"[1,0,0,0,1,0,1,1,1,0,0,1]","mutagen_history":"[1,0,0,0,1,0,1,1,1,0,0,1]","location_rts":"[6896,1303,3841,5421,1305,4032,2268,3899,3020,2671,1066,4823]","trial_type":"fractal-mutation","trial_index":42,"time_elapsed":4323919,"internal_node_id":"0.0-5.0-3.0"},{"group":"dihedral group of order 12","fractal_assignment":["../images/wht_red.png","../images/cyn_red.png","../images/pnk_blu.png","../images/blu_wht.png","../images/org_blu.png","../images/red_prp.png","../images/grn_red.png","../images/ylw_pnk.png","../images/ylw_slt.png","../images/grn_prp.png","../images/grn_blu.png","../images/gry_blk.png"],"mutagen_generator_assignment":[0,1],"goal":10,"start":2,"action_noise":0.15,"location_history":"[2,3,4,10]","action_history":"[0,0,1]","mutagen_history":"[0,0,1]","location_rts":"[6032,2378,2086]","trial_type":"fractal-mutation","trial_index":43,"time_elapsed":4344138,"internal_node_id":"0.0-5.0-4.0"},{"group":"dihedral group of order 12","fractal_assignment":["../images/wht_red.png","../images/cyn_red.png","../images/pnk_blu.png","../images/blu_wht.png","../images/org_blu.png","../images/red_prp.png","../images/grn_red.png","../images/ylw_pnk.png","../images/ylw_slt.png","../images/grn_prp.png","../images/grn_blu.png","../images/gry_blk.png"],"mutagen_generator_assignment":[0,1],"goal":8,"start":10,"action_noise":0.15,"location_history":"[10,9,8]","action_history":"[0,0]","mutagen_history":"[0,0]","location_rts":"[1309,2794]","trial_type":"fractal-mutation","trial_index":44,"time_elapsed":4354741,"internal_node_id":"0.0-5.0-5.0"},{"group":"dihedral group of order 12","fractal_assignment":["../images/wht_red.png","../images/cyn_red.png","../images/pnk_blu.png","../images/blu_wht.png","../images/org_blu.png","../images/red_prp.png","../images/grn_red.png","../images/ylw_pnk.png","../images/ylw_slt.png","../images/grn_prp.png","../images/grn_blu.png","../images/gry_blk.png"],"mutagen_generator_assignment":[0,1],"goal":11,"start":8,"action_noise":0.15,"location_history":"[8,7,6,11]","action_history":"[0,0,0]","mutagen_history":"[0,0,0]","location_rts":"[1066,2963,577]","trial_type":"fractal-mutation","trial_index":45,"time_elapsed":4367471,"internal_node_id":"0.0-5.0-6.0"},{"group":"dihedral group of order 12","fractal_assignment":["../images/wht_red.png","../images/cyn_red.png","../images/pnk_blu.png","../images/blu_wht.png","../images/org_blu.png","../images/red_prp.png","../images/grn_red.png","../images/ylw_pnk.png","../images/ylw_slt.png","../images/grn_prp.png","../images/grn_blu.png","../images/gry_blk.png"],"mutagen_generator_assignment":[0,1],"goal":6,"start":11,"action_noise":0.15,"location_history":"[11,5,11,10,9,8,7,6]","action_history":"[1,0,0,0,0,0,0]","mutagen_history":"[1,0,0,0,0,0,0]","location_rts":"[5441,5149,1443,675,2131,1423,6203]","trial_type":"fractal-mutation","trial_index":46,"time_elapsed":4406820,"internal_node_id":"0.0-5.0-7.0"},{"group":"dihedral group of order 12","fractal_assignment":["../images/wht_red.png","../images/cyn_red.png","../images/pnk_blu.png","../images/blu_wht.png","../images/org_blu.png","../images/red_prp.png","../images/grn_red.png","../images/ylw_pnk.png","../images/ylw_slt.png","../images/grn_prp.png","../images/grn_blu.png","../images/gry_blk.png"],"mutagen_generator_assignment":[0,1],"goal":4,"start":6,"action_noise":0.15,"location_history":"[6,0,1,7,1,7,1,2,3,4]","action_history":"[1,0,1,1,1,1,1,0,1]","mutagen_history":"[1,0,1,1,1,1,1,0,1]","location_rts":"[3376,1841,871,2802,3803,3314,680,69960,1111]","trial_type":"fractal-mutation","trial_index":47,"time_elapsed":4517235,"internal_node_id":"0.0-5.0-8.0"},{"group":"dihedral group of order 12","fractal_assignment":["../images/wht_red.png","../images/cyn_red.png","../images/pnk_blu.png","../images/blu_wht.png","../images/org_blu.png","../images/red_prp.png","../images/grn_red.png","../images/ylw_pnk.png","../images/ylw_slt.png","../images/grn_prp.png","../images/grn_blu.png","../images/gry_blk.png"],"mutagen_generator_assignment":[0,1],"goal":1,"start":4,"action_noise":0.15,"location_history":"[4,5,0,6,0,1]","action_history":"[1,0,1,1,0]","mutagen_history":"[1,0,1,1,0]","location_rts":"[1422,2234,2556,2128,1514]","trial_type":"fractal-mutation","trial_index":48,"time_elapsed":4541533,"internal_node_id":"0.0-5.0-9.0"},{"group":"dihedral group of order 12","fractal_assignment":["../images/wht_red.png","../images/cyn_red.png","../images/pnk_blu.png","../images/blu_wht.png","../images/org_blu.png","../images/red_prp.png","../images/grn_red.png","../images/ylw_pnk.png","../images/ylw_slt.png","../images/grn_prp.png","../images/grn_blu.png","../images/gry_blk.png"],"mutagen_generator_assignment":[0,1],"goal":9,"start":1,"action_noise":0.15,"location_history":"[1,7,6,11,10,9]","action_history":"[0,0,0,0,0]","mutagen_history":"[0,0,0,0,0]","location_rts":"[6104,1276,1390,868,3128]","trial_type":"fractal-mutation","trial_index":49,"time_elapsed":4565989,"internal_node_id":"0.0-5.0-10.0"},{"group":"dihedral group of order 12","fractal_assignment":["../images/wht_red.png","../images/cyn_red.png","../images/pnk_blu.png","../images/blu_wht.png","../images/org_blu.png","../images/red_prp.png","../images/grn_red.png","../images/ylw_pnk.png","../images/ylw_slt.png","../images/grn_prp.png","../images/grn_blu.png","../images/gry_blk.png"],"mutagen_generator_assignment":[0,1],"goal":10,"start":9,"action_noise":0.15,"location_history":"[9,8,2,8,7,6,11,10]","action_history":"[1,1,0,0,0,0,0]","mutagen_history":"[1,1,0,0,0,0,0]","location_rts":"[4538,1869,4845,763,5622,523,566]","trial_type":"fractal-mutation","trial_index":50,"time_elapsed":4601251,"internal_node_id":"0.0-5.0-11.0"},{"group":"dihedral group of order 12","fractal_assignment":["../images/wht_red.png","../images/cyn_red.png","../images/pnk_blu.png","../images/blu_wht.png","../images/org_blu.png","../images/red_prp.png","../images/grn_red.png","../images/ylw_pnk.png","../images/ylw_slt.png","../images/grn_prp.png","../images/grn_blu.png","../images/gry_blk.png"],"mutagen_generator_assignment":[0,1],"goal":2,"start":10,"action_noise":0.15,"location_history":"[10,4,5,11,10,4,5,0,1,2]","action_history":"[1,0,1,0,0,0,0,0,0]","mutagen_history":"[1,0,1,0,0,0,0,0,0]","location_rts":"[1995,1877,1999,1139,4611,893,687,4631,980]","trial_type":"fractal-mutation","trial_index":51,"time_elapsed":4640605,"internal_node_id":"0.0-5.0-12.0"},{"group":"dihedral group of order 12","fractal_assignment":["../images/wht_red.png","../images/cyn_red.png","../images/pnk_blu.png","../images/blu_wht.png","../images/org_blu.png","../images/red_prp.png","../images/grn_red.png","../images/ylw_pnk.png","../images/ylw_slt.png","../images/grn_prp.png","../images/grn_blu.png","../images/gry_blk.png"],"mutagen_generator_assignment":[0,1],"goal":0,"start":2,"action_noise":0.15,"location_history":"[2,8,7,6,11,5,0]","action_history":"[1,0,0,0,1,0]","mutagen_history":"[1,0,0,0,1,0]","location_rts":"[2476,984,2551,1379,605,6261]","trial_type":"fractal-mutation","trial_index":52,"time_elapsed":4671282,"internal_node_id":"0.0-5.0-13.0"},{"group":"dihedral group of order 12","fractal_assignment":["../images/wht_red.png","../images/cyn_red.png","../images/pnk_blu.png","../images/blu_wht.png","../images/org_blu.png","../images/red_prp.png","../images/grn_red.png","../images/ylw_pnk.png","../images/ylw_slt.png","../images/grn_prp.png","../images/grn_blu.png","../images/gry_blk.png"],"mutagen_generator_assignment":[0,1],"goal":9,"start":0,"action_noise":0.15,"location_history":"[0,6,0,1,2,3,9]","action_history":"[1,0,0,0,0,0]","mutagen_history":"[1,0,0,0,0,0]","location_rts":"[1831,1989,3286,616,5718,756]","trial_type":"fractal-mutation","trial_index":53,"time_elapsed":4699643,"internal_node_id":"0.0-5.0-14.0"},{"group":"dihedral group of order 12","fractal_assignment":["../images/wht_red.png","../images/cyn_red.png","../images/pnk_blu.png","../images/blu_wht.png","../images/org_blu.png","../images/red_prp.png","../images/grn_red.png","../images/ylw_pnk.png","../images/ylw_slt.png","../images/grn_prp.png","../images/grn_blu.png","../images/gry_blk.png"],"mutagen_generator_assignment":[0,1],"goal":8,"start":9,"action_noise":0.15,"location_history":"[9,8]","action_history":"[1]","mutagen_history":"[1]","location_rts":"[3517]","trial_type":"fractal-mutation","trial_index":54,"time_elapsed":4709107,"internal_node_id":"0.0-5.0-15.0"},{"group":"dihedral group of order 12","fractal_assignment":["../images/wht_red.png","../images/cyn_red.png","../images/pnk_blu.png","../images/blu_wht.png","../images/org_blu.png","../images/red_prp.png","../images/grn_red.png","../images/ylw_pnk.png","../images/ylw_slt.png","../images/grn_prp.png","../images/grn_blu.png","../images/gry_blk.png"],"mutagen_generator_assignment":[0,1],"goal":6,"start":8,"action_noise":0.15,"location_history":"[8,7,1,7,1,2,8,7,6]","action_history":"[0,0,1,1,0,1,0,0]","mutagen_history":"[0,0,1,1,0,1,0,0]","location_rts":"[3812,1707,1206,67061,720,452,678,840]","trial_type":"fractal-mutation","trial_index":55,"time_elapsed":4803708,"internal_node_id":"0.0-5.0-16.0"},{"group":"dihedral group of order 12","fractal_assignment":["../images/wht_red.png","../images/cyn_red.png","../images/pnk_blu.png","../images/blu_wht.png","../images/org_blu.png","../images/red_prp.png","../images/grn_red.png","../images/ylw_pnk.png","../images/ylw_slt.png","../images/grn_prp.png","../images/grn_blu.png","../images/gry_blk.png"],"mutagen_generator_assignment":[0,1],"goal":1,"start":6,"action_noise":0.15,"location_history":"[6,0,1]","action_history":"[1,0]","mutagen_history":"[1,0]","location_rts":"[1503,659]","trial_type":"fractal-mutation","trial_index":56,"time_elapsed":4813419,"internal_node_id":"0.0-5.0-17.0"},{"group":"dihedral group of order 12","fractal_assignment":["../images/wht_red.png","../images/cyn_red.png","../images/pnk_blu.png","../images/blu_wht.png","../images/org_blu.png","../images/red_prp.png","../images/grn_red.png","../images/ylw_pnk.png","../images/ylw_slt.png","../images/grn_prp.png","../images/grn_blu.png","../images/gry_blk.png"],"mutagen_generator_assignment":[0,1],"goal":4,"start":1,"action_noise":0.15,"location_history":"[1,7,1,7,6,11,10,4]","action_history":"[1,1,1,0,0,0,1]","mutagen_history":"[1,1,1,0,0,0,1]","location_rts":"[1420,710,650,590,433,430,752]","trial_type":"fractal-mutation","trial_index":57,"time_elapsed":4836286,"internal_node_id":"0.0-5.0-18.0"},{"group":"dihedral group of order 12","fractal_assignment":["../images/wht_red.png","../images/cyn_red.png","../images/pnk_blu.png","../images/blu_wht.png","../images/org_blu.png","../images/red_prp.png","../images/grn_red.png","../images/ylw_pnk.png","../images/ylw_slt.png","../images/grn_prp.png","../images/grn_blu.png","../images/gry_blk.png"],"mutagen_generator_assignment":[0,1],"goal":11,"start":4,"action_noise":0.15,"location_history":"[4,5,11]","action_history":"[0,1]","mutagen_history":"[0,1]","location_rts":"[1471,56604]","trial_type":"fractal-mutation","trial_index":58,"time_elapsed":4901870,"internal_node_id":"0.0-5.0-19.0"},{"group":"dihedral group of order 12","fractal_assignment":["../images/wht_red.png","../images/cyn_red.png","../images/pnk_blu.png","../images/blu_wht.png","../images/org_blu.png","../images/red_prp.png","../images/grn_red.png","../images/ylw_pnk.png","../images/ylw_slt.png","../images/grn_prp.png","../images/grn_blu.png","../images/gry_blk.png"],"mutagen_generator_assignment":[0,1],"goal":3,"start":11,"action_noise":0.15,"location_history":"[11,10,4,5,11,10,9,3]","action_history":"[0,1,1,1,0,0,1]","mutagen_history":"[0,1,1,1,0,0,1]","location_rts":"[1243,626,414,949,561,993,1036]","trial_type":"fractal-mutation","trial_index":59,"time_elapsed":4924340,"internal_node_id":"0.0-5.0-20.0"},{"group":"dihedral group of order 12","fractal_assignment":["../images/wht_red.png","../images/cyn_red.png","../images/pnk_blu.png","../images/blu_wht.png","../images/org_blu.png","../images/red_prp.png","../images/grn_red.png","../images/ylw_pnk.png","../images/ylw_slt.png","../images/grn_prp.png","../images/grn_blu.png","../images/gry_blk.png"],"mutagen_generator_assignment":[0,1],"goal":5,"start":3,"action_noise":0.15,"location_history":"[3,9,8,7,6,11,5]","action_history":"[0,0,0,0,0,0]","mutagen_history":"[0,0,0,0,0,0]","location_rts":"[1187,533,551,461,436,902]","trial_type":"fractal-mutation","trial_index":60,"time_elapsed":4941824,"internal_node_id":"0.0-5.0-21.0"},{"group":"dihedral group of order 12","fractal_assignment":["../images/wht_red.png","../images/cyn_red.png","../images/pnk_blu.png","../images/blu_wht.png","../images/org_blu.png","../images/red_prp.png","../images/grn_red.png","../images/ylw_pnk.png","../images/ylw_slt.png","../images/grn_prp.png","../images/grn_blu.png","../images/gry_blk.png"],"mutagen_generator_assignment":[0,1],"goal":7,"start":5,"action_noise":0.15,"location_history":"[5,0,1,2,3,4,5,0,1,2,3,4,10,9,3,9,8,7]","action_history":"[0,0,1,0,0,0,0,0,0,0,0,0,0,0,0,0,0]","mutagen_history":"[0,0,1,0,0,0,0,0,0,0,0,0,0,0,0,0,0]","location_rts":"[1119,888,831,628,520,904,952,649,2007,871,766,871,548,446,603,981,733]","trial_type":"fractal-mutation","trial_index":61,"time_elapsed":4988712,"internal_node_id":"0.0-5.0-22.0"},{"group":"dihedral group of order 12","fractal_assignment":["../images/wht_red.png","../images/cyn_red.png","../images/pnk_blu.png","../images/blu_wht.png","../images/org_blu.png","../images/red_prp.png","../images/grn_red.png","../images/ylw_pnk.png","../images/ylw_slt.png","../images/grn_prp.png","../images/grn_blu.png","../images/gry_blk.png"],"mutagen_generator_assignment":[0,1],"goal":3,"start":7,"action_noise":0.15,"location_history":"[7,6,0,1,7,1,2,3]","action_history":"[0,1,0,0,0,0,0]","mutagen_history":"[0,1,0,0,0,0,0]","location_rts":"[1483,1245,2148,665,719,657,668]","trial_type":"fractal-mutation","trial_index":62,"time_elapsed":5013005,"internal_node_id":"0.0-5.0-23.0"},{"group":"dihedral group of order 12","fractal_assignment":["../images/wht_red.png","../images/cyn_red.png","../images/pnk_blu.png","../images/blu_wht.png","../images/org_blu.png","../images/red_prp.png","../images/grn_red.png","../images/ylw_pnk.png","../images/ylw_slt.png","../images/grn_prp.png","../images/grn_blu.png","../images/gry_blk.png"],"mutagen_generator_assignment":[0,1],"goal":4,"start":3,"action_noise":0.15,"location_history":"[3,9,8,2,8,7,6,11,10,4]","action_history":"[1,0,1,1,0,0,0,0,1]","mutagen_history":"[1,0,1,1,0,0,0,0,1]","location_rts":"[1125,1080,828,759,662,647,716,2539,952]","trial_type":"fractal-mutation","trial_index":63,"time_elapsed":5042813,"internal_node_id":"0.0-5.0-24.0"},{"group":"dihedral group of order 12","fractal_assignment":["../images/wht_red.png","../images/cyn_red.png","../images/pnk_blu.png","../images/blu_wht.png","../images/org_blu.png","../images/red_prp.png","../images/grn_red.png","../images/ylw_pnk.png","../images/ylw_slt.png","../images/grn_prp.png","../images/grn_blu.png","../images/gry_blk.png"],"mutagen_generator_assignment":[0,1],"goal":8,"start":4,"action_noise":0.15,"location_history":"[4,5,0,1,2,3,4,5,11,10,9,8]","action_history":"[0,0,0,0,0,0,0,1,0,0,0]","mutagen_history":"[0,0,0,0,0,0,0,1,0,0,0]","location_rts":"[966,604,1107,579,476,946,545,640,1110,319,489]","trial_type":"fractal-mutation","trial_index":64,"time_elapsed":5073143,"internal_node_id":"0.0-5.0-25.0"},{"group":"dihedral group of order 12","fractal_assignment":["../images/wht_red.png","../images/cyn_red.png","../images/pnk_blu.png","../images/blu_wht.png","../images/org_blu.png","../images/red_prp.png","../images/grn_red.png","../images/ylw_pnk.png","../images/ylw_slt.png","../images/grn_prp.png","../images/grn_blu.png","../images/gry_blk.png"],"mutagen_generator_assignment":[0,1],"goal":6,"start":8,"action_noise":0.15,"location_history":"[8,7,1,2,3,4,5,0,1,2,3,4,5,0,6]","action_history":"[0,1,0,0,0,0,0,1,0,0,0,0,0,0]","mutagen_history":"[0,1,0,0,0,0,0,1,0,0,0,0,0,0]","location_rts":"[1131,832,716,989,744,635,734,2430,797,590,7,848,698,783]","trial_type":"fractal-mutation","trial_index":65,"time_elapsed":5114003,"internal_node_id":"0.0-5.0-26.0"},{"group":"dihedral group of order 12","fractal_assignment":["../images/wht_red.png","../images/cyn_red.png","../images/pnk_blu.png","../images/blu_wht.png","../images/org_blu.png","../images/red_prp.png","../images/grn_red.png","../images/ylw_pnk.png","../images/ylw_slt.png","../images/grn_prp.png","../images/grn_blu.png","../images/gry_blk.png"],"mutagen_generator_assignment":[0,1],"goal":1,"start":6,"action_noise":0.15,"location_history":"[6,0,6,0,1]","action_history":"[1,1,1,0]","mutagen_history":"[1,1,1,0]","location_rts":"[1134,747,810,627]","trial_type":"fractal-mutation","trial_index":66,"time_elapsed":5128851,"internal_node_id":"0.0-5.0-27.0"},{"group":"dihedral group of order 12","fractal_assignment":["../images/wht_red.png","../images/cyn_red.png","../images/pnk_blu.png","../images/blu_wht.png","../images/org_blu.png","../images/red_prp.png","../images/grn_red.png","../images/ylw_pnk.png","../images/ylw_slt.png","../images/grn_prp.png","../images/grn_blu.png","../images/gry_blk.png"],"mutagen_generator_assignment":[0,1],"goal":5,"start":1,"action_noise":0.15,"location_history":"[1,2,3,4,5]","action_history":"[0,0,0,0]","mutagen_history":"[0,0,0,0]","location_rts":"[1704,838,796,912]","trial_type":"fractal-mutation","trial_index":67,"time_elapsed":5141917,"internal_node_id":"0.0-5.0-28.0"},{"group":"dihedral group of order 12","fractal_assignment":["../images/wht_red.png","../images/cyn_red.png","../images/pnk_blu.png","../images/blu_wht.png","../images/org_blu.png","../images/red_prp.png","../images/grn_red.png","../images/ylw_pnk.png","../images/ylw_slt.png","../images/grn_prp.png","../images/grn_blu.png","../images/gry_blk.png"],"mutagen_generator_assignment":[0,1],"goal":9,"start":5,"action_noise":0.15,"location_history":"[5,11,10,9]","action_history":"[1,0,0]","mutagen_history":"[1,0,0]","location_rts":"[1210,715,749]","trial_type":"fractal-mutation","trial_index":68,"time_elapsed":5153372,"internal_node_id":"0.0-5.0-29.0"},{"group":"dihedral group of order 12","fractal_assignment":["../images/wht_red.png","../images/cyn_red.png","../images/pnk_blu.png","../images/blu_wht.png","../images/org_blu.png","../images/red_prp.png","../images/grn_red.png","../images/ylw_pnk.png","../images/ylw_slt.png","../images/grn_prp.png","../images/grn_blu.png","../images/gry_blk.png"],"mutagen_generator_assignment":[0,1],"goal":10,"start":9,"action_noise":0.15,"location_history":"[9,3,9,8,7,6,11,10]","action_history":"[1,1,0,0,0,0,0]","mutagen_history":"[1,1,0,0,0,0,0]","location_rts":"[1605,699,828,609,481,534,473]","trial_type":"fractal-mutation","trial_index":69,"time_elapsed":5175626,"internal_node_id":"0.0-5.0-30.0"},{"group":"dihedral group of order 12","fractal_assignment":["../images/wht_red.png","../images/cyn_red.png","../images/pnk_blu.png","../images/blu_wht.png","../images/org_blu.png","../images/red_prp.png","../images/grn_red.png","../images/ylw_pnk.png","../images/ylw_slt.png","../images/grn_prp.png","../images/grn_blu.png","../images/gry_blk.png"],"mutagen_generator_assignment":[0,1],"goal":0,"start":10,"action_noise":0.15,"location_history":"[10,9,8,7,6,11,10,9,3,4,5,0]","action_history":"[0,0,0,0,0,0,0,0,0,0,0]","mutagen_history":"[0,0,0,0,0,0,0,0,0,0,0]","location_rts":"[1079,480,518,522,600,855,521,563,580,687,752]","trial_type":"fractal-mutation","trial_index":70,"time_elapsed":5204805,"internal_node_id":"0.0-5.0-31.0"},{"group":"dihedral group of order 12","fractal_assignment":["../images/wht_red.png","../images/cyn_red.png","../images/pnk_blu.png","../images/blu_wht.png","../images/org_blu.png","../images/red_prp.png","../images/grn_red.png","../images/ylw_pnk.png","../images/ylw_slt.png","../images/grn_prp.png","../images/grn_blu.png","../images/gry_blk.png"],"mutagen_generator_assignment":[0,1],"goal":7,"start":0,"action_noise":0.15,"location_history":"[0,6,0,1,7]","action_history":"[1,1,0,1]","mutagen_history":"[1,1,0,1]","location_rts":"[2302,2119,1864,795]","trial_type":"fractal-mutation","trial_index":71,"time_elapsed":5224167,"internal_node_id":"0.0-5.0-32.0"},{"group":"dihedral group of order 12","fractal_assignment":["../images/wht_red.png","../images/cyn_red.png","../images/pnk_blu.png","../images/blu_wht.png","../images/org_blu.png","../images/red_prp.png","../images/grn_red.png","../images/ylw_pnk.png","../images/ylw_slt.png","../images/grn_prp.png","../images/grn_blu.png","../images/gry_blk.png"],"mutagen_generator_assignment":[0,1],"goal":11,"start":7,"action_noise":0.15,"location_history":"[7,6,11]","action_history":"[0,0]","mutagen_history":"[0,0]","location_rts":"[1201,642]","trial_type":"fractal-mutation","trial_index":72,"time_elapsed":5232163,"internal_node_id":"0.0-5.0-33.0"},{"group":"dihedral group of order 12","fractal_assignment":["../images/wht_red.png","../images/cyn_red.png","../images/pnk_blu.png","../images/blu_wht.png","../images/org_blu.png","../images/red_prp.png","../images/grn_red.png","../images/ylw_pnk.png","../images/ylw_slt.png","../images/grn_prp.png","../images/grn_blu.png","../images/gry_blk.png"],"mutagen_generator_assignment":[0,1],"goal":2,"start":11,"action_noise":0.15,"location_history":"[11,10,9,3,4,10,9,8,2]","action_history":"[0,0,1,0,1,0,0,0]","mutagen_history":"[0,0,1,0,1,0,0,0]","location_rts":"[6629,1208,1242,709,727,774,688,2528]","trial_type":"fractal-mutation","trial_index":73,"time_elapsed":5264325,"internal_node_id":"0.0-5.0-34.0"},{"view_history":"[{\"page_index\":0,\"viewing_time\":2471}]","rt":2472,"trial_type":"instructions","trial_index":74,"time_elapsed":5267800,"internal_node_id":"0.0-6.0"},{"rt":14584,"responses":"{\"Q0\":\"How people can remember rooms and their spatial memory.\"}","trial_type":"survey-text","trial_index":75,"time_elapsed":5283415,"internal_node_id":"0.0-7.0-0.0"},{"rt":8504,"responses":"{\"Q0\":\"How people can remember combinations.\"}","trial_type":"survey-text","trial_index":76,"time_elapsed":5292922,"internal_node_id":"0.0-7.0-1.0"},{"rt":8012,"responses":"{\"Q0\":\"2\"}","trial_type":"survey-likert","trial_index":77,"time_elapsed":5301941,"internal_node_id":"0.0-7.0-2.0"},{"rt":13069,"responses":"{\"Q0\":\"They both had patterns of correct solutions.\"}","trial_type":"survey-text","trial_index":78,"time_elapsed":5316039,"internal_node_id":"0.0-7.0-3.0"},{"rt":4803,"responses":"{\"Q0\":\"No\"}","trial_type":"survey-multi-choice","trial_index":79,"time_elapsed":5321885,"internal_node_id":"0.0-7.0-4.0"},{"rt":5058,"responses":"{\"Q0\":\"Did not notice\"}","trial_type":"survey-multi-choice","trial_index":80,"time_elapsed":5327975,"internal_node_id":"0.0-7.0-5.0"},{"rt":2050,"responses":"{\"Q0\":\"\"}","trial_type":"survey-text","trial_index":81,"time_elapsed":5331036,"internal_node_id":"0.0-7.0-6.0"},{"rt":5376,"responses":"{\"Q0\":\"1\"}","trial_type":"survey-likert","trial_index":82,"time_elapsed":5337469,"internal_node_id":"0.0-7.0-7.0"},{"rt":8074,"responses":"{\"Q0\":\"Same structure\"}","trial_type":"survey-multi-choice","trial_index":83,"time_elapsed":5346590,"internal_node_id":"0.0-7.0-8.0"},{"rt":10032,"responses":"{\"Q0\":\"white door = acid, black door = ray\",\"Q1\":\"Not at all confident\"}","trial_type":"survey-multi-choice","trial_index":84,"time_elapsed":5357681,"internal_node_id":"0.0-7.0-9.0"},{"rt":16921,"responses":"{\"Q0\":\"25-35\",\"Q1\":\"Bachelor's degree\",\"Q2\":\"Male\",\"Q3\":\"Asian\"}","trial_type":"survey-multi-choice","trial_index":85,"time_elapsed":5375654,"internal_node_id":"0.0-8.0"},{"rt":7893,"responses":"{\"Q0\":\"Thank you!\"}","trial_type":"survey-text","trial_index":86,"time_elapsed":5384572,"internal_node_id":"0.0-9.0"}]