[{"view_history":"[{\"page_index\":0,\"viewing_time\":3404534},{\"page_index\":1,\"viewing_time\":5046}]","rt":3409580,"trial_type":"instructions","trial_index":0,"time_elapsed":3409582,"internal_node_id":"0.0-0.0"},{"view_history":"[{\"page_index\":0,\"viewing_time\":2286},{\"page_index\":1,\"viewing_time\":1104}]","rt":3390,"trial_type":"instructions","trial_index":1,"time_elapsed":3413973,"internal_node_id":"0.0-1.0"},{"group":"dicyclic group of order 12","room_assignment":["orange","red","olive","blue","grey","yellow","ivory","brown","green","cyan","purple","pink"],"door_color_assignment":["white","black"],"door_generator_assignment":[1,0],"goal":7,"start":3,"action_noise":0.15,"location_history":"[3,0,4,8,0,4,9,6,11,3,7]","action_history":"[0,0,1,1,0,0,0,1,1,1]","door_history":"[1,1,0,0,1,1,1,0,0,0]","location_rts":"[749,658,144,774,415,30,150,549,153,232]","trial_type":"two-door-navigation","trial_index":2,"time_elapsed":3431515,"internal_node_id":"0.0-2.0-0.0"},{"group":"dicyclic group of order 12","room_assignment":["orange","red","olive","blue","grey","yellow","ivory","brown","green","cyan","purple","pink"],"door_color_assignment":["white","black"],"door_generator_assignment":[1,0],"goal":5,"start":7,"action_noise":0.15,"location_history":"[7,8,0,1,2,6,10,2,3,7,11,4,8,5]","action_history":"[0,0,0,0,1,1,1,1,1,1,0,1,0]","door_history":"[1,1,1,1,0,0,0,0,0,0,1,0,1]","location_rts":"[225,168,2058,260,597,83,245,238,377,49,95,484,342]","trial_type":"two-door-navigation","trial_index":3,"time_elapsed":3454052,"internal_node_id":"0.0-2.0-1.0"},{"group":"dicyclic group of order 12","room_assignment":["orange","red","olive","blue","grey","yellow","ivory","brown","green","cyan","purple","pink"],"door_color_assignment":["white","black"],"door_generator_assignment":[1,0],"goal":0,"start":5,"action_noise":0.15,"location_history":"[5,10,7,11,3,0]","action_history":"[0,0,1,1,0]","door_history":"[1,1,0,0,1]","location_rts":"[440,447,82,332,135]","trial_type":"two-door-navigation","trial_index":4,"time_elapsed":3464075,"internal_node_id":"0.0-2.0-2.0"},{"group":"dicyclic group of order 12","room_assignment":["orange","red","olive","blue","grey","yellow","ivory","brown","green","cyan","purple","pink"],"door_color_assignment":["white","black"],"door_generator_assignment":[1,0],"goal":2,"start":0,"action_noise":0.15,"location_history":"[0,1,5,10,2]","action_history":"[1,1,0,1]","door_history":"[0,0,1,0]","location_rts":"[521,158,444,445]","trial_type":"two-door-navigation","trial_index":5,"time_elapsed":3473221,"internal_node_id":"0.0-2.0-3.0"},{"group":"dicyclic group of order 12","room_assignment":["orange","red","olive","blue","grey","yellow","ivory","brown","green","cyan","purple","pink"],"door_color_assignment":["white","black"],"door_generator_assignment":[1,0],"goal":10,"start":2,"action_noise":0.15,"location_history":"[2,3,0,4,8,5,9,6,10]","action_history":"[0,0,1,1,0,0,0,1]","door_history":"[1,1,0,0,1,1,1,0]","location_rts":"[766,189,270,295,253,230,203,351]","trial_type":"two-door-navigation","trial_index":6,"time_elapsed":3487426,"internal_node_id":"0.0-2.0-4.0"},{"group":"dicyclic group of order 12","room_assignment":["orange","red","olive","blue","grey","yellow","ivory","brown","green","cyan","purple","pink"],"door_color_assignment":["white","black"],"door_generator_assignment":[1,0],"goal":8,"start":10,"action_noise":0.15,"location_history":"[10,7,8]","action_history":"[0,0]","door_history":"[1,1]","location_rts":"[643,269]","trial_type":"two-door-navigation","trial_index":7,"time_elapsed":3493878,"internal_node_id":"0.0-2.0-5.0"},{"group":"dicyclic group of order 12","room_assignment":["orange","red","olive","blue","grey","yellow","ivory","brown","green","cyan","purple","pink"],"door_color_assignment":["white","black"],"door_generator_assignment":[1,0],"goal":11,"start":8,"action_noise":0.15,"location_history":"[8,0,4,8,5,10,2,3,0,1,5,10,2,3,7,11]","action_history":"[1,1,1,0,1,1,0,0,0,1,0,0,0,1,1]","door_history":"[0,0,0,1,0,0,1,1,1,0,1,1,1,0,0]","location_rts":"[478,334,285,274,319,279,309,206,350,310,304,302,329,382,246]","trial_type":"two-door-navigation","trial_index":8,"time_elapsed":3517346,"internal_node_id":"0.0-2.0-6.0"},{"group":"dicyclic group of order 12","room_assignment":["orange","red","olive","blue","grey","yellow","ivory","brown","green","cyan","purple","pink"],"door_color_assignment":["white","black"],"door_generator_assignment":[1,0],"goal":6,"start":11,"action_noise":0.15,"location_history":"[11,3,7,11,3,7,8,5,10,7,8,5,10,7,8,5,10,2,3,7,8,5,9,1,2,3,0,1,2,6]","action_history":"[1,1,1,1,0,0,0,0,0,0,0,0,0,0,0,0,1,1,1,1,1,1,1,0,0,0,0,1,1]","door_history":"[0,0,0,0,1,1,1,1,1,1,1,1,1,1,1,1,0,0,0,0,0,0,0,1,1,1,1,0,0]","location_rts":"[691,143,320,158,255,296,305,31,199,268,285,335,3341,36,200,215,154,42,169,207,273,377,253,294,246,392,279,269,304]","trial_type":"two-door-navigation","trial_index":9,"time_elapsed":3560685,"internal_node_id":"0.0-2.0-7.0"},{"group":"dicyclic group of order 12","room_assignment":["orange","red","olive","blue","grey","yellow","ivory","brown","green","cyan","purple","pink"],"door_color_assignment":["white","black"],"door_generator_assignment":[1,0],"goal":4,"start":6,"action_noise":0.15,"location_history":"[6,10,7,11,3,0,4]","action_history":"[1,1,1,1,0,1]","door_history":"[0,0,0,0,1,0]","location_rts":"[390,288,86,315,142,383]","trial_type":"two-door-navigation","trial_index":10,"time_elapsed":3571899,"internal_node_id":"0.0-2.0-8.0"},{"group":"dicyclic group of order 12","room_assignment":["orange","red","olive","blue","grey","yellow","ivory","brown","green","cyan","purple","pink"],"door_color_assignment":["white","black"],"door_generator_assignment":[1,0],"goal":1,"start":4,"action_noise":0.15,"location_history":"[4,8,0,1]","action_history":"[1,1,1]","door_history":"[0,0,0]","location_rts":"[297,510,0]","trial_type":"two-door-navigation","trial_index":11,"time_elapsed":3579259,"internal_node_id":"0.0-2.0-9.0"},{"group":"dicyclic group of order 12","room_assignment":["orange","red","olive","blue","grey","yellow","ivory","brown","green","cyan","purple","pink"],"door_color_assignment":["white","black"],"door_generator_assignment":[1,0],"goal":9,"start":1,"action_noise":0.15,"location_history":"[1,5,9]","action_history":"[1,1]","door_history":"[0,0]","location_rts":"[226,32]","trial_type":"two-door-navigation","trial_index":12,"time_elapsed":3585050,"internal_node_id":"0.0-2.0-10.0"},{"group":"dicyclic group of order 12","room_assignment":["orange","red","olive","blue","grey","yellow","ivory","brown","green","cyan","purple","pink"],"door_color_assignment":["white","black"],"door_generator_assignment":[1,0],"goal":10,"start":9,"action_noise":0.15,"location_history":"[9,6,11,4,9,6,10]","action_history":"[0,0,0,0,1,1]","door_history":"[1,1,1,1,0,0]","location_rts":"[385,237,183,167,776,212]","trial_type":"two-door-navigation","trial_index":13,"time_elapsed":3596617,"internal_node_id":"0.0-2.0-11.0"},{"group":"dicyclic group of order 12","room_assignment":["orange","red","olive","blue","grey","yellow","ivory","brown","green","cyan","purple","pink"],"door_color_assignment":["white","black"],"door_generator_assignment":[1,0],"goal":2,"start":10,"action_noise":0.15,"location_history":"[10,7,8,5,10,7,8,5,10,7,11,3,0,4,8,5,9,1,5,10,2]","action_history":"[0,0,0,0,0,0,0,0,0,1,1,1,1,0,0,1,1,1,1,1]","door_history":"[1,1,1,1,1,1,1,1,1,0,0,0,0,1,1,0,0,0,0,0]","location_rts":"[227,332,230,175,127,247,215,191,117,113,118,224,151,960,293,246,269,110,303,245]","trial_type":"two-door-navigation","trial_index":14,"time_elapsed":3625366,"internal_node_id":"0.0-2.0-12.0"},{"group":"dicyclic group of order 12","room_assignment":["orange","red","olive","blue","grey","yellow","ivory","brown","green","cyan","purple","pink"],"door_color_assignment":["white","black"],"door_generator_assignment":[1,0],"goal":0,"start":2,"action_noise":0.15,"location_history":"[2,6,11,4,9,6,11,3,7,8,5,10,7,8,0]","action_history":"[0,0,0,0,0,0,1,1,0,0,0,0,0,1]","door_history":"[1,1,1,1,1,1,0,0,1,1,1,1,1,0]","location_rts":"[270,190,248,257,327,277,1202,255,274,221,286,373,190,303]","trial_type":"two-door-navigation","trial_index":15,"time_elapsed":3647778,"internal_node_id":"0.0-2.0-13.0"},{"group":"dicyclic group of order 12","room_assignment":["orange","red","olive","blue","grey","yellow","ivory","brown","green","cyan","purple","pink"],"door_color_assignment":["white","black"],"door_generator_assignment":[1,0],"goal":9,"start":0,"action_noise":0.15,"location_history":"[0,4,8,5,9]","action_history":"[1,1,1,1]","door_history":"[0,0,0,0]","location_rts":"[26,239,494,32]","trial_type":"two-door-navigation","trial_index":16,"time_elapsed":3656141,"internal_node_id":"0.0-2.0-14.0"},{"group":"dicyclic group of order 12","room_assignment":["orange","red","olive","blue","grey","yellow","ivory","brown","green","cyan","purple","pink"],"door_color_assignment":["white","black"],"door_generator_assignment":[1,0],"goal":8,"start":9,"action_noise":0.15,"location_history":"[9,6,11,3,0,4,9,6,11,4,8]","action_history":"[0,1,1,1,1,1,0,0,0,1]","door_history":"[1,0,0,0,0,0,1,1,1,0]","location_rts":"[222,116,1119,269,231,317,79,254,246,193]","trial_type":"two-door-navigation","trial_index":17,"time_elapsed":3672869,"internal_node_id":"0.0-2.0-15.0"},{"group":"dicyclic group of order 12","room_assignment":["orange","red","olive","blue","grey","yellow","ivory","brown","green","cyan","purple","pink"],"door_color_assignment":["white","black"],"door_generator_assignment":[1,0],"goal":6,"start":8,"action_noise":0.15,"location_history":"[8,0,4,8,5,10,2,6]","action_history":"[1,1,1,0,0,1,1]","door_history":"[0,0,0,1,1,0,0]","location_rts":"[335,196,246,142,60,192,133]","trial_type":"two-door-navigation","trial_index":18,"time_elapsed":3684804,"internal_node_id":"0.0-2.0-16.0"},{"group":"dicyclic group of order 12","room_assignment":["orange","red","olive","blue","grey","yellow","ivory","brown","green","cyan","purple","pink"],"door_color_assignment":["white","black"],"door_generator_assignment":[1,0],"goal":1,"start":6,"action_noise":0.15,"location_history":"[6,11,4,9,1]","action_history":"[0,0,0,0]","door_history":"[1,1,1,1]","location_rts":"[377,246,807,190]","trial_type":"two-door-navigation","trial_index":19,"time_elapsed":3693993,"internal_node_id":"0.0-2.0-17.0"},{"group":"dicyclic group of order 12","room_assignment":["orange","red","olive","blue","grey","yellow","ivory","brown","green","cyan","purple","pink"],"door_color_assignment":["white","black"],"door_generator_assignment":[1,0],"goal":4,"start":1,"action_noise":0.15,"location_history":"[1,2,6,10,2,6,10,2,6,10,2,6,10,7,11,4]","action_history":"[0,0,1,1,1,1,1,1,1,1,1,1,0,0,0]","door_history":"[1,1,0,0,0,0,0,0,0,0,0,0,1,1,1]","location_rts":"[306,267,1262,63,2151,1164,690,121,76,30,1629,44,743,64,111]","trial_type":"two-door-navigation","trial_index":20,"time_elapsed":3721476,"internal_node_id":"0.0-2.0-18.0"},{"group":"dicyclic group of order 12","room_assignment":["orange","red","olive","blue","grey","yellow","ivory","brown","green","cyan","purple","pink"],"door_color_assignment":["white","black"],"door_generator_assignment":[1,0],"goal":11,"start":4,"action_noise":0.15,"location_history":"[4,9,1,5,9,1,5,10,2,3,7,8,5,10,7,11]","action_history":"[1,1,1,1,1,1,0,1,0,0,0,0,0,1,1]","door_history":"[0,0,0,0,0,0,1,0,1,1,1,1,1,0,0]","location_rts":"[424,528,382,135,279,270,215,430,245,244,205,253,310,257,148]","trial_type":"two-door-navigation","trial_index":21,"time_elapsed":3744571,"internal_node_id":"0.0-2.0-19.0"},{"group":"dicyclic group of order 12","room_assignment":["orange","red","olive","blue","grey","yellow","ivory","brown","green","cyan","purple","pink"],"door_color_assignment":["white","black"],"door_generator_assignment":[1,0],"goal":3,"start":11,"action_noise":0.15,"location_history":"[11,3]","action_history":"[1]","door_history":"[0]","location_rts":"[257]","trial_type":"two-door-navigation","trial_index":22,"time_elapsed":3749348,"internal_node_id":"0.0-2.0-20.0"},{"group":"dicyclic group of order 12","room_assignment":["orange","red","olive","blue","grey","yellow","ivory","brown","green","cyan","purple","pink"],"door_color_assignment":["white","black"],"door_generator_assignment":[1,0],"goal":5,"start":3,"action_noise":0.15,"location_history":"[3,7,11,4,9,6,11,3,7,11,3,7,11,3,7,8,0,4,8,5]","action_history":"[1,1,0,0,0,0,1,1,1,1,1,1,1,1,1,1,1,1,0]","door_history":"[0,0,1,1,1,1,0,0,0,0,0,0,0,0,0,0,0,0,1]","location_rts":"[375,302,257,206,326,302,452,78,1271,251,271,109,232,520,967,821,42,87,69]","trial_type":"two-door-navigation","trial_index":23,"time_elapsed":3779122,"internal_node_id":"0.0-2.0-21.0"},{"group":"dicyclic group of order 12","room_assignment":["orange","red","olive","blue","grey","yellow","ivory","brown","green","cyan","purple","pink"],"door_color_assignment":["white","black"],"door_generator_assignment":[1,0],"goal":7,"start":5,"action_noise":0.15,"location_history":"[5,9,6,10,7]","action_history":"[0,0,0,1]","door_history":"[1,1,1,0]","location_rts":"[282,95,260,25]","trial_type":"two-door-navigation","trial_index":24,"time_elapsed":3787361,"internal_node_id":"0.0-2.0-22.0"},{"group":"dicyclic group of order 12","room_assignment":["orange","red","olive","blue","grey","yellow","ivory","brown","green","cyan","purple","pink"],"door_color_assignment":["white","black"],"door_generator_assignment":[1,0],"goal":3,"start":7,"action_noise":0.15,"location_history":"[7,11,4,9,6,10,2,6,10,7,8,0,4,8,5,9,1,5,10,7,8,5,10,7,8,0,1,2,3]","action_history":"[0,0,0,0,1,1,1,0,0,0,1,1,1,1,1,1,1,1,0,0,0,0,0,0,0,0,0,0]","door_history":"[1,1,1,1,0,0,0,1,1,1,0,0,0,0,0,0,0,0,1,1,1,1,1,1,1,1,1,1]","location_rts":"[1235,407,5375,609,146,131,2879,148,862,735,351,171,200,246,311,262,510,265,288,215,288,294,318,295,319,317,277,290]","trial_type":"two-door-navigation","trial_index":25,"time_elapsed":3837092,"internal_node_id":"0.0-2.0-23.0"},{"group":"dicyclic group of order 12","room_assignment":["orange","red","olive","blue","grey","yellow","ivory","brown","green","cyan","purple","pink"],"door_color_assignment":["white","black"],"door_generator_assignment":[1,0],"goal":4,"start":3,"action_noise":0.15,"location_history":"[3,7,11,3,7,8,5,9,6,11,4]","action_history":"[1,1,1,1,1,0,0,0,0,0]","door_history":"[0,0,0,0,0,1,1,1,1,1]","location_rts":"[1087,254,256,520,559,289,174,784,646,551]","trial_type":"two-door-navigation","trial_index":26,"time_elapsed":3855886,"internal_node_id":"0.0-2.0-24.0"},{"group":"dicyclic group of order 12","room_assignment":["orange","red","olive","blue","grey","yellow","ivory","brown","green","cyan","purple","pink"],"door_color_assignment":["white","black"],"door_generator_assignment":[1,0],"goal":8,"start":4,"action_noise":0.15,"location_history":"[4,8]","action_history":"[1]","door_history":"[0]","location_rts":"[214]","trial_type":"two-door-navigation","trial_index":27,"time_elapsed":3860621,"internal_node_id":"0.0-2.0-25.0"},{"group":"dicyclic group of order 12","room_assignment":["orange","red","olive","blue","grey","yellow","ivory","brown","green","cyan","purple","pink"],"door_color_assignment":["white","black"],"door_generator_assignment":[1,0],"goal":6,"start":8,"action_noise":0.15,"location_history":"[8,0,4,8,0,1,2,3,0,1,2,6]","action_history":"[1,1,1,1,0,0,0,0,0,0,1]","door_history":"[0,0,0,0,1,1,1,1,1,1,0]","location_rts":"[391,237,215,240,301,229,343,289,284,262,49]","trial_type":"two-door-navigation","trial_index":28,"time_elapsed":3878155,"internal_node_id":"0.0-2.0-26.0"},{"group":"dicyclic group of order 12","room_assignment":["orange","red","olive","blue","grey","yellow","ivory","brown","green","cyan","purple","pink"],"door_color_assignment":["white","black"],"door_generator_assignment":[1,0],"goal":1,"start":6,"action_noise":0.15,"location_history":"[6,10,2,3,0,4,8,0,4,9,6,11,3,0,1]","action_history":"[1,1,1,1,1,1,1,1,0,0,0,1,0,0]","door_history":"[0,0,0,0,0,0,0,0,1,1,1,0,1,1]","location_rts":"[489,335,112,90,117,41,143,176,229,118,256,558,297,115]","trial_type":"two-door-navigation","trial_index":29,"time_elapsed":3898974,"internal_node_id":"0.0-2.0-27.0"},{"group":"dicyclic group of order 12","room_assignment":["orange","red","olive","blue","grey","yellow","ivory","brown","green","cyan","purple","pink"],"door_color_assignment":["white","black"],"door_generator_assignment":[1,0],"goal":5,"start":1,"action_noise":0.15,"location_history":"[1,2,3,7,11,3,0,1,2,3,7,8,5]","action_history":"[0,0,1,0,0,0,0,0,1,1,1,0]","door_history":"[1,1,0,1,1,1,1,1,0,0,0,1]","location_rts":"[501,269,443,313,261,400,360,335,534,438,344,272]","trial_type":"two-door-navigation","trial_index":30,"time_elapsed":3919157,"internal_node_id":"0.0-2.0-28.0"},{"group":"dicyclic group of order 12","room_assignment":["orange","red","olive","blue","grey","yellow","ivory","brown","green","cyan","purple","pink"],"door_color_assignment":["white","black"],"door_generator_assignment":[1,0],"goal":9,"start":5,"action_noise":0.15,"location_history":"[5,9]","action_history":"[1]","door_history":"[0]","location_rts":"[255]","trial_type":"two-door-navigation","trial_index":31,"time_elapsed":3923933,"internal_node_id":"0.0-2.0-29.0"},{"group":"dicyclic group of order 12","room_assignment":["orange","red","olive","blue","grey","yellow","ivory","brown","green","cyan","purple","pink"],"door_color_assignment":["white","black"],"door_generator_assignment":[1,0],"goal":10,"start":9,"action_noise":0.15,"location_history":"[9,6,11,4,9,6,11,3,7,8,0,1,2,6,10]","action_history":"[0,0,0,0,0,0,1,1,1,1,1,0,1,0]","door_history":"[1,1,1,1,1,1,0,0,0,0,0,1,0,1]","location_rts":"[358,105,179,21,360,85,224,200,383,241,242,178,415,470]","trial_type":"two-door-navigation","trial_index":32,"time_elapsed":3945130,"internal_node_id":"0.0-2.0-30.0"},{"group":"dicyclic group of order 12","room_assignment":["orange","red","olive","blue","grey","yellow","ivory","brown","green","cyan","purple","pink"],"door_color_assignment":["white","black"],"door_generator_assignment":[1,0],"goal":0,"start":10,"action_noise":0.15,"location_history":"[10,2,3,0]","action_history":"[1,1,1]","door_history":"[0,0,0]","location_rts":"[1330,462,253]","trial_type":"two-door-navigation","trial_index":33,"time_elapsed":3953733,"internal_node_id":"0.0-2.0-31.0"},{"group":"dicyclic group of order 12","room_assignment":["orange","red","olive","blue","grey","yellow","ivory","brown","green","cyan","purple","pink"],"door_color_assignment":["white","black"],"door_generator_assignment":[1,0],"goal":7,"start":0,"action_noise":0.15,"location_history":"[0,1,2,3,7]","action_history":"[0,0,0,1]","door_history":"[1,1,1,0]","location_rts":"[1487,206,17,210]","trial_type":"two-door-navigation","trial_index":34,"time_elapsed":3963221,"internal_node_id":"0.0-2.0-32.0"},{"group":"dicyclic group of order 12","room_assignment":["orange","red","olive","blue","grey","yellow","ivory","brown","green","cyan","purple","pink"],"door_color_assignment":["white","black"],"door_generator_assignment":[1,0],"goal":11,"start":7,"action_noise":0.15,"location_history":"[7,8,5,9,6,10,2,3,7,8,0,1,2,3,0,4,8,0,4,9,6,10,2,6,10,7,11]","action_history":"[0,0,0,0,1,1,1,1,1,1,0,0,0,0,1,1,1,1,1,0,0,1,1,1,1,1]","door_history":"[1,1,1,1,0,0,0,0,0,0,1,1,1,1,0,0,0,0,0,1,1,0,0,0,0,0]","location_rts":"[190,157,85,735,873,485,433,958,92,545,64,110,103,207,887,320,110,106,237,85,295,287,206,184,214,135]","trial_type":"two-door-navigation","trial_index":35,"time_elapsed":4001274,"internal_node_id":"0.0-2.0-33.0"},{"group":"dicyclic group of order 12","room_assignment":["orange","red","olive","blue","grey","yellow","ivory","brown","green","cyan","purple","pink"],"door_color_assignment":["white","black"],"door_generator_assignment":[1,0],"goal":2,"start":11,"action_noise":0.15,"location_history":"[11,4,9,6,10,7,8,5,9,6,11,4,8,5,10,2]","action_history":"[0,0,0,0,0,1,0,1,0,0,0,1,0,0,1]","door_history":"[1,1,1,1,1,0,1,0,1,1,1,0,1,1,0]","location_rts":"[298,93,92,297,50,798,2,137,216,232,101,78,177,111,229]","trial_type":"two-door-navigation","trial_index":36,"time_elapsed":4022950,"internal_node_id":"0.0-2.0-34.0"},{"view_history":"[{\"page_index\":0,\"viewing_time\":1671}]","rt":1671,"trial_type":"instructions","trial_index":37,"time_elapsed":4025621,"internal_node_id":"0.0-3.0"},{"view_history":"[{\"page_index\":0,\"viewing_time\":3167},{\"page_index\":1,\"viewing_time\":1271}]","rt":4439,"trial_type":"instructions","trial_index":38,"time_elapsed":4031061,"internal_node_id":"0.0-4.0"},{"group":"dicyclic group of order 12","fractal_assignment":["../images/gry_blk.png","../images/grn_prp.png","../images/grn_red.png","../images/pnk_blu.png","../images/ylw_pnk.png","../images/ylw_slt.png","../images/org_blu.png","../images/cyn_red.png","../images/red_prp.png","../images/grn_blu.png","../images/blu_wht.png","../images/wht_red.png"],"mutagen_generator_assignment":[0,1],"goal":7,"start":3,"action_noise":0.15,"location_history":"[3,0,1,5,9,1,5,10,7]","action_history":"[0,0,1,1,1,1,0,0]","mutagen_history":"[0,0,1,1,1,1,0,0]","location_rts":"[5996,465,1090,352,833,769,17112,321]","trial_type":"fractal-mutation","trial_index":39,"time_elapsed":4070264,"internal_node_id":"0.0-5.0-0.0"},{"group":"dicyclic group of order 12","fractal_assignment":["../images/gry_blk.png","../images/grn_prp.png","../images/grn_red.png","../images/pnk_blu.png","../images/ylw_pnk.png","../images/ylw_slt.png","../images/org_blu.png","../images/cyn_red.png","../images/red_prp.png","../images/grn_blu.png","../images/blu_wht.png","../images/wht_red.png"],"mutagen_generator_assignment":[0,1],"goal":5,"start":7,"action_noise":0.15,"location_history":"[7,11,3,7,8,0,4,8,0,1,5]","action_history":"[1,1,1,1,1,1,1,1,0,1]","mutagen_history":"[1,1,1,1,1,1,1,1,0,1]","location_rts":"[2935,326,221,9,737,454,399,867,395,360]","trial_type":"fractal-mutation","trial_index":40,"time_elapsed":4091757,"internal_node_id":"0.0-5.0-1.0"},{"group":"dicyclic group of order 12","fractal_assignment":["../images/gry_blk.png","../images/grn_prp.png","../images/grn_red.png","../images/pnk_blu.png","../images/ylw_pnk.png","../images/ylw_slt.png","../images/org_blu.png","../images/cyn_red.png","../images/red_prp.png","../images/grn_blu.png","../images/blu_wht.png","../images/wht_red.png"],"mutagen_generator_assignment":[0,1],"goal":0,"start":5,"action_noise":0.15,"location_history":"[5,9,1,5,9,1,5,9,6,10,2,3,7,11,3,0]","action_history":"[1,1,1,1,1,1,1,0,1,1,1,1,1,1,0]","mutagen_history":"[1,1,1,1,1,1,1,0,1,1,1,1,1,1,0]","location_rts":"[2433,389,303,306,288,345,305,375,568,319,290,290,77,297,302]","trial_type":"fractal-mutation","trial_index":41,"time_elapsed":4118994,"internal_node_id":"0.0-5.0-2.0"},{"group":"dicyclic group of order 12","fractal_assignment":["../images/gry_blk.png","../images/grn_prp.png","../images/grn_red.png","../images/pnk_blu.png","../images/ylw_pnk.png","../images/ylw_slt.png","../images/org_blu.png","../images/cyn_red.png","../images/red_prp.png","../images/grn_blu.png","../images/blu_wht.png","../images/wht_red.png"],"mutagen_generator_assignment":[0,1],"goal":2,"start":0,"action_noise":0.15,"location_history":"[0,1,5,10,2]","action_history":"[0,1,1,0]","mutagen_history":"[0,1,1,0]","location_rts":"[368,691,281,358]","trial_type":"fractal-mutation","trial_index":42,"time_elapsed":4128551,"internal_node_id":"0.0-5.0-3.0"},{"group":"dicyclic group of order 12","fractal_assignment":["../images/gry_blk.png","../images/grn_prp.png","../images/grn_red.png","../images/pnk_blu.png","../images/ylw_pnk.png","../images/ylw_slt.png","../images/org_blu.png","../images/cyn_red.png","../images/red_prp.png","../images/grn_blu.png","../images/blu_wht.png","../images/wht_red.png"],"mutagen_generator_assignment":[0,1],"goal":10,"start":2,"action_noise":0.15,"location_history":"[2,3,0,1,5,9,1,5,10]","action_history":"[0,0,0,0,1,1,1,1]","mutagen_history":"[0,0,0,0,1,1,1,1]","location_rts":"[2149,429,440,775,571,331,374,402]","trial_type":"fractal-mutation","trial_index":43,"time_elapsed":4146137,"internal_node_id":"0.0-5.0-4.0"},{"group":"dicyclic group of order 12","fractal_assignment":["../images/gry_blk.png","../images/grn_prp.png","../images/grn_red.png","../images/pnk_blu.png","../images/ylw_pnk.png","../images/ylw_slt.png","../images/org_blu.png","../images/cyn_red.png","../images/red_prp.png","../images/grn_blu.png","../images/blu_wht.png","../images/wht_red.png"],"mutagen_generator_assignment":[0,1],"goal":8,"start":10,"action_noise":0.15,"location_history":"[10,2,6,10,2,6,11,4,9,6,11,4,8]","action_history":"[1,1,1,1,1,0,0,0,0,0,0,1]","mutagen_history":"[1,1,1,1,1,0,0,0,0,0,0,1]","location_rts":"[1594,425,782,348,444,310,948,396,434,616,311,548]","trial_type":"fractal-mutation","trial_index":44,"time_elapsed":4170021,"internal_node_id":"0.0-5.0-5.0"},{"group":"dicyclic group of order 12","fractal_assignment":["../images/gry_blk.png","../images/grn_prp.png","../images/grn_red.png","../images/pnk_blu.png","../images/ylw_pnk.png","../images/ylw_slt.png","../images/org_blu.png","../images/cyn_red.png","../images/red_prp.png","../images/grn_blu.png","../images/blu_wht.png","../images/wht_red.png"],"mutagen_generator_assignment":[0,1],"goal":11,"start":8,"action_noise":0.15,"location_history":"[8,5,9,1,5,9,6,11]","action_history":"[0,1,1,1,1,0,0]","mutagen_history":"[0,1,1,1,1,0,0]","location_rts":"[564,849,738,831,946,1386,1176]","trial_type":"fractal-mutation","trial_index":45,"time_elapsed":4187713,"internal_node_id":"0.0-5.0-6.0"},{"group":"dicyclic group of order 12","fractal_assignment":["../images/gry_blk.png","../images/grn_prp.png","../images/grn_red.png","../images/pnk_blu.png","../images/ylw_pnk.png","../images/ylw_slt.png","../images/org_blu.png","../images/cyn_red.png","../images/red_prp.png","../images/grn_blu.png","../images/blu_wht.png","../images/wht_red.png"],"mutagen_generator_assignment":[0,1],"goal":6,"start":11,"action_noise":0.15,"location_history":"[11,3,7,11,3,0,4,9,1,2,6]","action_history":"[0,1,1,1,1,1,0,0,0,0]","mutagen_history":"[0,1,1,1,1,1,0,0,0,0]","location_rts":"[453,711,854,561,536,558,626,432,383,445]","trial_type":"fractal-mutation","trial_index":46,"time_elapsed":4207792,"internal_node_id":"0.0-5.0-7.0"},{"group":"dicyclic group of order 12","fractal_assignment":["../images/gry_blk.png","../images/grn_prp.png","../images/grn_red.png","../images/pnk_blu.png","../images/ylw_pnk.png","../images/ylw_slt.png","../images/org_blu.png","../images/cyn_red.png","../images/red_prp.png","../images/grn_blu.png","../images/blu_wht.png","../images/wht_red.png"],"mutagen_generator_assignment":[0,1],"goal":4,"start":6,"action_noise":0.15,"location_history":"[6,11,4]","action_history":"[0,0]","mutagen_history":"[0,0]","location_rts":"[983,367]","trial_type":"fractal-mutation","trial_index":47,"time_elapsed":4214692,"internal_node_id":"0.0-5.0-8.0"},{"group":"dicyclic group of order 12","fractal_assignment":["../images/gry_blk.png","../images/grn_prp.png","../images/grn_red.png","../images/pnk_blu.png","../images/ylw_pnk.png","../images/ylw_slt.png","../images/org_blu.png","../images/cyn_red.png","../images/red_prp.png","../images/grn_blu.png","../images/blu_wht.png","../images/wht_red.png"],"mutagen_generator_assignment":[0,1],"goal":1,"start":4,"action_noise":0.15,"location_history":"[4,8,0,4,8,0,1]","action_history":"[1,1,1,1,0,1]","mutagen_history":"[1,1,1,1,0,1]","location_rts":"[771,736,332,301,868,618]","trial_type":"fractal-mutation","trial_index":48,"time_elapsed":4228536,"internal_node_id":"0.0-5.0-9.0"},{"group":"dicyclic group of order 12","fractal_assignment":["../images/gry_blk.png","../images/grn_prp.png","../images/grn_red.png","../images/pnk_blu.png","../images/ylw_pnk.png","../images/ylw_slt.png","../images/org_blu.png","../images/cyn_red.png","../images/red_prp.png","../images/grn_blu.png","../images/blu_wht.png","../images/wht_red.png"],"mutagen_generator_assignment":[0,1],"goal":9,"start":1,"action_noise":0.15,"location_history":"[1,5,9]","action_history":"[1,1]","mutagen_history":"[1,1]","location_rts":"[606,606]","trial_type":"fractal-mutation","trial_index":49,"time_elapsed":4235511,"internal_node_id":"0.0-5.0-10.0"},{"group":"dicyclic group of order 12","fractal_assignment":["../images/gry_blk.png","../images/grn_prp.png","../images/grn_red.png","../images/pnk_blu.png","../images/ylw_pnk.png","../images/ylw_slt.png","../images/org_blu.png","../images/cyn_red.png","../images/red_prp.png","../images/grn_blu.png","../images/blu_wht.png","../images/wht_red.png"],"mutagen_generator_assignment":[0,1],"goal":10,"start":9,"action_noise":0.15,"location_history":"[9,1,2,3,0,4,8,0,4,8,0,4,8,0,1,5,9,1,5,9,1,5,10]","action_history":"[1,0,0,0,1,1,1,1,1,1,1,1,1,0,0,1,1,1,1,1,1,0]","mutagen_history":"[1,0,0,0,1,1,1,1,1,1,1,1,1,0,0,1,1,1,1,1,1,0]","location_rts":"[1548,485,390,833,717,500,502,745,567,801,654,692,618,360,734,865,1012,880,886,591,1462,755]","trial_type":"fractal-mutation","trial_index":50,"time_elapsed":4280125,"internal_node_id":"0.0-5.0-11.0"},{"group":"dicyclic group of order 12","fractal_assignment":["../images/gry_blk.png","../images/grn_prp.png","../images/grn_red.png","../images/pnk_blu.png","../images/ylw_pnk.png","../images/ylw_slt.png","../images/org_blu.png","../images/cyn_red.png","../images/red_prp.png","../images/grn_blu.png","../images/blu_wht.png","../images/wht_red.png"],"mutagen_generator_assignment":[0,1],"goal":2,"start":10,"action_noise":0.15,"location_history":"[10,7,8,0,4,8,0,4,9,6,11,4,9,6,11,4,8,0,4,9,6,10,7,11,3,7,8,5,10,7,8,0,4,8,0,4,8,0,1,5,9,6,10,7,8,5,9,1,2]","action_history":"[0,0,1,1,1,1,1,0,0,0,0,0,0,1,1,1,1,1,0,0,0,0,1,1,1,1,0,0,0,0,0,1,1,1,1,1,1,0,0,0,0,0,0,0,0,1,1,1]","mutagen_history":"[0,0,1,1,1,1,1,0,0,0,0,0,0,1,1,1,1,1,0,0,0,0,1,1,1,1,0,0,0,0,0,1,1,1,1,1,1,0,0,0,0,0,0,0,0,1,1,1]","location_rts":"[536,645,2050,653,677,479,686,1131,1213,338,277,318,320,309,621,796,550,493,362,437,397,465,1268,555,372,1269,354,453,397,345,721,765,557,559,489,533,706,410,1368,516,431,653,400,306,304,478,518,364]","trial_type":"fractal-mutation","trial_index":51,"time_elapsed":4365209,"internal_node_id":"0.0-5.0-12.0"},{"group":"dicyclic group of order 12","fractal_assignment":["../images/gry_blk.png","../images/grn_prp.png","../images/grn_red.png","../images/pnk_blu.png","../images/ylw_pnk.png","../images/ylw_slt.png","../images/org_blu.png","../images/cyn_red.png","../images/red_prp.png","../images/grn_blu.png","../images/blu_wht.png","../images/wht_red.png"],"mutagen_generator_assignment":[0,1],"goal":0,"start":2,"action_noise":0.15,"location_history":"[2,6,10,2,3,0]","action_history":"[1,1,1,0,0]","mutagen_history":"[1,1,1,0,0]","location_rts":"[606,518,549,962,507]","trial_type":"fractal-mutation","trial_index":52,"time_elapsed":4377393,"internal_node_id":"0.0-5.0-13.0"},{"group":"dicyclic group of order 12","fractal_assignment":["../images/gry_blk.png","../images/grn_prp.png","../images/grn_red.png","../images/pnk_blu.png","../images/ylw_pnk.png","../images/ylw_slt.png","../images/org_blu.png","../images/cyn_red.png","../images/red_prp.png","../images/grn_blu.png","../images/blu_wht.png","../images/wht_red.png"],"mutagen_generator_assignment":[0,1],"goal":9,"start":0,"action_noise":0.15,"location_history":"[0,1,5,9]","action_history":"[0,1,1]","mutagen_history":"[0,1,1]","location_rts":"[1112,1166,987]","trial_type":"fractal-mutation","trial_index":53,"time_elapsed":4387445,"internal_node_id":"0.0-5.0-14.0"},{"group":"dicyclic group of order 12","fractal_assignment":["../images/gry_blk.png","../images/grn_prp.png","../images/grn_red.png","../images/pnk_blu.png","../images/ylw_pnk.png","../images/ylw_slt.png","../images/org_blu.png","../images/cyn_red.png","../images/red_prp.png","../images/grn_blu.png","../images/blu_wht.png","../images/wht_red.png"],"mutagen_generator_assignment":[0,1],"goal":8,"start":9,"action_noise":0.15,"location_history":"[9,1,5,10,7,8]","action_history":"[1,1,0,0,0]","mutagen_history":"[1,1,0,0,0]","location_rts":"[309,699,479,258,241]","trial_type":"fractal-mutation","trial_index":54,"time_elapsed":4398423,"internal_node_id":"0.0-5.0-15.0"},{"group":"dicyclic group of order 12","fractal_assignment":["../images/gry_blk.png","../images/grn_prp.png","../images/grn_red.png","../images/pnk_blu.png","../images/ylw_pnk.png","../images/ylw_slt.png","../images/org_blu.png","../images/cyn_red.png","../images/red_prp.png","../images/grn_blu.png","../images/blu_wht.png","../images/wht_red.png"],"mutagen_generator_assignment":[0,1],"goal":6,"start":8,"action_noise":0.15,"location_history":"[8,0,4,8,5,10,7,8,5,10,2,6]","action_history":"[1,1,1,1,0,0,1,0,0,1,1]","mutagen_history":"[1,1,1,1,0,0,1,0,0,1,1]","location_rts":"[633,1171,1190,705,506,600,729,403,1274,553,453]","trial_type":"fractal-mutation","trial_index":55,"time_elapsed":4422346,"internal_node_id":"0.0-5.0-16.0"},{"group":"dicyclic group of order 12","fractal_assignment":["../images/gry_blk.png","../images/grn_prp.png","../images/grn_red.png","../images/pnk_blu.png","../images/ylw_pnk.png","../images/ylw_slt.png","../images/org_blu.png","../images/cyn_red.png","../images/red_prp.png","../images/grn_blu.png","../images/blu_wht.png","../images/wht_red.png"],"mutagen_generator_assignment":[0,1],"goal":1,"start":6,"action_noise":0.15,"location_history":"[6,11,3,0,1]","action_history":"[0,0,0,0]","mutagen_history":"[0,0,0,0]","location_rts":"[18278,814,426,223]","trial_type":"fractal-mutation","trial_index":56,"time_elapsed":4449688,"internal_node_id":"0.0-5.0-17.0"},{"group":"dicyclic group of order 12","fractal_assignment":["../images/gry_blk.png","../images/grn_prp.png","../images/grn_red.png","../images/pnk_blu.png","../images/ylw_pnk.png","../images/ylw_slt.png","../images/org_blu.png","../images/cyn_red.png","../images/red_prp.png","../images/grn_blu.png","../images/blu_wht.png","../images/wht_red.png"],"mutagen_generator_assignment":[0,1],"goal":4,"start":1,"action_noise":0.15,"location_history":"[1,2,6,10,2,6,11,4]","action_history":"[0,1,1,1,1,1,0]","mutagen_history":"[0,1,1,1,1,1,0]","location_rts":"[525,241,1168,815,1031,906,382]","trial_type":"fractal-mutation","trial_index":57,"time_elapsed":4466003,"internal_node_id":"0.0-5.0-18.0"},{"group":"dicyclic group of order 12","fractal_assignment":["../images/gry_blk.png","../images/grn_prp.png","../images/grn_red.png","../images/pnk_blu.png","../images/ylw_pnk.png","../images/ylw_slt.png","../images/org_blu.png","../images/cyn_red.png","../images/red_prp.png","../images/grn_blu.png","../images/blu_wht.png","../images/wht_red.png"],"mutagen_generator_assignment":[0,1],"goal":11,"start":4,"action_noise":0.15,"location_history":"[4,9,6,11]","action_history":"[0,0,0]","mutagen_history":"[0,0,0]","location_rts":"[345,308,245]","trial_type":"fractal-mutation","trial_index":58,"time_elapsed":4473484,"internal_node_id":"0.0-5.0-19.0"},{"group":"dicyclic group of order 12","fractal_assignment":["../images/gry_blk.png","../images/grn_prp.png","../images/grn_red.png","../images/pnk_blu.png","../images/ylw_pnk.png","../images/ylw_slt.png","../images/org_blu.png","../images/cyn_red.png","../images/red_prp.png","../images/grn_blu.png","../images/blu_wht.png","../images/wht_red.png"],"mutagen_generator_assignment":[0,1],"goal":3,"start":11,"action_noise":0.15,"location_history":"[11,4,9,1,5,10,7,8,5,9,1,2,6,10,7,11,4,9,6,11,4,8,5,10,7,11,3]","action_history":"[1,1,1,1,0,0,0,0,1,1,0,1,1,1,1,1,0,0,0,0,0,0,1,0,0,1]","mutagen_history":"[1,1,1,1,0,0,0,0,1,1,0,1,1,1,1,1,0,0,0,0,0,0,1,0,0,1]","location_rts":"[656,121,2085,346,272,179,0,286,325,5958,181,376,293,156,35,33,1112,1245,246,1094,329,1036,477,271,283,508]","trial_type":"fractal-mutation","trial_index":59,"time_elapsed":4523580,"internal_node_id":"0.0-5.0-20.0"},{"group":"dicyclic group of order 12","fractal_assignment":["../images/gry_blk.png","../images/grn_prp.png","../images/grn_red.png","../images/pnk_blu.png","../images/ylw_pnk.png","../images/ylw_slt.png","../images/org_blu.png","../images/cyn_red.png","../images/red_prp.png","../images/grn_blu.png","../images/blu_wht.png","../images/wht_red.png"],"mutagen_generator_assignment":[0,1],"goal":5,"start":3,"action_noise":0.15,"location_history":"[3,0,1,2,3,0,1,2,3,0,4,9,1,2,3,7,11,3,7,11,4,9,6,11,4,8,5]","action_history":"[0,0,0,0,1,0,0,0,0,1,0,0,0,0,1,1,1,1,1,0,0,0,0,0,0,0]","mutagen_history":"[0,0,0,0,1,0,0,0,0,1,0,0,0,0,1,1,1,1,1,0,0,0,0,0,0,0]","location_rts":"[2328,291,311,297,879,281,1324,135,235,418,1238,658,463,202,300,473,289,362,641,475,384,269,289,285,59,276]","trial_type":"fractal-mutation","trial_index":60,"time_elapsed":4568382,"internal_node_id":"0.0-5.0-21.0"},{"group":"dicyclic group of order 12","fractal_assignment":["../images/gry_blk.png","../images/grn_prp.png","../images/grn_red.png","../images/pnk_blu.png","../images/ylw_pnk.png","../images/ylw_slt.png","../images/org_blu.png","../images/cyn_red.png","../images/red_prp.png","../images/grn_blu.png","../images/blu_wht.png","../images/wht_red.png"],"mutagen_generator_assignment":[0,1],"goal":7,"start":5,"action_noise":0.15,"location_history":"[5,9,1,5,10,7]","action_history":"[1,1,1,0,0]","mutagen_history":"[1,1,1,0,0]","location_rts":"[772,1203,381,305,255]","trial_type":"fractal-mutation","trial_index":61,"time_elapsed":4580339,"internal_node_id":"0.0-5.0-22.0"},{"group":"dicyclic group of order 12","fractal_assignment":["../images/gry_blk.png","../images/grn_prp.png","../images/grn_red.png","../images/pnk_blu.png","../images/ylw_pnk.png","../images/ylw_slt.png","../images/org_blu.png","../images/cyn_red.png","../images/red_prp.png","../images/grn_blu.png","../images/blu_wht.png","../images/wht_red.png"],"mutagen_generator_assignment":[0,1],"goal":3,"start":7,"action_noise":0.15,"location_history":"[7,11,4,9,1,2,6,10,2,6,10,7,8,5,9,6,11,3]","action_history":"[1,0,0,1,0,1,1,1,1,0,0,0,1,1,0,0,1]","mutagen_history":"[1,0,0,1,0,1,1,1,1,0,0,0,1,1,0,0,1]","location_rts":"[187,347,99,438,871,231,144,260,444,436,846,471,471,532,455,319,536]","trial_type":"fractal-mutation","trial_index":62,"time_elapsed":4609704,"internal_node_id":"0.0-5.0-23.0"},{"group":"dicyclic group of order 12","fractal_assignment":["../images/gry_blk.png","../images/grn_prp.png","../images/grn_red.png","../images/pnk_blu.png","../images/ylw_pnk.png","../images/ylw_slt.png","../images/org_blu.png","../images/cyn_red.png","../images/red_prp.png","../images/grn_blu.png","../images/blu_wht.png","../images/wht_red.png"],"mutagen_generator_assignment":[0,1],"goal":4,"start":3,"action_noise":0.15,"location_history":"[3,7,11,3,0,4]","action_history":"[1,1,1,1,1]","mutagen_history":"[1,1,1,1,1]","location_rts":"[328,435,307,346,339]","trial_type":"fractal-mutation","trial_index":63,"time_elapsed":4620617,"internal_node_id":"0.0-5.0-24.0"},{"group":"dicyclic group of order 12","fractal_assignment":["../images/gry_blk.png","../images/grn_prp.png","../images/grn_red.png","../images/pnk_blu.png","../images/ylw_pnk.png","../images/ylw_slt.png","../images/org_blu.png","../images/cyn_red.png","../images/red_prp.png","../images/grn_blu.png","../images/blu_wht.png","../images/wht_red.png"],"mutagen_generator_assignment":[0,1],"goal":8,"start":4,"action_noise":0.15,"location_history":"[4,9,6,11,3,7,8]","action_history":"[0,0,0,0,0,0]","mutagen_history":"[0,0,0,0,0,0]","location_rts":"[296,277,226,215,284,286]","trial_type":"fractal-mutation","trial_index":64,"time_elapsed":4631863,"internal_node_id":"0.0-5.0-25.0"},{"group":"dicyclic group of order 12","fractal_assignment":["../images/gry_blk.png","../images/grn_prp.png","../images/grn_red.png","../images/pnk_blu.png","../images/ylw_pnk.png","../images/ylw_slt.png","../images/org_blu.png","../images/cyn_red.png","../images/red_prp.png","../images/grn_blu.png","../images/blu_wht.png","../images/wht_red.png"],"mutagen_generator_assignment":[0,1],"goal":6,"start":8,"action_noise":0.15,"location_history":"[8,5,9,6]","action_history":"[0,0,0]","mutagen_history":"[0,0,0]","location_rts":"[318,309,290]","trial_type":"fractal-mutation","trial_index":65,"time_elapsed":4639361,"internal_node_id":"0.0-5.0-26.0"},{"group":"dicyclic group of order 12","fractal_assignment":["../images/gry_blk.png","../images/grn_prp.png","../images/grn_red.png","../images/pnk_blu.png","../images/ylw_pnk.png","../images/ylw_slt.png","../images/org_blu.png","../images/cyn_red.png","../images/red_prp.png","../images/grn_blu.png","../images/blu_wht.png","../images/wht_red.png"],"mutagen_generator_assignment":[0,1],"goal":1,"start":6,"action_noise":0.15,"location_history":"[6,10,2,6,11,4,9,6,11,4,9,1]","action_history":"[1,1,1,1,0,0,0,0,0,0,1]","mutagen_history":"[1,1,1,1,0,0,0,0,0,0,1]","location_rts":"[443,1199,238,354,353,239,272,92,305,115,298]","trial_type":"fractal-mutation","trial_index":66,"time_elapsed":4658900,"internal_node_id":"0.0-5.0-27.0"},{"group":"dicyclic group of order 12","fractal_assignment":["../images/gry_blk.png","../images/grn_prp.png","../images/grn_red.png","../images/pnk_blu.png","../images/ylw_pnk.png","../images/ylw_slt.png","../images/org_blu.png","../images/cyn_red.png","../images/red_prp.png","../images/grn_blu.png","../images/blu_wht.png","../images/wht_red.png"],"mutagen_generator_assignment":[0,1],"goal":5,"start":1,"action_noise":0.15,"location_history":"[1,5]","action_history":"[1]","mutagen_history":"[1]","location_rts":"[469]","trial_type":"fractal-mutation","trial_index":67,"time_elapsed":4664002,"internal_node_id":"0.0-5.0-28.0"},{"group":"dicyclic group of order 12","fractal_assignment":["../images/gry_blk.png","../images/grn_prp.png","../images/grn_red.png","../images/pnk_blu.png","../images/ylw_pnk.png","../images/ylw_slt.png","../images/org_blu.png","../images/cyn_red.png","../images/red_prp.png","../images/grn_blu.png","../images/blu_wht.png","../images/wht_red.png"],"mutagen_generator_assignment":[0,1],"goal":9,"start":5,"action_noise":0.15,"location_history":"[5,10,7,8,0,1,2,3,7,8,0,4,8,0,1,5,10,7,8,5,10,7,11,3,7,11,3,7,8,5,10,2,6,10,2,6,10,7,8,5,9]","action_history":"[0,0,0,0,0,0,0,0,0,1,1,1,1,1,1,0,0,0,0,0,0,0,1,1,1,1,1,1,0,0,1,1,1,1,1,0,0,0,0,0]","mutagen_history":"[0,0,0,0,0,0,0,0,0,1,1,1,1,1,1,0,0,0,0,0,0,0,1,1,1,1,1,1,0,0,1,1,1,1,1,0,0,0,0,0]","location_rts":"[222,360,266,336,377,228,186,306,600,432,208,199,747,324,322,333,394,184,232,191,276,374,639,159,323,327,1060,618,438,362,767,525,641,644,454,559,413,351,372,594]","trial_type":"fractal-mutation","trial_index":68,"time_elapsed":4727403,"internal_node_id":"0.0-5.0-29.0"},{"group":"dicyclic group of order 12","fractal_assignment":["../images/gry_blk.png","../images/grn_prp.png","../images/grn_red.png","../images/pnk_blu.png","../images/ylw_pnk.png","../images/ylw_slt.png","../images/org_blu.png","../images/cyn_red.png","../images/red_prp.png","../images/grn_blu.png","../images/blu_wht.png","../images/wht_red.png"],"mutagen_generator_assignment":[0,1],"goal":10,"start":9,"action_noise":0.15,"location_history":"[9,1,2,3,0,4,9,1,2,6,10]","action_history":"[1,1,0,0,1,0,1,0,1,1]","mutagen_history":"[1,1,0,0,1,0,1,0,1,1]","location_rts":"[536,635,667,1054,320,273,118,284,492,45]","trial_type":"fractal-mutation","trial_index":69,"time_elapsed":4746414,"internal_node_id":"0.0-5.0-30.0"},{"group":"dicyclic group of order 12","fractal_assignment":["../images/gry_blk.png","../images/grn_prp.png","../images/grn_red.png","../images/pnk_blu.png","../images/ylw_pnk.png","../images/ylw_slt.png","../images/org_blu.png","../images/cyn_red.png","../images/red_prp.png","../images/grn_blu.png","../images/blu_wht.png","../images/wht_red.png"],"mutagen_generator_assignment":[0,1],"goal":0,"start":10,"action_noise":0.15,"location_history":"[10,7,8,0]","action_history":"[0,0,1]","mutagen_history":"[0,0,1]","location_rts":"[56883,532,542]","trial_type":"fractal-mutation","trial_index":70,"time_elapsed":4811054,"internal_node_id":"0.0-5.0-31.0"},{"group":"dicyclic group of order 12","fractal_assignment":["../images/gry_blk.png","../images/grn_prp.png","../images/grn_red.png","../images/pnk_blu.png","../images/ylw_pnk.png","../images/ylw_slt.png","../images/org_blu.png","../images/cyn_red.png","../images/red_prp.png","../images/grn_blu.png","../images/blu_wht.png","../images/wht_red.png"],"mutagen_generator_assignment":[0,1],"goal":7,"start":0,"action_noise":0.15,"location_history":"[0,4,9,6,11,4,9,1,2,3,0,1,5,10,2,3,7]","action_history":"[1,0,0,0,0,0,1,0,0,0,0,1,0,0,0,1]","mutagen_history":"[1,0,0,0,0,0,1,0,0,0,0,1,0,0,0,1]","location_rts":"[3295,1044,559,375,411,477,1530,571,359,325,293,657,493,282,354,539]","trial_type":"fractal-mutation","trial_index":71,"time_elapsed":4843540,"internal_node_id":"0.0-5.0-32.0"},{"group":"dicyclic group of order 12","fractal_assignment":["../images/gry_blk.png","../images/grn_prp.png","../images/grn_red.png","../images/pnk_blu.png","../images/ylw_pnk.png","../images/ylw_slt.png","../images/org_blu.png","../images/cyn_red.png","../images/red_prp.png","../images/grn_blu.png","../images/blu_wht.png","../images/wht_red.png"],"mutagen_generator_assignment":[0,1],"goal":11,"start":7,"action_noise":0.15,"location_history":"[7,8,5,10,2,6,10,2,6,10,2,6,10,7,8,5,10,2,6,10,2,3,7,11]","action_history":"[0,0,0,0,1,1,1,1,1,1,1,1,0,0,0,0,0,1,1,1,1,1,1]","mutagen_history":"[0,0,0,0,1,1,1,1,1,1,1,1,0,0,0,0,0,1,1,1,1,1,1]","location_rts":"[2054,478,310,657,674,368,599,484,390,590,1647,956,630,554,730,583,341,748,1644,1116,1788,135,287]","trial_type":"fractal-mutation","trial_index":72,"time_elapsed":4890073,"internal_node_id":"0.0-5.0-33.0"},{"group":"dicyclic group of order 12","fractal_assignment":["../images/gry_blk.png","../images/grn_prp.png","../images/grn_red.png","../images/pnk_blu.png","../images/ylw_pnk.png","../images/ylw_slt.png","../images/org_blu.png","../images/cyn_red.png","../images/red_prp.png","../images/grn_blu.png","../images/blu_wht.png","../images/wht_red.png"],"mutagen_generator_assignment":[0,1],"goal":2,"start":11,"action_noise":0.15,"location_history":"[11,4,8,0,1,2]","action_history":"[0,1,0,0,0]","mutagen_history":"[0,1,0,0,0]","location_rts":"[605,1249,474,311,288]","trial_type":"fractal-mutation","trial_index":73,"time_elapsed":4901891,"internal_node_id":"0.0-5.0-34.0"},{"view_history":"[{\"page_index\":0,\"viewing_time\":3201}]","rt":3201,"trial_type":"instructions","trial_index":74,"time_elapsed":4906092,"internal_node_id":"0.0-6.0"},{"rt":14742,"responses":"{\"Q0\":\"i dont know\"}","trial_type":"survey-text","trial_index":75,"time_elapsed":4921839,"internal_node_id":"0.0-7.0-0.0"},{"rt":16328,"responses":"{\"Q0\":\"I don't know\"}","trial_type":"survey-text","trial_index":76,"time_elapsed":4939170,"internal_node_id":"0.0-7.0-1.0"},{"rt":5362,"responses":"{\"Q0\":\"4\"}","trial_type":"survey-likert","trial_index":77,"time_elapsed":4945536,"internal_node_id":"0.0-7.0-2.0"},{"rt":19513,"responses":"{\"Q0\":\"Trying to identify the sequences\"}","trial_type":"survey-text","trial_index":78,"time_elapsed":4966050,"internal_node_id":"0.0-7.0-3.0"},{"rt":8648,"responses":"{\"Q0\":\"No\"}","trial_type":"survey-multi-choice","trial_index":79,"time_elapsed":4975703,"internal_node_id":"0.0-7.0-4.0"},{"rt":7773,"responses":"{\"Q0\":\"Did not notice\"}","trial_type":"survey-multi-choice","trial_index":80,"time_elapsed":4984480,"internal_node_id":"0.0-7.0-5.0"},{"rt":11326,"responses":"{\"Q0\":\"\"}","trial_type":"survey-text","trial_index":81,"time_elapsed":4996808,"internal_node_id":"0.0-7.0-6.0"},{"rt":17281,"responses":"{\"Q0\":\"0\"}","trial_type":"survey-likert","trial_index":82,"time_elapsed":5015092,"internal_node_id":"0.0-7.0-7.0"},{"rt":9141,"responses":"{\"Q0\":\"Different structure\"}","trial_type":"survey-multi-choice","trial_index":83,"time_elapsed":5025236,"internal_node_id":"0.0-7.0-8.0"},{"rt":26579,"responses":"{\"Q0\":\"black door = acid, white door = ray\",\"Q1\":\"Moderately confident\"}","trial_type":"survey-multi-choice","trial_index":84,"time_elapsed":5052820,"internal_node_id":"0.0-7.0-9.0"},{"rt":21079,"responses":"{\"Q0\":\"25-35\",\"Q1\":\"High school degree or GED\",\"Q2\":\"Male\",\"Q3\":\"Black or African American\"}","trial_type":"survey-multi-choice","trial_index":85,"time_elapsed":5074907,"internal_node_id":"0.0-8.0"},{"rt":2106,"responses":"{\"Q0\":\"\"}","trial_type":"survey-text","trial_index":86,"time_elapsed":5078015,"internal_node_id":"0.0-9.0"}]