[{"view_history":"[{\"page_index\":0,\"viewing_time\":7100},{\"page_index\":1,\"viewing_time\":12748}]","rt":19848,"trial_type":"instructions","trial_index":0,"time_elapsed":19850,"internal_node_id":"0.0-0.0"},{"view_history":"[{\"page_index\":0,\"viewing_time\":9016},{\"page_index\":1,\"viewing_time\":8408}]","rt":17424,"trial_type":"instructions","trial_index":1,"time_elapsed":38286,"internal_node_id":"0.0-1.0"},{"group":"dicyclic group of order 12","room_assignment":["yellow","ivory","orange","pink","green","brown","blue","olive","purple","grey","red","cyan"],"door_color_assignment":["white","black"],"door_generator_assignment":[1,0],"goal":7,"start":3,"action_noise":0.15,"location_history":"[3,0,4,8,5,10,7]","action_history":"[0,1,1,0,0,0]","door_history":"[1,0,0,1,1,1]","location_rts":"[10486,2058,1944,1179,279,262]","trial_type":"two-door-navigation","trial_index":2,"time_elapsed":64035,"internal_node_id":"0.0-2.0-0.0"},{"group":"dicyclic group of order 12","room_assignment":["yellow","ivory","orange","pink","green","brown","blue","olive","purple","grey","red","cyan"],"door_color_assignment":["white","black"],"door_generator_assignment":[1,0],"goal":5,"start":7,"action_noise":0.15,"location_history":"[7,8,5]","action_history":"[0,0]","door_history":"[1,1]","location_rts":"[2407,245]","trial_type":"two-door-navigation","trial_index":3,"time_elapsed":72208,"internal_node_id":"0.0-2.0-1.0"},{"group":"dicyclic group of order 12","room_assignment":["yellow","ivory","orange","pink","green","brown","blue","olive","purple","grey","red","cyan"],"door_color_assignment":["white","black"],"door_generator_assignment":[1,0],"goal":0,"start":5,"action_noise":0.15,"location_history":"[5,9,1,5,10,2,6,11,3,7,11,3,7,8,0]","action_history":"[1,1,1,0,1,1,1,1,1,1,1,1,0,1]","door_history":"[0,0,0,1,0,0,0,0,0,0,0,0,1,0]","location_rts":"[1876,2099,522,974,1902,462,273,320,321,595,545,669,1409,751]","trial_type":"two-door-navigation","trial_index":4,"time_elapsed":102525,"internal_node_id":"0.0-2.0-2.0"},{"group":"dicyclic group of order 12","room_assignment":["yellow","ivory","orange","pink","green","brown","blue","olive","purple","grey","red","cyan"],"door_color_assignment":["white","black"],"door_generator_assignment":[1,0],"goal":2,"start":0,"action_noise":0.15,"location_history":"[0,1,5,10,7,11,3,7,11,3,7,8,5,9,1,5,10,2]","action_history":"[0,0,0,1,1,1,1,1,1,1,0,1,1,0,1,0,1]","door_history":"[1,1,1,0,0,0,0,0,0,0,1,0,0,1,0,1,0]","location_rts":"[4686,1204,1594,1555,448,535,312,331,432,451,452,393,362,409,285,477,537]","trial_type":"two-door-navigation","trial_index":5,"time_elapsed":137598,"internal_node_id":"0.0-2.0-3.0"},{"group":"dicyclic group of order 12","room_assignment":["yellow","ivory","orange","pink","green","brown","blue","olive","purple","grey","red","cyan"],"door_color_assignment":["white","black"],"door_generator_assignment":[1,0],"goal":10,"start":2,"action_noise":0.15,"location_history":"[2,6,11,3,7,8,0,4,9,1,5,9,1,5,9,6,10]","action_history":"[1,1,1,1,1,1,1,0,1,1,1,1,0,1,0,1]","door_history":"[0,0,0,0,0,0,0,1,0,0,0,0,1,0,1,0]","location_rts":"[2395,227,128,120,157,375,348,817,1702,673,3184,2902,337,1570,3746,860]","trial_type":"two-door-navigation","trial_index":6,"time_elapsed":176736,"internal_node_id":"0.0-2.0-4.0"},{"group":"dicyclic group of order 12","room_assignment":["yellow","ivory","orange","pink","green","brown","blue","olive","purple","grey","red","cyan"],"door_color_assignment":["white","black"],"door_generator_assignment":[1,0],"goal":8,"start":10,"action_noise":0.15,"location_history":"[10,7,8]","action_history":"[0,0]","door_history":"[1,1]","location_rts":"[2901,1932]","trial_type":"two-door-navigation","trial_index":7,"time_elapsed":187083,"internal_node_id":"0.0-2.0-5.0"},{"group":"dicyclic group of order 12","room_assignment":["yellow","ivory","orange","pink","green","brown","blue","olive","purple","grey","red","cyan"],"door_color_assignment":["white","black"],"door_generator_assignment":[1,0],"goal":11,"start":8,"action_noise":0.15,"location_history":"[8,5,9,6,11]","action_history":"[0,1,1,0]","door_history":"[1,0,0,1]","location_rts":"[3637,1310,1296,431]","trial_type":"two-door-navigation","trial_index":8,"time_elapsed":201283,"internal_node_id":"0.0-2.0-6.0"},{"group":"dicyclic group of order 12","room_assignment":["yellow","ivory","orange","pink","green","brown","blue","olive","purple","grey","red","cyan"],"door_color_assignment":["white","black"],"door_generator_assignment":[1,0],"goal":6,"start":11,"action_noise":0.15,"location_history":"[11,3,7,8,0,4,8,5,9,6]","action_history":"[1,1,0,1,1,1,0,0,0]","door_history":"[0,0,1,0,0,0,1,1,1]","location_rts":"[945,673,383,612,1569,396,389,1949,2748]","trial_type":"two-door-navigation","trial_index":9,"time_elapsed":223503,"internal_node_id":"0.0-2.0-7.0"},{"group":"dicyclic group of order 12","room_assignment":["yellow","ivory","orange","pink","green","brown","blue","olive","purple","grey","red","cyan"],"door_color_assignment":["white","black"],"door_generator_assignment":[1,0],"goal":4,"start":6,"action_noise":0.15,"location_history":"[6,10,2,3,7,8,0,1,2,3,0,1,2,3,7,8,0,4]","action_history":"[1,1,0,0,0,1,0,0,0,0,1,0,0,1,0,0,1]","door_history":"[0,0,1,1,1,0,1,1,1,1,0,1,1,0,1,1,0]","location_rts":"[933,1024,1267,135,126,370,309,234,75,348,131,300,232,235,255,328,4171]","trial_type":"two-door-navigation","trial_index":10,"time_elapsed":254597,"internal_node_id":"0.0-2.0-8.0"},{"group":"dicyclic group of order 12","room_assignment":["yellow","ivory","orange","pink","green","brown","blue","olive","purple","grey","red","cyan"],"door_color_assignment":["white","black"],"door_generator_assignment":[1,0],"goal":1,"start":4,"action_noise":0.15,"location_history":"[4,9,1]","action_history":"[1,1]","door_history":"[0,0]","location_rts":"[1338,689]","trial_type":"two-door-navigation","trial_index":11,"time_elapsed":262139,"internal_node_id":"0.0-2.0-9.0"},{"group":"dicyclic group of order 12","room_assignment":["yellow","ivory","orange","pink","green","brown","blue","olive","purple","grey","red","cyan"],"door_color_assignment":["white","black"],"door_generator_assignment":[1,0],"goal":9,"start":1,"action_noise":0.15,"location_history":"[1,5,9]","action_history":"[1,1]","door_history":"[0,0]","location_rts":"[5427,462]","trial_type":"two-door-navigation","trial_index":12,"time_elapsed":273536,"internal_node_id":"0.0-2.0-10.0"},{"group":"dicyclic group of order 12","room_assignment":["yellow","ivory","orange","pink","green","brown","blue","olive","purple","grey","red","cyan"],"door_color_assignment":["white","black"],"door_generator_assignment":[1,0],"goal":10,"start":9,"action_noise":0.15,"location_history":"[9,1,5,9,1,2,3,7,11,3,7,8,5,10]","action_history":"[1,1,1,1,0,1,1,1,0,1,0,0,0]","door_history":"[0,0,0,0,1,0,0,0,1,0,1,1,1]","location_rts":"[3281,267,336,277,238,397,423,207,336,1015,2203,303,46]","trial_type":"two-door-navigation","trial_index":13,"time_elapsed":299447,"internal_node_id":"0.0-2.0-11.0"},{"group":"dicyclic group of order 12","room_assignment":["yellow","ivory","orange","pink","green","brown","blue","olive","purple","grey","red","cyan"],"door_color_assignment":["white","black"],"door_generator_assignment":[1,0],"goal":2,"start":10,"action_noise":0.15,"location_history":"[10,2]","action_history":"[1]","door_history":"[0]","location_rts":"[3078]","trial_type":"two-door-navigation","trial_index":14,"time_elapsed":307037,"internal_node_id":"0.0-2.0-12.0"},{"group":"dicyclic group of order 12","room_assignment":["yellow","ivory","orange","pink","green","brown","blue","olive","purple","grey","red","cyan"],"door_color_assignment":["white","black"],"door_generator_assignment":[1,0],"goal":0,"start":2,"action_noise":0.15,"location_history":"[2,3,0]","action_history":"[0,1]","door_history":"[1,0]","location_rts":"[3312,936]","trial_type":"two-door-navigation","trial_index":15,"time_elapsed":316796,"internal_node_id":"0.0-2.0-13.0"},{"group":"dicyclic group of order 12","room_assignment":["yellow","ivory","orange","pink","green","brown","blue","olive","purple","grey","red","cyan"],"door_color_assignment":["white","black"],"door_generator_assignment":[1,0],"goal":9,"start":0,"action_noise":0.15,"location_history":"[0,4,8,5,9]","action_history":"[1,0,0,1]","door_history":"[0,1,1,0]","location_rts":"[2055,418,658,472]","trial_type":"two-door-navigation","trial_index":16,"time_elapsed":327925,"internal_node_id":"0.0-2.0-14.0"},{"group":"dicyclic group of order 12","room_assignment":["yellow","ivory","orange","pink","green","brown","blue","olive","purple","grey","red","cyan"],"door_color_assignment":["white","black"],"door_generator_assignment":[1,0],"goal":8,"start":9,"action_noise":0.15,"location_history":"[9,1,5,9,6,11,4,8]","action_history":"[1,1,1,0,0,0,1]","door_history":"[0,0,0,1,1,1,0]","location_rts":"[3576,804,9011,507,602,396,227]","trial_type":"two-door-navigation","trial_index":17,"time_elapsed":353592,"internal_node_id":"0.0-2.0-15.0"},{"group":"dicyclic group of order 12","room_assignment":["yellow","ivory","orange","pink","green","brown","blue","olive","purple","grey","red","cyan"],"door_color_assignment":["white","black"],"door_generator_assignment":[1,0],"goal":6,"start":8,"action_noise":0.15,"location_history":"[8,0,4,9,6]","action_history":"[1,0,0,0]","door_history":"[0,1,1,1]","location_rts":"[3771,325,265,309]","trial_type":"two-door-navigation","trial_index":18,"time_elapsed":365789,"internal_node_id":"0.0-2.0-16.0"},{"group":"dicyclic group of order 12","room_assignment":["yellow","ivory","orange","pink","green","brown","blue","olive","purple","grey","red","cyan"],"door_color_assignment":["white","black"],"door_generator_assignment":[1,0],"goal":1,"start":6,"action_noise":0.15,"location_history":"[6,10,7,8,5,9,1]","action_history":"[1,1,0,1,1,1]","door_history":"[0,0,1,0,0,0]","location_rts":"[2249,465,614,401,595,714]","trial_type":"two-door-navigation","trial_index":19,"time_elapsed":380364,"internal_node_id":"0.0-2.0-17.0"},{"group":"dicyclic group of order 12","room_assignment":["yellow","ivory","orange","pink","green","brown","blue","olive","purple","grey","red","cyan"],"door_color_assignment":["white","black"],"door_generator_assignment":[1,0],"goal":4,"start":1,"action_noise":0.15,"location_history":"[1,2,3,0,1,5,10,2,6,10,2,6,10,7,8,0,1,2,6,10,7,11,4]","action_history":"[0,0,0,0,1,0,1,1,1,1,0,1,1,0,1,0,0,1,1,0,0,0]","door_history":"[1,1,1,1,0,1,0,0,0,0,1,0,0,1,0,1,1,0,0,1,1,1]","location_rts":"[2248,545,656,606,271,286,427,215,387,905,333,261,360,241,391,440,308,971,412,200,433,1050]","trial_type":"two-door-navigation","trial_index":20,"time_elapsed":417945,"internal_node_id":"0.0-2.0-18.0"},{"group":"dicyclic group of order 12","room_assignment":["yellow","ivory","orange","pink","green","brown","blue","olive","purple","grey","red","cyan"],"door_color_assignment":["white","black"],"door_generator_assignment":[1,0],"goal":11,"start":4,"action_noise":0.15,"location_history":"[4,9,6,10,7,8,5,9,6,11]","action_history":"[0,0,0,0,0,0,1,0,0]","door_history":"[1,1,1,1,1,1,0,1,1]","location_rts":"[3124,290,487,422,448,408,2213,586,403]","trial_type":"two-door-navigation","trial_index":21,"time_elapsed":438888,"internal_node_id":"0.0-2.0-19.0"},{"group":"dicyclic group of order 12","room_assignment":["yellow","ivory","orange","pink","green","brown","blue","olive","purple","grey","red","cyan"],"door_color_assignment":["white","black"],"door_generator_assignment":[1,0],"goal":3,"start":11,"action_noise":0.15,"location_history":"[11,3]","action_history":"[1]","door_history":"[0]","location_rts":"[3448]","trial_type":"two-door-navigation","trial_index":22,"time_elapsed":446844,"internal_node_id":"0.0-2.0-20.0"},{"group":"dicyclic group of order 12","room_assignment":["yellow","ivory","orange","pink","green","brown","blue","olive","purple","grey","red","cyan"],"door_color_assignment":["white","black"],"door_generator_assignment":[1,0],"goal":5,"start":3,"action_noise":0.15,"location_history":"[3,7,8,5]","action_history":"[1,0,0]","door_history":"[0,1,1]","location_rts":"[2968,942,1569]","trial_type":"two-door-navigation","trial_index":23,"time_elapsed":458844,"internal_node_id":"0.0-2.0-21.0"},{"group":"dicyclic group of order 12","room_assignment":["yellow","ivory","orange","pink","green","brown","blue","olive","purple","grey","red","cyan"],"door_color_assignment":["white","black"],"door_generator_assignment":[1,0],"goal":7,"start":5,"action_noise":0.15,"location_history":"[5,9,6,11,3,7]","action_history":"[0,0,0,0,0]","door_history":"[1,1,1,1,1]","location_rts":"[1793,1091,400,389,393]","trial_type":"two-door-navigation","trial_index":24,"time_elapsed":471435,"internal_node_id":"0.0-2.0-22.0"},{"group":"dicyclic group of order 12","room_assignment":["yellow","ivory","orange","pink","green","brown","blue","olive","purple","grey","red","cyan"],"door_color_assignment":["white","black"],"door_generator_assignment":[1,0],"goal":3,"start":7,"action_noise":0.15,"location_history":"[7,11,3]","action_history":"[1,1]","door_history":"[0,0]","location_rts":"[3896,2708]","trial_type":"two-door-navigation","trial_index":25,"time_elapsed":483546,"internal_node_id":"0.0-2.0-23.0"},{"group":"dicyclic group of order 12","room_assignment":["yellow","ivory","orange","pink","green","brown","blue","olive","purple","grey","red","cyan"],"door_color_assignment":["white","black"],"door_generator_assignment":[1,0],"goal":4,"start":3,"action_noise":0.15,"location_history":"[3,7,8,5,10,7,8,0,1,2,3,7,11,4]","action_history":"[0,0,0,0,0,0,1,0,0,0,1,1,0]","door_history":"[1,1,1,1,1,1,0,1,1,1,0,0,1]","location_rts":"[3354,193,351,388,360,826,354,387,264,567,388,1105,552]","trial_type":"two-door-navigation","trial_index":26,"time_elapsed":509214,"internal_node_id":"0.0-2.0-24.0"},{"group":"dicyclic group of order 12","room_assignment":["yellow","ivory","orange","pink","green","brown","blue","olive","purple","grey","red","cyan"],"door_color_assignment":["white","black"],"door_generator_assignment":[1,0],"goal":8,"start":4,"action_noise":0.15,"location_history":"[4,8]","action_history":"[1]","door_history":"[0]","location_rts":"[3175]","trial_type":"two-door-navigation","trial_index":27,"time_elapsed":516896,"internal_node_id":"0.0-2.0-25.0"},{"group":"dicyclic group of order 12","room_assignment":["yellow","ivory","orange","pink","green","brown","blue","olive","purple","grey","red","cyan"],"door_color_assignment":["white","black"],"door_generator_assignment":[1,0],"goal":6,"start":8,"action_noise":0.15,"location_history":"[8,0,1,5,10,2,3,0,4,9,6]","action_history":"[1,1,1,0,1,0,0,1,0,0]","door_history":"[0,0,0,1,0,1,1,0,1,1]","location_rts":"[4793,781,831,305,360,427,209,316,299,381]","trial_type":"two-door-navigation","trial_index":28,"time_elapsed":539174,"internal_node_id":"0.0-2.0-26.0"},{"group":"dicyclic group of order 12","room_assignment":["yellow","ivory","orange","pink","green","brown","blue","olive","purple","grey","red","cyan"],"door_color_assignment":["white","black"],"door_generator_assignment":[1,0],"goal":1,"start":6,"action_noise":0.15,"location_history":"[6,11,3,0,1]","action_history":"[1,1,0,0]","door_history":"[0,0,1,1]","location_rts":"[2297,608,507,633]","trial_type":"two-door-navigation","trial_index":29,"time_elapsed":550741,"internal_node_id":"0.0-2.0-27.0"},{"group":"dicyclic group of order 12","room_assignment":["yellow","ivory","orange","pink","green","brown","blue","olive","purple","grey","red","cyan"],"door_color_assignment":["white","black"],"door_generator_assignment":[1,0],"goal":5,"start":1,"action_noise":0.15,"location_history":"[1,2,6,11,3,7,11,3,7,11,3,0,4,9,6,10,7,11,4,9,1,2,6,11,3,0,1,5]","action_history":"[1,1,1,1,1,1,0,1,1,1,0,1,0,0,1,0,0,0,0,1,1,1,0,1,0,0,1]","door_history":"[0,0,0,0,0,0,1,0,0,0,1,0,1,1,0,1,1,1,1,0,0,0,1,0,1,1,0]","location_rts":"[3582,495,346,404,390,398,600,432,354,322,373,338,404,992,775,280,302,526,398,485,769,1074,614,1456,890,620,342]","trial_type":"two-door-navigation","trial_index":30,"time_elapsed":599360,"internal_node_id":"0.0-2.0-28.0"},{"group":"dicyclic group of order 12","room_assignment":["yellow","ivory","orange","pink","green","brown","blue","olive","purple","grey","red","cyan"],"door_color_assignment":["white","black"],"door_generator_assignment":[1,0],"goal":9,"start":5,"action_noise":0.15,"location_history":"[5,10,2,6,10,7,11,4,9]","action_history":"[0,0,1,1,0,0,0,0]","door_history":"[1,1,0,0,1,1,1,1]","location_rts":"[3305,1905,1350,331,419,3885,326,412]","trial_type":"two-door-navigation","trial_index":31,"time_elapsed":622844,"internal_node_id":"0.0-2.0-29.0"},{"group":"dicyclic group of order 12","room_assignment":["yellow","ivory","orange","pink","green","brown","blue","olive","purple","grey","red","cyan"],"door_color_assignment":["white","black"],"door_generator_assignment":[1,0],"goal":10,"start":9,"action_noise":0.15,"location_history":"[9,6,10]","action_history":"[0,1]","door_history":"[1,0]","location_rts":"[4347,1153]","trial_type":"two-door-navigation","trial_index":32,"time_elapsed":633856,"internal_node_id":"0.0-2.0-30.0"},{"group":"dicyclic group of order 12","room_assignment":["yellow","ivory","orange","pink","green","brown","blue","olive","purple","grey","red","cyan"],"door_color_assignment":["white","black"],"door_generator_assignment":[1,0],"goal":0,"start":10,"action_noise":0.15,"location_history":"[10,7,11,3,7,8,5,9,1,2,6,11,4,9,1,2,6,10,2,6,11,4,9,1,2,6,10,7,11,3,0]","action_history":"[0,1,0,0,0,0,1,1,0,1,0,0,0,1,0,1,1,1,1,0,1,1,1,0,1,0,0,1,1,0]","door_history":"[1,0,1,1,1,1,0,0,1,0,1,1,1,0,1,0,0,0,0,1,0,0,0,1,0,1,1,0,0,1]","location_rts":"[1770,606,666,978,1958,1127,361,465,611,940,1029,331,481,364,458,531,398,450,378,342,316,127,291,289,296,250,289,571,105,648]","trial_type":"two-door-navigation","trial_index":33,"time_elapsed":684954,"internal_node_id":"0.0-2.0-31.0"},{"group":"dicyclic group of order 12","room_assignment":["yellow","ivory","orange","pink","green","brown","blue","olive","purple","grey","red","cyan"],"door_color_assignment":["white","black"],"door_generator_assignment":[1,0],"goal":7,"start":0,"action_noise":0.15,"location_history":"[0,1,5,10,7]","action_history":"[0,1,0,0]","door_history":"[1,0,1,1]","location_rts":"[3064,943,1108,219]","trial_type":"two-door-navigation","trial_index":34,"time_elapsed":697813,"internal_node_id":"0.0-2.0-32.0"},{"group":"dicyclic group of order 12","room_assignment":["yellow","ivory","orange","pink","green","brown","blue","olive","purple","grey","red","cyan"],"door_color_assignment":["white","black"],"door_generator_assignment":[1,0],"goal":11,"start":7,"action_noise":0.15,"location_history":"[7,8,0,4,9,6,11]","action_history":"[0,1,1,0,0,0]","door_history":"[1,0,0,1,1,1]","location_rts":"[1747,156,2136,974,294,519]","trial_type":"two-door-navigation","trial_index":35,"time_elapsed":713171,"internal_node_id":"0.0-2.0-33.0"},{"group":"dicyclic group of order 12","room_assignment":["yellow","ivory","orange","pink","green","brown","blue","olive","purple","grey","red","cyan"],"door_color_assignment":["white","black"],"door_generator_assignment":[1,0],"goal":2,"start":11,"action_noise":0.15,"location_history":"[11,4,8,5,10,2]","action_history":"[0,0,1,0,1]","door_history":"[1,1,0,1,0]","location_rts":"[2628,96,1145,968,652]","trial_type":"two-door-navigation","trial_index":36,"time_elapsed":727196,"internal_node_id":"0.0-2.0-34.0"},{"view_history":"[{\"page_index\":0,\"viewing_time\":1358}]","rt":1358,"trial_type":"instructions","trial_index":37,"time_elapsed":729554,"internal_node_id":"0.0-3.0"},{"view_history":"[{\"page_index\":0,\"viewing_time\":897},{\"page_index\":1,\"viewing_time\":3416}]","rt":4313,"trial_type":"instructions","trial_index":38,"time_elapsed":734867,"internal_node_id":"0.0-4.0"},{"group":"dicyclic group of order 12","fractal_assignment":["../images/grn_blu.png","../images/wht_red.png","../images/org_blu.png","../images/grn_red.png","../images/red_prp.png","../images/gry_blk.png","../images/ylw_pnk.png","../images/pnk_blu.png","../images/ylw_slt.png","../images/blu_wht.png","../images/grn_prp.png","../images/cyn_red.png"],"mutagen_generator_assignment":[1,0],"goal":7,"start":3,"action_noise":0.15,"location_history":"[3,0,4,8,0,1,5,9,1,2,3,0,4,9,1,5,10,2,6,11,4,9,1,2,3,7]","action_history":"[0,1,1,0,0,1,1,1,0,0,0,1,0,0,1,0,0,1,0,0,0,1,0,0,1]","mutagen_history":"[1,0,0,1,1,0,0,0,1,1,1,0,1,1,0,1,1,0,1,1,1,0,1,1,0]","location_rts":"[2168,5294,606,1676,840,760,1574,310,308,449,441,276,408,530,979,2384,450,439,464,2189,1559,4256,2353,335,387]","trial_type":"fractal-mutation","trial_index":39,"time_elapsed":799663,"internal_node_id":"0.0-5.0-0.0"},{"group":"dicyclic group of order 12","fractal_assignment":["../images/grn_blu.png","../images/wht_red.png","../images/org_blu.png","../images/grn_red.png","../images/red_prp.png","../images/gry_blk.png","../images/ylw_pnk.png","../images/pnk_blu.png","../images/ylw_slt.png","../images/blu_wht.png","../images/grn_prp.png","../images/cyn_red.png"],"mutagen_generator_assignment":[1,0],"goal":5,"start":7,"action_noise":0.15,"location_history":"[7,8,5]","action_history":"[1,0]","mutagen_history":"[0,1]","location_rts":"[3452,980]","trial_type":"fractal-mutation","trial_index":40,"time_elapsed":809898,"internal_node_id":"0.0-5.0-1.0"},{"group":"dicyclic group of order 12","fractal_assignment":["../images/grn_blu.png","../images/wht_red.png","../images/org_blu.png","../images/grn_red.png","../images/red_prp.png","../images/gry_blk.png","../images/ylw_pnk.png","../images/pnk_blu.png","../images/ylw_slt.png","../images/blu_wht.png","../images/grn_prp.png","../images/cyn_red.png"],"mutagen_generator_assignment":[1,0],"goal":0,"start":5,"action_noise":0.15,"location_history":"[5,10,7,11,4,9,6,11,4,8,0]","action_history":"[0,0,1,0,0,0,0,0,1,1]","mutagen_history":"[1,1,0,1,1,1,1,1,0,0]","location_rts":"[3177,1001,554,564,1613,304,268,395,452,577]","trial_type":"fractal-mutation","trial_index":41,"time_elapsed":834436,"internal_node_id":"0.0-5.0-2.0"},{"group":"dicyclic group of order 12","fractal_assignment":["../images/grn_blu.png","../images/wht_red.png","../images/org_blu.png","../images/grn_red.png","../images/red_prp.png","../images/gry_blk.png","../images/ylw_pnk.png","../images/pnk_blu.png","../images/ylw_slt.png","../images/blu_wht.png","../images/grn_prp.png","../images/cyn_red.png"],"mutagen_generator_assignment":[1,0],"goal":2,"start":0,"action_noise":0.15,"location_history":"[0,1,5,9,1,5,9,1,5,10,2]","action_history":"[0,1,1,1,1,0,1,0,0,1]","mutagen_history":"[1,0,0,0,0,1,0,1,1,0]","location_rts":"[1396,492,451,581,521,290,721,776,341,815]","trial_type":"fractal-mutation","trial_index":42,"time_elapsed":856044,"internal_node_id":"0.0-5.0-3.0"},{"group":"dicyclic group of order 12","fractal_assignment":["../images/grn_blu.png","../images/wht_red.png","../images/org_blu.png","../images/grn_red.png","../images/red_prp.png","../images/gry_blk.png","../images/ylw_pnk.png","../images/pnk_blu.png","../images/ylw_slt.png","../images/blu_wht.png","../images/grn_prp.png","../images/cyn_red.png"],"mutagen_generator_assignment":[1,0],"goal":10,"start":2,"action_noise":0.15,"location_history":"[2,6,10]","action_history":"[0,0]","mutagen_history":"[1,1]","location_rts":"[2346,606]","trial_type":"fractal-mutation","trial_index":43,"time_elapsed":864905,"internal_node_id":"0.0-5.0-4.0"},{"group":"dicyclic group of order 12","fractal_assignment":["../images/grn_blu.png","../images/wht_red.png","../images/org_blu.png","../images/grn_red.png","../images/red_prp.png","../images/gry_blk.png","../images/ylw_pnk.png","../images/pnk_blu.png","../images/ylw_slt.png","../images/blu_wht.png","../images/grn_prp.png","../images/cyn_red.png"],"mutagen_generator_assignment":[1,0],"goal":8,"start":10,"action_noise":0.15,"location_history":"[10,7,8]","action_history":"[0,0]","mutagen_history":"[1,1]","location_rts":"[3719,561]","trial_type":"fractal-mutation","trial_index":44,"time_elapsed":875128,"internal_node_id":"0.0-5.0-5.0"},{"group":"dicyclic group of order 12","fractal_assignment":["../images/grn_blu.png","../images/wht_red.png","../images/org_blu.png","../images/grn_red.png","../images/red_prp.png","../images/gry_blk.png","../images/ylw_pnk.png","../images/pnk_blu.png","../images/ylw_slt.png","../images/blu_wht.png","../images/grn_prp.png","../images/cyn_red.png"],"mutagen_generator_assignment":[1,0],"goal":11,"start":8,"action_noise":0.15,"location_history":"[8,0,4,9,6,10,2,3,0,1,2,3,0,1,2,3,7,8,5,10,7,11]","action_history":"[1,1,0,0,1,1,0,0,0,1,1,0,0,0,1,1,0,0,0,1,0]","mutagen_history":"[0,0,1,1,0,0,1,1,1,0,0,1,1,1,0,0,1,1,1,0,1]","location_rts":"[670,359,729,427,512,594,774,481,572,527,421,859,1178,810,486,541,794,711,670,406,1276]","trial_type":"fractal-mutation","trial_index":45,"time_elapsed":917046,"internal_node_id":"0.0-5.0-6.0"},{"group":"dicyclic group of order 12","fractal_assignment":["../images/grn_blu.png","../images/wht_red.png","../images/org_blu.png","../images/grn_red.png","../images/red_prp.png","../images/gry_blk.png","../images/ylw_pnk.png","../images/pnk_blu.png","../images/ylw_slt.png","../images/blu_wht.png","../images/grn_prp.png","../images/cyn_red.png"],"mutagen_generator_assignment":[1,0],"goal":6,"start":11,"action_noise":0.15,"location_history":"[11,3,0,1,5,10,7,8,5,10,2,3,7,8,5,9,1,5,9,6]","action_history":"[0,0,0,1,0,0,0,0,0,1,0,1,0,1,1,1,0,1,0]","mutagen_history":"[1,1,1,0,1,1,1,1,1,0,1,0,1,0,0,0,1,0,1]","location_rts":"[902,407,183,304,364,680,508,896,462,215,1045,576,602,574,437,2385,2875,464,1250]","trial_type":"fractal-mutation","trial_index":46,"time_elapsed":958400,"internal_node_id":"0.0-5.0-7.0"},{"group":"dicyclic group of order 12","fractal_assignment":["../images/grn_blu.png","../images/wht_red.png","../images/org_blu.png","../images/grn_red.png","../images/red_prp.png","../images/gry_blk.png","../images/ylw_pnk.png","../images/pnk_blu.png","../images/ylw_slt.png","../images/blu_wht.png","../images/grn_prp.png","../images/cyn_red.png"],"mutagen_generator_assignment":[1,0],"goal":4,"start":6,"action_noise":0.15,"location_history":"[6,11,3,0,4]","action_history":"[0,1,0,1]","mutagen_history":"[1,0,1,0]","location_rts":"[2591,2645,696,2715]","trial_type":"fractal-mutation","trial_index":47,"time_elapsed":975210,"internal_node_id":"0.0-5.0-8.0"},{"group":"dicyclic group of order 12","fractal_assignment":["../images/grn_blu.png","../images/wht_red.png","../images/org_blu.png","../images/grn_red.png","../images/red_prp.png","../images/gry_blk.png","../images/ylw_pnk.png","../images/pnk_blu.png","../images/ylw_slt.png","../images/blu_wht.png","../images/grn_prp.png","../images/cyn_red.png"],"mutagen_generator_assignment":[1,0],"goal":1,"start":4,"action_noise":0.15,"location_history":"[4,8,5,10,7,8,0,1]","action_history":"[0,0,0,0,0,1,0]","mutagen_history":"[1,1,1,1,1,0,1]","location_rts":"[1548,52,470,892,1261,557,2065]","trial_type":"fractal-mutation","trial_index":48,"time_elapsed":994117,"internal_node_id":"0.0-5.0-9.0"},{"group":"dicyclic group of order 12","fractal_assignment":["../images/grn_blu.png","../images/wht_red.png","../images/org_blu.png","../images/grn_red.png","../images/red_prp.png","../images/gry_blk.png","../images/ylw_pnk.png","../images/pnk_blu.png","../images/ylw_slt.png","../images/blu_wht.png","../images/grn_prp.png","../images/cyn_red.png"],"mutagen_generator_assignment":[1,0],"goal":9,"start":1,"action_noise":0.15,"location_history":"[1,5,9]","action_history":"[1,1]","mutagen_history":"[0,0]","location_rts":"[2807,751]","trial_type":"fractal-mutation","trial_index":49,"time_elapsed":1003234,"internal_node_id":"0.0-5.0-10.0"},{"group":"dicyclic group of order 12","fractal_assignment":["../images/grn_blu.png","../images/wht_red.png","../images/org_blu.png","../images/grn_red.png","../images/red_prp.png","../images/gry_blk.png","../images/ylw_pnk.png","../images/pnk_blu.png","../images/ylw_slt.png","../images/blu_wht.png","../images/grn_prp.png","../images/cyn_red.png"],"mutagen_generator_assignment":[1,0],"goal":10,"start":9,"action_noise":0.15,"location_history":"[9,6,11,3,7,8,0,4,8,0,1,5,10]","action_history":"[0,0,1,1,0,1,1,1,1,0,1,1]","mutagen_history":"[1,1,0,0,1,0,0,0,0,1,0,0]","location_rts":"[3100,64,4752,447,676,530,1992,3204,408,696,1748,1231]","trial_type":"fractal-mutation","trial_index":50,"time_elapsed":1039506,"internal_node_id":"0.0-5.0-11.0"},{"group":"dicyclic group of order 12","fractal_assignment":["../images/grn_blu.png","../images/wht_red.png","../images/org_blu.png","../images/grn_red.png","../images/red_prp.png","../images/gry_blk.png","../images/ylw_pnk.png","../images/pnk_blu.png","../images/ylw_slt.png","../images/blu_wht.png","../images/grn_prp.png","../images/cyn_red.png"],"mutagen_generator_assignment":[1,0],"goal":2,"start":10,"action_noise":0.15,"location_history":"[10,7,8,0,4,9,1,5,10,2]","action_history":"[0,0,1,1,0,0,0,0,1]","mutagen_history":"[1,1,0,0,1,1,1,1,0]","location_rts":"[1836,1315,611,1585,1414,2332,481,5255,297]","trial_type":"fractal-mutation","trial_index":51,"time_elapsed":1068641,"internal_node_id":"0.0-5.0-12.0"},{"group":"dicyclic group of order 12","fractal_assignment":["../images/grn_blu.png","../images/wht_red.png","../images/org_blu.png","../images/grn_red.png","../images/red_prp.png","../images/gry_blk.png","../images/ylw_pnk.png","../images/pnk_blu.png","../images/ylw_slt.png","../images/blu_wht.png","../images/grn_prp.png","../images/cyn_red.png"],"mutagen_generator_assignment":[1,0],"goal":0,"start":2,"action_noise":0.15,"location_history":"[2,3,0]","action_history":"[1,0]","mutagen_history":"[0,1]","location_rts":"[779,443]","trial_type":"fractal-mutation","trial_index":52,"time_elapsed":1075633,"internal_node_id":"0.0-5.0-13.0"},{"group":"dicyclic group of order 12","fractal_assignment":["../images/grn_blu.png","../images/wht_red.png","../images/org_blu.png","../images/grn_red.png","../images/red_prp.png","../images/gry_blk.png","../images/ylw_pnk.png","../images/pnk_blu.png","../images/ylw_slt.png","../images/blu_wht.png","../images/grn_prp.png","../images/cyn_red.png"],"mutagen_generator_assignment":[1,0],"goal":9,"start":0,"action_noise":0.15,"location_history":"[0,1,5,9]","action_history":"[0,1,1]","mutagen_history":"[1,0,0]","location_rts":"[552,2527,688]","trial_type":"fractal-mutation","trial_index":53,"time_elapsed":1086419,"internal_node_id":"0.0-5.0-14.0"},{"group":"dicyclic group of order 12","fractal_assignment":["../images/grn_blu.png","../images/wht_red.png","../images/org_blu.png","../images/grn_red.png","../images/red_prp.png","../images/gry_blk.png","../images/ylw_pnk.png","../images/pnk_blu.png","../images/ylw_slt.png","../images/blu_wht.png","../images/grn_prp.png","../images/cyn_red.png"],"mutagen_generator_assignment":[1,0],"goal":8,"start":9,"action_noise":0.15,"location_history":"[9,6,11,4,8]","action_history":"[0,0,0,1]","mutagen_history":"[1,1,1,0]","location_rts":"[1792,702,12038,870]","trial_type":"fractal-mutation","trial_index":54,"time_elapsed":1110141,"internal_node_id":"0.0-5.0-15.0"},{"group":"dicyclic group of order 12","fractal_assignment":["../images/grn_blu.png","../images/wht_red.png","../images/org_blu.png","../images/grn_red.png","../images/red_prp.png","../images/gry_blk.png","../images/ylw_pnk.png","../images/pnk_blu.png","../images/ylw_slt.png","../images/blu_wht.png","../images/grn_prp.png","../images/cyn_red.png"],"mutagen_generator_assignment":[1,0],"goal":6,"start":8,"action_noise":0.15,"location_history":"[8,0,1,5,9,6]","action_history":"[1,0,1,1,0]","mutagen_history":"[0,1,0,0,1]","location_rts":"[1549,2048,626,652,882]","trial_type":"fractal-mutation","trial_index":55,"time_elapsed":1125065,"internal_node_id":"0.0-5.0-16.0"},{"group":"dicyclic group of order 12","fractal_assignment":["../images/grn_blu.png","../images/wht_red.png","../images/org_blu.png","../images/grn_red.png","../images/red_prp.png","../images/gry_blk.png","../images/ylw_pnk.png","../images/pnk_blu.png","../images/ylw_slt.png","../images/blu_wht.png","../images/grn_prp.png","../images/cyn_red.png"],"mutagen_generator_assignment":[1,0],"goal":1,"start":6,"action_noise":0.15,"location_history":"[6,10,2,6,11,3,7,8,5,9,6,11,4,9,1]","action_history":"[1,1,1,0,0,1,1,1,1,0,0,0,0,1]","mutagen_history":"[0,0,0,1,1,0,0,0,0,1,1,1,1,0]","location_rts":"[2762,758,505,1059,657,731,694,760,628,1516,412,419,266,279]","trial_type":"fractal-mutation","trial_index":56,"time_elapsed":1156270,"internal_node_id":"0.0-5.0-17.0"},{"group":"dicyclic group of order 12","fractal_assignment":["../images/grn_blu.png","../images/wht_red.png","../images/org_blu.png","../images/grn_red.png","../images/red_prp.png","../images/gry_blk.png","../images/ylw_pnk.png","../images/pnk_blu.png","../images/ylw_slt.png","../images/blu_wht.png","../images/grn_prp.png","../images/cyn_red.png"],"mutagen_generator_assignment":[1,0],"goal":4,"start":1,"action_noise":0.15,"location_history":"[1,5,10,2,6,11,4]","action_history":"[1,1,1,1,0,0]","mutagen_history":"[0,0,0,0,1,1]","location_rts":"[2604,447,2085,1357,548,595]","trial_type":"fractal-mutation","trial_index":57,"time_elapsed":1173940,"internal_node_id":"0.0-5.0-18.0"},{"group":"dicyclic group of order 12","fractal_assignment":["../images/grn_blu.png","../images/wht_red.png","../images/org_blu.png","../images/grn_red.png","../images/red_prp.png","../images/gry_blk.png","../images/ylw_pnk.png","../images/pnk_blu.png","../images/ylw_slt.png","../images/blu_wht.png","../images/grn_prp.png","../images/cyn_red.png"],"mutagen_generator_assignment":[1,0],"goal":11,"start":4,"action_noise":0.15,"location_history":"[4,8,0,4,9,1,5,10,7,8,0,1,5,9,6,11]","action_history":"[1,1,1,1,1,1,1,0,0,1,0,1,1,0,0]","mutagen_history":"[0,0,0,0,0,0,0,1,1,0,1,0,0,1,1]","location_rts":"[600,987,1905,1285,414,454,467,214,658,499,1720,346,906,682,77]","trial_type":"fractal-mutation","trial_index":58,"time_elapsed":1205383,"internal_node_id":"0.0-5.0-19.0"},{"group":"dicyclic group of order 12","fractal_assignment":["../images/grn_blu.png","../images/wht_red.png","../images/org_blu.png","../images/grn_red.png","../images/red_prp.png","../images/gry_blk.png","../images/ylw_pnk.png","../images/pnk_blu.png","../images/ylw_slt.png","../images/blu_wht.png","../images/grn_prp.png","../images/cyn_red.png"],"mutagen_generator_assignment":[1,0],"goal":3,"start":11,"action_noise":0.15,"location_history":"[11,3]","action_history":"[1]","mutagen_history":"[0]","location_rts":"[524]","trial_type":"fractal-mutation","trial_index":59,"time_elapsed":1210419,"internal_node_id":"0.0-5.0-20.0"},{"group":"dicyclic group of order 12","fractal_assignment":["../images/grn_blu.png","../images/wht_red.png","../images/org_blu.png","../images/grn_red.png","../images/red_prp.png","../images/gry_blk.png","../images/ylw_pnk.png","../images/pnk_blu.png","../images/ylw_slt.png","../images/blu_wht.png","../images/grn_prp.png","../images/cyn_red.png"],"mutagen_generator_assignment":[1,0],"goal":5,"start":3,"action_noise":0.15,"location_history":"[3,7,8,5]","action_history":"[1,0,0]","mutagen_history":"[0,1,1]","location_rts":"[6904,3623,317]","trial_type":"fractal-mutation","trial_index":60,"time_elapsed":1228320,"internal_node_id":"0.0-5.0-21.0"},{"group":"dicyclic group of order 12","fractal_assignment":["../images/grn_blu.png","../images/wht_red.png","../images/org_blu.png","../images/grn_red.png","../images/red_prp.png","../images/gry_blk.png","../images/ylw_pnk.png","../images/pnk_blu.png","../images/ylw_slt.png","../images/blu_wht.png","../images/grn_prp.png","../images/cyn_red.png"],"mutagen_generator_assignment":[1,0],"goal":7,"start":5,"action_noise":0.15,"location_history":"[5,10,7]","action_history":"[0,0]","mutagen_history":"[1,1]","location_rts":"[3096,361]","trial_type":"fractal-mutation","trial_index":61,"time_elapsed":1237719,"internal_node_id":"0.0-5.0-22.0"},{"group":"dicyclic group of order 12","fractal_assignment":["../images/grn_blu.png","../images/wht_red.png","../images/org_blu.png","../images/grn_red.png","../images/red_prp.png","../images/gry_blk.png","../images/ylw_pnk.png","../images/pnk_blu.png","../images/ylw_slt.png","../images/blu_wht.png","../images/grn_prp.png","../images/cyn_red.png"],"mutagen_generator_assignment":[1,0],"goal":3,"start":7,"action_noise":0.15,"location_history":"[7,11,4,8,0,1,5,9,1,2,3]","action_history":"[0,0,1,0,0,0,1,0,0,0]","mutagen_history":"[1,1,0,1,1,1,0,1,1,1]","location_rts":"[793,1335,803,610,539,299,2259,1221,769,2586]","trial_type":"fractal-mutation","trial_index":62,"time_elapsed":1264579,"internal_node_id":"0.0-5.0-23.0"},{"group":"dicyclic group of order 12","fractal_assignment":["../images/grn_blu.png","../images/wht_red.png","../images/org_blu.png","../images/grn_red.png","../images/red_prp.png","../images/gry_blk.png","../images/ylw_pnk.png","../images/pnk_blu.png","../images/ylw_slt.png","../images/blu_wht.png","../images/grn_prp.png","../images/cyn_red.png"],"mutagen_generator_assignment":[1,0],"goal":4,"start":3,"action_noise":0.15,"location_history":"[3,0,4]","action_history":"[0,1]","mutagen_history":"[1,0]","location_rts":"[990,362]","trial_type":"fractal-mutation","trial_index":63,"time_elapsed":1271786,"internal_node_id":"0.0-5.0-24.0"},{"group":"dicyclic group of order 12","fractal_assignment":["../images/grn_blu.png","../images/wht_red.png","../images/org_blu.png","../images/grn_red.png","../images/red_prp.png","../images/gry_blk.png","../images/ylw_pnk.png","../images/pnk_blu.png","../images/ylw_slt.png","../images/blu_wht.png","../images/grn_prp.png","../images/cyn_red.png"],"mutagen_generator_assignment":[1,0],"goal":8,"start":4,"action_noise":0.15,"location_history":"[4,9,6,11,3,7,11,4,8]","action_history":"[0,0,1,1,1,1,0,0]","mutagen_history":"[1,1,0,0,0,0,1,1]","location_rts":"[917,501,456,660,1256,637,652,567]","trial_type":"fractal-mutation","trial_index":64,"time_elapsed":1290437,"internal_node_id":"0.0-5.0-25.0"},{"group":"dicyclic group of order 12","fractal_assignment":["../images/grn_blu.png","../images/wht_red.png","../images/org_blu.png","../images/grn_red.png","../images/red_prp.png","../images/gry_blk.png","../images/ylw_pnk.png","../images/pnk_blu.png","../images/ylw_slt.png","../images/blu_wht.png","../images/grn_prp.png","../images/cyn_red.png"],"mutagen_generator_assignment":[1,0],"goal":6,"start":8,"action_noise":0.15,"location_history":"[8,5,9,6]","action_history":"[0,0,0]","mutagen_history":"[1,1,1]","location_rts":"[1372,621,861]","trial_type":"fractal-mutation","trial_index":65,"time_elapsed":1300543,"internal_node_id":"0.0-5.0-26.0"},{"group":"dicyclic group of order 12","fractal_assignment":["../images/grn_blu.png","../images/wht_red.png","../images/org_blu.png","../images/grn_red.png","../images/red_prp.png","../images/gry_blk.png","../images/ylw_pnk.png","../images/pnk_blu.png","../images/ylw_slt.png","../images/blu_wht.png","../images/grn_prp.png","../images/cyn_red.png"],"mutagen_generator_assignment":[1,0],"goal":1,"start":6,"action_noise":0.15,"location_history":"[6,10,2,6,11,3,7,11,4,9,1]","action_history":"[1,1,0,0,1,1,1,0,0,1]","mutagen_history":"[0,0,1,1,0,0,0,1,1,0]","location_rts":"[1183,438,348,914,459,1020,679,1025,1191,547]","trial_type":"fractal-mutation","trial_index":66,"time_elapsed":1323305,"internal_node_id":"0.0-5.0-27.0"},{"group":"dicyclic group of order 12","fractal_assignment":["../images/grn_blu.png","../images/wht_red.png","../images/org_blu.png","../images/grn_red.png","../images/red_prp.png","../images/gry_blk.png","../images/ylw_pnk.png","../images/pnk_blu.png","../images/ylw_slt.png","../images/blu_wht.png","../images/grn_prp.png","../images/cyn_red.png"],"mutagen_generator_assignment":[1,0],"goal":5,"start":1,"action_noise":0.15,"location_history":"[1,2,3,7,11,3,0,1,5]","action_history":"[1,1,1,1,1,1,0,1]","mutagen_history":"[0,0,0,0,0,0,1,0]","location_rts":"[562,1390,409,617,544,1300,4791,1023]","trial_type":"fractal-mutation","trial_index":67,"time_elapsed":1345923,"internal_node_id":"0.0-5.0-28.0"},{"group":"dicyclic group of order 12","fractal_assignment":["../images/grn_blu.png","../images/wht_red.png","../images/org_blu.png","../images/grn_red.png","../images/red_prp.png","../images/gry_blk.png","../images/ylw_pnk.png","../images/pnk_blu.png","../images/ylw_slt.png","../images/blu_wht.png","../images/grn_prp.png","../images/cyn_red.png"],"mutagen_generator_assignment":[1,0],"goal":9,"start":5,"action_noise":0.15,"location_history":"[5,9]","action_history":"[1]","mutagen_history":"[0]","location_rts":"[2698]","trial_type":"fractal-mutation","trial_index":68,"time_elapsed":1353136,"internal_node_id":"0.0-5.0-29.0"},{"group":"dicyclic group of order 12","fractal_assignment":["../images/grn_blu.png","../images/wht_red.png","../images/org_blu.png","../images/grn_red.png","../images/red_prp.png","../images/gry_blk.png","../images/ylw_pnk.png","../images/pnk_blu.png","../images/ylw_slt.png","../images/blu_wht.png","../images/grn_prp.png","../images/cyn_red.png"],"mutagen_generator_assignment":[1,0],"goal":10,"start":9,"action_noise":0.15,"location_history":"[9,6,10]","action_history":"[0,0]","mutagen_history":"[1,1]","location_rts":"[3390,1205]","trial_type":"fractal-mutation","trial_index":69,"time_elapsed":1363610,"internal_node_id":"0.0-5.0-30.0"},{"group":"dicyclic group of order 12","fractal_assignment":["../images/grn_blu.png","../images/wht_red.png","../images/org_blu.png","../images/grn_red.png","../images/red_prp.png","../images/gry_blk.png","../images/ylw_pnk.png","../images/pnk_blu.png","../images/ylw_slt.png","../images/blu_wht.png","../images/grn_prp.png","../images/cyn_red.png"],"mutagen_generator_assignment":[1,0],"goal":0,"start":10,"action_noise":0.15,"location_history":"[10,2,6,11,3,7,11,3,0]","action_history":"[1,0,0,1,1,1,1,0]","mutagen_history":"[0,1,1,0,0,0,0,1]","location_rts":"[1779,572,391,527,453,417,421,431]","trial_type":"fractal-mutation","trial_index":70,"time_elapsed":1381317,"internal_node_id":"0.0-5.0-31.0"},{"group":"dicyclic group of order 12","fractal_assignment":["../images/grn_blu.png","../images/wht_red.png","../images/org_blu.png","../images/grn_red.png","../images/red_prp.png","../images/gry_blk.png","../images/ylw_pnk.png","../images/pnk_blu.png","../images/ylw_slt.png","../images/blu_wht.png","../images/grn_prp.png","../images/cyn_red.png"],"mutagen_generator_assignment":[1,0],"goal":7,"start":0,"action_noise":0.15,"location_history":"[0,1,5,9,6,11,4,9,6,10,2,6,11,4,9,1,5,10,2,6,10,2,6,11,4,8,0,4,9,6,11,3,0,4,9,1,2,6,11,3,0,1,5,9,1,5,10,7]","action_history":"[0,1,1,0,0,0,0,0,1,1,1,1,0,0,1,1,1,0,1,1,0,1,1,1,0,1,1,0,0,0,1,0,0,1,1,0,1,1,1,1,0,1,1,1,1,1,0]","mutagen_history":"[1,0,0,1,1,1,1,1,0,0,0,0,1,1,0,0,0,1,0,0,1,0,0,0,1,0,0,1,1,1,0,1,1,0,0,1,0,0,0,0,1,0,0,0,0,0,1]","location_rts":"[2799,1263,546,796,514,282,437,848,745,397,449,464,549,507,676,588,587,758,1655,646,515,593,851,559,604,336,393,357,381,338,246,560,626,521,283,249,1073,557,452,208,166,261,231,139,384,1211,746]","trial_type":"fractal-mutation","trial_index":71,"time_elapsed":1467844,"internal_node_id":"0.0-5.0-32.0"},{"group":"dicyclic group of order 12","fractal_assignment":["../images/grn_blu.png","../images/wht_red.png","../images/org_blu.png","../images/grn_red.png","../images/red_prp.png","../images/gry_blk.png","../images/ylw_pnk.png","../images/pnk_blu.png","../images/ylw_slt.png","../images/blu_wht.png","../images/grn_prp.png","../images/cyn_red.png"],"mutagen_generator_assignment":[1,0],"goal":11,"start":7,"action_noise":0.15,"location_history":"[7,8,0,1,5,9,6,11]","action_history":"[0,1,0,1,1,0,0]","mutagen_history":"[1,0,1,0,0,1,1]","location_rts":"[2131,751,1821,470,689,910,471]","trial_type":"fractal-mutation","trial_index":72,"time_elapsed":1486932,"internal_node_id":"0.0-5.0-33.0"},{"group":"dicyclic group of order 12","fractal_assignment":["../images/grn_blu.png","../images/wht_red.png","../images/org_blu.png","../images/grn_red.png","../images/red_prp.png","../images/gry_blk.png","../images/ylw_pnk.png","../images/pnk_blu.png","../images/ylw_slt.png","../images/blu_wht.png","../images/grn_prp.png","../images/cyn_red.png"],"mutagen_generator_assignment":[1,0],"goal":2,"start":11,"action_noise":0.15,"location_history":"[11,4,9,1,2]","action_history":"[0,0,0,0]","mutagen_history":"[1,1,1,1]","location_rts":"[1119,550,499,591]","trial_type":"fractal-mutation","trial_index":73,"time_elapsed":1498133,"internal_node_id":"0.0-5.0-34.0"},{"view_history":"[{\"page_index\":0,\"viewing_time\":2362}]","rt":2362,"trial_type":"instructions","trial_index":74,"time_elapsed":1501496,"internal_node_id":"0.0-6.0"},{"rt":74891,"responses":"{\"Q0\":\"You were testing how our memory developed over time and to see if we got any better than the first time we did it.\"}","trial_type":"survey-text","trial_index":75,"time_elapsed":1577392,"internal_node_id":"0.0-7.0-0.0"},{"rt":30144,"responses":"{\"Q0\":\"You were trying to see if we'd be able to memorize the patterns of the course of 3 days. This one was tougher for me!\"}","trial_type":"survey-text","trial_index":76,"time_elapsed":1608539,"internal_node_id":"0.0-7.0-1.0"},{"rt":4393,"responses":"{\"Q0\":\"3\"}","trial_type":"survey-likert","trial_index":77,"time_elapsed":1613935,"internal_node_id":"0.0-7.0-2.0"},{"rt":21865,"responses":"{\"Q0\":\"They both have a pattern to them\"}","trial_type":"survey-text","trial_index":78,"time_elapsed":1636801,"internal_node_id":"0.0-7.0-3.0"},{"rt":26480,"responses":"{\"Q0\":\"Yes\"}","trial_type":"survey-multi-choice","trial_index":79,"time_elapsed":1664287,"internal_node_id":"0.0-7.0-4.0"},{"rt":23061,"responses":"{\"Q0\":\"Between sessions 1 and 2\"}","trial_type":"survey-multi-choice","trial_index":80,"time_elapsed":1688355,"internal_node_id":"0.0-7.0-5.0"},{"rt":34403,"responses":"{\"Q0\":\"Just a similarity that they both have a pattern to them. Maybe you were training our brains to notice patterns quicker\"}","trial_type":"survey-text","trial_index":81,"time_elapsed":1723761,"internal_node_id":"0.0-7.0-6.0"},{"rt":5579,"responses":"{\"Q0\":\"2\"}","trial_type":"survey-likert","trial_index":82,"time_elapsed":1730343,"internal_node_id":"0.0-7.0-7.0"},{"rt":12446,"responses":"{\"Q0\":\"Same structure\"}","trial_type":"survey-multi-choice","trial_index":83,"time_elapsed":1743793,"internal_node_id":"0.0-7.0-8.0"},{"rt":20182,"responses":"{\"Q0\":\"white door = acid, black door = ray\",\"Q1\":\"Slightly confident\"}","trial_type":"survey-multi-choice","trial_index":84,"time_elapsed":1764978,"internal_node_id":"0.0-7.0-9.0"},{"rt":7774,"responses":"{\"Q0\":\"25-35\",\"Q1\":\"High school degree or GED\",\"Q2\":\"Male\",\"Q3\":\"White\"}","trial_type":"survey-multi-choice","trial_index":85,"time_elapsed":1773773,"internal_node_id":"0.0-8.0"},{"rt":9757,"responses":"{\"Q0\":\"I liked it, thank you. It was fun!\"}","trial_type":"survey-text","trial_index":86,"time_elapsed":1784532,"internal_node_id":"0.0-9.0"}]