[{"view_history":"[{\"page_index\":0,\"viewing_time\":2144805},{\"page_index\":1,\"viewing_time\":6292}]","rt":2151099,"trial_type":"instructions","trial_index":0,"time_elapsed":2151102,"internal_node_id":"0.0-0.0"},{"view_history":"[{\"page_index\":0,\"viewing_time\":1328},{\"page_index\":1,\"viewing_time\":2672}]","rt":4003,"trial_type":"instructions","trial_index":1,"time_elapsed":2156109,"internal_node_id":"0.0-1.0"},{"group":"dicyclic group of order 12","room_assignment":["red","pink","blue","purple","grey","green","orange","cyan","olive","ivory","brown","yellow"],"door_color_assignment":["white","black"],"door_generator_assignment":[1,0],"goal":7,"start":3,"action_noise":0.15,"location_history":"[3,0,4,8,0,4,9,1,2,6,10,7]","action_history":"[1,1,1,1,1,0,1,1,1,1,1]","door_history":"[0,0,0,0,0,1,0,0,0,0,0]","location_rts":"[1843,343,344,294,541,363,100,1262,1105,403,344]","trial_type":"two-door-navigation","trial_index":2,"time_elapsed":2177983,"internal_node_id":"0.0-2.0-0.0"},{"group":"dicyclic group of order 12","room_assignment":["red","pink","blue","purple","grey","green","orange","cyan","olive","ivory","brown","yellow"],"door_color_assignment":["white","black"],"door_generator_assignment":[1,0],"goal":5,"start":7,"action_noise":0.15,"location_history":"[7,8,0,4,8,5]","action_history":"[0,1,1,1,0]","door_history":"[1,0,0,0,1]","location_rts":"[1415,845,148,102,615]","trial_type":"two-door-navigation","trial_index":3,"time_elapsed":2189794,"internal_node_id":"0.0-2.0-1.0"},{"group":"dicyclic group of order 12","room_assignment":["red","pink","blue","purple","grey","green","orange","cyan","olive","ivory","brown","yellow"],"door_color_assignment":["white","black"],"door_generator_assignment":[1,0],"goal":0,"start":5,"action_noise":0.15,"location_history":"[5,9,6,10,2,6,10,2,3,0]","action_history":"[1,1,1,1,1,1,1,0,0]","door_history":"[0,0,0,0,0,0,0,1,1]","location_rts":"[2414,199,291,342,387,371,1137,514,395]","trial_type":"two-door-navigation","trial_index":4,"time_elapsed":2208617,"internal_node_id":"0.0-2.0-2.0"},{"group":"dicyclic group of order 12","room_assignment":["red","pink","blue","purple","grey","green","orange","cyan","olive","ivory","brown","yellow"],"door_color_assignment":["white","black"],"door_generator_assignment":[1,0],"goal":2,"start":0,"action_noise":0.15,"location_history":"[0,1,5,10,2]","action_history":"[0,1,1,1]","door_history":"[1,0,0,0]","location_rts":"[2209,861,327,363]","trial_type":"two-door-navigation","trial_index":5,"time_elapsed":2219926,"internal_node_id":"0.0-2.0-3.0"},{"group":"dicyclic group of order 12","room_assignment":["red","pink","blue","purple","grey","green","orange","cyan","olive","ivory","brown","yellow"],"door_color_assignment":["white","black"],"door_generator_assignment":[1,0],"goal":10,"start":2,"action_noise":0.15,"location_history":"[2,6,11,3,7,8,5,9,1,5,10]","action_history":"[1,1,1,1,1,1,1,1,1,0]","door_history":"[0,0,0,0,0,0,0,0,0,1]","location_rts":"[627,121,257,212,327,382,968,747,390,339]","trial_type":"two-door-navigation","trial_index":6,"time_elapsed":2238194,"internal_node_id":"0.0-2.0-4.0"},{"group":"dicyclic group of order 12","room_assignment":["red","pink","blue","purple","grey","green","orange","cyan","olive","ivory","brown","yellow"],"door_color_assignment":["white","black"],"door_generator_assignment":[1,0],"goal":8,"start":10,"action_noise":0.15,"location_history":"[10,2,6,10,2,6,11,3,7,11,3,0,1,5,9,6,11,3,0,1,2,3,7,11,4,9,6,10,7,8]","action_history":"[1,1,1,1,1,0,1,1,1,1,1,0,1,1,0,0,1,0,0,0,0,1,1,0,0,0,0,1,0]","door_history":"[0,0,0,0,0,1,0,0,0,0,0,1,0,0,1,1,0,1,1,1,1,0,0,1,1,1,1,0,1]","location_rts":"[1327,308,133,390,315,206,161,191,382,246,299,396,32,129,1170,324,588,2550,305,651,1597,428,238,177,633,404,229,692,415]","trial_type":"two-door-navigation","trial_index":7,"time_elapsed":2286772,"internal_node_id":"0.0-2.0-5.0"},{"group":"dicyclic group of order 12","room_assignment":["red","pink","blue","purple","grey","green","orange","cyan","olive","ivory","brown","yellow"],"door_color_assignment":["white","black"],"door_generator_assignment":[1,0],"goal":11,"start":8,"action_noise":0.15,"location_history":"[8,0,4,8,0,1,5,9,1,5,9,6,10,2,6,10,2,6,11]","action_history":"[1,1,1,1,0,1,1,1,1,1,0,1,1,1,1,1,1,0]","door_history":"[0,0,0,0,1,0,0,0,0,0,1,0,0,0,0,0,0,1]","location_rts":"[1053,243,246,143,382,417,335,282,306,343,68,450,302,325,372,357,331,383]","trial_type":"two-door-navigation","trial_index":8,"time_elapsed":2314932,"internal_node_id":"0.0-2.0-6.0"},{"group":"dicyclic group of order 12","room_assignment":["red","pink","blue","purple","grey","green","orange","cyan","olive","ivory","brown","yellow"],"door_color_assignment":["white","black"],"door_generator_assignment":[1,0],"goal":6,"start":11,"action_noise":0.15,"location_history":"[11,3,7,11,3,0,1,5,9,1,5,9,6]","action_history":"[1,1,1,1,0,1,1,0,1,1,1,1]","door_history":"[0,0,0,0,1,0,0,1,0,0,0,0]","location_rts":"[738,160,837,300,344,7888,300,361,108,587,322,323]","trial_type":"two-door-navigation","trial_index":9,"time_elapsed":2343115,"internal_node_id":"0.0-2.0-7.0"},{"group":"dicyclic group of order 12","room_assignment":["red","pink","blue","purple","grey","green","orange","cyan","olive","ivory","brown","yellow"],"door_color_assignment":["white","black"],"door_generator_assignment":[1,0],"goal":4,"start":6,"action_noise":0.15,"location_history":"[6,10,2,3,0,1,2,6,11,3,0,1,5,9,1,5,10,2,3,7,11,3,7,8,0,4]","action_history":"[1,0,0,0,0,0,1,1,1,1,0,1,1,1,1,0,1,1,1,1,1,1,0,1,1]","door_history":"[0,1,1,1,1,1,0,0,0,0,1,0,0,0,0,1,0,0,0,0,0,0,1,0,0]","location_rts":"[497,272,334,790,331,359,210,222,158,354,568,537,216,392,328,330,146,195,276,982,350,1029,316,714,353]","trial_type":"two-door-navigation","trial_index":10,"time_elapsed":2382635,"internal_node_id":"0.0-2.0-8.0"},{"group":"dicyclic group of order 12","room_assignment":["red","pink","blue","purple","grey","green","orange","cyan","olive","ivory","brown","yellow"],"door_color_assignment":["white","black"],"door_generator_assignment":[1,0],"goal":1,"start":4,"action_noise":0.15,"location_history":"[4,8,5,9,6,10,2,6,10,7,11,3,7,11,4,8,0,4,9,6,10,2,6,11,3,7,11,3,7,8,0,1]","action_history":"[1,1,1,0,1,1,1,1,0,1,1,1,1,0,1,1,1,1,0,1,1,1,1,0,1,1,1,1,0,1,0]","door_history":"[0,0,0,1,0,0,0,0,1,0,0,0,0,1,0,0,0,0,1,0,0,0,0,1,0,0,0,0,1,0,1]","location_rts":"[1727,424,81,446,353,106,10,61,349,78,36,47,1680,36,302,254,43,276,111,276,5,132,312,12,145,381,367,54,482,203,261]","trial_type":"two-door-navigation","trial_index":11,"time_elapsed":2427026,"internal_node_id":"0.0-2.0-9.0"},{"group":"dicyclic group of order 12","room_assignment":["red","pink","blue","purple","grey","green","orange","cyan","olive","ivory","brown","yellow"],"door_color_assignment":["white","black"],"door_generator_assignment":[1,0],"goal":9,"start":1,"action_noise":0.15,"location_history":"[1,5,9]","action_history":"[1,1]","door_history":"[0,0]","location_rts":"[950,283]","trial_type":"two-door-navigation","trial_index":12,"time_elapsed":2433967,"internal_node_id":"0.0-2.0-10.0"},{"group":"dicyclic group of order 12","room_assignment":["red","pink","blue","purple","grey","green","orange","cyan","olive","ivory","brown","yellow"],"door_color_assignment":["white","black"],"door_generator_assignment":[1,0],"goal":10,"start":9,"action_noise":0.15,"location_history":"[9,1,5,9,6,10]","action_history":"[1,1,1,0,1]","door_history":"[0,0,0,1,0]","location_rts":"[639,67,165,284,435]","trial_type":"two-door-navigation","trial_index":13,"time_elapsed":2444290,"internal_node_id":"0.0-2.0-11.0"},{"group":"dicyclic group of order 12","room_assignment":["red","pink","blue","purple","grey","green","orange","cyan","olive","ivory","brown","yellow"],"door_color_assignment":["white","black"],"door_generator_assignment":[1,0],"goal":2,"start":10,"action_noise":0.15,"location_history":"[10,2]","action_history":"[1]","door_history":"[0]","location_rts":"[830]","trial_type":"two-door-navigation","trial_index":14,"time_elapsed":2449639,"internal_node_id":"0.0-2.0-12.0"},{"group":"dicyclic group of order 12","room_assignment":["red","pink","blue","purple","grey","green","orange","cyan","olive","ivory","brown","yellow"],"door_color_assignment":["white","black"],"door_generator_assignment":[1,0],"goal":0,"start":2,"action_noise":0.15,"location_history":"[2,6,11,3,7,11,4,8,5,10,7,8,5,9,6,10,2,6,11,3,7,8,0]","action_history":"[1,1,0,1,1,1,1,0,0,0,0,0,1,0,1,1,1,0,1,1,0,1]","door_history":"[0,0,1,0,0,0,0,1,1,1,1,1,0,1,0,0,0,1,0,0,1,0]","location_rts":"[1258,57,513,58,327,142,112,789,437,630,305,325,176,254,304,349,762,641,279,190,44,216]","trial_type":"two-door-navigation","trial_index":15,"time_elapsed":2484193,"internal_node_id":"0.0-2.0-13.0"},{"group":"dicyclic group of order 12","room_assignment":["red","pink","blue","purple","grey","green","orange","cyan","olive","ivory","brown","yellow"],"door_color_assignment":["white","black"],"door_generator_assignment":[1,0],"goal":9,"start":0,"action_noise":0.15,"location_history":"[0,4,8,0,4,9]","action_history":"[1,1,1,1,0]","door_history":"[0,0,0,0,1]","location_rts":"[1032,282,166,399,5]","trial_type":"two-door-navigation","trial_index":16,"time_elapsed":2494611,"internal_node_id":"0.0-2.0-14.0"},{"group":"dicyclic group of order 12","room_assignment":["red","pink","blue","purple","grey","green","orange","cyan","olive","ivory","brown","yellow"],"door_color_assignment":["white","black"],"door_generator_assignment":[1,0],"goal":8,"start":9,"action_noise":0.15,"location_history":"[9,1,5,9,6,10,7,8]","action_history":"[1,1,1,1,1,1,1]","door_history":"[0,0,0,0,0,0,0]","location_rts":"[798,181,91,297,435,325,366]","trial_type":"two-door-navigation","trial_index":17,"time_elapsed":2507768,"internal_node_id":"0.0-2.0-15.0"},{"group":"dicyclic group of order 12","room_assignment":["red","pink","blue","purple","grey","green","orange","cyan","olive","ivory","brown","yellow"],"door_color_assignment":["white","black"],"door_generator_assignment":[1,0],"goal":6,"start":8,"action_noise":0.15,"location_history":"[8,0,4,8,0,4,8,0,1,5,9,1,5,9,1,5,9,1,5,9,1,5,9,1,5,9,6]","action_history":"[1,1,1,1,0,1,1,1,1,1,1,0,1,1,1,1,1,0,1,1,1,0,1,1,1,0]","door_history":"[0,0,0,0,1,0,0,0,0,0,0,1,0,0,0,0,0,1,0,0,0,1,0,0,0,1]","location_rts":"[681,29,34,176,207,136,65,119,208,78,27,315,207,16,358,69,183,47,143,84,55,604,95,92,84,64]","trial_type":"two-door-navigation","trial_index":18,"time_elapsed":2542483,"internal_node_id":"0.0-2.0-16.0"},{"group":"dicyclic group of order 12","room_assignment":["red","pink","blue","purple","grey","green","orange","cyan","olive","ivory","brown","yellow"],"door_color_assignment":["white","black"],"door_generator_assignment":[1,0],"goal":1,"start":6,"action_noise":0.15,"location_history":"[6,11,3,7,11,3,7,8,0,4,9,6,11,3,7,11,3,0,4,8,0,4,8,5,10,2,6,11,3,7,11,3,7,11,4,8,0,4,9,1]","action_history":"[1,1,1,1,1,1,0,1,1,1,1,0,1,1,1,1,0,1,1,1,0,1,1,0,1,1,1,1,1,0,1,1,1,0,1,1,1,0,1]","door_history":"[0,0,0,0,0,0,1,0,0,0,0,1,0,0,0,0,1,0,0,0,1,0,0,1,0,0,0,0,0,1,0,0,0,1,0,0,0,1,0]","location_rts":"[294,211,79,181,119,78,33,329,123,49,86,564,103,189,37,317,402,55,107,39,63,54,162,22,10,12,69,44,303,35,282,172,204,62,56,43,249,117,200]","trial_type":"two-door-navigation","trial_index":19,"time_elapsed":2591643,"internal_node_id":"0.0-2.0-17.0"},{"group":"dicyclic group of order 12","room_assignment":["red","pink","blue","purple","grey","green","orange","cyan","olive","ivory","brown","yellow"],"door_color_assignment":["white","black"],"door_generator_assignment":[1,0],"goal":4,"start":1,"action_noise":0.15,"location_history":"[1,5,9,1,5,10,2,3,7,11,4]","action_history":"[1,1,1,1,0,1,1,1,1,0]","door_history":"[0,0,0,0,1,0,0,0,0,1]","location_rts":"[604,291,244,344,77,174,406,464,376,379]","trial_type":"two-door-navigation","trial_index":20,"time_elapsed":2608683,"internal_node_id":"0.0-2.0-18.0"},{"group":"dicyclic group of order 12","room_assignment":["red","pink","blue","purple","grey","green","orange","cyan","olive","ivory","brown","yellow"],"door_color_assignment":["white","black"],"door_generator_assignment":[1,0],"goal":11,"start":4,"action_noise":0.15,"location_history":"[4,8,0,4,8,5,9,1,5,9,1,5,9,1,5,10,7,11]","action_history":"[1,1,1,1,0,1,1,1,1,1,1,1,0,1,1,0,1]","door_history":"[0,0,0,0,1,0,0,0,0,0,0,0,1,0,0,1,0]","location_rts":"[582,114,23,82,500,24,206,378,217,310,349,510,25,40,50,52,95]","trial_type":"two-door-navigation","trial_index":21,"time_elapsed":2633398,"internal_node_id":"0.0-2.0-19.0"},{"group":"dicyclic group of order 12","room_assignment":["red","pink","blue","purple","grey","green","orange","cyan","olive","ivory","brown","yellow"],"door_color_assignment":["white","black"],"door_generator_assignment":[1,0],"goal":3,"start":11,"action_noise":0.15,"location_history":"[11,3]","action_history":"[1]","door_history":"[0]","location_rts":"[299]","trial_type":"two-door-navigation","trial_index":22,"time_elapsed":2638221,"internal_node_id":"0.0-2.0-20.0"},{"group":"dicyclic group of order 12","room_assignment":["red","pink","blue","purple","grey","green","orange","cyan","olive","ivory","brown","yellow"],"door_color_assignment":["white","black"],"door_generator_assignment":[1,0],"goal":5,"start":3,"action_noise":0.15,"location_history":"[3,0,4,8,0,4,9,1,5]","action_history":"[1,1,1,1,1,0,1,1]","door_history":"[0,0,0,0,0,1,0,0]","location_rts":"[283,166,367,163,219,56,116,25]","trial_type":"two-door-navigation","trial_index":23,"time_elapsed":2651311,"internal_node_id":"0.0-2.0-21.0"},{"group":"dicyclic group of order 12","room_assignment":["red","pink","blue","purple","grey","green","orange","cyan","olive","ivory","brown","yellow"],"door_color_assignment":["white","black"],"door_generator_assignment":[1,0],"goal":7,"start":5,"action_noise":0.15,"location_history":"[5,9,1,5,9,1,2,6,10,2,6,10,7]","action_history":"[1,1,1,0,1,1,1,1,0,1,1,1]","door_history":"[0,0,0,1,0,0,0,0,1,0,0,0]","location_rts":"[376,48,83,438,21,61,71,361,293,93,115,75]","trial_type":"two-door-navigation","trial_index":24,"time_elapsed":2669319,"internal_node_id":"0.0-2.0-22.0"},{"group":"dicyclic group of order 12","room_assignment":["red","pink","blue","purple","grey","green","orange","cyan","olive","ivory","brown","yellow"],"door_color_assignment":["white","black"],"door_generator_assignment":[1,0],"goal":3,"start":7,"action_noise":0.15,"location_history":"[7,8,0,4,8,5,9,1,5,10,7,11,3]","action_history":"[1,1,1,1,0,1,1,1,1,0,1,1]","door_history":"[0,0,0,0,1,0,0,0,0,1,0,0]","location_rts":"[848,135,414,169,185,73,5,149,57,104,169,315]","trial_type":"two-door-navigation","trial_index":25,"time_elapsed":2688231,"internal_node_id":"0.0-2.0-23.0"},{"group":"dicyclic group of order 12","room_assignment":["red","pink","blue","purple","grey","green","orange","cyan","olive","ivory","brown","yellow"],"door_color_assignment":["white","black"],"door_generator_assignment":[1,0],"goal":4,"start":3,"action_noise":0.15,"location_history":"[3,7,11,3,7,11,4]","action_history":"[1,1,0,1,1,1]","door_history":"[0,0,1,0,0,0]","location_rts":"[727,159,48,66,14838,216]","trial_type":"two-door-navigation","trial_index":26,"time_elapsed":2713943,"internal_node_id":"0.0-2.0-24.0"},{"group":"dicyclic group of order 12","room_assignment":["red","pink","blue","purple","grey","green","orange","cyan","olive","ivory","brown","yellow"],"door_color_assignment":["white","black"],"door_generator_assignment":[1,0],"goal":8,"start":4,"action_noise":0.15,"location_history":"[4,8]","action_history":"[1]","door_history":"[0]","location_rts":"[793]","trial_type":"two-door-navigation","trial_index":27,"time_elapsed":2719245,"internal_node_id":"0.0-2.0-25.0"},{"group":"dicyclic group of order 12","room_assignment":["red","pink","blue","purple","grey","green","orange","cyan","olive","ivory","brown","yellow"],"door_color_assignment":["white","black"],"door_generator_assignment":[1,0],"goal":6,"start":8,"action_noise":0.15,"location_history":"[8,0,1,5,10,2,6]","action_history":"[1,0,1,1,1,1]","door_history":"[0,1,0,0,0,0]","location_rts":"[499,146,318,59,276,245]","trial_type":"two-door-navigation","trial_index":28,"time_elapsed":2730432,"internal_node_id":"0.0-2.0-26.0"},{"group":"dicyclic group of order 12","room_assignment":["red","pink","blue","purple","grey","green","orange","cyan","olive","ivory","brown","yellow"],"door_color_assignment":["white","black"],"door_generator_assignment":[1,0],"goal":1,"start":6,"action_noise":0.15,"location_history":"[6,10,7,11,4,8,5,9,1]","action_history":"[1,0,1,0,1,0,1,1]","door_history":"[0,1,0,1,0,1,0,0]","location_rts":"[305,30,402,74,114,259,31,176]","trial_type":"two-door-navigation","trial_index":29,"time_elapsed":2743532,"internal_node_id":"0.0-2.0-27.0"},{"group":"dicyclic group of order 12","room_assignment":["red","pink","blue","purple","grey","green","orange","cyan","olive","ivory","brown","yellow"],"door_color_assignment":["white","black"],"door_generator_assignment":[1,0],"goal":5,"start":1,"action_noise":0.15,"location_history":"[1,5]","action_history":"[1]","door_history":"[0]","location_rts":"[802]","trial_type":"two-door-navigation","trial_index":30,"time_elapsed":2748847,"internal_node_id":"0.0-2.0-28.0"},{"group":"dicyclic group of order 12","room_assignment":["red","pink","blue","purple","grey","green","orange","cyan","olive","ivory","brown","yellow"],"door_color_assignment":["white","black"],"door_generator_assignment":[1,0],"goal":9,"start":5,"action_noise":0.15,"location_history":"[5,9]","action_history":"[1]","door_history":"[0]","location_rts":"[512]","trial_type":"two-door-navigation","trial_index":31,"time_elapsed":2753877,"internal_node_id":"0.0-2.0-29.0"},{"group":"dicyclic group of order 12","room_assignment":["red","pink","blue","purple","grey","green","orange","cyan","olive","ivory","brown","yellow"],"door_color_assignment":["white","black"],"door_generator_assignment":[1,0],"goal":10,"start":9,"action_noise":0.15,"location_history":"[9,1,5,9,6,11,4,8,0,1,5,9,1,5,9,6,10]","action_history":"[1,1,1,0,1,0,1,1,1,1,1,0,1,1,0,1]","door_history":"[0,0,0,1,0,1,0,0,0,0,0,1,0,0,1,0]","location_rts":"[290,9,76,5,113,234,82,131,111,401,432,432,59,195,360,575]","trial_type":"two-door-navigation","trial_index":32,"time_elapsed":2777250,"internal_node_id":"0.0-2.0-30.0"},{"group":"dicyclic group of order 12","room_assignment":["red","pink","blue","purple","grey","green","orange","cyan","olive","ivory","brown","yellow"],"door_color_assignment":["white","black"],"door_generator_assignment":[1,0],"goal":0,"start":10,"action_noise":0.15,"location_history":"[10,2,6,10,7,8,0]","action_history":"[1,1,1,0,1,1]","door_history":"[0,0,0,1,0,0]","location_rts":"[447,384,77,553,80,75]","trial_type":"two-door-navigation","trial_index":33,"time_elapsed":2788485,"internal_node_id":"0.0-2.0-31.0"},{"group":"dicyclic group of order 12","room_assignment":["red","pink","blue","purple","grey","green","orange","cyan","olive","ivory","brown","yellow"],"door_color_assignment":["white","black"],"door_generator_assignment":[1,0],"goal":7,"start":0,"action_noise":0.15,"location_history":"[0,4,8,0,4,8,0,4,8,0,4,9,6,11,4,9,1,5,10,2,6,10,7]","action_history":"[1,1,1,0,1,1,0,1,1,1,0,0,1,1,1,1,1,0,1,1,1,0]","door_history":"[0,0,0,1,0,0,1,0,0,0,1,1,0,0,0,0,0,1,0,0,0,1]","location_rts":"[700,164,80,138,72,427,131,220,412,223,41,600,107,204,391,172,473,774,374,150,122,315]","trial_type":"two-door-navigation","trial_index":34,"time_elapsed":2821242,"internal_node_id":"0.0-2.0-32.0"},{"group":"dicyclic group of order 12","room_assignment":["red","pink","blue","purple","grey","green","orange","cyan","olive","ivory","brown","yellow"],"door_color_assignment":["white","black"],"door_generator_assignment":[1,0],"goal":11,"start":7,"action_noise":0.15,"location_history":"[7,11]","action_history":"[1]","door_history":"[0]","location_rts":"[575]","trial_type":"two-door-navigation","trial_index":35,"time_elapsed":2826389,"internal_node_id":"0.0-2.0-33.0"},{"group":"dicyclic group of order 12","room_assignment":["red","pink","blue","purple","grey","green","orange","cyan","olive","ivory","brown","yellow"],"door_color_assignment":["white","black"],"door_generator_assignment":[1,0],"goal":2,"start":11,"action_noise":0.15,"location_history":"[11,4,8,0,4,8,0,4,8,0,4,9,1,5,10,2]","action_history":"[1,1,1,1,1,0,1,1,1,1,0,1,1,1,1]","door_history":"[0,0,0,0,0,1,0,0,0,0,1,0,0,0,0]","location_rts":"[532,166,204,378,199,100,149,135,285,310,278,347,406,608,586]","trial_type":"two-door-navigation","trial_index":36,"time_elapsed":2850027,"internal_node_id":"0.0-2.0-34.0"},{"view_history":"[{\"page_index\":0,\"viewing_time\":642535}]","rt":642537,"trial_type":"instructions","trial_index":37,"time_elapsed":3493564,"internal_node_id":"0.0-3.0"},{"view_history":"[{\"page_index\":0,\"viewing_time\":2822},{\"page_index\":1,\"viewing_time\":2648}]","rt":5471,"trial_type":"instructions","trial_index":38,"time_elapsed":3500035,"internal_node_id":"0.0-4.0"},{"group":"dicyclic group of order 12","fractal_assignment":["../images/cyn_red.png","../images/pnk_blu.png","../images/blu_wht.png","../images/grn_prp.png","../images/ylw_pnk.png","../images/grn_blu.png","../images/ylw_slt.png","../images/grn_red.png","../images/org_blu.png","../images/gry_blk.png","../images/wht_red.png","../images/red_prp.png"],"mutagen_generator_assignment":[0,1],"goal":7,"start":3,"action_noise":0.15,"location_history":"[3,0,1,2,3,7]","action_history":"[0,0,0,0,0]","mutagen_history":"[0,0,0,0,0]","location_rts":"[3223,2436,1540,3759,574]","trial_type":"fractal-mutation","trial_index":39,"time_elapsed":3520506,"internal_node_id":"0.0-5.0-0.0"},{"group":"dicyclic group of order 12","fractal_assignment":["../images/cyn_red.png","../images/pnk_blu.png","../images/blu_wht.png","../images/grn_prp.png","../images/ylw_pnk.png","../images/grn_blu.png","../images/ylw_slt.png","../images/grn_red.png","../images/org_blu.png","../images/gry_blk.png","../images/wht_red.png","../images/red_prp.png"],"mutagen_generator_assignment":[0,1],"goal":5,"start":7,"action_noise":0.15,"location_history":"[7,8,0,1,2,3,7,8,5]","action_history":"[0,1,0,0,0,0,0,0]","mutagen_history":"[0,1,0,0,0,0,0,0]","location_rts":"[1449,676,1057,499,266,412,481,357]","trial_type":"fractal-mutation","trial_index":40,"time_elapsed":3540402,"internal_node_id":"0.0-5.0-1.0"},{"group":"dicyclic group of order 12","fractal_assignment":["../images/cyn_red.png","../images/pnk_blu.png","../images/blu_wht.png","../images/grn_prp.png","../images/ylw_pnk.png","../images/grn_blu.png","../images/ylw_slt.png","../images/grn_red.png","../images/org_blu.png","../images/gry_blk.png","../images/wht_red.png","../images/red_prp.png"],"mutagen_generator_assignment":[0,1],"goal":0,"start":5,"action_noise":0.15,"location_history":"[5,10,7,8,5,10,7,8,5,9,6,11,4,9,1,2,3,0]","action_history":"[0,0,0,0,0,0,1,0,0,0,0,0,0,1,0,0,0]","mutagen_history":"[0,0,0,0,0,0,1,0,0,0,0,0,0,1,0,0,0]","location_rts":"[893,403,356,371,426,541,595,721,409,740,417,679,487,886,451,274,461]","trial_type":"fractal-mutation","trial_index":41,"time_elapsed":3575946,"internal_node_id":"0.0-5.0-2.0"},{"group":"dicyclic group of order 12","fractal_assignment":["../images/cyn_red.png","../images/pnk_blu.png","../images/blu_wht.png","../images/grn_prp.png","../images/ylw_pnk.png","../images/grn_blu.png","../images/ylw_slt.png","../images/grn_red.png","../images/org_blu.png","../images/gry_blk.png","../images/wht_red.png","../images/red_prp.png"],"mutagen_generator_assignment":[0,1],"goal":2,"start":0,"action_noise":0.15,"location_history":"[0,1,2]","action_history":"[0,0]","mutagen_history":"[0,0]","location_rts":"[964,191]","trial_type":"fractal-mutation","trial_index":42,"time_elapsed":3582782,"internal_node_id":"0.0-5.0-3.0"},{"group":"dicyclic group of order 12","fractal_assignment":["../images/cyn_red.png","../images/pnk_blu.png","../images/blu_wht.png","../images/grn_prp.png","../images/ylw_pnk.png","../images/grn_blu.png","../images/ylw_slt.png","../images/grn_red.png","../images/org_blu.png","../images/gry_blk.png","../images/wht_red.png","../images/red_prp.png"],"mutagen_generator_assignment":[0,1],"goal":10,"start":2,"action_noise":0.15,"location_history":"[2,6,10]","action_history":"[1,0]","mutagen_history":"[1,0]","location_rts":"[1569,576]","trial_type":"fractal-mutation","trial_index":43,"time_elapsed":3591539,"internal_node_id":"0.0-5.0-4.0"},{"group":"dicyclic group of order 12","fractal_assignment":["../images/cyn_red.png","../images/pnk_blu.png","../images/blu_wht.png","../images/grn_prp.png","../images/ylw_pnk.png","../images/grn_blu.png","../images/ylw_slt.png","../images/grn_red.png","../images/org_blu.png","../images/gry_blk.png","../images/wht_red.png","../images/red_prp.png"],"mutagen_generator_assignment":[0,1],"goal":8,"start":10,"action_noise":0.15,"location_history":"[10,7,11,4,9,6,10,7,11,3,7,8]","action_history":"[0,0,0,0,0,0,0,1,1,0,0]","mutagen_history":"[0,0,0,0,0,0,0,1,1,0,0]","location_rts":"[1306,374,524,458,414,471,601,1929,5082,504,434]","trial_type":"fractal-mutation","trial_index":44,"time_elapsed":3621055,"internal_node_id":"0.0-5.0-5.0"},{"group":"dicyclic group of order 12","fractal_assignment":["../images/cyn_red.png","../images/pnk_blu.png","../images/blu_wht.png","../images/grn_prp.png","../images/ylw_pnk.png","../images/grn_blu.png","../images/ylw_slt.png","../images/grn_red.png","../images/org_blu.png","../images/gry_blk.png","../images/wht_red.png","../images/red_prp.png"],"mutagen_generator_assignment":[0,1],"goal":11,"start":8,"action_noise":0.15,"location_history":"[8,5,10,7,8,5,9,6,11]","action_history":"[0,0,0,0,0,1,0,0]","mutagen_history":"[0,0,0,0,0,1,0,0]","location_rts":"[1016,402,412,401,523,453,472,310]","trial_type":"fractal-mutation","trial_index":45,"time_elapsed":3638276,"internal_node_id":"0.0-5.0-6.0"},{"group":"dicyclic group of order 12","fractal_assignment":["../images/cyn_red.png","../images/pnk_blu.png","../images/blu_wht.png","../images/grn_prp.png","../images/ylw_pnk.png","../images/grn_blu.png","../images/ylw_slt.png","../images/grn_red.png","../images/org_blu.png","../images/gry_blk.png","../images/wht_red.png","../images/red_prp.png"],"mutagen_generator_assignment":[0,1],"goal":6,"start":11,"action_noise":0.15,"location_history":"[11,4,9,6]","action_history":"[0,0,0]","mutagen_history":"[0,0,0]","location_rts":"[924,360,416]","trial_type":"fractal-mutation","trial_index":46,"time_elapsed":3646841,"internal_node_id":"0.0-5.0-7.0"},{"group":"dicyclic group of order 12","fractal_assignment":["../images/cyn_red.png","../images/pnk_blu.png","../images/blu_wht.png","../images/grn_prp.png","../images/ylw_pnk.png","../images/grn_blu.png","../images/ylw_slt.png","../images/grn_red.png","../images/org_blu.png","../images/gry_blk.png","../images/wht_red.png","../images/red_prp.png"],"mutagen_generator_assignment":[0,1],"goal":4,"start":6,"action_noise":0.15,"location_history":"[6,11,4]","action_history":"[0,0]","mutagen_history":"[0,0]","location_rts":"[962,662]","trial_type":"fractal-mutation","trial_index":47,"time_elapsed":3654057,"internal_node_id":"0.0-5.0-8.0"},{"group":"dicyclic group of order 12","fractal_assignment":["../images/cyn_red.png","../images/pnk_blu.png","../images/blu_wht.png","../images/grn_prp.png","../images/ylw_pnk.png","../images/grn_blu.png","../images/ylw_slt.png","../images/grn_red.png","../images/org_blu.png","../images/gry_blk.png","../images/wht_red.png","../images/red_prp.png"],"mutagen_generator_assignment":[0,1],"goal":1,"start":4,"action_noise":0.15,"location_history":"[4,8,0,1]","action_history":"[1,1,0]","mutagen_history":"[1,1,0]","location_rts":"[1356,574,660]","trial_type":"fractal-mutation","trial_index":48,"time_elapsed":3664860,"internal_node_id":"0.0-5.0-9.0"},{"group":"dicyclic group of order 12","fractal_assignment":["../images/cyn_red.png","../images/pnk_blu.png","../images/blu_wht.png","../images/grn_prp.png","../images/ylw_pnk.png","../images/grn_blu.png","../images/ylw_slt.png","../images/grn_red.png","../images/org_blu.png","../images/gry_blk.png","../images/wht_red.png","../images/red_prp.png"],"mutagen_generator_assignment":[0,1],"goal":9,"start":1,"action_noise":0.15,"location_history":"[1,2,3,0,4,9]","action_history":"[0,0,0,1,0]","mutagen_history":"[0,0,0,1,0]","location_rts":"[1807,262,426,630,642]","trial_type":"fractal-mutation","trial_index":49,"time_elapsed":3678182,"internal_node_id":"0.0-5.0-10.0"},{"group":"dicyclic group of order 12","fractal_assignment":["../images/cyn_red.png","../images/pnk_blu.png","../images/blu_wht.png","../images/grn_prp.png","../images/ylw_pnk.png","../images/grn_blu.png","../images/ylw_slt.png","../images/grn_red.png","../images/org_blu.png","../images/gry_blk.png","../images/wht_red.png","../images/red_prp.png"],"mutagen_generator_assignment":[0,1],"goal":10,"start":9,"action_noise":0.15,"location_history":"[9,6,11,3,0,4,8,5,10]","action_history":"[0,0,0,0,1,0,0,0]","mutagen_history":"[0,0,0,0,1,0,0,0]","location_rts":"[990,432,683,753,626,537,483,421]","trial_type":"fractal-mutation","trial_index":50,"time_elapsed":3697641,"internal_node_id":"0.0-5.0-11.0"},{"group":"dicyclic group of order 12","fractal_assignment":["../images/cyn_red.png","../images/pnk_blu.png","../images/blu_wht.png","../images/grn_prp.png","../images/ylw_pnk.png","../images/grn_blu.png","../images/ylw_slt.png","../images/grn_red.png","../images/org_blu.png","../images/gry_blk.png","../images/wht_red.png","../images/red_prp.png"],"mutagen_generator_assignment":[0,1],"goal":2,"start":10,"action_noise":0.15,"location_history":"[10,2]","action_history":"[1]","mutagen_history":"[1]","location_rts":"[1316]","trial_type":"fractal-mutation","trial_index":51,"time_elapsed":3704117,"internal_node_id":"0.0-5.0-12.0"},{"group":"dicyclic group of order 12","fractal_assignment":["../images/cyn_red.png","../images/pnk_blu.png","../images/blu_wht.png","../images/grn_prp.png","../images/ylw_pnk.png","../images/grn_blu.png","../images/ylw_slt.png","../images/grn_red.png","../images/org_blu.png","../images/gry_blk.png","../images/wht_red.png","../images/red_prp.png"],"mutagen_generator_assignment":[0,1],"goal":0,"start":2,"action_noise":0.15,"location_history":"[2,3,0]","action_history":"[0,0]","mutagen_history":"[0,0]","location_rts":"[1092,206]","trial_type":"fractal-mutation","trial_index":52,"time_elapsed":3711278,"internal_node_id":"0.0-5.0-13.0"},{"group":"dicyclic group of order 12","fractal_assignment":["../images/cyn_red.png","../images/pnk_blu.png","../images/blu_wht.png","../images/grn_prp.png","../images/ylw_pnk.png","../images/grn_blu.png","../images/ylw_slt.png","../images/grn_red.png","../images/org_blu.png","../images/gry_blk.png","../images/wht_red.png","../images/red_prp.png"],"mutagen_generator_assignment":[0,1],"goal":9,"start":0,"action_noise":0.15,"location_history":"[0,4,9]","action_history":"[1,0]","mutagen_history":"[1,0]","location_rts":"[1301,391]","trial_type":"fractal-mutation","trial_index":53,"time_elapsed":3719500,"internal_node_id":"0.0-5.0-14.0"},{"group":"dicyclic group of order 12","fractal_assignment":["../images/cyn_red.png","../images/pnk_blu.png","../images/blu_wht.png","../images/grn_prp.png","../images/ylw_pnk.png","../images/grn_blu.png","../images/ylw_slt.png","../images/grn_red.png","../images/org_blu.png","../images/gry_blk.png","../images/wht_red.png","../images/red_prp.png"],"mutagen_generator_assignment":[0,1],"goal":8,"start":9,"action_noise":0.15,"location_history":"[9,6,11,4,8]","action_history":"[0,0,0,1]","mutagen_history":"[0,0,0,1]","location_rts":"[1563,379,747,489]","trial_type":"fractal-mutation","trial_index":54,"time_elapsed":3730872,"internal_node_id":"0.0-5.0-15.0"},{"group":"dicyclic group of order 12","fractal_assignment":["../images/cyn_red.png","../images/pnk_blu.png","../images/blu_wht.png","../images/grn_prp.png","../images/ylw_pnk.png","../images/grn_blu.png","../images/ylw_slt.png","../images/grn_red.png","../images/org_blu.png","../images/gry_blk.png","../images/wht_red.png","../images/red_prp.png"],"mutagen_generator_assignment":[0,1],"goal":6,"start":8,"action_noise":0.15,"location_history":"[8,5,10,7,8,5,9,1,2,3,7,11,4,8,5,10,7,8,0,4,8,0,4,8,5,10,7,8,5,9,6]","action_history":"[0,0,0,0,0,1,0,0,0,0,1,0,0,0,0,0,0,0,1,0,0,0,0,0,0,0,0,0,1,0]","mutagen_history":"[0,0,0,0,0,1,0,0,0,0,1,0,0,0,0,0,0,0,1,0,0,0,0,0,0,0,0,0,1,0]","location_rts":"[1132,3982,530,430,928,579,968,510,533,741,69,534,433,644,378,578,400,947,1507,944,2004,1304,252,643,415,440,1140,443,456,789]","trial_type":"fractal-mutation","trial_index":55,"time_elapsed":3799251,"internal_node_id":"0.0-5.0-16.0"},{"group":"dicyclic group of order 12","fractal_assignment":["../images/cyn_red.png","../images/pnk_blu.png","../images/blu_wht.png","../images/grn_prp.png","../images/ylw_pnk.png","../images/grn_blu.png","../images/ylw_slt.png","../images/grn_red.png","../images/org_blu.png","../images/gry_blk.png","../images/wht_red.png","../images/red_prp.png"],"mutagen_generator_assignment":[0,1],"goal":1,"start":6,"action_noise":0.15,"location_history":"[6,11,4,9,6,11,4,8,0,1]","action_history":"[0,0,0,0,0,0,0,1,0]","mutagen_history":"[0,0,0,0,0,0,0,1,0]","location_rts":"[2139,1408,517,1366,395,406,429,491,575]","trial_type":"fractal-mutation","trial_index":56,"time_elapsed":3821156,"internal_node_id":"0.0-5.0-17.0"},{"group":"dicyclic group of order 12","fractal_assignment":["../images/cyn_red.png","../images/pnk_blu.png","../images/blu_wht.png","../images/grn_prp.png","../images/ylw_pnk.png","../images/grn_blu.png","../images/ylw_slt.png","../images/grn_red.png","../images/org_blu.png","../images/gry_blk.png","../images/wht_red.png","../images/red_prp.png"],"mutagen_generator_assignment":[0,1],"goal":4,"start":1,"action_noise":0.15,"location_history":"[1,2,3,0,4]","action_history":"[0,0,0,0]","mutagen_history":"[0,0,0,0]","location_rts":"[374,305,380,548]","trial_type":"fractal-mutation","trial_index":57,"time_elapsed":3830679,"internal_node_id":"0.0-5.0-18.0"},{"group":"dicyclic group of order 12","fractal_assignment":["../images/cyn_red.png","../images/pnk_blu.png","../images/blu_wht.png","../images/grn_prp.png","../images/ylw_pnk.png","../images/grn_blu.png","../images/ylw_slt.png","../images/grn_red.png","../images/org_blu.png","../images/gry_blk.png","../images/wht_red.png","../images/red_prp.png"],"mutagen_generator_assignment":[0,1],"goal":11,"start":4,"action_noise":0.15,"location_history":"[4,9,1,2,3,0,4,9,6,11]","action_history":"[0,1,0,0,0,1,0,0,0]","mutagen_history":"[0,1,0,0,0,1,0,0,0]","location_rts":"[1117,1699,632,569,343,546,632,817,373]","trial_type":"fractal-mutation","trial_index":58,"time_elapsed":3853367,"internal_node_id":"0.0-5.0-19.0"},{"group":"dicyclic group of order 12","fractal_assignment":["../images/cyn_red.png","../images/pnk_blu.png","../images/blu_wht.png","../images/grn_prp.png","../images/ylw_pnk.png","../images/grn_blu.png","../images/ylw_slt.png","../images/grn_red.png","../images/org_blu.png","../images/gry_blk.png","../images/wht_red.png","../images/red_prp.png"],"mutagen_generator_assignment":[0,1],"goal":3,"start":11,"action_noise":0.15,"location_history":"[11,4,9,6,10,7,8,0,1,2,3]","action_history":"[0,0,0,1,0,0,0,0,0,0]","mutagen_history":"[0,0,0,1,0,0,0,0,0,0]","location_rts":"[1089,347,378,800,607,529,543,485,727,436]","trial_type":"fractal-mutation","trial_index":59,"time_elapsed":3875621,"internal_node_id":"0.0-5.0-20.0"},{"group":"dicyclic group of order 12","fractal_assignment":["../images/cyn_red.png","../images/pnk_blu.png","../images/blu_wht.png","../images/grn_prp.png","../images/ylw_pnk.png","../images/grn_blu.png","../images/ylw_slt.png","../images/grn_red.png","../images/org_blu.png","../images/gry_blk.png","../images/wht_red.png","../images/red_prp.png"],"mutagen_generator_assignment":[0,1],"goal":5,"start":3,"action_noise":0.15,"location_history":"[3,0,1,2,3,7,8,5]","action_history":"[0,0,0,0,1,0,0]","mutagen_history":"[0,0,0,0,1,0,0]","location_rts":"[1342,289,372,440,942,360,803]","trial_type":"fractal-mutation","trial_index":60,"time_elapsed":3893445,"internal_node_id":"0.0-5.0-21.0"},{"group":"dicyclic group of order 12","fractal_assignment":["../images/cyn_red.png","../images/pnk_blu.png","../images/blu_wht.png","../images/grn_prp.png","../images/ylw_pnk.png","../images/grn_blu.png","../images/ylw_slt.png","../images/grn_red.png","../images/org_blu.png","../images/gry_blk.png","../images/wht_red.png","../images/red_prp.png"],"mutagen_generator_assignment":[0,1],"goal":7,"start":5,"action_noise":0.15,"location_history":"[5,9,6,11,3,0,1,2,3,7]","action_history":"[0,0,0,0,1,0,0,0,0]","mutagen_history":"[0,0,0,0,1,0,0,0,0]","location_rts":"[809,359,356,413,509,440,164,55,185]","trial_type":"fractal-mutation","trial_index":61,"time_elapsed":3911629,"internal_node_id":"0.0-5.0-22.0"},{"group":"dicyclic group of order 12","fractal_assignment":["../images/cyn_red.png","../images/pnk_blu.png","../images/blu_wht.png","../images/grn_prp.png","../images/ylw_pnk.png","../images/grn_blu.png","../images/ylw_slt.png","../images/grn_red.png","../images/org_blu.png","../images/gry_blk.png","../images/wht_red.png","../images/red_prp.png"],"mutagen_generator_assignment":[0,1],"goal":3,"start":7,"action_noise":0.15,"location_history":"[7,8,5,10,7,8,0,4,9,6,11,3]","action_history":"[0,1,0,0,0,0,0,1,0,0,1]","mutagen_history":"[0,1,0,0,0,0,0,1,0,0,1]","location_rts":"[973,555,443,144,366,372,1188,197,984,196,527]","trial_type":"fractal-mutation","trial_index":62,"time_elapsed":3939036,"internal_node_id":"0.0-5.0-23.0"},{"group":"dicyclic group of order 12","fractal_assignment":["../images/cyn_red.png","../images/pnk_blu.png","../images/blu_wht.png","../images/grn_prp.png","../images/ylw_pnk.png","../images/grn_blu.png","../images/ylw_slt.png","../images/grn_red.png","../images/org_blu.png","../images/gry_blk.png","../images/wht_red.png","../images/red_prp.png"],"mutagen_generator_assignment":[0,1],"goal":4,"start":3,"action_noise":0.15,"location_history":"[3,0,1,2,3,7,11,4]","action_history":"[0,0,0,0,0,0,0]","mutagen_history":"[0,0,0,0,0,0,0]","location_rts":"[1107,622,659,268,479,501,486]","trial_type":"fractal-mutation","trial_index":63,"time_elapsed":3954794,"internal_node_id":"0.0-5.0-24.0"},{"group":"dicyclic group of order 12","fractal_assignment":["../images/cyn_red.png","../images/pnk_blu.png","../images/blu_wht.png","../images/grn_prp.png","../images/ylw_pnk.png","../images/grn_blu.png","../images/ylw_slt.png","../images/grn_red.png","../images/org_blu.png","../images/gry_blk.png","../images/wht_red.png","../images/red_prp.png"],"mutagen_generator_assignment":[0,1],"goal":8,"start":4,"action_noise":0.15,"location_history":"[4,8]","action_history":"[0]","mutagen_history":"[0]","location_rts":"[1820]","trial_type":"fractal-mutation","trial_index":64,"time_elapsed":3961474,"internal_node_id":"0.0-5.0-25.0"},{"group":"dicyclic group of order 12","fractal_assignment":["../images/cyn_red.png","../images/pnk_blu.png","../images/blu_wht.png","../images/grn_prp.png","../images/ylw_pnk.png","../images/grn_blu.png","../images/ylw_slt.png","../images/grn_red.png","../images/org_blu.png","../images/gry_blk.png","../images/wht_red.png","../images/red_prp.png"],"mutagen_generator_assignment":[0,1],"goal":6,"start":8,"action_noise":0.15,"location_history":"[8,0,4,9,6]","action_history":"[0,1,0,0]","mutagen_history":"[0,1,0,0]","location_rts":"[970,960,1049,586]","trial_type":"fractal-mutation","trial_index":65,"time_elapsed":3973933,"internal_node_id":"0.0-5.0-26.0"},{"group":"dicyclic group of order 12","fractal_assignment":["../images/cyn_red.png","../images/pnk_blu.png","../images/blu_wht.png","../images/grn_prp.png","../images/ylw_pnk.png","../images/grn_blu.png","../images/ylw_slt.png","../images/grn_red.png","../images/org_blu.png","../images/gry_blk.png","../images/wht_red.png","../images/red_prp.png"],"mutagen_generator_assignment":[0,1],"goal":1,"start":6,"action_noise":0.15,"location_history":"[6,11,4,9,1]","action_history":"[0,0,0,0]","mutagen_history":"[0,0,0,0]","location_rts":"[2082,483,371,607]","trial_type":"fractal-mutation","trial_index":66,"time_elapsed":3985294,"internal_node_id":"0.0-5.0-27.0"},{"group":"dicyclic group of order 12","fractal_assignment":["../images/cyn_red.png","../images/pnk_blu.png","../images/blu_wht.png","../images/grn_prp.png","../images/ylw_pnk.png","../images/grn_blu.png","../images/ylw_slt.png","../images/grn_red.png","../images/org_blu.png","../images/gry_blk.png","../images/wht_red.png","../images/red_prp.png"],"mutagen_generator_assignment":[0,1],"goal":5,"start":1,"action_noise":0.15,"location_history":"[1,2,6,11,4,8,5]","action_history":"[0,1,0,0,0,0]","mutagen_history":"[0,1,0,0,0,0]","location_rts":"[975,5008,830,439,429,768]","trial_type":"fractal-mutation","trial_index":67,"time_elapsed":4005523,"internal_node_id":"0.0-5.0-28.0"},{"group":"dicyclic group of order 12","fractal_assignment":["../images/cyn_red.png","../images/pnk_blu.png","../images/blu_wht.png","../images/grn_prp.png","../images/ylw_pnk.png","../images/grn_blu.png","../images/ylw_slt.png","../images/grn_red.png","../images/org_blu.png","../images/gry_blk.png","../images/wht_red.png","../images/red_prp.png"],"mutagen_generator_assignment":[0,1],"goal":9,"start":5,"action_noise":0.15,"location_history":"[5,10,7,8,5,9]","action_history":"[0,0,0,0,1]","mutagen_history":"[0,0,0,0,1]","location_rts":"[1168,377,403,390,647]","trial_type":"fractal-mutation","trial_index":68,"time_elapsed":4018946,"internal_node_id":"0.0-5.0-29.0"},{"group":"dicyclic group of order 12","fractal_assignment":["../images/cyn_red.png","../images/pnk_blu.png","../images/blu_wht.png","../images/grn_prp.png","../images/ylw_pnk.png","../images/grn_blu.png","../images/ylw_slt.png","../images/grn_red.png","../images/org_blu.png","../images/gry_blk.png","../images/wht_red.png","../images/red_prp.png"],"mutagen_generator_assignment":[0,1],"goal":10,"start":9,"action_noise":0.15,"location_history":"[9,6,11,4,8,5,10]","action_history":"[0,0,0,1,0,0]","mutagen_history":"[0,0,0,1,0,0]","location_rts":"[784,433,407,478,753,341]","trial_type":"fractal-mutation","trial_index":69,"time_elapsed":4033304,"internal_node_id":"0.0-5.0-30.0"},{"group":"dicyclic group of order 12","fractal_assignment":["../images/cyn_red.png","../images/pnk_blu.png","../images/blu_wht.png","../images/grn_prp.png","../images/ylw_pnk.png","../images/grn_blu.png","../images/ylw_slt.png","../images/grn_red.png","../images/org_blu.png","../images/gry_blk.png","../images/wht_red.png","../images/red_prp.png"],"mutagen_generator_assignment":[0,1],"goal":0,"start":10,"action_noise":0.15,"location_history":"[10,2,3,0]","action_history":"[1,0,0]","mutagen_history":"[1,0,0]","location_rts":"[2088,813,386]","trial_type":"fractal-mutation","trial_index":70,"time_elapsed":4044341,"internal_node_id":"0.0-5.0-31.0"},{"group":"dicyclic group of order 12","fractal_assignment":["../images/cyn_red.png","../images/pnk_blu.png","../images/blu_wht.png","../images/grn_prp.png","../images/ylw_pnk.png","../images/grn_blu.png","../images/ylw_slt.png","../images/grn_red.png","../images/org_blu.png","../images/gry_blk.png","../images/wht_red.png","../images/red_prp.png"],"mutagen_generator_assignment":[0,1],"goal":7,"start":0,"action_noise":0.15,"location_history":"[0,1,2,3,0,1,2,6,11,4,9,6,10,7]","action_history":"[0,0,0,0,1,0,0,0,0,0,0,1,0]","mutagen_history":"[0,0,0,0,1,0,0,0,0,0,0,1,0]","location_rts":"[945,167,340,368,794,976,576,826,391,3341,713,647,424]","trial_type":"fractal-mutation","trial_index":71,"time_elapsed":4075044,"internal_node_id":"0.0-5.0-32.0"},{"group":"dicyclic group of order 12","fractal_assignment":["../images/cyn_red.png","../images/pnk_blu.png","../images/blu_wht.png","../images/grn_prp.png","../images/ylw_pnk.png","../images/grn_blu.png","../images/ylw_slt.png","../images/grn_red.png","../images/org_blu.png","../images/gry_blk.png","../images/wht_red.png","../images/red_prp.png"],"mutagen_generator_assignment":[0,1],"goal":11,"start":7,"action_noise":0.15,"location_history":"[7,8,5,10,7,11]","action_history":"[0,0,0,0,1]","mutagen_history":"[0,0,0,0,1]","location_rts":"[1032,420,404,524,1199]","trial_type":"fractal-mutation","trial_index":72,"time_elapsed":4089161,"internal_node_id":"0.0-5.0-33.0"},{"group":"dicyclic group of order 12","fractal_assignment":["../images/cyn_red.png","../images/pnk_blu.png","../images/blu_wht.png","../images/grn_prp.png","../images/ylw_pnk.png","../images/grn_blu.png","../images/ylw_slt.png","../images/grn_red.png","../images/org_blu.png","../images/gry_blk.png","../images/wht_red.png","../images/red_prp.png"],"mutagen_generator_assignment":[0,1],"goal":2,"start":11,"action_noise":0.15,"location_history":"[11,3,0,1,2]","action_history":"[1,0,0,0]","mutagen_history":"[1,0,0,0]","location_rts":"[1419,981,416,383]","trial_type":"fractal-mutation","trial_index":73,"time_elapsed":4101388,"internal_node_id":"0.0-5.0-34.0"},{"view_history":"[{\"page_index\":0,\"viewing_time\":2582}]","rt":2583,"trial_type":"instructions","trial_index":74,"time_elapsed":4104971,"internal_node_id":"0.0-6.0"},{"rt":12962,"responses":"{\"Q0\":\"spatial memory\"}","trial_type":"survey-text","trial_index":75,"time_elapsed":4118944,"internal_node_id":"0.0-7.0-0.0"},{"rt":10142,"responses":"{\"Q0\":\"visual memory\"}","trial_type":"survey-text","trial_index":76,"time_elapsed":4130092,"internal_node_id":"0.0-7.0-1.0"},{"rt":3740,"responses":"{\"Q0\":\"2\"}","trial_type":"survey-likert","trial_index":77,"time_elapsed":4134847,"internal_node_id":"0.0-7.0-2.0"},{"rt":19385,"responses":"{\"Q0\":\"groupings\"}","trial_type":"survey-text","trial_index":78,"time_elapsed":4155244,"internal_node_id":"0.0-7.0-3.0"},{"rt":5099,"responses":"{\"Q0\":\"Yes\"}","trial_type":"survey-multi-choice","trial_index":79,"time_elapsed":4161369,"internal_node_id":"0.0-7.0-4.0"},{"rt":5036,"responses":"{\"Q0\":\"During session 1\"}","trial_type":"survey-multi-choice","trial_index":80,"time_elapsed":4167421,"internal_node_id":"0.0-7.0-5.0"},{"rt":12931,"responses":"{\"Q0\":\"groupings\"}","trial_type":"survey-text","trial_index":81,"time_elapsed":4181358,"internal_node_id":"0.0-7.0-6.0"},{"rt":4302,"responses":"{\"Q0\":\"2\"}","trial_type":"survey-likert","trial_index":82,"time_elapsed":4186667,"internal_node_id":"0.0-7.0-7.0"},{"rt":8291,"responses":"{\"Q0\":\"Same structure\"}","trial_type":"survey-multi-choice","trial_index":83,"time_elapsed":4195965,"internal_node_id":"0.0-7.0-8.0"},{"rt":12343,"responses":"{\"Q0\":\"white door = acid, black door = ray\",\"Q1\":\"Pretty confident\"}","trial_type":"survey-multi-choice","trial_index":84,"time_elapsed":4209323,"internal_node_id":"0.0-7.0-9.0"},{"rt":7194,"responses":"{\"Q0\":\">65\",\"Q1\":\"High school degree or GED\",\"Q2\":\"Female\",\"Q3\":\"White\"}","trial_type":"survey-multi-choice","trial_index":85,"time_elapsed":4217578,"internal_node_id":"0.0-8.0"},{"rt":2806,"responses":"{\"Q0\":\"no\"}","trial_type":"survey-text","trial_index":86,"time_elapsed":4221395,"internal_node_id":"0.0-9.0"}]