[{"view_history":"[{\"page_index\":0,\"viewing_time\":3005401},{\"page_index\":1,\"viewing_time\":6981}]","rt":3012383,"trial_type":"instructions","trial_index":0,"time_elapsed":3012385,"internal_node_id":"0.0-0.0"},{"view_history":"[{\"page_index\":0,\"viewing_time\":11678},{\"page_index\":1,\"viewing_time\":1926}]","rt":13604,"trial_type":"instructions","trial_index":1,"time_elapsed":3026992,"internal_node_id":"0.0-1.0"},{"group":"dihedral group of order 12","room_assignment":["red","cyan","green","pink","blue","grey","yellow","olive","brown","orange","ivory","purple"],"door_color_assignment":["white","black"],"door_generator_assignment":[0,1],"goal":7,"start":3,"action_noise":0.15,"location_history":"[3,4,10,4,5,11,5,0,6,0,1,7]","action_history":"[0,1,1,0,1,1,0,1,1,0,1]","door_history":"[0,1,1,0,1,1,0,1,1,0,1]","location_rts":"[823,295,191,379,270,201,422,216,170,227,204]","trial_type":"two-door-navigation","trial_index":2,"time_elapsed":3045104,"internal_node_id":"0.0-2.0-0.0"},{"group":"dihedral group of order 12","room_assignment":["red","cyan","green","pink","blue","grey","yellow","olive","brown","orange","ivory","purple"],"door_color_assignment":["white","black"],"door_generator_assignment":[0,1],"goal":5,"start":7,"action_noise":0.15,"location_history":"[7,6,0,6,11,5]","action_history":"[0,1,1,0,1]","door_history":"[0,1,1,0,1]","location_rts":"[296,158,166,205,157]","trial_type":"two-door-navigation","trial_index":3,"time_elapsed":3054685,"internal_node_id":"0.0-2.0-1.0"},{"group":"dihedral group of order 12","room_assignment":["red","cyan","green","pink","blue","grey","yellow","olive","brown","orange","ivory","purple"],"door_color_assignment":["white","black"],"door_generator_assignment":[0,1],"goal":0,"start":5,"action_noise":0.15,"location_history":"[5,0]","action_history":"[0]","door_history":"[0]","location_rts":"[585]","trial_type":"two-door-navigation","trial_index":4,"time_elapsed":3059795,"internal_node_id":"0.0-2.0-2.0"},{"group":"dihedral group of order 12","room_assignment":["red","cyan","green","pink","blue","grey","yellow","olive","brown","orange","ivory","purple"],"door_color_assignment":["white","black"],"door_generator_assignment":[0,1],"goal":2,"start":0,"action_noise":0.15,"location_history":"[0,1,2]","action_history":"[0,1]","door_history":"[0,1]","location_rts":"[565,141]","trial_type":"two-door-navigation","trial_index":5,"time_elapsed":3066045,"internal_node_id":"0.0-2.0-3.0"},{"group":"dihedral group of order 12","room_assignment":["red","cyan","green","pink","blue","grey","yellow","olive","brown","orange","ivory","purple"],"door_color_assignment":["white","black"],"door_generator_assignment":[0,1],"goal":10,"start":2,"action_noise":0.15,"location_history":"[2,3,9,3,4,5,11,5,0,6,0,1,7,1,7,1,7,6,0,6,11,10]","action_history":"[0,1,1,0,1,1,0,0,1,1,0,1,1,0,1,1,0,1,1,0,1]","door_history":"[0,1,1,0,1,1,0,0,1,1,0,1,1,0,1,1,0,1,1,0,1]","location_rts":"[216,305,74,627,196,195,281,901,444,304,315,276,442,666,272,182,148,323,251,358,269]","trial_type":"two-door-navigation","trial_index":6,"time_elapsed":3097975,"internal_node_id":"0.0-2.0-4.0"},{"group":"dihedral group of order 12","room_assignment":["red","cyan","green","pink","blue","grey","yellow","olive","brown","orange","ivory","purple"],"door_color_assignment":["white","black"],"door_generator_assignment":[0,1],"goal":8,"start":10,"action_noise":0.15,"location_history":"[10,9,8]","action_history":"[0,1]","door_history":"[0,1]","location_rts":"[270,128]","trial_type":"two-door-navigation","trial_index":7,"time_elapsed":3103905,"internal_node_id":"0.0-2.0-5.0"},{"group":"dihedral group of order 12","room_assignment":["red","cyan","green","pink","blue","grey","yellow","olive","brown","orange","ivory","purple"],"door_color_assignment":["white","black"],"door_generator_assignment":[0,1],"goal":11,"start":8,"action_noise":0.15,"location_history":"[8,7,6,0,6,11]","action_history":"[0,1,1,1,0]","door_history":"[0,1,1,1,0]","location_rts":"[250,213,216,680,821]","trial_type":"two-door-navigation","trial_index":8,"time_elapsed":3114685,"internal_node_id":"0.0-2.0-6.0"},{"group":"dihedral group of order 12","room_assignment":["red","cyan","green","pink","blue","grey","yellow","olive","brown","orange","ivory","purple"],"door_color_assignment":["white","black"],"door_generator_assignment":[0,1],"goal":6,"start":11,"action_noise":0.15,"location_history":"[11,10,4,10,9,3,9,8,2,3,9,3,4,5,0,6]","action_history":"[0,1,1,0,1,1,0,1,1,1,1,0,1,0,1]","door_history":"[0,1,1,0,1,1,0,1,1,1,1,0,1,0,1]","location_rts":"[2064,242,99,552,239,238,451,219,186,545,584,744,290,667,324]","trial_type":"two-door-navigation","trial_index":9,"time_elapsed":3140902,"internal_node_id":"0.0-2.0-7.0"},{"group":"dihedral group of order 12","room_assignment":["red","cyan","green","pink","blue","grey","yellow","olive","brown","orange","ivory","purple"],"door_color_assignment":["white","black"],"door_generator_assignment":[0,1],"goal":4,"start":6,"action_noise":0.15,"location_history":"[6,11,5,0,6,0,1,7,1,2,8,2,3,9,3,4]","action_history":"[0,1,1,1,1,0,1,1,0,1,1,0,1,1,0]","door_history":"[0,1,1,1,1,0,1,1,0,1,1,0,1,1,0]","location_rts":"[894,398,217,1369,356,333,234,258,251,465,269,309,216,187,555]","trial_type":"two-door-navigation","trial_index":10,"time_elapsed":3165965,"internal_node_id":"0.0-2.0-8.0"},{"group":"dihedral group of order 12","room_assignment":["red","cyan","green","pink","blue","grey","yellow","olive","brown","orange","ivory","purple"],"door_color_assignment":["white","black"],"door_generator_assignment":[0,1],"goal":1,"start":4,"action_noise":0.15,"location_history":"[4,5,11,5,0,6,0,1]","action_history":"[0,1,1,0,1,1,0]","door_history":"[0,1,1,0,1,1,0]","location_rts":"[1362,291,226,673,198,199,206]","trial_type":"two-door-navigation","trial_index":11,"time_elapsed":3179749,"internal_node_id":"0.0-2.0-9.0"},{"group":"dihedral group of order 12","room_assignment":["red","cyan","green","pink","blue","grey","yellow","olive","brown","orange","ivory","purple"],"door_color_assignment":["white","black"],"door_generator_assignment":[0,1],"goal":9,"start":1,"action_noise":0.15,"location_history":"[1,2,8,2,3,9]","action_history":"[0,1,1,0,1]","door_history":"[0,1,1,0,1]","location_rts":"[713,18,41,168,212]","trial_type":"two-door-navigation","trial_index":12,"time_elapsed":3189482,"internal_node_id":"0.0-2.0-10.0"},{"group":"dihedral group of order 12","room_assignment":["red","cyan","green","pink","blue","grey","yellow","olive","brown","orange","ivory","purple"],"door_color_assignment":["white","black"],"door_generator_assignment":[0,1],"goal":10,"start":9,"action_noise":0.15,"location_history":"[9,8,2,8,7,1,7,6,0,6,11,5,0,1,7,6,0,1,7,6,0,1,7,6,0,6,11,5,11,5,0,1,2,8,2,3,4,10]","action_history":"[0,1,1,0,1,1,0,1,1,0,1,1,0,1,0,1,1,1,0,0,0,1,1,1,1,0,1,1,1,0,1,0,1,1,0,1,1]","door_history":"[0,1,1,0,1,1,0,1,1,0,1,1,0,1,0,1,1,1,0,0,0,1,1,1,1,0,1,1,1,0,1,0,1,1,0,1,1]","location_rts":"[584,177,118,227,199,199,279,289,190,168,298,178,198,641,1164,254,191,673,1466,1041,1810,548,761,532,1090,1366,2073,501,294,171,449,1033,577,287,357,234,216]","trial_type":"two-door-navigation","trial_index":13,"time_elapsed":3251463,"internal_node_id":"0.0-2.0-11.0"},{"group":"dihedral group of order 12","room_assignment":["red","cyan","green","pink","blue","grey","yellow","olive","brown","orange","ivory","purple"],"door_color_assignment":["white","black"],"door_generator_assignment":[0,1],"goal":2,"start":10,"action_noise":0.15,"location_history":"[10,9,8,2]","action_history":"[0,1,1]","door_history":"[0,1,1]","location_rts":"[258,65,211]","trial_type":"two-door-navigation","trial_index":14,"time_elapsed":3258551,"internal_node_id":"0.0-2.0-12.0"},{"group":"dihedral group of order 12","room_assignment":["red","cyan","green","pink","blue","grey","yellow","olive","brown","orange","ivory","purple"],"door_color_assignment":["white","black"],"door_generator_assignment":[0,1],"goal":0,"start":2,"action_noise":0.15,"location_history":"[2,3,9,3,4,5,11,10,9,3,9,8,2,8,7,1,7,6,0]","action_history":"[0,1,1,0,1,1,0,1,1,1,0,1,1,0,1,1,0,1]","door_history":"[0,1,1,0,1,1,0,1,1,1,0,1,1,0,1,1,0,1]","location_rts":"[298,218,157,514,140,210,286,223,275,965,514,298,163,263,357,190,344,242]","trial_type":"two-door-navigation","trial_index":15,"time_elapsed":3286017,"internal_node_id":"0.0-2.0-13.0"},{"group":"dihedral group of order 12","room_assignment":["red","cyan","green","pink","blue","grey","yellow","olive","brown","orange","ivory","purple"],"door_color_assignment":["white","black"],"door_generator_assignment":[0,1],"goal":9,"start":0,"action_noise":0.15,"location_history":"[0,1,7,1,2,8,2,3,9]","action_history":"[0,1,1,0,1,1,0,1]","door_history":"[0,1,1,0,1,1,0,1]","location_rts":"[754,137,115,592,199,88,313,286]","trial_type":"two-door-navigation","trial_index":16,"time_elapsed":3300126,"internal_node_id":"0.0-2.0-14.0"},{"group":"dihedral group of order 12","room_assignment":["red","cyan","green","pink","blue","grey","yellow","olive","brown","orange","ivory","purple"],"door_color_assignment":["white","black"],"door_generator_assignment":[0,1],"goal":8,"start":9,"action_noise":0.15,"location_history":"[9,8]","action_history":"[0]","door_history":"[0]","location_rts":"[863]","trial_type":"two-door-navigation","trial_index":17,"time_elapsed":3305510,"internal_node_id":"0.0-2.0-15.0"},{"group":"dihedral group of order 12","room_assignment":["red","cyan","green","pink","blue","grey","yellow","olive","brown","orange","ivory","purple"],"door_color_assignment":["white","black"],"door_generator_assignment":[0,1],"goal":6,"start":8,"action_noise":0.15,"location_history":"[8,2,8,2,8,2,8,7,1,7,6]","action_history":"[0,1,1,0,1,1,0,1,1,1]","door_history":"[0,1,1,0,1,1,0,1,1,1]","location_rts":"[1747,194,76,200,290,120,118,1675,723,319]","trial_type":"two-door-navigation","trial_index":18,"time_elapsed":3324637,"internal_node_id":"0.0-2.0-16.0"},{"group":"dihedral group of order 12","room_assignment":["red","cyan","green","pink","blue","grey","yellow","olive","brown","orange","ivory","purple"],"door_color_assignment":["white","black"],"door_generator_assignment":[0,1],"goal":1,"start":6,"action_noise":0.15,"location_history":"[6,11,5,11,5,0,6,11,10,4,10,4,10,9,8,2,3,4,10,4,5,11,5,0,6,0,1]","action_history":"[0,1,1,1,0,1,1,0,1,1,0,1,1,0,1,1,0,1,1,0,1,1,0,1,1,0]","door_history":"[0,1,1,1,0,1,1,0,1,1,0,1,1,0,1,1,0,1,1,0,1,1,0,1,1,0]","location_rts":"[944,362,116,1839,573,223,120,1727,518,224,609,619,1626,93,762,293,227,523,528,502,374,292,326,354,276,344]","trial_type":"two-door-navigation","trial_index":19,"time_elapsed":3368984,"internal_node_id":"0.0-2.0-17.0"},{"group":"dihedral group of order 12","room_assignment":["red","cyan","green","pink","blue","grey","yellow","olive","brown","orange","ivory","purple"],"door_color_assignment":["white","black"],"door_generator_assignment":[0,1],"goal":4,"start":1,"action_noise":0.15,"location_history":"[1,7,1,7,1,2,3,4]","action_history":"[1,0,1,1,0,1,0]","door_history":"[1,0,1,1,0,1,0]","location_rts":"[792,57,1334,953,653,363,519]","trial_type":"two-door-navigation","trial_index":20,"time_elapsed":3384273,"internal_node_id":"0.0-2.0-18.0"},{"group":"dihedral group of order 12","room_assignment":["red","cyan","green","pink","blue","grey","yellow","olive","brown","orange","ivory","purple"],"door_color_assignment":["white","black"],"door_generator_assignment":[0,1],"goal":11,"start":4,"action_noise":0.15,"location_history":"[4,10,4,10,9,3,9,8,7,6,11]","action_history":"[0,1,1,0,1,1,0,1,1,0]","door_history":"[0,1,1,0,1,1,0,1,1,0]","location_rts":"[282,157,134,763,223,209,233,214,104,181]","trial_type":"two-door-navigation","trial_index":21,"time_elapsed":3400427,"internal_node_id":"0.0-2.0-19.0"},{"group":"dihedral group of order 12","room_assignment":["red","cyan","green","pink","blue","grey","yellow","olive","brown","orange","ivory","purple"],"door_color_assignment":["white","black"],"door_generator_assignment":[0,1],"goal":3,"start":11,"action_noise":0.15,"location_history":"[11,10,4,10,9,3]","action_history":"[1,1,1,0,1]","door_history":"[1,1,1,0,1]","location_rts":"[824,207,849,611,243]","trial_type":"two-door-navigation","trial_index":22,"time_elapsed":3411751,"internal_node_id":"0.0-2.0-20.0"},{"group":"dihedral group of order 12","room_assignment":["red","cyan","green","pink","blue","grey","yellow","olive","brown","orange","ivory","purple"],"door_color_assignment":["white","black"],"door_generator_assignment":[0,1],"goal":5,"start":3,"action_noise":0.15,"location_history":"[3,4,5]","action_history":"[0,1]","door_history":"[0,1]","location_rts":"[614,67]","trial_type":"two-door-navigation","trial_index":23,"time_elapsed":3417970,"internal_node_id":"0.0-2.0-21.0"},{"group":"dihedral group of order 12","room_assignment":["red","cyan","green","pink","blue","grey","yellow","olive","brown","orange","ivory","purple"],"door_color_assignment":["white","black"],"door_generator_assignment":[0,1],"goal":7,"start":5,"action_noise":0.15,"location_history":"[5,11,5,11,10,4,10,4,5,11,10,4,5,0,6,0,1,7]","action_history":"[0,1,1,0,0,1,1,0,1,1,1,0,0,1,1,0,1]","door_history":"[0,1,1,0,0,1,1,0,1,1,1,0,0,1,1,0,1]","location_rts":"[221,176,121,347,1390,243,204,205,300,212,705,759,358,542,232,503,569]","trial_type":"two-door-navigation","trial_index":24,"time_elapsed":3445860,"internal_node_id":"0.0-2.0-22.0"},{"group":"dihedral group of order 12","room_assignment":["red","cyan","green","pink","blue","grey","yellow","olive","brown","orange","ivory","purple"],"door_color_assignment":["white","black"],"door_generator_assignment":[0,1],"goal":3,"start":7,"action_noise":0.15,"location_history":"[7,1,7,1,2,8,2,3]","action_history":"[0,1,1,0,1,1,0]","door_history":"[0,1,1,0,1,1,0]","location_rts":"[517,178,90,326,211,202,192]","trial_type":"two-door-navigation","trial_index":25,"time_elapsed":3458196,"internal_node_id":"0.0-2.0-23.0"},{"group":"dihedral group of order 12","room_assignment":["red","cyan","green","pink","blue","grey","yellow","olive","brown","orange","ivory","purple"],"door_color_assignment":["white","black"],"door_generator_assignment":[0,1],"goal":4,"start":3,"action_noise":0.15,"location_history":"[3,4]","action_history":"[0]","door_history":"[0]","location_rts":"[27552]","trial_type":"two-door-navigation","trial_index":26,"time_elapsed":3490268,"internal_node_id":"0.0-2.0-24.0"},{"group":"dihedral group of order 12","room_assignment":["red","cyan","green","pink","blue","grey","yellow","olive","brown","orange","ivory","purple"],"door_color_assignment":["white","black"],"door_generator_assignment":[0,1],"goal":8,"start":4,"action_noise":0.15,"location_history":"[4,5,11,5,11,5,11,5,11,5,0,1,7,6,11,5,11,10,4,10,9,3,9,8]","action_history":"[0,1,1,0,1,1,0,1,1,0,1,1,0,0,1,1,0,1,1,0,1,1,0]","door_history":"[0,1,1,0,1,1,0,1,1,0,1,1,0,0,1,1,0,1,1,0,1,1,0]","location_rts":"[377,72,186,231,185,503,224,307,219,359,376,246,1092,39464,345,141,311,390,132,389,278,214,226]","trial_type":"two-door-navigation","trial_index":27,"time_elapsed":3563430,"internal_node_id":"0.0-2.0-25.0"},{"group":"dihedral group of order 12","room_assignment":["red","cyan","green","pink","blue","grey","yellow","olive","brown","orange","ivory","purple"],"door_color_assignment":["white","black"],"door_generator_assignment":[0,1],"goal":6,"start":8,"action_noise":0.15,"location_history":"[8,7,1,7,6]","action_history":"[0,1,1,0]","door_history":"[0,1,1,0]","location_rts":"[627,7,70,296]","trial_type":"two-door-navigation","trial_index":28,"time_elapsed":3572003,"internal_node_id":"0.0-2.0-26.0"},{"group":"dihedral group of order 12","room_assignment":["red","cyan","green","pink","blue","grey","yellow","olive","brown","orange","ivory","purple"],"door_color_assignment":["white","black"],"door_generator_assignment":[0,1],"goal":1,"start":6,"action_noise":0.15,"location_history":"[6,11,10,4,5,11,5,11,5,11,5,0,1]","action_history":"[0,1,1,0,0,1,1,0,1,1,0,1]","door_history":"[0,1,1,0,0,1,1,0,1,1,0,1]","location_rts":"[720,30,123,869,499,1242,397,383,282,225,175,319]","trial_type":"two-door-navigation","trial_index":29,"time_elapsed":3592971,"internal_node_id":"0.0-2.0-27.0"},{"group":"dihedral group of order 12","room_assignment":["red","cyan","green","pink","blue","grey","yellow","olive","brown","orange","ivory","purple"],"door_color_assignment":["white","black"],"door_generator_assignment":[0,1],"goal":5,"start":1,"action_noise":0.15,"location_history":"[1,2,8,7,1,7,1,2,8,7,6,0,1,7,1,2,8,2,3,4,10,4,5]","action_history":"[0,1,1,0,1,1,0,1,1,0,1,1,1,1,0,1,1,0,1,1,1,0]","door_history":"[0,1,1,0,1,1,0,1,1,0,1,1,1,1,0,1,1,0,1,1,1,0]","location_rts":"[338,30,184,581,848,267,255,299,270,338,764,258,805,987,374,259,282,268,381,292,632,433]","trial_type":"two-door-navigation","trial_index":30,"time_elapsed":3628018,"internal_node_id":"0.0-2.0-28.0"},{"group":"dihedral group of order 12","room_assignment":["red","cyan","green","pink","blue","grey","yellow","olive","brown","orange","ivory","purple"],"door_color_assignment":["white","black"],"door_generator_assignment":[0,1],"goal":9,"start":5,"action_noise":0.15,"location_history":"[5,0,6,0,6,0,1,7,1,7,1,2,8,2,3,4,10,4,10,9]","action_history":"[0,1,1,0,1,1,0,1,1,0,0,1,1,0,1,1,1,1,0]","door_history":"[0,1,1,0,1,1,0,1,1,0,0,1,1,0,1,1,1,1,0]","location_rts":"[51825,341,94,317,335,26,283,510,1278,272,759,364,212,479,304,239,403,356,209]","trial_type":"two-door-navigation","trial_index":31,"time_elapsed":3709449,"internal_node_id":"0.0-2.0-29.0"},{"group":"dihedral group of order 12","room_assignment":["red","cyan","green","pink","blue","grey","yellow","olive","brown","orange","ivory","purple"],"door_color_assignment":["white","black"],"door_generator_assignment":[0,1],"goal":10,"start":9,"action_noise":0.15,"location_history":"[9,3,4,10]","action_history":"[0,1,1]","door_history":"[0,1,1]","location_rts":"[713,336,77]","trial_type":"two-door-navigation","trial_index":32,"time_elapsed":3717135,"internal_node_id":"0.0-2.0-30.0"},{"group":"dihedral group of order 12","room_assignment":["red","cyan","green","pink","blue","grey","yellow","olive","brown","orange","ivory","purple"],"door_color_assignment":["white","black"],"door_generator_assignment":[0,1],"goal":0,"start":10,"action_noise":0.15,"location_history":"[10,9,3,9,8,7,1,2,3,9,3,4,5,11,10,4,5,11,5,0]","action_history":"[0,1,1,0,1,1,1,0,1,1,0,1,1,1,1,0,1,1,0]","door_history":"[0,1,1,0,1,1,1,0,1,1,0,1,1,1,1,0,1,1,0]","location_rts":"[278,269,178,349,312,204,639,583,446,333,305,287,157,627,1112,270,524,253,326]","trial_type":"two-door-navigation","trial_index":33,"time_elapsed":3747417,"internal_node_id":"0.0-2.0-31.0"},{"group":"dihedral group of order 12","room_assignment":["red","cyan","green","pink","blue","grey","yellow","olive","brown","orange","ivory","purple"],"door_color_assignment":["white","black"],"door_generator_assignment":[0,1],"goal":7,"start":0,"action_noise":0.15,"location_history":"[0,1,7]","action_history":"[0,1]","door_history":"[0,1]","location_rts":"[714,135]","trial_type":"two-door-navigation","trial_index":34,"time_elapsed":3753804,"internal_node_id":"0.0-2.0-32.0"},{"group":"dihedral group of order 12","room_assignment":["red","cyan","green","pink","blue","grey","yellow","olive","brown","orange","ivory","purple"],"door_color_assignment":["white","black"],"door_generator_assignment":[0,1],"goal":11,"start":7,"action_noise":0.15,"location_history":"[7,1,7,1,7,1,2,3,9,3,4,10,4,5,11]","action_history":"[0,1,1,0,1,1,0,1,1,0,1,1,0,1]","door_history":"[0,1,1,0,1,1,0,1,1,0,1,1,0,1]","location_rts":"[881,226,158,324,247,144,294,832,12,323,357,54,317,246]","trial_type":"two-door-navigation","trial_index":35,"time_elapsed":3775965,"internal_node_id":"0.0-2.0-33.0"},{"group":"dihedral group of order 12","room_assignment":["red","cyan","green","pink","blue","grey","yellow","olive","brown","orange","ivory","purple"],"door_color_assignment":["white","black"],"door_generator_assignment":[0,1],"goal":2,"start":11,"action_noise":0.15,"location_history":"[11,10,4,10,9,3,9,8,2]","action_history":"[0,1,1,0,1,1,0,1]","door_history":"[0,1,1,0,1,1,0,1]","location_rts":"[843,353,212,347,404,193,213,242]","trial_type":"two-door-navigation","trial_index":36,"time_elapsed":3790395,"internal_node_id":"0.0-2.0-34.0"},{"view_history":"[{\"page_index\":0,\"viewing_time\":5485}]","rt":5486,"trial_type":"instructions","trial_index":37,"time_elapsed":3796881,"internal_node_id":"0.0-3.0"},{"view_history":"[{\"page_index\":0,\"viewing_time\":3055},{\"page_index\":1,\"viewing_time\":2014}]","rt":5070,"trial_type":"instructions","trial_index":38,"time_elapsed":3802952,"internal_node_id":"0.0-4.0"},{"group":"dihedral group of order 12","fractal_assignment":["../images/grn_prp.png","../images/pnk_blu.png","../images/grn_blu.png","../images/blu_wht.png","../images/ylw_pnk.png","../images/ylw_slt.png","../images/gry_blk.png","../images/cyn_red.png","../images/grn_red.png","../images/wht_red.png","../images/red_prp.png","../images/org_blu.png"],"mutagen_generator_assignment":[1,0],"goal":7,"start":3,"action_noise":0.15,"location_history":"[3,9,8,7]","action_history":"[1,0,0]","mutagen_history":"[0,1,1]","location_rts":"[3726,359,118]","trial_type":"fractal-mutation","trial_index":39,"time_elapsed":3814034,"internal_node_id":"0.0-5.0-0.0"},{"group":"dihedral group of order 12","fractal_assignment":["../images/grn_prp.png","../images/pnk_blu.png","../images/grn_blu.png","../images/blu_wht.png","../images/ylw_pnk.png","../images/ylw_slt.png","../images/gry_blk.png","../images/cyn_red.png","../images/grn_red.png","../images/wht_red.png","../images/red_prp.png","../images/org_blu.png"],"mutagen_generator_assignment":[1,0],"goal":5,"start":7,"action_noise":0.15,"location_history":"[7,6,11,5]","action_history":"[0,0,1]","mutagen_history":"[1,1,0]","location_rts":"[1147,437,853]","trial_type":"fractal-mutation","trial_index":40,"time_elapsed":3823426,"internal_node_id":"0.0-5.0-1.0"},{"group":"dihedral group of order 12","fractal_assignment":["../images/grn_prp.png","../images/pnk_blu.png","../images/grn_blu.png","../images/blu_wht.png","../images/ylw_pnk.png","../images/ylw_slt.png","../images/gry_blk.png","../images/cyn_red.png","../images/grn_red.png","../images/wht_red.png","../images/red_prp.png","../images/org_blu.png"],"mutagen_generator_assignment":[1,0],"goal":0,"start":5,"action_noise":0.15,"location_history":"[5,0]","action_history":"[0]","mutagen_history":"[1]","location_rts":"[1541]","trial_type":"fractal-mutation","trial_index":41,"time_elapsed":3829638,"internal_node_id":"0.0-5.0-2.0"},{"group":"dihedral group of order 12","fractal_assignment":["../images/grn_prp.png","../images/pnk_blu.png","../images/grn_blu.png","../images/blu_wht.png","../images/ylw_pnk.png","../images/ylw_slt.png","../images/gry_blk.png","../images/cyn_red.png","../images/grn_red.png","../images/wht_red.png","../images/red_prp.png","../images/org_blu.png"],"mutagen_generator_assignment":[1,0],"goal":2,"start":0,"action_noise":0.15,"location_history":"[0,6,11,10,9,3,9,3,9,3,9,8,2]","action_history":"[0,0,0,0,1,1,1,1,0,1,1,1]","mutagen_history":"[1,1,1,1,0,0,0,0,1,0,0,0]","location_rts":"[2869,646,532,487,659,357,349,206,23,821,433,186]","trial_type":"fractal-mutation","trial_index":42,"time_elapsed":3854181,"internal_node_id":"0.0-5.0-3.0"},{"group":"dihedral group of order 12","fractal_assignment":["../images/grn_prp.png","../images/pnk_blu.png","../images/grn_blu.png","../images/blu_wht.png","../images/ylw_pnk.png","../images/ylw_slt.png","../images/gry_blk.png","../images/cyn_red.png","../images/grn_red.png","../images/wht_red.png","../images/red_prp.png","../images/org_blu.png"],"mutagen_generator_assignment":[1,0],"goal":10,"start":2,"action_noise":0.15,"location_history":"[2,3,4,5,0,1,2,8,7,1,2,3,9,3,4,5,0,6,0,6,11,10]","action_history":"[0,0,0,0,0,0,1,0,0,0,0,1,0,0,0,0,1,0,0,0,0]","mutagen_history":"[1,1,1,1,1,1,0,1,1,1,1,0,1,1,1,1,0,1,1,1,1]","location_rts":"[3213,712,26,44,696,1151,922,99,502,1283,874,924,721,131,185,217,816,1196,1018,556,1522]","trial_type":"fractal-mutation","trial_index":43,"time_elapsed":3898646,"internal_node_id":"0.0-5.0-4.0"},{"group":"dihedral group of order 12","fractal_assignment":["../images/grn_prp.png","../images/pnk_blu.png","../images/grn_blu.png","../images/blu_wht.png","../images/ylw_pnk.png","../images/ylw_slt.png","../images/gry_blk.png","../images/cyn_red.png","../images/grn_red.png","../images/wht_red.png","../images/red_prp.png","../images/org_blu.png"],"mutagen_generator_assignment":[1,0],"goal":8,"start":10,"action_noise":0.15,"location_history":"[10,9,8]","action_history":"[0,0]","mutagen_history":"[1,1]","location_rts":"[1200,99]","trial_type":"fractal-mutation","trial_index":44,"time_elapsed":3905769,"internal_node_id":"0.0-5.0-5.0"},{"group":"dihedral group of order 12","fractal_assignment":["../images/grn_prp.png","../images/pnk_blu.png","../images/grn_blu.png","../images/blu_wht.png","../images/ylw_pnk.png","../images/ylw_slt.png","../images/gry_blk.png","../images/cyn_red.png","../images/grn_red.png","../images/wht_red.png","../images/red_prp.png","../images/org_blu.png"],"mutagen_generator_assignment":[1,0],"goal":11,"start":8,"action_noise":0.15,"location_history":"[8,7,6,11]","action_history":"[0,0,0]","mutagen_history":"[1,1,1]","location_rts":"[413,93,80]","trial_type":"fractal-mutation","trial_index":45,"time_elapsed":3913344,"internal_node_id":"0.0-5.0-6.0"},{"group":"dihedral group of order 12","fractal_assignment":["../images/grn_prp.png","../images/pnk_blu.png","../images/grn_blu.png","../images/blu_wht.png","../images/ylw_pnk.png","../images/ylw_slt.png","../images/gry_blk.png","../images/cyn_red.png","../images/grn_red.png","../images/wht_red.png","../images/red_prp.png","../images/org_blu.png"],"mutagen_generator_assignment":[1,0],"goal":6,"start":11,"action_noise":0.15,"location_history":"[11,5,0,1,2,3,9,8,2,8,7,6]","action_history":"[0,0,0,0,0,0,0,0,0,0,0]","mutagen_history":"[1,1,1,1,1,1,1,1,1,1,1]","location_rts":"[914,78,438,499,430,270,353,22,810,1048,894]","trial_type":"fractal-mutation","trial_index":46,"time_elapsed":3935389,"internal_node_id":"0.0-5.0-7.0"},{"group":"dihedral group of order 12","fractal_assignment":["../images/grn_prp.png","../images/pnk_blu.png","../images/grn_blu.png","../images/blu_wht.png","../images/ylw_pnk.png","../images/ylw_slt.png","../images/gry_blk.png","../images/cyn_red.png","../images/grn_red.png","../images/wht_red.png","../images/red_prp.png","../images/org_blu.png"],"mutagen_generator_assignment":[1,0],"goal":4,"start":6,"action_noise":0.15,"location_history":"[6,11,10,9,3,4]","action_history":"[0,0,0,0,0]","mutagen_history":"[1,1,1,1,1]","location_rts":"[1391,125,173,13,1]","trial_type":"fractal-mutation","trial_index":47,"time_elapsed":3946397,"internal_node_id":"0.0-5.0-8.0"},{"group":"dihedral group of order 12","fractal_assignment":["../images/grn_prp.png","../images/pnk_blu.png","../images/grn_blu.png","../images/blu_wht.png","../images/ylw_pnk.png","../images/ylw_slt.png","../images/gry_blk.png","../images/cyn_red.png","../images/grn_red.png","../images/wht_red.png","../images/red_prp.png","../images/org_blu.png"],"mutagen_generator_assignment":[1,0],"goal":1,"start":4,"action_noise":0.15,"location_history":"[4,10,4,5,0,1]","action_history":"[0,0,0,0,0]","mutagen_history":"[1,1,1,1,1]","location_rts":"[749,145,110,950,153]","trial_type":"fractal-mutation","trial_index":48,"time_elapsed":3957809,"internal_node_id":"0.0-5.0-9.0"},{"group":"dihedral group of order 12","fractal_assignment":["../images/grn_prp.png","../images/pnk_blu.png","../images/grn_blu.png","../images/blu_wht.png","../images/ylw_pnk.png","../images/ylw_slt.png","../images/gry_blk.png","../images/cyn_red.png","../images/grn_red.png","../images/wht_red.png","../images/red_prp.png","../images/org_blu.png"],"mutagen_generator_assignment":[1,0],"goal":9,"start":1,"action_noise":0.15,"location_history":"[1,7,6,11,10,9]","action_history":"[0,0,0,0,0]","mutagen_history":"[1,1,1,1,1]","location_rts":"[863,5,163,1078,360]","trial_type":"fractal-mutation","trial_index":49,"time_elapsed":3969586,"internal_node_id":"0.0-5.0-10.0"},{"group":"dihedral group of order 12","fractal_assignment":["../images/grn_prp.png","../images/pnk_blu.png","../images/grn_blu.png","../images/blu_wht.png","../images/ylw_pnk.png","../images/ylw_slt.png","../images/gry_blk.png","../images/cyn_red.png","../images/grn_red.png","../images/wht_red.png","../images/red_prp.png","../images/org_blu.png"],"mutagen_generator_assignment":[1,0],"goal":10,"start":9,"action_noise":0.15,"location_history":"[9,8,7,6,11,10]","action_history":"[0,0,0,0,0]","mutagen_history":"[1,1,1,1,1]","location_rts":"[1657,115,113,158,158]","trial_type":"fractal-mutation","trial_index":50,"time_elapsed":3981085,"internal_node_id":"0.0-5.0-11.0"},{"group":"dihedral group of order 12","fractal_assignment":["../images/grn_prp.png","../images/pnk_blu.png","../images/grn_blu.png","../images/blu_wht.png","../images/ylw_pnk.png","../images/ylw_slt.png","../images/gry_blk.png","../images/cyn_red.png","../images/grn_red.png","../images/wht_red.png","../images/red_prp.png","../images/org_blu.png"],"mutagen_generator_assignment":[1,0],"goal":2,"start":10,"action_noise":0.15,"location_history":"[10,9,3,4,10,9,8,2]","action_history":"[0,0,0,0,0,0,1]","mutagen_history":"[1,1,1,1,1,1,0]","location_rts":"[1089,351,171,356,370,338,573]","trial_type":"fractal-mutation","trial_index":51,"time_elapsed":3995891,"internal_node_id":"0.0-5.0-12.0"},{"group":"dihedral group of order 12","fractal_assignment":["../images/grn_prp.png","../images/pnk_blu.png","../images/grn_blu.png","../images/blu_wht.png","../images/ylw_pnk.png","../images/ylw_slt.png","../images/gry_blk.png","../images/cyn_red.png","../images/grn_red.png","../images/wht_red.png","../images/red_prp.png","../images/org_blu.png"],"mutagen_generator_assignment":[1,0],"goal":0,"start":2,"action_noise":0.15,"location_history":"[2,3,9,8,7,6,11,10,9,8,7,1,2,8,2,3,4,5,0]","action_history":"[0,0,0,0,0,0,0,0,0,0,1,0,0,0,0,0,0,0]","mutagen_history":"[1,1,1,1,1,1,1,1,1,1,0,1,1,1,1,1,1,1]","location_rts":"[175,445,66,177,154,439,378,60,79,132,712,588,838,111,196,915,357,379]","trial_type":"fractal-mutation","trial_index":52,"time_elapsed":4026428,"internal_node_id":"0.0-5.0-13.0"},{"group":"dihedral group of order 12","fractal_assignment":["../images/grn_prp.png","../images/pnk_blu.png","../images/grn_blu.png","../images/blu_wht.png","../images/ylw_pnk.png","../images/ylw_slt.png","../images/gry_blk.png","../images/cyn_red.png","../images/grn_red.png","../images/wht_red.png","../images/red_prp.png","../images/org_blu.png"],"mutagen_generator_assignment":[1,0],"goal":9,"start":0,"action_noise":0.15,"location_history":"[0,6,0,1,2,8,7,6,11,10,4,5,11,10,9]","action_history":"[1,0,0,0,0,0,0,0,0,0,0,1,0,0]","mutagen_history":"[0,1,1,1,1,1,1,1,1,1,1,0,1,1]","location_rts":"[1254,129,123,39,21,28,67,50,73,107,867,1754,200,89]","trial_type":"fractal-mutation","trial_index":53,"time_elapsed":4050766,"internal_node_id":"0.0-5.0-14.0"},{"group":"dihedral group of order 12","fractal_assignment":["../images/grn_prp.png","../images/pnk_blu.png","../images/grn_blu.png","../images/blu_wht.png","../images/ylw_pnk.png","../images/ylw_slt.png","../images/gry_blk.png","../images/cyn_red.png","../images/grn_red.png","../images/wht_red.png","../images/red_prp.png","../images/org_blu.png"],"mutagen_generator_assignment":[1,0],"goal":8,"start":9,"action_noise":0.15,"location_history":"[9,8]","action_history":"[0]","mutagen_history":"[1]","location_rts":"[792]","trial_type":"fractal-mutation","trial_index":54,"time_elapsed":4056221,"internal_node_id":"0.0-5.0-15.0"},{"group":"dihedral group of order 12","fractal_assignment":["../images/grn_prp.png","../images/pnk_blu.png","../images/grn_blu.png","../images/blu_wht.png","../images/ylw_pnk.png","../images/ylw_slt.png","../images/gry_blk.png","../images/cyn_red.png","../images/grn_red.png","../images/wht_red.png","../images/red_prp.png","../images/org_blu.png"],"mutagen_generator_assignment":[1,0],"goal":6,"start":8,"action_noise":0.15,"location_history":"[8,7,6]","action_history":"[0,0]","mutagen_history":"[1,1]","location_rts":"[106,19]","trial_type":"fractal-mutation","trial_index":55,"time_elapsed":4062166,"internal_node_id":"0.0-5.0-16.0"},{"group":"dihedral group of order 12","fractal_assignment":["../images/grn_prp.png","../images/pnk_blu.png","../images/grn_blu.png","../images/blu_wht.png","../images/ylw_pnk.png","../images/ylw_slt.png","../images/gry_blk.png","../images/cyn_red.png","../images/grn_red.png","../images/wht_red.png","../images/red_prp.png","../images/org_blu.png"],"mutagen_generator_assignment":[1,0],"goal":1,"start":6,"action_noise":0.15,"location_history":"[6,11,10,9,8,7,1]","action_history":"[0,0,0,0,0,1]","mutagen_history":"[1,1,1,1,1,0]","location_rts":"[813,751,130,1709,1259,566]","trial_type":"fractal-mutation","trial_index":56,"time_elapsed":4077788,"internal_node_id":"0.0-5.0-17.0"},{"group":"dihedral group of order 12","fractal_assignment":["../images/grn_prp.png","../images/pnk_blu.png","../images/grn_blu.png","../images/blu_wht.png","../images/ylw_pnk.png","../images/ylw_slt.png","../images/gry_blk.png","../images/cyn_red.png","../images/grn_red.png","../images/wht_red.png","../images/red_prp.png","../images/org_blu.png"],"mutagen_generator_assignment":[1,0],"goal":4,"start":1,"action_noise":0.15,"location_history":"[1,2,3,4]","action_history":"[0,0,0]","mutagen_history":"[1,1,1]","location_rts":"[214,55,51]","trial_type":"fractal-mutation","trial_index":57,"time_elapsed":4085081,"internal_node_id":"0.0-5.0-18.0"},{"group":"dihedral group of order 12","fractal_assignment":["../images/grn_prp.png","../images/pnk_blu.png","../images/grn_blu.png","../images/blu_wht.png","../images/ylw_pnk.png","../images/ylw_slt.png","../images/gry_blk.png","../images/cyn_red.png","../images/grn_red.png","../images/wht_red.png","../images/red_prp.png","../images/org_blu.png"],"mutagen_generator_assignment":[1,0],"goal":11,"start":4,"action_noise":0.15,"location_history":"[4,10,9,8,2,3,4,5,0,1,2,3,4,10,9,8,7,6,0,1,2,3,4,5,0,1,2,8,7,6,11]","action_history":"[0,0,0,0,0,0,0,0,0,0,0,0,0,0,0,0,0,0,0,0,0,0,0,1,0,0,0,0,0,0]","mutagen_history":"[1,1,1,1,1,1,1,1,1,1,1,1,1,1,1,1,1,1,1,1,1,1,1,0,1,1,1,1,1,1]","location_rts":"[154,97,196,110,26,28,12,0,448,77,84,36,854,1057,584,205,367,331,18,392,505,549,591,627,817,68,151,13,9,25]","trial_type":"fractal-mutation","trial_index":58,"time_elapsed":4131741,"internal_node_id":"0.0-5.0-19.0"},{"group":"dihedral group of order 12","fractal_assignment":["../images/grn_prp.png","../images/pnk_blu.png","../images/grn_blu.png","../images/blu_wht.png","../images/ylw_pnk.png","../images/ylw_slt.png","../images/gry_blk.png","../images/cyn_red.png","../images/grn_red.png","../images/wht_red.png","../images/red_prp.png","../images/org_blu.png"],"mutagen_generator_assignment":[1,0],"goal":3,"start":11,"action_noise":0.15,"location_history":"[11,10,9,3]","action_history":"[0,0,1]","mutagen_history":"[1,1,0]","location_rts":"[891,117,955]","trial_type":"fractal-mutation","trial_index":59,"time_elapsed":4140626,"internal_node_id":"0.0-5.0-20.0"},{"group":"dihedral group of order 12","fractal_assignment":["../images/grn_prp.png","../images/pnk_blu.png","../images/grn_blu.png","../images/blu_wht.png","../images/ylw_pnk.png","../images/ylw_slt.png","../images/gry_blk.png","../images/cyn_red.png","../images/grn_red.png","../images/wht_red.png","../images/red_prp.png","../images/org_blu.png"],"mutagen_generator_assignment":[1,0],"goal":5,"start":3,"action_noise":0.15,"location_history":"[3,4,5]","action_history":"[0,0]","mutagen_history":"[1,1]","location_rts":"[1211,987]","trial_type":"fractal-mutation","trial_index":60,"time_elapsed":4148645,"internal_node_id":"0.0-5.0-21.0"},{"group":"dihedral group of order 12","fractal_assignment":["../images/grn_prp.png","../images/pnk_blu.png","../images/grn_blu.png","../images/blu_wht.png","../images/ylw_pnk.png","../images/ylw_slt.png","../images/gry_blk.png","../images/cyn_red.png","../images/grn_red.png","../images/wht_red.png","../images/red_prp.png","../images/org_blu.png"],"mutagen_generator_assignment":[1,0],"goal":7,"start":5,"action_noise":0.15,"location_history":"[5,0,1,7]","action_history":"[0,0,0]","mutagen_history":"[1,1,1]","location_rts":"[1411,49,14]","trial_type":"fractal-mutation","trial_index":61,"time_elapsed":4157108,"internal_node_id":"0.0-5.0-22.0"},{"group":"dihedral group of order 12","fractal_assignment":["../images/grn_prp.png","../images/pnk_blu.png","../images/grn_blu.png","../images/blu_wht.png","../images/ylw_pnk.png","../images/ylw_slt.png","../images/gry_blk.png","../images/cyn_red.png","../images/grn_red.png","../images/wht_red.png","../images/red_prp.png","../images/org_blu.png"],"mutagen_generator_assignment":[1,0],"goal":3,"start":7,"action_noise":0.15,"location_history":"[7,6,11,10,9,8,7,1,2,3]","action_history":"[0,0,0,0,0,0,1,0,0]","mutagen_history":"[1,1,1,1,1,1,0,1,1]","location_rts":"[1409,56,509,309,88,779,826,452,138]","trial_type":"fractal-mutation","trial_index":62,"time_elapsed":4175556,"internal_node_id":"0.0-5.0-23.0"},{"group":"dihedral group of order 12","fractal_assignment":["../images/grn_prp.png","../images/pnk_blu.png","../images/grn_blu.png","../images/blu_wht.png","../images/ylw_pnk.png","../images/ylw_slt.png","../images/gry_blk.png","../images/cyn_red.png","../images/grn_red.png","../images/wht_red.png","../images/red_prp.png","../images/org_blu.png"],"mutagen_generator_assignment":[1,0],"goal":4,"start":3,"action_noise":0.15,"location_history":"[3,4]","action_history":"[0]","mutagen_history":"[1]","location_rts":"[531]","trial_type":"fractal-mutation","trial_index":63,"time_elapsed":4180751,"internal_node_id":"0.0-5.0-24.0"},{"group":"dihedral group of order 12","fractal_assignment":["../images/grn_prp.png","../images/pnk_blu.png","../images/grn_blu.png","../images/blu_wht.png","../images/ylw_pnk.png","../images/ylw_slt.png","../images/gry_blk.png","../images/cyn_red.png","../images/grn_red.png","../images/wht_red.png","../images/red_prp.png","../images/org_blu.png"],"mutagen_generator_assignment":[1,0],"goal":8,"start":4,"action_noise":0.15,"location_history":"[4,5,0,1,2,8]","action_history":"[0,0,0,0,1]","mutagen_history":"[1,1,1,1,0]","location_rts":"[374,89,77,413,853]","trial_type":"fractal-mutation","trial_index":64,"time_elapsed":4191797,"internal_node_id":"0.0-5.0-25.0"},{"group":"dihedral group of order 12","fractal_assignment":["../images/grn_prp.png","../images/pnk_blu.png","../images/grn_blu.png","../images/blu_wht.png","../images/ylw_pnk.png","../images/ylw_slt.png","../images/gry_blk.png","../images/cyn_red.png","../images/grn_red.png","../images/wht_red.png","../images/red_prp.png","../images/org_blu.png"],"mutagen_generator_assignment":[1,0],"goal":6,"start":8,"action_noise":0.15,"location_history":"[8,7,6]","action_history":"[0,0]","mutagen_history":"[1,1]","location_rts":"[618,86]","trial_type":"fractal-mutation","trial_index":65,"time_elapsed":4198326,"internal_node_id":"0.0-5.0-26.0"},{"group":"dihedral group of order 12","fractal_assignment":["../images/grn_prp.png","../images/pnk_blu.png","../images/grn_blu.png","../images/blu_wht.png","../images/ylw_pnk.png","../images/ylw_slt.png","../images/gry_blk.png","../images/cyn_red.png","../images/grn_red.png","../images/wht_red.png","../images/red_prp.png","../images/org_blu.png"],"mutagen_generator_assignment":[1,0],"goal":1,"start":6,"action_noise":0.15,"location_history":"[6,11,10,4,5,0,1]","action_history":"[0,0,0,0,0,0]","mutagen_history":"[1,1,1,1,1,1]","location_rts":"[441,39,153,36,75,69]","trial_type":"fractal-mutation","trial_index":66,"time_elapsed":4209609,"internal_node_id":"0.0-5.0-27.0"},{"group":"dihedral group of order 12","fractal_assignment":["../images/grn_prp.png","../images/pnk_blu.png","../images/grn_blu.png","../images/blu_wht.png","../images/ylw_pnk.png","../images/ylw_slt.png","../images/gry_blk.png","../images/cyn_red.png","../images/grn_red.png","../images/wht_red.png","../images/red_prp.png","../images/org_blu.png"],"mutagen_generator_assignment":[1,0],"goal":5,"start":1,"action_noise":0.15,"location_history":"[1,2,3,4,5]","action_history":"[0,0,0,0]","mutagen_history":"[1,1,1,1]","location_rts":"[16,171,429,390]","trial_type":"fractal-mutation","trial_index":67,"time_elapsed":4218767,"internal_node_id":"0.0-5.0-28.0"},{"group":"dihedral group of order 12","fractal_assignment":["../images/grn_prp.png","../images/pnk_blu.png","../images/grn_blu.png","../images/blu_wht.png","../images/ylw_pnk.png","../images/ylw_slt.png","../images/gry_blk.png","../images/cyn_red.png","../images/grn_red.png","../images/wht_red.png","../images/red_prp.png","../images/org_blu.png"],"mutagen_generator_assignment":[1,0],"goal":9,"start":5,"action_noise":0.15,"location_history":"[5,0,6,11,10,9]","action_history":"[0,0,0,0,0]","mutagen_history":"[1,1,1,1,1]","location_rts":"[222,134,40,1800,0]","trial_type":"fractal-mutation","trial_index":68,"time_elapsed":4230271,"internal_node_id":"0.0-5.0-29.0"},{"group":"dihedral group of order 12","fractal_assignment":["../images/grn_prp.png","../images/pnk_blu.png","../images/grn_blu.png","../images/blu_wht.png","../images/ylw_pnk.png","../images/ylw_slt.png","../images/gry_blk.png","../images/cyn_red.png","../images/grn_red.png","../images/wht_red.png","../images/red_prp.png","../images/org_blu.png"],"mutagen_generator_assignment":[1,0],"goal":10,"start":9,"action_noise":0.15,"location_history":"[9,8,7,6,11,10]","action_history":"[0,0,0,0,0]","mutagen_history":"[1,1,1,1,1]","location_rts":"[507,71,16,110,84]","trial_type":"fractal-mutation","trial_index":69,"time_elapsed":4240379,"internal_node_id":"0.0-5.0-30.0"},{"group":"dihedral group of order 12","fractal_assignment":["../images/grn_prp.png","../images/pnk_blu.png","../images/grn_blu.png","../images/blu_wht.png","../images/ylw_pnk.png","../images/ylw_slt.png","../images/gry_blk.png","../images/cyn_red.png","../images/grn_red.png","../images/wht_red.png","../images/red_prp.png","../images/org_blu.png"],"mutagen_generator_assignment":[1,0],"goal":0,"start":10,"action_noise":0.15,"location_history":"[10,9,8,2,3,9,8,7,1,2,3,4,10,9,8,7,1,2,8,7,6,0]","action_history":"[0,0,0,0,1,0,0,0,0,0,0,0,0,0,0,1,0,1,0,0,1]","mutagen_history":"[1,1,1,1,0,1,1,1,1,1,1,1,1,1,1,0,1,0,1,1,0]","location_rts":"[80,665,119,807,387,602,86,198,89,78,96,363,2,31,656,813,546,722,285,630,511]","trial_type":"fractal-mutation","trial_index":70,"time_elapsed":4275718,"internal_node_id":"0.0-5.0-31.0"},{"group":"dihedral group of order 12","fractal_assignment":["../images/grn_prp.png","../images/pnk_blu.png","../images/grn_blu.png","../images/blu_wht.png","../images/ylw_pnk.png","../images/ylw_slt.png","../images/gry_blk.png","../images/cyn_red.png","../images/grn_red.png","../images/wht_red.png","../images/red_prp.png","../images/org_blu.png"],"mutagen_generator_assignment":[1,0],"goal":7,"start":0,"action_noise":0.15,"location_history":"[0,1,2,8,7]","action_history":"[0,1,0,0]","mutagen_history":"[1,0,1,1]","location_rts":"[243,716,294,57]","trial_type":"fractal-mutation","trial_index":71,"time_elapsed":4285099,"internal_node_id":"0.0-5.0-32.0"},{"group":"dihedral group of order 12","fractal_assignment":["../images/grn_prp.png","../images/pnk_blu.png","../images/grn_blu.png","../images/blu_wht.png","../images/ylw_pnk.png","../images/ylw_slt.png","../images/gry_blk.png","../images/cyn_red.png","../images/grn_red.png","../images/wht_red.png","../images/red_prp.png","../images/org_blu.png"],"mutagen_generator_assignment":[1,0],"goal":11,"start":7,"action_noise":0.15,"location_history":"[7,6,11]","action_history":"[0,0]","mutagen_history":"[1,1]","location_rts":"[507,66]","trial_type":"fractal-mutation","trial_index":72,"time_elapsed":4291491,"internal_node_id":"0.0-5.0-33.0"},{"group":"dihedral group of order 12","fractal_assignment":["../images/grn_prp.png","../images/pnk_blu.png","../images/grn_blu.png","../images/blu_wht.png","../images/ylw_pnk.png","../images/ylw_slt.png","../images/gry_blk.png","../images/cyn_red.png","../images/grn_red.png","../images/wht_red.png","../images/red_prp.png","../images/org_blu.png"],"mutagen_generator_assignment":[1,0],"goal":2,"start":11,"action_noise":0.15,"location_history":"[11,10,9,8,2]","action_history":"[0,0,0,1]","mutagen_history":"[1,1,1,0]","location_rts":"[327,115,310,462]","trial_type":"fractal-mutation","trial_index":73,"time_elapsed":4300775,"internal_node_id":"0.0-5.0-34.0"},{"view_history":"[{\"page_index\":0,\"viewing_time\":2385}]","rt":2385,"trial_type":"instructions","trial_index":74,"time_elapsed":4304162,"internal_node_id":"0.0-6.0"},{"rt":28195,"responses":"{\"Q0\":\"To see how people do something completely random?\"}","trial_type":"survey-text","trial_index":75,"time_elapsed":4333365,"internal_node_id":"0.0-7.0-0.0"},{"rt":20188,"responses":"{\"Q0\":\"To compare how people learn patterns to how they do something completely random (1st experiment)\"}","trial_type":"survey-text","trial_index":76,"time_elapsed":4354556,"internal_node_id":"0.0-7.0-1.0"},{"rt":5080,"responses":"{\"Q0\":\"1\"}","trial_type":"survey-likert","trial_index":77,"time_elapsed":4360640,"internal_node_id":"0.0-7.0-2.0"},{"rt":22873,"responses":"{\"Q0\":\"None really outside of the fact you had 2 options to choose from everytime.\"}","trial_type":"survey-text","trial_index":78,"time_elapsed":4384515,"internal_node_id":"0.0-7.0-3.0"},{"rt":9021,"responses":"{\"Q0\":\"No\"}","trial_type":"survey-multi-choice","trial_index":79,"time_elapsed":4394543,"internal_node_id":"0.0-7.0-4.0"},{"rt":12786,"responses":"{\"Q0\":\"Did not notice\"}","trial_type":"survey-multi-choice","trial_index":80,"time_elapsed":4408331,"internal_node_id":"0.0-7.0-5.0"},{"rt":2495,"responses":"{\"Q0\":\"\"}","trial_type":"survey-text","trial_index":81,"time_elapsed":4411828,"internal_node_id":"0.0-7.0-6.0"},{"rt":7036,"responses":"{\"Q0\":\"1\"}","trial_type":"survey-likert","trial_index":82,"time_elapsed":4419866,"internal_node_id":"0.0-7.0-7.0"},{"rt":7745,"responses":"{\"Q0\":\"Different structure\"}","trial_type":"survey-multi-choice","trial_index":83,"time_elapsed":4428613,"internal_node_id":"0.0-7.0-8.0"},{"rt":20142,"responses":"{\"Q0\":\"white door = acid, black door = ray\",\"Q1\":\"Not at all confident\"}","trial_type":"survey-multi-choice","trial_index":84,"time_elapsed":4449759,"internal_node_id":"0.0-7.0-9.0"},{"rt":5662,"responses":"{\"Q0\":\"25-35\",\"Q1\":\"Some college\",\"Q2\":\"Male\",\"Q3\":\"White\"}","trial_type":"survey-multi-choice","trial_index":85,"time_elapsed":4456429,"internal_node_id":"0.0-8.0"},{"rt":1731,"responses":"{\"Q0\":\"\"}","trial_type":"survey-text","trial_index":86,"time_elapsed":4459161,"internal_node_id":"0.0-9.0"}]