[{"view_history":"[{\"page_index\":0,\"viewing_time\":1866},{\"page_index\":1,\"viewing_time\":2968}]","rt":4834,"trial_type":"instructions","trial_index":0,"time_elapsed":4834,"internal_node_id":"0.0-0.0"},{"view_history":"[{\"page_index\":0,\"viewing_time\":2710},{\"page_index\":1,\"viewing_time\":2602}]","rt":5313,"trial_type":"instructions","trial_index":1,"time_elapsed":11148,"internal_node_id":"0.0-1.0"},{"group":"dihedral group of order 12","room_assignment":["olive","grey","red","blue","brown","yellow","cyan","pink","orange","green","purple","ivory"],"door_color_assignment":["white","black"],"door_generator_assignment":[1,0],"goal":7,"start":3,"action_noise":0.15,"location_history":"[3,4,5,0,1,2,3,4,5,0,1,2,3,4,10,4,10,9,3,4,10,9,3,9,3,9,8,7]","action_history":"[0,0,0,0,0,0,0,0,0,0,1,0,0,1,1,1,0,1,0,1,0,1,1,1,1,0,0]","door_history":"[1,1,1,1,1,1,1,1,1,1,0,1,1,0,0,0,1,0,1,0,1,0,0,0,0,1,1]","location_rts":"[1860,666,580,679,684,658,679,1013,1525,600,1171,3088,1237,740,754,978,764,1447,859,987,820,1043,750,737,1189,544,1453]","trial_type":"two-door-navigation","trial_index":2,"time_elapsed":69685,"internal_node_id":"0.0-2.0-0.0"},{"group":"dihedral group of order 12","room_assignment":["olive","grey","red","blue","brown","yellow","cyan","pink","orange","green","purple","ivory"],"door_color_assignment":["white","black"],"door_generator_assignment":[1,0],"goal":5,"start":7,"action_noise":0.15,"location_history":"[7,6,11,10,4,10,9,8,7,6,0,1,2,3,4,10,9,3,4,5]","action_history":"[0,0,0,1,0,0,0,0,0,0,0,0,0,0,1,0,0,0,0]","door_history":"[1,1,1,0,1,1,1,1,1,1,1,1,1,1,0,1,1,1,1]","location_rts":"[7943,2905,3284,3670,1317,1930,7954,3649,712,658,702,805,617,735,985,1107,4518,675,800]","trial_type":"two-door-navigation","trial_index":3,"time_elapsed":137558,"internal_node_id":"0.0-2.0-1.0"},{"group":"dihedral group of order 12","room_assignment":["olive","grey","red","blue","brown","yellow","cyan","pink","orange","green","purple","ivory"],"door_color_assignment":["white","black"],"door_generator_assignment":[1,0],"goal":0,"start":5,"action_noise":0.15,"location_history":"[5,0]","action_history":"[0]","door_history":"[1]","location_rts":"[1337]","trial_type":"two-door-navigation","trial_index":4,"time_elapsed":143418,"internal_node_id":"0.0-2.0-2.0"},{"group":"dihedral group of order 12","room_assignment":["olive","grey","red","blue","brown","yellow","cyan","pink","orange","green","purple","ivory"],"door_color_assignment":["white","black"],"door_generator_assignment":[1,0],"goal":2,"start":0,"action_noise":0.15,"location_history":"[0,1,2]","action_history":"[0,0]","door_history":"[1,1]","location_rts":"[5171,597]","trial_type":"two-door-navigation","trial_index":5,"time_elapsed":154732,"internal_node_id":"0.0-2.0-3.0"},{"group":"dihedral group of order 12","room_assignment":["olive","grey","red","blue","brown","yellow","cyan","pink","orange","green","purple","ivory"],"door_color_assignment":["white","black"],"door_generator_assignment":[1,0],"goal":10,"start":2,"action_noise":0.15,"location_history":"[2,3,4,5,0,1,7,6,11,10]","action_history":"[0,0,0,0,0,0,0,0,0]","door_history":"[1,1,1,1,1,1,1,1,1]","location_rts":"[1119,565,618,595,766,665,817,954,714]","trial_type":"two-door-navigation","trial_index":6,"time_elapsed":174236,"internal_node_id":"0.0-2.0-4.0"},{"group":"dihedral group of order 12","room_assignment":["olive","grey","red","blue","brown","yellow","cyan","pink","orange","green","purple","ivory"],"door_color_assignment":["white","black"],"door_generator_assignment":[1,0],"goal":8,"start":10,"action_noise":0.15,"location_history":"[10,9,8]","action_history":"[0,0]","door_history":"[1,1]","location_rts":"[1657,748]","trial_type":"two-door-navigation","trial_index":7,"time_elapsed":182189,"internal_node_id":"0.0-2.0-5.0"},{"group":"dihedral group of order 12","room_assignment":["olive","grey","red","blue","brown","yellow","cyan","pink","orange","green","purple","ivory"],"door_color_assignment":["white","black"],"door_generator_assignment":[1,0],"goal":11,"start":8,"action_noise":0.15,"location_history":"[8,7,6,11]","action_history":"[0,0,0]","door_history":"[1,1,1]","location_rts":"[1227,841,610]","trial_type":"two-door-navigation","trial_index":8,"time_elapsed":191427,"internal_node_id":"0.0-2.0-6.0"},{"group":"dihedral group of order 12","room_assignment":["olive","grey","red","blue","brown","yellow","cyan","pink","orange","green","purple","ivory"],"door_color_assignment":["white","black"],"door_generator_assignment":[1,0],"goal":6,"start":11,"action_noise":0.15,"location_history":"[11,10,9,8,7,6]","action_history":"[0,0,0,0,0]","door_history":"[1,1,1,1,1]","location_rts":"[2636,3819,906,663,716]","trial_type":"two-door-navigation","trial_index":9,"time_elapsed":208770,"internal_node_id":"0.0-2.0-7.0"},{"group":"dihedral group of order 12","room_assignment":["olive","grey","red","blue","brown","yellow","cyan","pink","orange","green","purple","ivory"],"door_color_assignment":["white","black"],"door_generator_assignment":[1,0],"goal":4,"start":6,"action_noise":0.15,"location_history":"[6,11,5,0,1,2,3,4]","action_history":"[0,1,0,0,0,0,0]","door_history":"[1,0,1,1,1,1,1]","location_rts":"[2380,741,617,973,4447,3125,2625]","trial_type":"two-door-navigation","trial_index":10,"time_elapsed":234321,"internal_node_id":"0.0-2.0-8.0"},{"group":"dihedral group of order 12","room_assignment":["olive","grey","red","blue","brown","yellow","cyan","pink","orange","green","purple","ivory"],"door_color_assignment":["white","black"],"door_generator_assignment":[1,0],"goal":1,"start":4,"action_noise":0.15,"location_history":"[4,5,0,1]","action_history":"[0,0,0]","door_history":"[1,1,1]","location_rts":"[3527,633,792]","trial_type":"two-door-navigation","trial_index":11,"time_elapsed":245846,"internal_node_id":"0.0-2.0-9.0"},{"group":"dihedral group of order 12","room_assignment":["olive","grey","red","blue","brown","yellow","cyan","pink","orange","green","purple","ivory"],"door_color_assignment":["white","black"],"door_generator_assignment":[1,0],"goal":9,"start":1,"action_noise":0.15,"location_history":"[1,2,3,4,10,9]","action_history":"[0,0,0,0,0]","door_history":"[1,1,1,1,1]","location_rts":"[1939,778,809,611,661]","trial_type":"two-door-navigation","trial_index":12,"time_elapsed":259249,"internal_node_id":"0.0-2.0-10.0"},{"group":"dihedral group of order 12","room_assignment":["olive","grey","red","blue","brown","yellow","cyan","pink","orange","green","purple","ivory"],"door_color_assignment":["white","black"],"door_generator_assignment":[1,0],"goal":10,"start":9,"action_noise":0.15,"location_history":"[9,8,7,6,11,10]","action_history":"[0,0,0,0,0]","door_history":"[1,1,1,1,1]","location_rts":"[1728,656,799,682,636]","trial_type":"two-door-navigation","trial_index":13,"time_elapsed":272363,"internal_node_id":"0.0-2.0-11.0"},{"group":"dihedral group of order 12","room_assignment":["olive","grey","red","blue","brown","yellow","cyan","pink","orange","green","purple","ivory"],"door_color_assignment":["white","black"],"door_generator_assignment":[1,0],"goal":2,"start":10,"action_noise":0.15,"location_history":"[10,9,8,2]","action_history":"[0,0,0]","door_history":"[1,1,1]","location_rts":"[1462,594,592]","trial_type":"two-door-navigation","trial_index":14,"time_elapsed":281580,"internal_node_id":"0.0-2.0-12.0"},{"group":"dihedral group of order 12","room_assignment":["olive","grey","red","blue","brown","yellow","cyan","pink","orange","green","purple","ivory"],"door_color_assignment":["white","black"],"door_generator_assignment":[1,0],"goal":0,"start":2,"action_noise":0.15,"location_history":"[2,3,4,5,0]","action_history":"[0,0,0,0]","door_history":"[1,1,1,1]","location_rts":"[1254,606,594,884]","trial_type":"two-door-navigation","trial_index":15,"time_elapsed":292499,"internal_node_id":"0.0-2.0-13.0"},{"group":"dihedral group of order 12","room_assignment":["olive","grey","red","blue","brown","yellow","cyan","pink","orange","green","purple","ivory"],"door_color_assignment":["white","black"],"door_generator_assignment":[1,0],"goal":9,"start":0,"action_noise":0.15,"location_history":"[0,1,2,3,4,5,0,6,11,5,0,1,2,8,7,6,11,10,9]","action_history":"[0,0,0,0,0,0,0,0,0,0,0,0,0,0,0,0,0,0]","door_history":"[1,1,1,1,1,1,1,1,1,1,1,1,1,1,1,1,1,1]","location_rts":"[2585,689,1414,662,841,620,1291,4240,1027,3809,5910,1172,1809,1147,907,635,762,1101]","trial_type":"two-door-navigation","trial_index":16,"time_elapsed":345003,"internal_node_id":"0.0-2.0-14.0"},{"group":"dihedral group of order 12","room_assignment":["olive","grey","red","blue","brown","yellow","cyan","pink","orange","green","purple","ivory"],"door_color_assignment":["white","black"],"door_generator_assignment":[1,0],"goal":8,"start":9,"action_noise":0.15,"location_history":"[9,8]","action_history":"[0]","door_history":"[1]","location_rts":"[2121]","trial_type":"two-door-navigation","trial_index":17,"time_elapsed":351649,"internal_node_id":"0.0-2.0-15.0"},{"group":"dihedral group of order 12","room_assignment":["olive","grey","red","blue","brown","yellow","cyan","pink","orange","green","purple","ivory"],"door_color_assignment":["white","black"],"door_generator_assignment":[1,0],"goal":6,"start":8,"action_noise":0.15,"location_history":"[8,7,6]","action_history":"[0,0]","door_history":"[1,1]","location_rts":"[1628,636]","trial_type":"two-door-navigation","trial_index":18,"time_elapsed":359454,"internal_node_id":"0.0-2.0-16.0"},{"group":"dihedral group of order 12","room_assignment":["olive","grey","red","blue","brown","yellow","cyan","pink","orange","green","purple","ivory"],"door_color_assignment":["white","black"],"door_generator_assignment":[1,0],"goal":1,"start":6,"action_noise":0.15,"location_history":"[6,11,5,0,1]","action_history":"[0,0,0,0]","door_history":"[1,1,1,1]","location_rts":"[1458,669,570,723]","trial_type":"two-door-navigation","trial_index":19,"time_elapsed":370456,"internal_node_id":"0.0-2.0-17.0"},{"group":"dihedral group of order 12","room_assignment":["olive","grey","red","blue","brown","yellow","cyan","pink","orange","green","purple","ivory"],"door_color_assignment":["white","black"],"door_generator_assignment":[1,0],"goal":4,"start":1,"action_noise":0.15,"location_history":"[1,2,3,4]","action_history":"[0,0,0]","door_history":"[1,1,1]","location_rts":"[1294,659,639]","trial_type":"two-door-navigation","trial_index":20,"time_elapsed":379614,"internal_node_id":"0.0-2.0-18.0"},{"group":"dihedral group of order 12","room_assignment":["olive","grey","red","blue","brown","yellow","cyan","pink","orange","green","purple","ivory"],"door_color_assignment":["white","black"],"door_generator_assignment":[1,0],"goal":11,"start":4,"action_noise":0.15,"location_history":"[4,5,0,1,2,8,2,3,9,8,7,6,11]","action_history":"[0,0,0,0,0,0,0,0,0,0,0,0]","door_history":"[1,1,1,1,1,1,1,1,1,1,1,1]","location_rts":"[1661,637,666,1346,686,661,659,638,535,882,764,557]","trial_type":"two-door-navigation","trial_index":21,"time_elapsed":405054,"internal_node_id":"0.0-2.0-19.0"},{"group":"dihedral group of order 12","room_assignment":["olive","grey","red","blue","brown","yellow","cyan","pink","orange","green","purple","ivory"],"door_color_assignment":["white","black"],"door_generator_assignment":[1,0],"goal":3,"start":11,"action_noise":0.15,"location_history":"[11,10,9,8,7,6,11,5,0,1,2,3]","action_history":"[0,0,0,0,0,0,0,0,0,0,0]","door_history":"[1,1,1,1,1,1,1,1,1,1,1]","location_rts":"[1239,715,698,661,681,515,658,987,701,868,678]","trial_type":"two-door-navigation","trial_index":22,"time_elapsed":428186,"internal_node_id":"0.0-2.0-20.0"},{"group":"dihedral group of order 12","room_assignment":["olive","grey","red","blue","brown","yellow","cyan","pink","orange","green","purple","ivory"],"door_color_assignment":["white","black"],"door_generator_assignment":[1,0],"goal":5,"start":3,"action_noise":0.15,"location_history":"[3,9,8,2,3,4,5]","action_history":"[0,0,0,0,0,0]","door_history":"[1,1,1,1,1,1]","location_rts":"[1397,3020,703,816,725,640]","trial_type":"two-door-navigation","trial_index":23,"time_elapsed":445111,"internal_node_id":"0.0-2.0-21.0"},{"group":"dihedral group of order 12","room_assignment":["olive","grey","red","blue","brown","yellow","cyan","pink","orange","green","purple","ivory"],"door_color_assignment":["white","black"],"door_generator_assignment":[1,0],"goal":7,"start":5,"action_noise":0.15,"location_history":"[5,0,6,11,10,9,8,7]","action_history":"[0,0,0,1,0,0,0]","door_history":"[1,1,1,0,1,1,1]","location_rts":"[1760,931,1296,1500,718,596,658]","trial_type":"two-door-navigation","trial_index":24,"time_elapsed":463219,"internal_node_id":"0.0-2.0-22.0"},{"group":"dihedral group of order 12","room_assignment":["olive","grey","red","blue","brown","yellow","cyan","pink","orange","green","purple","ivory"],"door_color_assignment":["white","black"],"door_generator_assignment":[1,0],"goal":3,"start":7,"action_noise":0.15,"location_history":"[7,6,0,1,2,3]","action_history":"[0,0,0,0,0]","door_history":"[1,1,1,1,1]","location_rts":"[1555,645,844,701,854]","trial_type":"two-door-navigation","trial_index":25,"time_elapsed":476419,"internal_node_id":"0.0-2.0-23.0"},{"group":"dihedral group of order 12","room_assignment":["olive","grey","red","blue","brown","yellow","cyan","pink","orange","green","purple","ivory"],"door_color_assignment":["white","black"],"door_generator_assignment":[1,0],"goal":4,"start":3,"action_noise":0.15,"location_history":"[3,4]","action_history":"[0]","door_history":"[1]","location_rts":"[2470]","trial_type":"two-door-navigation","trial_index":26,"time_elapsed":483415,"internal_node_id":"0.0-2.0-24.0"},{"group":"dihedral group of order 12","room_assignment":["olive","grey","red","blue","brown","yellow","cyan","pink","orange","green","purple","ivory"],"door_color_assignment":["white","black"],"door_generator_assignment":[1,0],"goal":8,"start":4,"action_noise":0.15,"location_history":"[4,5,0,1,2,3,4,5,0,1,2,3,4,5,0,1,2,3,4,5,0,1,7,6,11,10,9,3,4,5,0,1,2,3,4,5,0,1,2,3,4,5,0,1,2,8]","action_history":"[0,0,0,0,0,0,0,0,0,0,0,0,0,0,0,0,0,0,0,0,0,0,0,0,0,0,0,0,0,0,0,0,1,0,0,0,0,0,0,0,0,0,0,0,1]","door_history":"[1,1,1,1,1,1,1,1,1,1,1,1,1,1,1,1,1,1,1,1,1,1,1,1,1,1,1,1,1,1,1,1,0,1,1,1,1,1,1,1,1,1,1,1,0]","location_rts":"[1417,613,787,995,699,707,774,842,736,1051,841,1319,1209,2013,1067,1249,2195,915,1670,675,595,588,859,764,702,948,725,652,818,776,766,835,2405,1541,576,881,884,646,781,1394,802,3084,655,616,1462]","trial_type":"two-door-navigation","trial_index":27,"time_elapsed":579374,"internal_node_id":"0.0-2.0-25.0"},{"group":"dihedral group of order 12","room_assignment":["olive","grey","red","blue","brown","yellow","cyan","pink","orange","green","purple","ivory"],"door_color_assignment":["white","black"],"door_generator_assignment":[1,0],"goal":6,"start":8,"action_noise":0.15,"location_history":"[8,7,6]","action_history":"[0,0]","door_history":"[1,1]","location_rts":"[3367,568]","trial_type":"two-door-navigation","trial_index":28,"time_elapsed":588852,"internal_node_id":"0.0-2.0-26.0"},{"group":"dihedral group of order 12","room_assignment":["olive","grey","red","blue","brown","yellow","cyan","pink","orange","green","purple","ivory"],"door_color_assignment":["white","black"],"door_generator_assignment":[1,0],"goal":1,"start":6,"action_noise":0.15,"location_history":"[6,11,5,0,6,11,5,0,6,11,10,4,5,0,1]","action_history":"[0,0,0,0,0,0,0,0,0,0,0,0,0,0]","door_history":"[1,1,1,1,1,1,1,1,1,1,1,1,1,1]","location_rts":"[1630,572,708,863,758,887,553,843,704,686,847,784,744,904]","trial_type":"two-door-navigation","trial_index":29,"time_elapsed":618112,"internal_node_id":"0.0-2.0-27.0"},{"group":"dihedral group of order 12","room_assignment":["olive","grey","red","blue","brown","yellow","cyan","pink","orange","green","purple","ivory"],"door_color_assignment":["white","black"],"door_generator_assignment":[1,0],"goal":5,"start":1,"action_noise":0.15,"location_history":"[1,7,6,0,6,11,5]","action_history":"[0,0,0,1,0,1]","door_history":"[1,1,1,0,1,0]","location_rts":"[1564,3280,676,641,583,794]","trial_type":"two-door-navigation","trial_index":30,"time_elapsed":635281,"internal_node_id":"0.0-2.0-28.0"},{"group":"dihedral group of order 12","room_assignment":["olive","grey","red","blue","brown","yellow","cyan","pink","orange","green","purple","ivory"],"door_color_assignment":["white","black"],"door_generator_assignment":[1,0],"goal":9,"start":5,"action_noise":0.15,"location_history":"[5,0,1,2,3,9]","action_history":"[0,0,0,0,1]","door_history":"[1,1,1,1,0]","location_rts":"[6847,963,609,738,1277]","trial_type":"two-door-navigation","trial_index":31,"time_elapsed":654311,"internal_node_id":"0.0-2.0-29.0"},{"group":"dihedral group of order 12","room_assignment":["olive","grey","red","blue","brown","yellow","cyan","pink","orange","green","purple","ivory"],"door_color_assignment":["white","black"],"door_generator_assignment":[1,0],"goal":10,"start":9,"action_noise":0.15,"location_history":"[9,3,4,5,11,10]","action_history":"[0,0,0,0,0]","door_history":"[1,1,1,1,1]","location_rts":"[2165,965,797,636,592]","trial_type":"two-door-navigation","trial_index":32,"time_elapsed":668073,"internal_node_id":"0.0-2.0-30.0"},{"group":"dihedral group of order 12","room_assignment":["olive","grey","red","blue","brown","yellow","cyan","pink","orange","green","purple","ivory"],"door_color_assignment":["white","black"],"door_generator_assignment":[1,0],"goal":0,"start":10,"action_noise":0.15,"location_history":"[10,9,8,7,1,2,3,4,5,0]","action_history":"[0,0,0,0,0,0,0,0,0]","door_history":"[1,1,1,1,1,1,1,1,1]","location_rts":"[4844,1096,549,780,821,791,689,858,883]","trial_type":"two-door-navigation","trial_index":33,"time_elapsed":692068,"internal_node_id":"0.0-2.0-31.0"},{"group":"dihedral group of order 12","room_assignment":["olive","grey","red","blue","brown","yellow","cyan","pink","orange","green","purple","ivory"],"door_color_assignment":["white","black"],"door_generator_assignment":[1,0],"goal":7,"start":0,"action_noise":0.15,"location_history":"[0,6,11,10,9,8,7]","action_history":"[0,0,0,0,0,0]","door_history":"[1,1,1,1,1,1]","location_rts":"[2302,733,1034,658,575,621]","trial_type":"two-door-navigation","trial_index":34,"time_elapsed":707616,"internal_node_id":"0.0-2.0-32.0"},{"group":"dihedral group of order 12","room_assignment":["olive","grey","red","blue","brown","yellow","cyan","pink","orange","green","purple","ivory"],"door_color_assignment":["white","black"],"door_generator_assignment":[1,0],"goal":11,"start":7,"action_noise":0.15,"location_history":"[7,6,11]","action_history":"[0,0]","door_history":"[1,1]","location_rts":"[2894,817]","trial_type":"two-door-navigation","trial_index":35,"time_elapsed":716871,"internal_node_id":"0.0-2.0-33.0"},{"group":"dihedral group of order 12","room_assignment":["olive","grey","red","blue","brown","yellow","cyan","pink","orange","green","purple","ivory"],"door_color_assignment":["white","black"],"door_generator_assignment":[1,0],"goal":2,"start":11,"action_noise":0.15,"location_history":"[11,10,9,3,4,10,9,8,7,6,11,10,4,10,9,8,7,6,11,10,9,8,7,6,0,1,7,6,11,10,9,8,7,6,11,10,9,3,4,5,0,1,2]","action_history":"[0,0,0,0,0,0,0,0,0,0,0,0,0,0,0,0,0,0,0,0,0,0,0,0,0,0,0,0,0,0,0,0,0,0,0,0,0,0,0,0,0,0]","door_history":"[1,1,1,1,1,1,1,1,1,1,1,1,1,1,1,1,1,1,1,1,1,1,1,1,1,1,1,1,1,1,1,1,1,1,1,1,1,1,1,1,1,1]","location_rts":"[2016,604,713,633,709,795,625,631,613,645,767,742,2629,577,576,616,560,760,768,474,4148,737,1185,1162,591,3707,1477,1134,1329,1194,843,85,1013,759,929,1091,688,659,872,696,882,2565]","trial_type":"two-door-navigation","trial_index":36,"time_elapsed":807445,"internal_node_id":"0.0-2.0-34.0"},{"view_history":"[{\"page_index\":0,\"viewing_time\":2450}]","rt":2450,"trial_type":"instructions","trial_index":37,"time_elapsed":810896,"internal_node_id":"0.0-3.0"},{"view_history":"[{\"page_index\":0,\"viewing_time\":1842},{\"page_index\":1,\"viewing_time\":2212}]","rt":4055,"trial_type":"instructions","trial_index":38,"time_elapsed":815953,"internal_node_id":"0.0-4.0"},{"group":"dicyclic group of order 12","fractal_assignment":["../images/wht_red.png","../images/org_blu.png","../images/pnk_blu.png","../images/grn_red.png","../images/grn_prp.png","../images/red_prp.png","../images/blu_wht.png","../images/grn_blu.png","../images/gry_blk.png","../images/ylw_slt.png","../images/cyn_red.png","../images/ylw_pnk.png"],"mutagen_generator_assignment":[0,1],"goal":7,"start":3,"action_noise":0.15,"location_history":"[3,0,1,5,10,7]","action_history":"[0,0,1,0,0]","mutagen_history":"[0,0,1,0,0]","location_rts":"[4050,694,769,1571,921]","trial_type":"fractal-mutation","trial_index":39,"time_elapsed":832748,"internal_node_id":"0.0-5.0-0.0"},{"group":"dicyclic group of order 12","fractal_assignment":["../images/wht_red.png","../images/org_blu.png","../images/pnk_blu.png","../images/grn_red.png","../images/grn_prp.png","../images/red_prp.png","../images/blu_wht.png","../images/grn_blu.png","../images/gry_blk.png","../images/ylw_slt.png","../images/cyn_red.png","../images/ylw_pnk.png"],"mutagen_generator_assignment":[0,1],"goal":5,"start":7,"action_noise":0.15,"location_history":"[7,8,0,1,5]","action_history":"[0,0,0,1]","mutagen_history":"[0,0,0,1]","location_rts":"[1781,700,685,1078]","trial_type":"fractal-mutation","trial_index":40,"time_elapsed":844726,"internal_node_id":"0.0-5.0-1.0"},{"group":"dicyclic group of order 12","fractal_assignment":["../images/wht_red.png","../images/org_blu.png","../images/pnk_blu.png","../images/grn_red.png","../images/grn_prp.png","../images/red_prp.png","../images/blu_wht.png","../images/grn_blu.png","../images/gry_blk.png","../images/ylw_slt.png","../images/cyn_red.png","../images/ylw_pnk.png"],"mutagen_generator_assignment":[0,1],"goal":0,"start":5,"action_noise":0.15,"location_history":"[5,10,7,8,5,9,6,11,4,9,1,2,3,0]","action_history":"[0,0,0,0,1,0,0,0,0,1,0,0,0]","mutagen_history":"[0,0,0,0,1,0,0,0,0,1,0,0,0]","location_rts":"[1555,591,629,597,1045,1037,683,835,736,1070,714,759,961]","trial_type":"fractal-mutation","trial_index":41,"time_elapsed":873161,"internal_node_id":"0.0-5.0-2.0"},{"group":"dicyclic group of order 12","fractal_assignment":["../images/wht_red.png","../images/org_blu.png","../images/pnk_blu.png","../images/grn_red.png","../images/grn_prp.png","../images/red_prp.png","../images/blu_wht.png","../images/grn_blu.png","../images/gry_blk.png","../images/ylw_slt.png","../images/cyn_red.png","../images/ylw_pnk.png"],"mutagen_generator_assignment":[0,1],"goal":2,"start":0,"action_noise":0.15,"location_history":"[0,4,9,6,10,7,11,3,0,4,9,6,10,2]","action_history":"[1,0,0,0,0,1,1,0,1,0,0,1,1]","mutagen_history":"[1,0,0,0,0,1,1,0,1,0,0,1,1]","location_rts":"[1673,730,623,1181,967,1306,1150,846,1246,1011,686,1199,719]","trial_type":"fractal-mutation","trial_index":42,"time_elapsed":903802,"internal_node_id":"0.0-5.0-3.0"},{"group":"dicyclic group of order 12","fractal_assignment":["../images/wht_red.png","../images/org_blu.png","../images/pnk_blu.png","../images/grn_red.png","../images/grn_prp.png","../images/red_prp.png","../images/blu_wht.png","../images/grn_blu.png","../images/gry_blk.png","../images/ylw_slt.png","../images/cyn_red.png","../images/ylw_pnk.png"],"mutagen_generator_assignment":[0,1],"goal":10,"start":2,"action_noise":0.15,"location_history":"[2,6,10]","action_history":"[0,1]","mutagen_history":"[0,1]","location_rts":"[2202,854]","trial_type":"fractal-mutation","trial_index":43,"time_elapsed":912482,"internal_node_id":"0.0-5.0-4.0"},{"group":"dicyclic group of order 12","fractal_assignment":["../images/wht_red.png","../images/org_blu.png","../images/pnk_blu.png","../images/grn_red.png","../images/grn_prp.png","../images/red_prp.png","../images/blu_wht.png","../images/grn_blu.png","../images/gry_blk.png","../images/ylw_slt.png","../images/cyn_red.png","../images/ylw_pnk.png"],"mutagen_generator_assignment":[0,1],"goal":8,"start":10,"action_noise":0.15,"location_history":"[10,7,8]","action_history":"[0,0]","mutagen_history":"[0,0]","location_rts":"[1440,566]","trial_type":"fractal-mutation","trial_index":44,"time_elapsed":920091,"internal_node_id":"0.0-5.0-5.0"},{"group":"dicyclic group of order 12","fractal_assignment":["../images/wht_red.png","../images/org_blu.png","../images/pnk_blu.png","../images/grn_red.png","../images/grn_prp.png","../images/red_prp.png","../images/blu_wht.png","../images/grn_blu.png","../images/gry_blk.png","../images/ylw_slt.png","../images/cyn_red.png","../images/ylw_pnk.png"],"mutagen_generator_assignment":[0,1],"goal":11,"start":8,"action_noise":0.15,"location_history":"[8,5,10,7,8,0,4,8,5,9,6,11]","action_history":"[0,0,0,0,1,0,0,1,1,0,0]","mutagen_history":"[0,0,0,0,1,0,0,1,1,0,0]","location_rts":"[1480,827,793,917,849,894,786,888,964,820,933]","trial_type":"fractal-mutation","trial_index":45,"time_elapsed":945353,"internal_node_id":"0.0-5.0-6.0"},{"group":"dicyclic group of order 12","fractal_assignment":["../images/wht_red.png","../images/org_blu.png","../images/pnk_blu.png","../images/grn_red.png","../images/grn_prp.png","../images/red_prp.png","../images/blu_wht.png","../images/grn_blu.png","../images/gry_blk.png","../images/ylw_slt.png","../images/cyn_red.png","../images/ylw_pnk.png"],"mutagen_generator_assignment":[0,1],"goal":6,"start":11,"action_noise":0.15,"location_history":"[11,4,8,5,10,7,8,5,9,6]","action_history":"[0,1,0,0,0,0,0,1,0]","mutagen_history":"[0,1,0,0,0,0,0,1,0]","location_rts":"[1488,744,1340,983,978,945,892,688,756]","trial_type":"fractal-mutation","trial_index":46,"time_elapsed":967163,"internal_node_id":"0.0-5.0-7.0"},{"group":"dicyclic group of order 12","fractal_assignment":["../images/wht_red.png","../images/org_blu.png","../images/pnk_blu.png","../images/grn_red.png","../images/grn_prp.png","../images/red_prp.png","../images/blu_wht.png","../images/grn_blu.png","../images/gry_blk.png","../images/ylw_slt.png","../images/cyn_red.png","../images/ylw_pnk.png"],"mutagen_generator_assignment":[0,1],"goal":4,"start":6,"action_noise":0.15,"location_history":"[6,11,4]","action_history":"[0,0]","mutagen_history":"[0,0]","location_rts":"[1650,630]","trial_type":"fractal-mutation","trial_index":47,"time_elapsed":975043,"internal_node_id":"0.0-5.0-8.0"},{"group":"dicyclic group of order 12","fractal_assignment":["../images/wht_red.png","../images/org_blu.png","../images/pnk_blu.png","../images/grn_red.png","../images/grn_prp.png","../images/red_prp.png","../images/blu_wht.png","../images/grn_blu.png","../images/gry_blk.png","../images/ylw_slt.png","../images/cyn_red.png","../images/ylw_pnk.png"],"mutagen_generator_assignment":[0,1],"goal":1,"start":4,"action_noise":0.15,"location_history":"[4,8,5,10,2,3,0,1]","action_history":"[1,0,0,1,1,0,0]","mutagen_history":"[1,0,0,1,1,0,0]","location_rts":"[5850,730,1199,640,1076,771,902]","trial_type":"fractal-mutation","trial_index":48,"time_elapsed":997149,"internal_node_id":"0.0-5.0-9.0"},{"group":"dicyclic group of order 12","fractal_assignment":["../images/wht_red.png","../images/org_blu.png","../images/pnk_blu.png","../images/grn_red.png","../images/grn_prp.png","../images/red_prp.png","../images/blu_wht.png","../images/grn_blu.png","../images/gry_blk.png","../images/ylw_slt.png","../images/cyn_red.png","../images/ylw_pnk.png"],"mutagen_generator_assignment":[0,1],"goal":9,"start":1,"action_noise":0.15,"location_history":"[1,5,10,7,11,4,9]","action_history":"[0,0,0,1,0,0]","mutagen_history":"[0,0,0,1,0,0]","location_rts":"[1639,641,763,1077,672,741]","trial_type":"fractal-mutation","trial_index":49,"time_elapsed":1012513,"internal_node_id":"0.0-5.0-10.0"},{"group":"dicyclic group of order 12","fractal_assignment":["../images/wht_red.png","../images/org_blu.png","../images/pnk_blu.png","../images/grn_red.png","../images/grn_prp.png","../images/red_prp.png","../images/blu_wht.png","../images/grn_blu.png","../images/gry_blk.png","../images/ylw_slt.png","../images/cyn_red.png","../images/ylw_pnk.png"],"mutagen_generator_assignment":[0,1],"goal":10,"start":9,"action_noise":0.15,"location_history":"[9,6,10]","action_history":"[0,1]","mutagen_history":"[0,1]","location_rts":"[1795,696]","trial_type":"fractal-mutation","trial_index":50,"time_elapsed":1020629,"internal_node_id":"0.0-5.0-11.0"},{"group":"dicyclic group of order 12","fractal_assignment":["../images/wht_red.png","../images/org_blu.png","../images/pnk_blu.png","../images/grn_red.png","../images/grn_prp.png","../images/red_prp.png","../images/blu_wht.png","../images/grn_blu.png","../images/gry_blk.png","../images/ylw_slt.png","../images/cyn_red.png","../images/ylw_pnk.png"],"mutagen_generator_assignment":[0,1],"goal":2,"start":10,"action_noise":0.15,"location_history":"[10,7,11,4,8,5,9,1,5,10,2]","action_history":"[0,1,1,0,0,1,1,1,0,1]","mutagen_history":"[0,1,1,0,0,1,1,1,0,1]","location_rts":"[1169,631,627,808,853,694,914,1075,1570,1186]","trial_type":"fractal-mutation","trial_index":51,"time_elapsed":1044302,"internal_node_id":"0.0-5.0-12.0"},{"group":"dicyclic group of order 12","fractal_assignment":["../images/wht_red.png","../images/org_blu.png","../images/pnk_blu.png","../images/grn_red.png","../images/grn_prp.png","../images/red_prp.png","../images/blu_wht.png","../images/grn_blu.png","../images/gry_blk.png","../images/ylw_slt.png","../images/cyn_red.png","../images/ylw_pnk.png"],"mutagen_generator_assignment":[0,1],"goal":0,"start":2,"action_noise":0.15,"location_history":"[2,3,7,11,3,0]","action_history":"[0,1,1,1,0]","mutagen_history":"[0,1,1,1,0]","location_rts":"[1663,663,628,815,535]","trial_type":"fractal-mutation","trial_index":52,"time_elapsed":1057453,"internal_node_id":"0.0-5.0-13.0"},{"group":"dicyclic group of order 12","fractal_assignment":["../images/wht_red.png","../images/org_blu.png","../images/pnk_blu.png","../images/grn_red.png","../images/grn_prp.png","../images/red_prp.png","../images/blu_wht.png","../images/grn_blu.png","../images/gry_blk.png","../images/ylw_slt.png","../images/cyn_red.png","../images/ylw_pnk.png"],"mutagen_generator_assignment":[0,1],"goal":9,"start":0,"action_noise":0.15,"location_history":"[0,1,5,9]","action_history":"[0,1,1]","mutagen_history":"[0,1,1]","location_rts":"[1489,835,909]","trial_type":"fractal-mutation","trial_index":53,"time_elapsed":1067389,"internal_node_id":"0.0-5.0-14.0"},{"group":"dicyclic group of order 12","fractal_assignment":["../images/wht_red.png","../images/org_blu.png","../images/pnk_blu.png","../images/grn_red.png","../images/grn_prp.png","../images/red_prp.png","../images/blu_wht.png","../images/grn_blu.png","../images/gry_blk.png","../images/ylw_slt.png","../images/cyn_red.png","../images/ylw_pnk.png"],"mutagen_generator_assignment":[0,1],"goal":8,"start":9,"action_noise":0.15,"location_history":"[9,6,11,4,8]","action_history":"[0,0,0,0]","mutagen_history":"[0,0,0,0]","location_rts":"[1345,781,627,671]","trial_type":"fractal-mutation","trial_index":54,"time_elapsed":1078521,"internal_node_id":"0.0-5.0-15.0"},{"group":"dicyclic group of order 12","fractal_assignment":["../images/wht_red.png","../images/org_blu.png","../images/pnk_blu.png","../images/grn_red.png","../images/grn_prp.png","../images/red_prp.png","../images/blu_wht.png","../images/grn_blu.png","../images/gry_blk.png","../images/ylw_slt.png","../images/cyn_red.png","../images/ylw_pnk.png"],"mutagen_generator_assignment":[0,1],"goal":6,"start":8,"action_noise":0.15,"location_history":"[8,5,10,7,11,4,9,6]","action_history":"[0,0,0,1,0,0,0]","mutagen_history":"[0,0,0,1,0,0,0]","location_rts":"[1670,749,680,628,621,1083,997]","trial_type":"fractal-mutation","trial_index":55,"time_elapsed":1095816,"internal_node_id":"0.0-5.0-16.0"},{"group":"dicyclic group of order 12","fractal_assignment":["../images/wht_red.png","../images/org_blu.png","../images/pnk_blu.png","../images/grn_red.png","../images/grn_prp.png","../images/red_prp.png","../images/blu_wht.png","../images/grn_blu.png","../images/gry_blk.png","../images/ylw_slt.png","../images/cyn_red.png","../images/ylw_pnk.png"],"mutagen_generator_assignment":[0,1],"goal":1,"start":6,"action_noise":0.15,"location_history":"[6,10,2,6,11,4,8,0,1]","action_history":"[0,1,1,0,0,1,1,0]","mutagen_history":"[0,1,1,0,0,1,1,0]","location_rts":"[1455,727,800,679,819,515,855,763]","trial_type":"fractal-mutation","trial_index":56,"time_elapsed":1114437,"internal_node_id":"0.0-5.0-17.0"},{"group":"dicyclic group of order 12","fractal_assignment":["../images/wht_red.png","../images/org_blu.png","../images/pnk_blu.png","../images/grn_red.png","../images/grn_prp.png","../images/red_prp.png","../images/blu_wht.png","../images/grn_blu.png","../images/gry_blk.png","../images/ylw_slt.png","../images/cyn_red.png","../images/ylw_pnk.png"],"mutagen_generator_assignment":[0,1],"goal":4,"start":1,"action_noise":0.15,"location_history":"[1,5,10,2,6,10,7,11,4]","action_history":"[1,0,1,1,1,0,1,1]","mutagen_history":"[1,0,1,1,1,0,1,1]","location_rts":"[5819,743,676,608,760,647,660,1020]","trial_type":"fractal-mutation","trial_index":57,"time_elapsed":1137418,"internal_node_id":"0.0-5.0-18.0"},{"group":"dicyclic group of order 12","fractal_assignment":["../images/wht_red.png","../images/org_blu.png","../images/pnk_blu.png","../images/grn_red.png","../images/grn_prp.png","../images/red_prp.png","../images/blu_wht.png","../images/grn_blu.png","../images/gry_blk.png","../images/ylw_slt.png","../images/cyn_red.png","../images/ylw_pnk.png"],"mutagen_generator_assignment":[0,1],"goal":11,"start":4,"action_noise":0.15,"location_history":"[4,8,5,9,6,11]","action_history":"[0,0,1,0,0]","mutagen_history":"[0,0,1,0,0]","location_rts":"[1568,690,636,615,616]","trial_type":"fractal-mutation","trial_index":58,"time_elapsed":1150310,"internal_node_id":"0.0-5.0-19.0"},{"group":"dicyclic group of order 12","fractal_assignment":["../images/wht_red.png","../images/org_blu.png","../images/pnk_blu.png","../images/grn_red.png","../images/grn_prp.png","../images/red_prp.png","../images/blu_wht.png","../images/grn_blu.png","../images/gry_blk.png","../images/ylw_slt.png","../images/cyn_red.png","../images/ylw_pnk.png"],"mutagen_generator_assignment":[0,1],"goal":3,"start":11,"action_noise":0.15,"location_history":"[11,3]","action_history":"[1]","mutagen_history":"[1]","location_rts":"[1619]","trial_type":"fractal-mutation","trial_index":59,"time_elapsed":1156504,"internal_node_id":"0.0-5.0-20.0"},{"group":"dicyclic group of order 12","fractal_assignment":["../images/wht_red.png","../images/org_blu.png","../images/pnk_blu.png","../images/grn_red.png","../images/grn_prp.png","../images/red_prp.png","../images/blu_wht.png","../images/grn_blu.png","../images/gry_blk.png","../images/ylw_slt.png","../images/cyn_red.png","../images/ylw_pnk.png"],"mutagen_generator_assignment":[0,1],"goal":5,"start":3,"action_noise":0.15,"location_history":"[3,7,8,0,4,8,5]","action_history":"[0,0,0,1,1,0]","mutagen_history":"[0,0,0,1,1,0]","location_rts":"[1721,980,736,1044,853,626]","trial_type":"fractal-mutation","trial_index":60,"time_elapsed":1172322,"internal_node_id":"0.0-5.0-21.0"},{"group":"dicyclic group of order 12","fractal_assignment":["../images/wht_red.png","../images/org_blu.png","../images/pnk_blu.png","../images/grn_red.png","../images/grn_prp.png","../images/red_prp.png","../images/blu_wht.png","../images/grn_blu.png","../images/gry_blk.png","../images/ylw_slt.png","../images/cyn_red.png","../images/ylw_pnk.png"],"mutagen_generator_assignment":[0,1],"goal":7,"start":5,"action_noise":0.15,"location_history":"[5,9,1,2,6,10,2,3,0,1,2,6,10,2,6,10,7]","action_history":"[0,1,0,0,1,1,0,0,0,0,1,1,1,1,1,1]","mutagen_history":"[0,1,0,0,1,1,0,0,0,0,1,1,1,1,1,1]","location_rts":"[1783,693,887,830,639,489,663,750,706,756,970,635,724,610,784,511]","trial_type":"fractal-mutation","trial_index":61,"time_elapsed":1205289,"internal_node_id":"0.0-5.0-22.0"},{"group":"dicyclic group of order 12","fractal_assignment":["../images/wht_red.png","../images/org_blu.png","../images/pnk_blu.png","../images/grn_red.png","../images/grn_prp.png","../images/red_prp.png","../images/blu_wht.png","../images/grn_blu.png","../images/gry_blk.png","../images/ylw_slt.png","../images/cyn_red.png","../images/ylw_pnk.png"],"mutagen_generator_assignment":[0,1],"goal":3,"start":7,"action_noise":0.15,"location_history":"[7,11,3]","action_history":"[1,1]","mutagen_history":"[1,1]","location_rts":"[2553,1510]","trial_type":"fractal-mutation","trial_index":62,"time_elapsed":1215007,"internal_node_id":"0.0-5.0-23.0"},{"group":"dicyclic group of order 12","fractal_assignment":["../images/wht_red.png","../images/org_blu.png","../images/pnk_blu.png","../images/grn_red.png","../images/grn_prp.png","../images/red_prp.png","../images/blu_wht.png","../images/grn_blu.png","../images/gry_blk.png","../images/ylw_slt.png","../images/cyn_red.png","../images/ylw_pnk.png"],"mutagen_generator_assignment":[0,1],"goal":4,"start":3,"action_noise":0.15,"location_history":"[3,7,11,3,0,1,2,6,11,4]","action_history":"[1,0,0,0,0,0,1,0,0]","mutagen_history":"[1,0,0,0,0,0,1,0,0]","location_rts":"[2500,703,743,736,621,561,1231,620,589]","trial_type":"fractal-mutation","trial_index":63,"time_elapsed":1236313,"internal_node_id":"0.0-5.0-24.0"},{"group":"dicyclic group of order 12","fractal_assignment":["../images/wht_red.png","../images/org_blu.png","../images/pnk_blu.png","../images/grn_red.png","../images/grn_prp.png","../images/red_prp.png","../images/blu_wht.png","../images/grn_blu.png","../images/gry_blk.png","../images/ylw_slt.png","../images/cyn_red.png","../images/ylw_pnk.png"],"mutagen_generator_assignment":[0,1],"goal":8,"start":4,"action_noise":0.15,"location_history":"[4,9,6,11,4,8]","action_history":"[0,0,0,0,1]","mutagen_history":"[0,0,0,0,1]","location_rts":"[1458,598,737,641,961]","trial_type":"fractal-mutation","trial_index":64,"time_elapsed":1249478,"internal_node_id":"0.0-5.0-25.0"},{"group":"dicyclic group of order 12","fractal_assignment":["../images/wht_red.png","../images/org_blu.png","../images/pnk_blu.png","../images/grn_red.png","../images/grn_prp.png","../images/red_prp.png","../images/blu_wht.png","../images/grn_blu.png","../images/gry_blk.png","../images/ylw_slt.png","../images/cyn_red.png","../images/ylw_pnk.png"],"mutagen_generator_assignment":[0,1],"goal":6,"start":8,"action_noise":0.15,"location_history":"[8,5,9,1,5,10,7,8,5,9,6]","action_history":"[0,1,1,0,0,0,0,0,1,0]","mutagen_history":"[0,1,1,0,0,0,0,0,1,0]","location_rts":"[1193,1080,669,692,839,3380,1719,980,739,846]","trial_type":"fractal-mutation","trial_index":65,"time_elapsed":1275699,"internal_node_id":"0.0-5.0-26.0"},{"group":"dicyclic group of order 12","fractal_assignment":["../images/wht_red.png","../images/org_blu.png","../images/pnk_blu.png","../images/grn_red.png","../images/grn_prp.png","../images/red_prp.png","../images/blu_wht.png","../images/grn_blu.png","../images/gry_blk.png","../images/ylw_slt.png","../images/cyn_red.png","../images/ylw_pnk.png"],"mutagen_generator_assignment":[0,1],"goal":1,"start":6,"action_noise":0.15,"location_history":"[6,11,4,8,5,10,7,11,3,7,8,5,9,6,11,4,8,0,4,8,5,9,6,10,7,8,5,9,1]","action_history":"[0,0,1,0,0,0,1,1,1,0,0,1,0,0,0,1,1,0,1,1,0,0,0,0,0,0,1,1]","mutagen_history":"[0,0,1,0,0,0,1,1,1,0,0,1,0,0,0,1,1,0,1,1,0,0,0,0,0,0,1,1]","location_rts":"[1571,1060,1203,773,651,780,1035,1112,679,592,712,935,1227,684,775,2005,1551,958,1202,1460,889,1691,845,749,758,1017,1016,2677]","trial_type":"fractal-mutation","trial_index":66,"time_elapsed":1339462,"internal_node_id":"0.0-5.0-27.0"},{"group":"dicyclic group of order 12","fractal_assignment":["../images/wht_red.png","../images/org_blu.png","../images/pnk_blu.png","../images/grn_red.png","../images/grn_prp.png","../images/red_prp.png","../images/blu_wht.png","../images/grn_blu.png","../images/gry_blk.png","../images/ylw_slt.png","../images/cyn_red.png","../images/ylw_pnk.png"],"mutagen_generator_assignment":[0,1],"goal":5,"start":1,"action_noise":0.15,"location_history":"[1,2,3,7,8,5]","action_history":"[0,0,1,0,0]","mutagen_history":"[0,0,1,0,0]","location_rts":"[1911,861,1281,733,653]","trial_type":"fractal-mutation","trial_index":67,"time_elapsed":1353687,"internal_node_id":"0.0-5.0-28.0"},{"group":"dicyclic group of order 12","fractal_assignment":["../images/wht_red.png","../images/org_blu.png","../images/pnk_blu.png","../images/grn_red.png","../images/grn_prp.png","../images/red_prp.png","../images/blu_wht.png","../images/grn_blu.png","../images/gry_blk.png","../images/ylw_slt.png","../images/cyn_red.png","../images/ylw_pnk.png"],"mutagen_generator_assignment":[0,1],"goal":9,"start":5,"action_noise":0.15,"location_history":"[5,10,7,11,3,0,1,2,3,0,1,5,10,7,8,0,1,5,9]","action_history":"[0,0,0,1,0,0,0,0,0,1,1,0,0,0,1,0,1,1]","mutagen_history":"[0,0,0,1,0,0,0,0,0,1,1,0,0,0,1,0,1,1]","location_rts":"[1593,637,1333,925,779,660,615,779,872,912,1518,603,790,818,721,751,539,742]","trial_type":"fractal-mutation","trial_index":68,"time_elapsed":1391848,"internal_node_id":"0.0-5.0-29.0"},{"group":"dicyclic group of order 12","fractal_assignment":["../images/wht_red.png","../images/org_blu.png","../images/pnk_blu.png","../images/grn_red.png","../images/grn_prp.png","../images/red_prp.png","../images/blu_wht.png","../images/grn_blu.png","../images/gry_blk.png","../images/ylw_slt.png","../images/cyn_red.png","../images/ylw_pnk.png"],"mutagen_generator_assignment":[0,1],"goal":10,"start":9,"action_noise":0.15,"location_history":"[9,6,10]","action_history":"[0,1]","mutagen_history":"[0,1]","location_rts":"[2680,950]","trial_type":"fractal-mutation","trial_index":69,"time_elapsed":1401116,"internal_node_id":"0.0-5.0-30.0"},{"group":"dicyclic group of order 12","fractal_assignment":["../images/wht_red.png","../images/org_blu.png","../images/pnk_blu.png","../images/grn_red.png","../images/grn_prp.png","../images/red_prp.png","../images/blu_wht.png","../images/grn_blu.png","../images/gry_blk.png","../images/ylw_slt.png","../images/cyn_red.png","../images/ylw_pnk.png"],"mutagen_generator_assignment":[0,1],"goal":0,"start":10,"action_noise":0.15,"location_history":"[10,7,8,0]","action_history":"[0,0,1]","mutagen_history":"[0,0,1]","location_rts":"[6635,666,763]","trial_type":"fractal-mutation","trial_index":70,"time_elapsed":1415857,"internal_node_id":"0.0-5.0-31.0"},{"group":"dicyclic group of order 12","fractal_assignment":["../images/wht_red.png","../images/org_blu.png","../images/pnk_blu.png","../images/grn_red.png","../images/grn_prp.png","../images/red_prp.png","../images/blu_wht.png","../images/grn_blu.png","../images/gry_blk.png","../images/ylw_slt.png","../images/cyn_red.png","../images/ylw_pnk.png"],"mutagen_generator_assignment":[0,1],"goal":7,"start":0,"action_noise":0.15,"location_history":"[0,1,2,6,10,2,3,7]","action_history":"[0,0,0,1,1,0,1]","mutagen_history":"[0,0,0,1,1,0,1]","location_rts":"[1792,824,750,773,446,668,714]","trial_type":"fractal-mutation","trial_index":71,"time_elapsed":1432774,"internal_node_id":"0.0-5.0-32.0"},{"group":"dicyclic group of order 12","fractal_assignment":["../images/wht_red.png","../images/org_blu.png","../images/pnk_blu.png","../images/grn_red.png","../images/grn_prp.png","../images/red_prp.png","../images/blu_wht.png","../images/grn_blu.png","../images/gry_blk.png","../images/ylw_slt.png","../images/cyn_red.png","../images/ylw_pnk.png"],"mutagen_generator_assignment":[0,1],"goal":11,"start":7,"action_noise":0.15,"location_history":"[7,8,0,1,2,6,10,2,3,0,4,9,1,5,10,2,3,0,1,2,6,10,7,8,5,9,6,11]","action_history":"[0,1,0,0,1,1,1,0,0,0,1,1,0,0,1,0,0,0,0,0,0,0,0,0,1,0,0]","mutagen_history":"[0,1,0,0,1,1,1,0,0,0,1,1,0,0,1,0,0,0,0,0,0,0,0,0,1,0,0]","location_rts":"[1316,657,925,614,924,719,448,983,921,998,644,698,1642,934,593,825,1502,1227,671,608,1163,889,692,879,1357,851,847]","trial_type":"fractal-mutation","trial_index":72,"time_elapsed":1489352,"internal_node_id":"0.0-5.0-33.0"},{"group":"dicyclic group of order 12","fractal_assignment":["../images/wht_red.png","../images/org_blu.png","../images/pnk_blu.png","../images/grn_red.png","../images/grn_prp.png","../images/red_prp.png","../images/blu_wht.png","../images/grn_blu.png","../images/gry_blk.png","../images/ylw_slt.png","../images/cyn_red.png","../images/ylw_pnk.png"],"mutagen_generator_assignment":[0,1],"goal":2,"start":11,"action_noise":0.15,"location_history":"[11,4,9,6,11,4,9,1,5,9,6,11,4,9,6,10,7,8,5,10,7,11,3,0,4,8,0,1,2]","action_history":"[1,0,0,0,0,0,1,1,1,0,0,0,0,0,1,0,0,0,0,0,1,1,0,1,0,1,0,0]","mutagen_history":"[1,0,0,0,0,0,1,1,1,0,0,0,0,0,1,0,0,0,0,0,1,1,0,1,0,1,0,0]","location_rts":"[2187,548,672,695,683,1009,646,1182,1130,726,1243,677,843,848,1570,546,2739,905,853,932,953,684,570,591,583,549,415,662]","trial_type":"fractal-mutation","trial_index":73,"time_elapsed":1548096,"internal_node_id":"0.0-5.0-34.0"},{"view_history":"[{\"page_index\":0,\"viewing_time\":3853}]","rt":3853,"trial_type":"instructions","trial_index":74,"time_elapsed":1552950,"internal_node_id":"0.0-6.0"},{"rt":15390,"responses":"{\"Q0\":\"Color associations.\"}","trial_type":"survey-text","trial_index":75,"time_elapsed":1569344,"internal_node_id":"0.0-7.0-0.0"},{"rt":9645,"responses":"{\"Q0\":\"Shape associations.\"}","trial_type":"survey-text","trial_index":76,"time_elapsed":1579990,"internal_node_id":"0.0-7.0-1.0"},{"rt":4828,"responses":"{\"Q0\":\"2\"}","trial_type":"survey-likert","trial_index":77,"time_elapsed":1585820,"internal_node_id":"0.0-7.0-2.0"},{"rt":18146,"responses":"{\"Q0\":\"Navigation would randomly switch.\"}","trial_type":"survey-text","trial_index":78,"time_elapsed":1604968,"internal_node_id":"0.0-7.0-3.0"},{"rt":5965,"responses":"{\"Q0\":\"No\"}","trial_type":"survey-multi-choice","trial_index":79,"time_elapsed":1611936,"internal_node_id":"0.0-7.0-4.0"},{"rt":12549,"responses":"{\"Q0\":\"During session 2\"}","trial_type":"survey-multi-choice","trial_index":80,"time_elapsed":1625488,"internal_node_id":"0.0-7.0-5.0"},{"rt":46054,"responses":"{\"Q0\":\"The door colors switched between experiments 1 and 2, but navigation seemed to be constant between left and right.\"}","trial_type":"survey-text","trial_index":81,"time_elapsed":1672543,"internal_node_id":"0.0-7.0-6.0"},{"rt":4796,"responses":"{\"Q0\":\"3\"}","trial_type":"survey-likert","trial_index":82,"time_elapsed":1678341,"internal_node_id":"0.0-7.0-7.0"},{"rt":9621,"responses":"{\"Q0\":\"Different structure\"}","trial_type":"survey-multi-choice","trial_index":83,"time_elapsed":1688963,"internal_node_id":"0.0-7.0-8.0"},{"rt":19294,"responses":"{\"Q0\":\"white door = acid, black door = ray\",\"Q1\":\"Not at all confident\"}","trial_type":"survey-multi-choice","trial_index":84,"time_elapsed":1709259,"internal_node_id":"0.0-7.0-9.0"},{"rt":9955,"responses":"{\"Q0\":\"35-45\",\"Q1\":\"Master's degree\",\"Q2\":\"Male\",\"Q3\":\"White\"}","trial_type":"survey-multi-choice","trial_index":85,"time_elapsed":1720221,"internal_node_id":"0.0-8.0"},{"rt":3918,"responses":"{\"Q0\":\"\"}","trial_type":"survey-text","trial_index":86,"time_elapsed":1725141,"internal_node_id":"0.0-9.0"}]