[{"view_history":"[{\"page_index\":0,\"viewing_time\":45873},{\"page_index\":1,\"viewing_time\":94202}]","rt":140075,"trial_type":"instructions","trial_index":0,"time_elapsed":140076,"internal_node_id":"0.0-0.0"},{"view_history":"[{\"page_index\":0,\"viewing_time\":2266},{\"page_index\":1,\"viewing_time\":1483}]","rt":3749,"trial_type":"instructions","trial_index":1,"time_elapsed":144826,"internal_node_id":"0.0-1.0"},{"group":"dihedral group of order 12","room_assignment":["ivory","blue","red","yellow","pink","green","grey","cyan","orange","olive","purple","brown"],"door_color_assignment":["white","black"],"door_generator_assignment":[1,0],"goal":7,"start":3,"action_noise":0.15,"location_history":"[3,9,8,7]","action_history":"[0,0,0]","door_history":"[1,1,1]","location_rts":"[81284,788,664]","trial_type":"two-door-navigation","trial_index":2,"time_elapsed":234125,"internal_node_id":"0.0-2.0-0.0"},{"group":"dihedral group of order 12","room_assignment":["ivory","blue","red","yellow","pink","green","grey","cyan","orange","olive","purple","brown"],"door_color_assignment":["white","black"],"door_generator_assignment":[1,0],"goal":5,"start":7,"action_noise":0.15,"location_history":"[7,6,11,5]","action_history":"[0,0,1]","door_history":"[1,1,0]","location_rts":"[2163,793,884]","trial_type":"two-door-navigation","trial_index":3,"time_elapsed":244532,"internal_node_id":"0.0-2.0-1.0"},{"group":"dihedral group of order 12","room_assignment":["ivory","blue","red","yellow","pink","green","grey","cyan","orange","olive","purple","brown"],"door_color_assignment":["white","black"],"door_generator_assignment":[1,0],"goal":0,"start":5,"action_noise":0.15,"location_history":"[5,0]","action_history":"[0]","door_history":"[1]","location_rts":"[2497]","trial_type":"two-door-navigation","trial_index":4,"time_elapsed":251577,"internal_node_id":"0.0-2.0-2.0"},{"group":"dihedral group of order 12","room_assignment":["ivory","blue","red","yellow","pink","green","grey","cyan","orange","olive","purple","brown"],"door_color_assignment":["white","black"],"door_generator_assignment":[1,0],"goal":2,"start":0,"action_noise":0.15,"location_history":"[0,1,2]","action_history":"[0,0]","door_history":"[1,1]","location_rts":"[950,968]","trial_type":"two-door-navigation","trial_index":5,"time_elapsed":259039,"internal_node_id":"0.0-2.0-3.0"},{"group":"dihedral group of order 12","room_assignment":["ivory","blue","red","yellow","pink","green","grey","cyan","orange","olive","purple","brown"],"door_color_assignment":["white","black"],"door_generator_assignment":[1,0],"goal":10,"start":2,"action_noise":0.15,"location_history":"[2,3,4,10]","action_history":"[0,0,1]","door_history":"[1,1,0]","location_rts":"[1182,5192,2213]","trial_type":"two-door-navigation","trial_index":6,"time_elapsed":274193,"internal_node_id":"0.0-2.0-4.0"},{"group":"dihedral group of order 12","room_assignment":["ivory","blue","red","yellow","pink","green","grey","cyan","orange","olive","purple","brown"],"door_color_assignment":["white","black"],"door_generator_assignment":[1,0],"goal":8,"start":10,"action_noise":0.15,"location_history":"[10,9,8]","action_history":"[0,0]","door_history":"[1,1]","location_rts":"[3145,11175]","trial_type":"two-door-navigation","trial_index":7,"time_elapsed":294057,"internal_node_id":"0.0-2.0-5.0"},{"group":"dihedral group of order 12","room_assignment":["ivory","blue","red","yellow","pink","green","grey","cyan","orange","olive","purple","brown"],"door_color_assignment":["white","black"],"door_generator_assignment":[1,0],"goal":11,"start":8,"action_noise":0.15,"location_history":"[8,7,6,11]","action_history":"[0,0,0]","door_history":"[1,1,1]","location_rts":"[2164,744,1841]","trial_type":"two-door-navigation","trial_index":8,"time_elapsed":305370,"internal_node_id":"0.0-2.0-6.0"},{"group":"dihedral group of order 12","room_assignment":["ivory","blue","red","yellow","pink","green","grey","cyan","orange","olive","purple","brown"],"door_color_assignment":["white","black"],"door_generator_assignment":[1,0],"goal":6,"start":11,"action_noise":0.15,"location_history":"[11,10,9,8,7,6]","action_history":"[0,0,0,0,0]","door_history":"[1,1,1,1,1]","location_rts":"[2161,6347,1354,886,7140]","trial_type":"two-door-navigation","trial_index":9,"time_elapsed":331865,"internal_node_id":"0.0-2.0-7.0"},{"group":"dihedral group of order 12","room_assignment":["ivory","blue","red","yellow","pink","green","grey","cyan","orange","olive","purple","brown"],"door_color_assignment":["white","black"],"door_generator_assignment":[1,0],"goal":4,"start":6,"action_noise":0.15,"location_history":"[6,11,10,4]","action_history":"[0,0,1]","door_history":"[1,1,0]","location_rts":"[1597,1463,2403]","trial_type":"two-door-navigation","trial_index":10,"time_elapsed":343890,"internal_node_id":"0.0-2.0-8.0"},{"group":"dihedral group of order 12","room_assignment":["ivory","blue","red","yellow","pink","green","grey","cyan","orange","olive","purple","brown"],"door_color_assignment":["white","black"],"door_generator_assignment":[1,0],"goal":1,"start":4,"action_noise":0.15,"location_history":"[4,5,0,1]","action_history":"[0,0,0]","door_history":"[1,1,1]","location_rts":"[2367,6372,1455]","trial_type":"two-door-navigation","trial_index":11,"time_elapsed":360647,"internal_node_id":"0.0-2.0-9.0"},{"group":"dihedral group of order 12","room_assignment":["ivory","blue","red","yellow","pink","green","grey","cyan","orange","olive","purple","brown"],"door_color_assignment":["white","black"],"door_generator_assignment":[1,0],"goal":9,"start":1,"action_noise":0.15,"location_history":"[1,2,3,9]","action_history":"[0,0,1]","door_history":"[1,1,0]","location_rts":"[112663,670,2252]","trial_type":"two-door-navigation","trial_index":12,"time_elapsed":482792,"internal_node_id":"0.0-2.0-10.0"},{"group":"dihedral group of order 12","room_assignment":["ivory","blue","red","yellow","pink","green","grey","cyan","orange","olive","purple","brown"],"door_color_assignment":["white","black"],"door_generator_assignment":[1,0],"goal":10,"start":9,"action_noise":0.15,"location_history":"[9,8,2,3,4,10]","action_history":"[0,1,0,0,1]","door_history":"[1,0,1,1,0]","location_rts":"[3212,11345,887,1427,5184]","trial_type":"two-door-navigation","trial_index":13,"time_elapsed":513456,"internal_node_id":"0.0-2.0-11.0"},{"group":"dihedral group of order 12","room_assignment":["ivory","blue","red","yellow","pink","green","grey","cyan","orange","olive","purple","brown"],"door_color_assignment":["white","black"],"door_generator_assignment":[1,0],"goal":2,"start":10,"action_noise":0.15,"location_history":"[10,9,8,2]","action_history":"[0,0,0]","door_history":"[1,1,1]","location_rts":"[5088,488,613]","trial_type":"two-door-navigation","trial_index":14,"time_elapsed":526212,"internal_node_id":"0.0-2.0-12.0"},{"group":"dihedral group of order 12","room_assignment":["ivory","blue","red","yellow","pink","green","grey","cyan","orange","olive","purple","brown"],"door_color_assignment":["white","black"],"door_generator_assignment":[1,0],"goal":0,"start":2,"action_noise":0.15,"location_history":"[2,3,4,10,9,8,2,3,4,5,0]","action_history":"[0,0,0,0,0,0,0,0,0,0]","door_history":"[1,1,1,1,1,1,1,1,1,1]","location_rts":"[1522,4224,5439,611,482,702,752,785,940,1565]","trial_type":"two-door-navigation","trial_index":15,"time_elapsed":556974,"internal_node_id":"0.0-2.0-13.0"},{"group":"dihedral group of order 12","room_assignment":["ivory","blue","red","yellow","pink","green","grey","cyan","orange","olive","purple","brown"],"door_color_assignment":["white","black"],"door_generator_assignment":[1,0],"goal":9,"start":0,"action_noise":0.15,"location_history":"[0,1,7,6,11,10,4,5,0,1,2,3,9]","action_history":"[0,0,0,0,0,0,0,0,1,0,0,1]","door_history":"[1,1,1,1,1,1,1,1,0,1,1,0]","location_rts":"[1802,645,5564,584,542,836,1134,2389,1374,7890,1637,1776]","trial_type":"two-door-navigation","trial_index":16,"time_elapsed":598914,"internal_node_id":"0.0-2.0-14.0"},{"group":"dihedral group of order 12","room_assignment":["ivory","blue","red","yellow","pink","green","grey","cyan","orange","olive","purple","brown"],"door_color_assignment":["white","black"],"door_generator_assignment":[1,0],"goal":8,"start":9,"action_noise":0.15,"location_history":"[9,8]","action_history":"[0]","door_history":"[1]","location_rts":"[3220]","trial_type":"two-door-navigation","trial_index":17,"time_elapsed":606658,"internal_node_id":"0.0-2.0-15.0"},{"group":"dihedral group of order 12","room_assignment":["ivory","blue","red","yellow","pink","green","grey","cyan","orange","olive","purple","brown"],"door_color_assignment":["white","black"],"door_generator_assignment":[1,0],"goal":6,"start":8,"action_noise":0.15,"location_history":"[8,7,6]","action_history":"[0,0]","door_history":"[1,1]","location_rts":"[1264,2241]","trial_type":"two-door-navigation","trial_index":18,"time_elapsed":615705,"internal_node_id":"0.0-2.0-16.0"},{"group":"dihedral group of order 12","room_assignment":["ivory","blue","red","yellow","pink","green","grey","cyan","orange","olive","purple","brown"],"door_color_assignment":["white","black"],"door_generator_assignment":[1,0],"goal":1,"start":6,"action_noise":0.15,"location_history":"[6,11,5,0,6,11,10,4,5,0,6,11,10,4,5,0,1]","action_history":"[0,0,0,1,0,0,0,0,0,0,0,0,0,0,0,0]","door_history":"[1,1,1,0,1,1,1,1,1,1,1,1,1,1,1,1]","location_rts":"[478,1949,808,916,328,668,1787,5833,1934,6048,440,1484,1535,1214,905,866]","trial_type":"two-door-navigation","trial_index":19,"time_elapsed":662758,"internal_node_id":"0.0-2.0-17.0"},{"group":"dihedral group of order 12","room_assignment":["ivory","blue","red","yellow","pink","green","grey","cyan","orange","olive","purple","brown"],"door_color_assignment":["white","black"],"door_generator_assignment":[1,0],"goal":4,"start":1,"action_noise":0.15,"location_history":"[1,7,6,11,10,4]","action_history":"[1,0,0,0,1]","door_history":"[0,1,1,1,0]","location_rts":"[451,972,547,469,722]","trial_type":"two-door-navigation","trial_index":20,"time_elapsed":674599,"internal_node_id":"0.0-2.0-18.0"},{"group":"dihedral group of order 12","room_assignment":["ivory","blue","red","yellow","pink","green","grey","cyan","orange","olive","purple","brown"],"door_color_assignment":["white","black"],"door_generator_assignment":[1,0],"goal":11,"start":4,"action_noise":0.15,"location_history":"[4,5,11]","action_history":"[0,1]","door_history":"[1,0]","location_rts":"[2639,832]","trial_type":"two-door-navigation","trial_index":21,"time_elapsed":683624,"internal_node_id":"0.0-2.0-19.0"},{"group":"dihedral group of order 12","room_assignment":["ivory","blue","red","yellow","pink","green","grey","cyan","orange","olive","purple","brown"],"door_color_assignment":["white","black"],"door_generator_assignment":[1,0],"goal":3,"start":11,"action_noise":0.15,"location_history":"[11,5,0,1,2,3]","action_history":"[0,0,0,0,0]","door_history":"[1,1,1,1,1]","location_rts":"[28587,942,21566,588,835]","trial_type":"two-door-navigation","trial_index":22,"time_elapsed":744780,"internal_node_id":"0.0-2.0-20.0"},{"group":"dihedral group of order 12","room_assignment":["ivory","blue","red","yellow","pink","green","grey","cyan","orange","olive","purple","brown"],"door_color_assignment":["white","black"],"door_generator_assignment":[1,0],"goal":5,"start":3,"action_noise":0.15,"location_history":"[3,4,5]","action_history":"[0,0]","door_history":"[1,1]","location_rts":"[9750,2244]","trial_type":"two-door-navigation","trial_index":23,"time_elapsed":762325,"internal_node_id":"0.0-2.0-21.0"},{"group":"dihedral group of order 12","room_assignment":["ivory","blue","red","yellow","pink","green","grey","cyan","orange","olive","purple","brown"],"door_color_assignment":["white","black"],"door_generator_assignment":[1,0],"goal":7,"start":5,"action_noise":0.15,"location_history":"[5,0,1,7]","action_history":"[0,0,1]","door_history":"[1,1,0]","location_rts":"[1680,1044,51969]","trial_type":"two-door-navigation","trial_index":24,"time_elapsed":823588,"internal_node_id":"0.0-2.0-22.0"},{"group":"dihedral group of order 12","room_assignment":["ivory","blue","red","yellow","pink","green","grey","cyan","orange","olive","purple","brown"],"door_color_assignment":["white","black"],"door_generator_assignment":[1,0],"goal":3,"start":7,"action_noise":0.15,"location_history":"[7,6,11,10,9,3]","action_history":"[0,0,0,0,1]","door_history":"[1,1,1,1,0]","location_rts":"[2287,1094,1168,447,1066]","trial_type":"two-door-navigation","trial_index":25,"time_elapsed":838330,"internal_node_id":"0.0-2.0-23.0"},{"group":"dihedral group of order 12","room_assignment":["ivory","blue","red","yellow","pink","green","grey","cyan","orange","olive","purple","brown"],"door_color_assignment":["white","black"],"door_generator_assignment":[1,0],"goal":4,"start":3,"action_noise":0.15,"location_history":"[3,4]","action_history":"[0]","door_history":"[1]","location_rts":"[81625]","trial_type":"two-door-navigation","trial_index":26,"time_elapsed":924485,"internal_node_id":"0.0-2.0-24.0"},{"group":"dihedral group of order 12","room_assignment":["ivory","blue","red","yellow","pink","green","grey","cyan","orange","olive","purple","brown"],"door_color_assignment":["white","black"],"door_generator_assignment":[1,0],"goal":8,"start":4,"action_noise":0.15,"location_history":"[4,5,0,1,7,6,11,5,0,1,7,6,11,10,9,3,4,10,9,8]","action_history":"[0,0,0,0,0,0,1,0,0,1,0,0,0,0,1,0,0,0,0]","door_history":"[1,1,1,1,1,1,0,1,1,0,1,1,1,1,0,1,1,1,1]","location_rts":"[8232,1691,1711,1219,624,1265,1270,565,843,948,253,550,1046,866,634,3811,2639,908,492]","trial_type":"two-door-navigation","trial_index":27,"time_elapsed":977158,"internal_node_id":"0.0-2.0-25.0"},{"group":"dihedral group of order 12","room_assignment":["ivory","blue","red","yellow","pink","green","grey","cyan","orange","olive","purple","brown"],"door_color_assignment":["white","black"],"door_generator_assignment":[1,0],"goal":6,"start":8,"action_noise":0.15,"location_history":"[8,7,6]","action_history":"[0,0]","door_history":"[1,1]","location_rts":"[661,754]","trial_type":"two-door-navigation","trial_index":28,"time_elapsed":984124,"internal_node_id":"0.0-2.0-26.0"},{"group":"dihedral group of order 12","room_assignment":["ivory","blue","red","yellow","pink","green","grey","cyan","orange","olive","purple","brown"],"door_color_assignment":["white","black"],"door_generator_assignment":[1,0],"goal":1,"start":6,"action_noise":0.15,"location_history":"[6,11,10,9,8,7,6,11,10,4,5,0,1]","action_history":"[0,0,0,0,0,0,0,0,0,0,0,0]","door_history":"[1,1,1,1,1,1,1,1,1,1,1,1]","location_rts":"[815,1371,894,1369,1128,924,7660,2666,1220,873,1230,931]","trial_type":"two-door-navigation","trial_index":29,"time_elapsed":1021026,"internal_node_id":"0.0-2.0-27.0"},{"group":"dihedral group of order 12","room_assignment":["ivory","blue","red","yellow","pink","green","grey","cyan","orange","olive","purple","brown"],"door_color_assignment":["white","black"],"door_generator_assignment":[1,0],"goal":5,"start":1,"action_noise":0.15,"location_history":"[1,2,3,4,10,4,5]","action_history":"[0,0,0,0,0,0]","door_history":"[1,1,1,1,1,1]","location_rts":"[768,903,1322,1592,2499,1159]","trial_type":"two-door-navigation","trial_index":30,"time_elapsed":1038968,"internal_node_id":"0.0-2.0-28.0"},{"group":"dihedral group of order 12","room_assignment":["ivory","blue","red","yellow","pink","green","grey","cyan","orange","olive","purple","brown"],"door_color_assignment":["white","black"],"door_generator_assignment":[1,0],"goal":9,"start":5,"action_noise":0.15,"location_history":"[5,0,1,2,3,9]","action_history":"[0,0,0,0,1]","door_history":"[1,1,1,1,0]","location_rts":"[857,768,499,648,1761]","trial_type":"two-door-navigation","trial_index":31,"time_elapsed":1052130,"internal_node_id":"0.0-2.0-29.0"},{"group":"dihedral group of order 12","room_assignment":["ivory","blue","red","yellow","pink","green","grey","cyan","orange","olive","purple","brown"],"door_color_assignment":["white","black"],"door_generator_assignment":[1,0],"goal":10,"start":9,"action_noise":0.15,"location_history":"[9,3,4,5,11,10]","action_history":"[0,0,0,1,0]","door_history":"[1,1,1,0,1]","location_rts":"[554,659,826,643,336]","trial_type":"two-door-navigation","trial_index":32,"time_elapsed":1063772,"internal_node_id":"0.0-2.0-30.0"},{"group":"dihedral group of order 12","room_assignment":["ivory","blue","red","yellow","pink","green","grey","cyan","orange","olive","purple","brown"],"door_color_assignment":["white","black"],"door_generator_assignment":[1,0],"goal":0,"start":10,"action_noise":0.15,"location_history":"[10,9,8,7,1,2,8,7,6,0]","action_history":"[0,0,0,0,0,0,0,0,1]","door_history":"[1,1,1,1,1,1,1,1,0]","location_rts":"[48014,723,1035,10664,456,542,1361,955,902]","trial_type":"two-door-navigation","trial_index":33,"time_elapsed":1141140,"internal_node_id":"0.0-2.0-31.0"},{"group":"dihedral group of order 12","room_assignment":["ivory","blue","red","yellow","pink","green","grey","cyan","orange","olive","purple","brown"],"door_color_assignment":["white","black"],"door_generator_assignment":[1,0],"goal":7,"start":0,"action_noise":0.15,"location_history":"[0,6,11,10,9,8,7]","action_history":"[0,0,0,0,0,0]","door_history":"[1,1,1,1,1,1]","location_rts":"[2043,1037,574,1587,3015,2505]","trial_type":"two-door-navigation","trial_index":34,"time_elapsed":1161526,"internal_node_id":"0.0-2.0-32.0"},{"group":"dihedral group of order 12","room_assignment":["ivory","blue","red","yellow","pink","green","grey","cyan","orange","olive","purple","brown"],"door_color_assignment":["white","black"],"door_generator_assignment":[1,0],"goal":11,"start":7,"action_noise":0.15,"location_history":"[7,6,0,1,2,3,4,10,9,3,4,5,0,1,2,3,9,8,2,3,9,8,7,6,0,6,0,6,11]","action_history":"[0,0,0,0,0,0,0,0,1,0,0,1,0,0,0,0,0,1,0,1,0,0,0,0,0,0,0,0]","door_history":"[1,1,1,1,1,1,1,1,0,1,1,0,1,1,1,1,1,0,1,0,1,1,1,1,1,1,1,1]","location_rts":"[1935,819,855,463,516,465,563,458,665,375,653,712,1107,1116,595,654,800,1047,398,538,236,761,505,460,440,757,451,446]","trial_type":"two-door-navigation","trial_index":35,"time_elapsed":1212511,"internal_node_id":"0.0-2.0-33.0"},{"group":"dihedral group of order 12","room_assignment":["ivory","blue","red","yellow","pink","green","grey","cyan","orange","olive","purple","brown"],"door_color_assignment":["white","black"],"door_generator_assignment":[1,0],"goal":2,"start":11,"action_noise":0.15,"location_history":"[11,10,9,3,4,5,0,1,7,6,11,10,4,5,0,1,2]","action_history":"[0,0,0,0,0,0,0,1,0,0,0,1,0,0,0,0]","door_history":"[1,1,1,1,1,1,1,0,1,1,1,0,1,1,1,1]","location_rts":"[3790,9328,510,1599,4947,801,1543,6149,5077,11456,6889,792,365,1452,16491,881]","trial_type":"two-door-navigation","trial_index":36,"time_elapsed":1304521,"internal_node_id":"0.0-2.0-34.0"},{"view_history":"[{\"page_index\":0,\"viewing_time\":1442}]","rt":1442,"trial_type":"instructions","trial_index":37,"time_elapsed":1306965,"internal_node_id":"0.0-3.0"},{"view_history":"[{\"page_index\":0,\"viewing_time\":1615},{\"page_index\":1,\"viewing_time\":6173}]","rt":7788,"trial_type":"instructions","trial_index":38,"time_elapsed":1315754,"internal_node_id":"0.0-4.0"},{"group":"dicyclic group of order 12","fractal_assignment":["../images/gry_blk.png","../images/pnk_blu.png","../images/red_prp.png","../images/cyn_red.png","../images/blu_wht.png","../images/org_blu.png","../images/wht_red.png","../images/grn_red.png","../images/grn_prp.png","../images/grn_blu.png","../images/ylw_slt.png","../images/ylw_pnk.png"],"mutagen_generator_assignment":[0,1],"goal":7,"start":3,"action_noise":0.15,"location_history":"[3,0,1,2,3,7]","action_history":"[1,1,0,0,1]","mutagen_history":"[1,1,0,0,1]","location_rts":"[1515,58,370,296,472]","trial_type":"fractal-mutation","trial_index":39,"time_elapsed":1327496,"internal_node_id":"0.0-5.0-0.0"},{"group":"dicyclic group of order 12","fractal_assignment":["../images/gry_blk.png","../images/pnk_blu.png","../images/red_prp.png","../images/cyn_red.png","../images/blu_wht.png","../images/org_blu.png","../images/wht_red.png","../images/grn_red.png","../images/grn_prp.png","../images/grn_blu.png","../images/ylw_slt.png","../images/ylw_pnk.png"],"mutagen_generator_assignment":[0,1],"goal":5,"start":7,"action_noise":0.15,"location_history":"[7,8,0,1,5]","action_history":"[0,0,0,1]","mutagen_history":"[0,0,0,1]","location_rts":"[1125,274,430,402]","trial_type":"fractal-mutation","trial_index":40,"time_elapsed":1337444,"internal_node_id":"0.0-5.0-1.0"},{"group":"dicyclic group of order 12","fractal_assignment":["../images/gry_blk.png","../images/pnk_blu.png","../images/red_prp.png","../images/cyn_red.png","../images/blu_wht.png","../images/org_blu.png","../images/wht_red.png","../images/grn_red.png","../images/grn_prp.png","../images/grn_blu.png","../images/ylw_slt.png","../images/ylw_pnk.png"],"mutagen_generator_assignment":[0,1],"goal":0,"start":5,"action_noise":0.15,"location_history":"[5,10,2,3,0]","action_history":"[0,1,1,0]","mutagen_history":"[0,1,1,0]","location_rts":"[742,1683,415,1211]","trial_type":"fractal-mutation","trial_index":41,"time_elapsed":1349349,"internal_node_id":"0.0-5.0-2.0"},{"group":"dicyclic group of order 12","fractal_assignment":["../images/gry_blk.png","../images/pnk_blu.png","../images/red_prp.png","../images/cyn_red.png","../images/blu_wht.png","../images/org_blu.png","../images/wht_red.png","../images/grn_red.png","../images/grn_prp.png","../images/grn_blu.png","../images/ylw_slt.png","../images/ylw_pnk.png"],"mutagen_generator_assignment":[0,1],"goal":2,"start":0,"action_noise":0.15,"location_history":"[0,1,5,9,6,10,2]","action_history":"[0,1,0,0,0,1]","mutagen_history":"[0,1,0,0,0,1]","location_rts":"[1365,1867,2321,967,2539,2460]","trial_type":"fractal-mutation","trial_index":42,"time_elapsed":1370849,"internal_node_id":"0.0-5.0-3.0"},{"group":"dicyclic group of order 12","fractal_assignment":["../images/gry_blk.png","../images/pnk_blu.png","../images/red_prp.png","../images/cyn_red.png","../images/blu_wht.png","../images/org_blu.png","../images/wht_red.png","../images/grn_red.png","../images/grn_prp.png","../images/grn_blu.png","../images/ylw_slt.png","../images/ylw_pnk.png"],"mutagen_generator_assignment":[0,1],"goal":10,"start":2,"action_noise":0.15,"location_history":"[2,3,0,4,9,6,10]","action_history":"[0,1,0,0,0,1]","mutagen_history":"[0,1,0,0,0,1]","location_rts":"[2100,1454,1595,169,757,33446]","trial_type":"fractal-mutation","trial_index":43,"time_elapsed":1420374,"internal_node_id":"0.0-5.0-4.0"},{"group":"dicyclic group of order 12","fractal_assignment":["../images/gry_blk.png","../images/pnk_blu.png","../images/red_prp.png","../images/cyn_red.png","../images/blu_wht.png","../images/org_blu.png","../images/wht_red.png","../images/grn_red.png","../images/grn_prp.png","../images/grn_blu.png","../images/ylw_slt.png","../images/ylw_pnk.png"],"mutagen_generator_assignment":[0,1],"goal":8,"start":10,"action_noise":0.15,"location_history":"[10,7,11,3,7,8]","action_history":"[0,1,1,1,0]","mutagen_history":"[0,1,1,1,0]","location_rts":"[526,1716,295,466,450]","trial_type":"fractal-mutation","trial_index":44,"time_elapsed":1432824,"internal_node_id":"0.0-5.0-5.0"},{"group":"dicyclic group of order 12","fractal_assignment":["../images/gry_blk.png","../images/pnk_blu.png","../images/red_prp.png","../images/cyn_red.png","../images/blu_wht.png","../images/org_blu.png","../images/wht_red.png","../images/grn_red.png","../images/grn_prp.png","../images/grn_blu.png","../images/ylw_slt.png","../images/ylw_pnk.png"],"mutagen_generator_assignment":[0,1],"goal":11,"start":8,"action_noise":0.15,"location_history":"[8,0,1,5,9,6,11]","action_history":"[1,0,1,1,0,0]","mutagen_history":"[1,0,1,1,0,0]","location_rts":"[765,651,795,920,735,558]","trial_type":"fractal-mutation","trial_index":45,"time_elapsed":1447352,"internal_node_id":"0.0-5.0-6.0"},{"group":"dicyclic group of order 12","fractal_assignment":["../images/gry_blk.png","../images/pnk_blu.png","../images/red_prp.png","../images/cyn_red.png","../images/blu_wht.png","../images/org_blu.png","../images/wht_red.png","../images/grn_red.png","../images/grn_prp.png","../images/grn_blu.png","../images/ylw_slt.png","../images/ylw_pnk.png"],"mutagen_generator_assignment":[0,1],"goal":6,"start":11,"action_noise":0.15,"location_history":"[11,3,0,1,5,10,2,3,0,1,2,6]","action_history":"[1,0,0,1,0,1,0,1,1,1,1]","mutagen_history":"[1,0,0,1,0,1,0,1,1,1,1]","location_rts":"[967,726,1326,948,1129,1008,1122,1181,1246,1108,1604]","trial_type":"fractal-mutation","trial_index":46,"time_elapsed":1475370,"internal_node_id":"0.0-5.0-7.0"},{"group":"dicyclic group of order 12","fractal_assignment":["../images/gry_blk.png","../images/pnk_blu.png","../images/red_prp.png","../images/cyn_red.png","../images/blu_wht.png","../images/org_blu.png","../images/wht_red.png","../images/grn_red.png","../images/grn_prp.png","../images/grn_blu.png","../images/ylw_slt.png","../images/ylw_pnk.png"],"mutagen_generator_assignment":[0,1],"goal":4,"start":6,"action_noise":0.15,"location_history":"[6,11,4]","action_history":"[0,0]","mutagen_history":"[0,0]","location_rts":"[894,377]","trial_type":"fractal-mutation","trial_index":47,"time_elapsed":1482199,"internal_node_id":"0.0-5.0-8.0"},{"group":"dicyclic group of order 12","fractal_assignment":["../images/gry_blk.png","../images/pnk_blu.png","../images/red_prp.png","../images/cyn_red.png","../images/blu_wht.png","../images/org_blu.png","../images/wht_red.png","../images/grn_red.png","../images/grn_prp.png","../images/grn_blu.png","../images/ylw_slt.png","../images/ylw_pnk.png"],"mutagen_generator_assignment":[0,1],"goal":1,"start":4,"action_noise":0.15,"location_history":"[4,9,6,10,7,8,0,1]","action_history":"[1,0,0,0,1,1,0]","mutagen_history":"[1,0,0,0,1,1,0]","location_rts":"[618,559,476,2660,1020,1068,376]","trial_type":"fractal-mutation","trial_index":48,"time_elapsed":1500170,"internal_node_id":"0.0-5.0-9.0"},{"group":"dicyclic group of order 12","fractal_assignment":["../images/gry_blk.png","../images/pnk_blu.png","../images/red_prp.png","../images/cyn_red.png","../images/blu_wht.png","../images/org_blu.png","../images/wht_red.png","../images/grn_red.png","../images/grn_prp.png","../images/grn_blu.png","../images/ylw_slt.png","../images/ylw_pnk.png"],"mutagen_generator_assignment":[0,1],"goal":9,"start":1,"action_noise":0.15,"location_history":"[1,2,6,11,3,7,8,0,1,2,3,7,8,5,10,7,8,5,9]","action_history":"[0,1,0,0,1,0,1,0,1,0,1,0,0,0,1,0,0,1]","mutagen_history":"[0,1,0,0,1,0,1,0,1,0,1,0,0,0,1,0,0,1]","location_rts":"[455,1774,753,1303,2947,3383,1455,1930,3184,2236,2538,989,1140,822,948,1339,1955,1126]","trial_type":"fractal-mutation","trial_index":49,"time_elapsed":1553546,"internal_node_id":"0.0-5.0-10.0"},{"group":"dicyclic group of order 12","fractal_assignment":["../images/gry_blk.png","../images/pnk_blu.png","../images/red_prp.png","../images/cyn_red.png","../images/blu_wht.png","../images/org_blu.png","../images/wht_red.png","../images/grn_red.png","../images/grn_prp.png","../images/grn_blu.png","../images/ylw_slt.png","../images/ylw_pnk.png"],"mutagen_generator_assignment":[0,1],"goal":10,"start":9,"action_noise":0.15,"location_history":"[9,1,5,10]","action_history":"[0,1,0]","mutagen_history":"[0,1,0]","location_rts":"[913,1640,2011]","trial_type":"fractal-mutation","trial_index":50,"time_elapsed":1564827,"internal_node_id":"0.0-5.0-11.0"},{"group":"dicyclic group of order 12","fractal_assignment":["../images/gry_blk.png","../images/pnk_blu.png","../images/red_prp.png","../images/cyn_red.png","../images/blu_wht.png","../images/org_blu.png","../images/wht_red.png","../images/grn_red.png","../images/grn_prp.png","../images/grn_blu.png","../images/ylw_slt.png","../images/ylw_pnk.png"],"mutagen_generator_assignment":[0,1],"goal":2,"start":10,"action_noise":0.15,"location_history":"[10,7,11,4,9,1,2]","action_history":"[0,0,0,0,1,0]","mutagen_history":"[0,0,0,0,1,0]","location_rts":"[1424,590,655,1750,269,212]","trial_type":"fractal-mutation","trial_index":51,"time_elapsed":1579523,"internal_node_id":"0.0-5.0-12.0"},{"group":"dicyclic group of order 12","fractal_assignment":["../images/gry_blk.png","../images/pnk_blu.png","../images/red_prp.png","../images/cyn_red.png","../images/blu_wht.png","../images/org_blu.png","../images/wht_red.png","../images/grn_red.png","../images/grn_prp.png","../images/grn_blu.png","../images/ylw_slt.png","../images/ylw_pnk.png"],"mutagen_generator_assignment":[0,1],"goal":0,"start":2,"action_noise":0.15,"location_history":"[2,6,11,3,0]","action_history":"[0,0,1,0]","mutagen_history":"[0,0,1,0]","location_rts":"[365,484,1039,1190]","trial_type":"fractal-mutation","trial_index":52,"time_elapsed":1590352,"internal_node_id":"0.0-5.0-13.0"},{"group":"dicyclic group of order 12","fractal_assignment":["../images/gry_blk.png","../images/pnk_blu.png","../images/red_prp.png","../images/cyn_red.png","../images/blu_wht.png","../images/org_blu.png","../images/wht_red.png","../images/grn_red.png","../images/grn_prp.png","../images/grn_blu.png","../images/ylw_slt.png","../images/ylw_pnk.png"],"mutagen_generator_assignment":[0,1],"goal":9,"start":0,"action_noise":0.15,"location_history":"[0,4,9]","action_history":"[1,0]","mutagen_history":"[1,0]","location_rts":"[1101,854]","trial_type":"fractal-mutation","trial_index":53,"time_elapsed":1598005,"internal_node_id":"0.0-5.0-14.0"},{"group":"dicyclic group of order 12","fractal_assignment":["../images/gry_blk.png","../images/pnk_blu.png","../images/red_prp.png","../images/cyn_red.png","../images/blu_wht.png","../images/org_blu.png","../images/wht_red.png","../images/grn_red.png","../images/grn_prp.png","../images/grn_blu.png","../images/ylw_slt.png","../images/ylw_pnk.png"],"mutagen_generator_assignment":[0,1],"goal":8,"start":9,"action_noise":0.15,"location_history":"[9,6,10,2,3,0,4,9,6,10,2,3,0,4,9,6,10,2,3,7,8]","action_history":"[0,1,1,0,0,1,0,0,1,1,1,0,0,0,0,1,1,0,1,0]","mutagen_history":"[0,1,1,0,0,1,0,0,1,1,1,0,0,0,0,1,1,0,1,0]","location_rts":"[1020,1667,1491,1508,1567,1022,1787,1128,691,482,1099,1366,4579,1158,2479,2553,1362,2261,1486,3678]","trial_type":"fractal-mutation","trial_index":54,"time_elapsed":1657756,"internal_node_id":"0.0-5.0-15.0"},{"group":"dicyclic group of order 12","fractal_assignment":["../images/gry_blk.png","../images/pnk_blu.png","../images/red_prp.png","../images/cyn_red.png","../images/blu_wht.png","../images/org_blu.png","../images/wht_red.png","../images/grn_red.png","../images/grn_prp.png","../images/grn_blu.png","../images/ylw_slt.png","../images/ylw_pnk.png"],"mutagen_generator_assignment":[0,1],"goal":6,"start":8,"action_noise":0.15,"location_history":"[8,5,9,6]","action_history":"[0,1,0]","mutagen_history":"[0,1,0]","location_rts":"[585,1002,2108]","trial_type":"fractal-mutation","trial_index":55,"time_elapsed":1668164,"internal_node_id":"0.0-5.0-16.0"},{"group":"dicyclic group of order 12","fractal_assignment":["../images/gry_blk.png","../images/pnk_blu.png","../images/red_prp.png","../images/cyn_red.png","../images/blu_wht.png","../images/org_blu.png","../images/wht_red.png","../images/grn_red.png","../images/grn_prp.png","../images/grn_blu.png","../images/ylw_slt.png","../images/ylw_pnk.png"],"mutagen_generator_assignment":[0,1],"goal":1,"start":6,"action_noise":0.15,"location_history":"[6,11,3,0,4,9,6,10,7,8,0,4,8,5,9,1]","action_history":"[0,1,0,1,0,0,1,1,0,1,0,1,0,1,0]","mutagen_history":"[0,1,0,1,0,0,1,1,0,1,0,1,0,1,0]","location_rts":"[1965,2695,2180,3367,1301,1487,1706,15040,971,834,1361,1808,1742,1004,1152]","trial_type":"fractal-mutation","trial_index":56,"time_elapsed":1726644,"internal_node_id":"0.0-5.0-17.0"},{"group":"dicyclic group of order 12","fractal_assignment":["../images/gry_blk.png","../images/pnk_blu.png","../images/red_prp.png","../images/cyn_red.png","../images/blu_wht.png","../images/org_blu.png","../images/wht_red.png","../images/grn_red.png","../images/grn_prp.png","../images/grn_blu.png","../images/ylw_slt.png","../images/ylw_pnk.png"],"mutagen_generator_assignment":[0,1],"goal":4,"start":1,"action_noise":0.15,"location_history":"[1,2,6,11,3,0,4]","action_history":"[0,1,0,1,0,1]","mutagen_history":"[0,1,0,1,0,1]","location_rts":"[481,1683,3507,2010,1145,2596]","trial_type":"fractal-mutation","trial_index":57,"time_elapsed":1748137,"internal_node_id":"0.0-5.0-18.0"},{"group":"dicyclic group of order 12","fractal_assignment":["../images/gry_blk.png","../images/pnk_blu.png","../images/red_prp.png","../images/cyn_red.png","../images/blu_wht.png","../images/org_blu.png","../images/wht_red.png","../images/grn_red.png","../images/grn_prp.png","../images/grn_blu.png","../images/ylw_slt.png","../images/ylw_pnk.png"],"mutagen_generator_assignment":[0,1],"goal":11,"start":4,"action_noise":0.15,"location_history":"[4,8,5,9,1,5,9,1,2,6,11]","action_history":"[0,0,1,1,1,1,1,0,1,0]","mutagen_history":"[0,0,1,1,1,1,1,0,1,0]","location_rts":"[303,1130,545,637,611,891,842,1026,1487,1087]","trial_type":"fractal-mutation","trial_index":58,"time_elapsed":1771099,"internal_node_id":"0.0-5.0-19.0"},{"group":"dicyclic group of order 12","fractal_assignment":["../images/gry_blk.png","../images/pnk_blu.png","../images/red_prp.png","../images/cyn_red.png","../images/blu_wht.png","../images/org_blu.png","../images/wht_red.png","../images/grn_red.png","../images/grn_prp.png","../images/grn_blu.png","../images/ylw_slt.png","../images/ylw_pnk.png"],"mutagen_generator_assignment":[0,1],"goal":3,"start":11,"action_noise":0.15,"location_history":"[11,4,9,1,2,6,11,3]","action_history":"[1,0,1,0,1,0,1]","mutagen_history":"[1,0,1,0,1,0,1]","location_rts":"[525,1236,1723,1615,2063,1795,2514]","trial_type":"fractal-mutation","trial_index":59,"time_elapsed":1793753,"internal_node_id":"0.0-5.0-20.0"},{"group":"dicyclic group of order 12","fractal_assignment":["../images/gry_blk.png","../images/pnk_blu.png","../images/red_prp.png","../images/cyn_red.png","../images/blu_wht.png","../images/org_blu.png","../images/wht_red.png","../images/grn_red.png","../images/grn_prp.png","../images/grn_blu.png","../images/ylw_slt.png","../images/ylw_pnk.png"],"mutagen_generator_assignment":[0,1],"goal":5,"start":3,"action_noise":0.15,"location_history":"[3,7,11,4,8,0,1,5]","action_history":"[1,1,1,1,1,1,1]","mutagen_history":"[1,1,1,1,1,1,1]","location_rts":"[1115,29597,721,309,550,336,778]","trial_type":"fractal-mutation","trial_index":60,"time_elapsed":1838476,"internal_node_id":"0.0-5.0-21.0"},{"group":"dicyclic group of order 12","fractal_assignment":["../images/gry_blk.png","../images/pnk_blu.png","../images/red_prp.png","../images/cyn_red.png","../images/blu_wht.png","../images/org_blu.png","../images/wht_red.png","../images/grn_red.png","../images/grn_prp.png","../images/grn_blu.png","../images/ylw_slt.png","../images/ylw_pnk.png"],"mutagen_generator_assignment":[0,1],"goal":7,"start":5,"action_noise":0.15,"location_history":"[5,10,7]","action_history":"[0,0]","mutagen_history":"[0,0]","location_rts":"[782,2591]","trial_type":"fractal-mutation","trial_index":61,"time_elapsed":1847405,"internal_node_id":"0.0-5.0-22.0"},{"group":"dicyclic group of order 12","fractal_assignment":["../images/gry_blk.png","../images/pnk_blu.png","../images/red_prp.png","../images/cyn_red.png","../images/blu_wht.png","../images/org_blu.png","../images/wht_red.png","../images/grn_red.png","../images/grn_prp.png","../images/grn_blu.png","../images/ylw_slt.png","../images/ylw_pnk.png"],"mutagen_generator_assignment":[0,1],"goal":3,"start":7,"action_noise":0.15,"location_history":"[7,11,4,8,5,9,6,10,7,8,0,4,8,0,1,2,3]","action_history":"[1,0,1,0,1,0,1,0,0,1,0,1,1,0,0,1]","mutagen_history":"[1,0,1,0,1,0,1,0,0,1,0,1,1,0,0,1]","location_rts":"[667,2569,1022,895,1323,2277,770,1439,880,1828,2517,1152,411,455,693,1869]","trial_type":"fractal-mutation","trial_index":62,"time_elapsed":1889271,"internal_node_id":"0.0-5.0-23.0"},{"group":"dicyclic group of order 12","fractal_assignment":["../images/gry_blk.png","../images/pnk_blu.png","../images/red_prp.png","../images/cyn_red.png","../images/blu_wht.png","../images/org_blu.png","../images/wht_red.png","../images/grn_red.png","../images/grn_prp.png","../images/grn_blu.png","../images/ylw_slt.png","../images/ylw_pnk.png"],"mutagen_generator_assignment":[0,1],"goal":4,"start":3,"action_noise":0.15,"location_history":"[3,7,8,0,1,5,10,2,6,10,2,6,11,4]","action_history":"[1,1,1,0,1,0,1,1,0,1,1,0,0]","mutagen_history":"[1,1,1,0,1,0,1,1,0,1,1,0,0]","location_rts":"[786,359,1155,969,1391,1738,736,1563,1267,30485,410,949,1274]","trial_type":"fractal-mutation","trial_index":63,"time_elapsed":1950176,"internal_node_id":"0.0-5.0-24.0"},{"group":"dicyclic group of order 12","fractal_assignment":["../images/gry_blk.png","../images/pnk_blu.png","../images/red_prp.png","../images/cyn_red.png","../images/blu_wht.png","../images/org_blu.png","../images/wht_red.png","../images/grn_red.png","../images/grn_prp.png","../images/grn_blu.png","../images/ylw_slt.png","../images/ylw_pnk.png"],"mutagen_generator_assignment":[0,1],"goal":8,"start":4,"action_noise":0.15,"location_history":"[4,8]","action_history":"[1]","mutagen_history":"[1]","location_rts":"[547]","trial_type":"fractal-mutation","trial_index":64,"time_elapsed":1955348,"internal_node_id":"0.0-5.0-25.0"},{"group":"dicyclic group of order 12","fractal_assignment":["../images/gry_blk.png","../images/pnk_blu.png","../images/red_prp.png","../images/cyn_red.png","../images/blu_wht.png","../images/org_blu.png","../images/wht_red.png","../images/grn_red.png","../images/grn_prp.png","../images/grn_blu.png","../images/ylw_slt.png","../images/ylw_pnk.png"],"mutagen_generator_assignment":[0,1],"goal":6,"start":8,"action_noise":0.15,"location_history":"[8,0,1,2,6]","action_history":"[1,0,0,1]","mutagen_history":"[1,0,0,1]","location_rts":"[627,1837,1066,5529]","trial_type":"fractal-mutation","trial_index":65,"time_elapsed":1972328,"internal_node_id":"0.0-5.0-26.0"},{"group":"dicyclic group of order 12","fractal_assignment":["../images/gry_blk.png","../images/pnk_blu.png","../images/red_prp.png","../images/cyn_red.png","../images/blu_wht.png","../images/org_blu.png","../images/wht_red.png","../images/grn_red.png","../images/grn_prp.png","../images/grn_blu.png","../images/ylw_slt.png","../images/ylw_pnk.png"],"mutagen_generator_assignment":[0,1],"goal":1,"start":6,"action_noise":0.15,"location_history":"[6,11,4,8,5,9,6,10,7,11,4,8,5,9,1]","action_history":"[0,0,1,0,1,0,0,0,1,1,1,0,1,1]","mutagen_history":"[0,0,1,0,1,0,0,0,1,1,1,0,1,1]","location_rts":"[427,1480,1182,490,765,1088,1388,1255,157,229,980,2031,1169,5725]","trial_type":"fractal-mutation","trial_index":66,"time_elapsed":2009450,"internal_node_id":"0.0-5.0-27.0"},{"group":"dicyclic group of order 12","fractal_assignment":["../images/gry_blk.png","../images/pnk_blu.png","../images/red_prp.png","../images/cyn_red.png","../images/blu_wht.png","../images/org_blu.png","../images/wht_red.png","../images/grn_red.png","../images/grn_prp.png","../images/grn_blu.png","../images/ylw_slt.png","../images/ylw_pnk.png"],"mutagen_generator_assignment":[0,1],"goal":5,"start":1,"action_noise":0.15,"location_history":"[1,5]","action_history":"[1]","mutagen_history":"[1]","location_rts":"[1786]","trial_type":"fractal-mutation","trial_index":67,"time_elapsed":2015848,"internal_node_id":"0.0-5.0-28.0"},{"group":"dicyclic group of order 12","fractal_assignment":["../images/gry_blk.png","../images/pnk_blu.png","../images/red_prp.png","../images/cyn_red.png","../images/blu_wht.png","../images/org_blu.png","../images/wht_red.png","../images/grn_red.png","../images/grn_prp.png","../images/grn_blu.png","../images/ylw_slt.png","../images/ylw_pnk.png"],"mutagen_generator_assignment":[0,1],"goal":9,"start":5,"action_noise":0.15,"location_history":"[5,10,2,6,10,7,11,4,8,0,4,8,5,10,7,8,5,9]","action_history":"[0,1,1,0,0,1,0,0,1,1,1,0,1,0,0,0,1]","mutagen_history":"[0,1,1,0,0,1,0,0,1,1,1,0,1,0,0,0,1]","location_rts":"[460,818,1109,917,2289,1332,651,1285,967,1518,707,1276,3663,890,397,1296,1067]","trial_type":"fractal-mutation","trial_index":68,"time_elapsed":2058564,"internal_node_id":"0.0-5.0-29.0"},{"group":"dicyclic group of order 12","fractal_assignment":["../images/gry_blk.png","../images/pnk_blu.png","../images/red_prp.png","../images/cyn_red.png","../images/blu_wht.png","../images/org_blu.png","../images/wht_red.png","../images/grn_red.png","../images/grn_prp.png","../images/grn_blu.png","../images/ylw_slt.png","../images/ylw_pnk.png"],"mutagen_generator_assignment":[0,1],"goal":10,"start":9,"action_noise":0.15,"location_history":"[9,1,5,10]","action_history":"[1,0,1]","mutagen_history":"[1,0,1]","location_rts":"[621,823,2285]","trial_type":"fractal-mutation","trial_index":69,"time_elapsed":2069097,"internal_node_id":"0.0-5.0-30.0"},{"group":"dicyclic group of order 12","fractal_assignment":["../images/gry_blk.png","../images/pnk_blu.png","../images/red_prp.png","../images/cyn_red.png","../images/blu_wht.png","../images/org_blu.png","../images/wht_red.png","../images/grn_red.png","../images/grn_prp.png","../images/grn_blu.png","../images/ylw_slt.png","../images/ylw_pnk.png"],"mutagen_generator_assignment":[0,1],"goal":0,"start":10,"action_noise":0.15,"location_history":"[10,2,3,7,8,0]","action_history":"[1,0,1,0,1]","mutagen_history":"[1,0,1,0,1]","location_rts":"[355,39,1192,1099,262]","trial_type":"fractal-mutation","trial_index":70,"time_elapsed":2081085,"internal_node_id":"0.0-5.0-31.0"},{"group":"dicyclic group of order 12","fractal_assignment":["../images/gry_blk.png","../images/pnk_blu.png","../images/red_prp.png","../images/cyn_red.png","../images/blu_wht.png","../images/org_blu.png","../images/wht_red.png","../images/grn_red.png","../images/grn_prp.png","../images/grn_blu.png","../images/ylw_slt.png","../images/ylw_pnk.png"],"mutagen_generator_assignment":[0,1],"goal":7,"start":0,"action_noise":0.15,"location_history":"[0,4,9,1,2,3,7]","action_history":"[1,0,1,0,0,1]","mutagen_history":"[1,0,1,0,0,1]","location_rts":"[3353,826,2898,440,664,690]","trial_type":"fractal-mutation","trial_index":71,"time_elapsed":2100033,"internal_node_id":"0.0-5.0-32.0"},{"group":"dicyclic group of order 12","fractal_assignment":["../images/gry_blk.png","../images/pnk_blu.png","../images/red_prp.png","../images/cyn_red.png","../images/blu_wht.png","../images/org_blu.png","../images/wht_red.png","../images/grn_red.png","../images/grn_prp.png","../images/grn_blu.png","../images/ylw_slt.png","../images/ylw_pnk.png"],"mutagen_generator_assignment":[0,1],"goal":11,"start":7,"action_noise":0.15,"location_history":"[7,8,0,1,5,9,1,5,9,6,10,7,8,0,1,2,3,7,11]","action_history":"[0,1,0,1,0,1,1,0,0,1,0,0,1,0,0,0,1,0]","mutagen_history":"[0,1,0,1,0,1,1,0,0,1,0,0,1,0,0,0,1,0]","location_rts":"[342,822,2087,841,2061,1610,7898,1485,745,1269,514,733,598,1537,1868,654,1166,1429]","trial_type":"fractal-mutation","trial_index":72,"time_elapsed":2150895,"internal_node_id":"0.0-5.0-33.0"},{"group":"dicyclic group of order 12","fractal_assignment":["../images/gry_blk.png","../images/pnk_blu.png","../images/red_prp.png","../images/cyn_red.png","../images/blu_wht.png","../images/org_blu.png","../images/wht_red.png","../images/grn_red.png","../images/grn_prp.png","../images/grn_blu.png","../images/ylw_slt.png","../images/ylw_pnk.png"],"mutagen_generator_assignment":[0,1],"goal":2,"start":11,"action_noise":0.15,"location_history":"[11,3,0,1,5,10,2]","action_history":"[1,1,0,1,0,1]","mutagen_history":"[1,1,0,1,0,1]","location_rts":"[766,665,1346,1164,924,1084]","trial_type":"fractal-mutation","trial_index":73,"time_elapsed":2166956,"internal_node_id":"0.0-5.0-34.0"},{"view_history":"[{\"page_index\":0,\"viewing_time\":9395}]","rt":9395,"trial_type":"instructions","trial_index":74,"time_elapsed":2177353,"internal_node_id":"0.0-6.0"},{"rt":33831,"responses":"{\"Q0\":\"To see how we associate colors to find the way through the haunted house?\"}","trial_type":"survey-text","trial_index":75,"time_elapsed":2212187,"internal_node_id":"0.0-7.0-0.0"},{"rt":25452,"responses":"{\"Q0\":\"To see how well we memorize complex patterns\"}","trial_type":"survey-text","trial_index":76,"time_elapsed":2238641,"internal_node_id":"0.0-7.0-1.0"},{"rt":3764,"responses":"{\"Q0\":\"2\"}","trial_type":"survey-likert","trial_index":77,"time_elapsed":2243409,"internal_node_id":"0.0-7.0-2.0"},{"rt":30478,"responses":"{\"Q0\":\"The both dealt with patterns. But I found visual patterns harder. I've never been good at those.\"}","trial_type":"survey-text","trial_index":78,"time_elapsed":2274889,"internal_node_id":"0.0-7.0-3.0"},{"rt":5144,"responses":"{\"Q0\":\"No\"}","trial_type":"survey-multi-choice","trial_index":79,"time_elapsed":2281041,"internal_node_id":"0.0-7.0-4.0"},{"rt":7258,"responses":"{\"Q0\":\"Between sessions 1 and 2\"}","trial_type":"survey-multi-choice","trial_index":80,"time_elapsed":2289301,"internal_node_id":"0.0-7.0-5.0"},{"rt":64387,"responses":"{\"Q0\":\"If I saw an ivory door the white door lead me to a grey door.\\nIf the door was dark green it led me to brown\\nIf pink to purple.\\nIf Yellow to olive green\\nIf Cyan to Blue etc etc\"}","trial_type":"survey-text","trial_index":81,"time_elapsed":2354690,"internal_node_id":"0.0-7.0-6.0"},{"rt":3445,"responses":"{\"Q0\":\"4\"}","trial_type":"survey-likert","trial_index":82,"time_elapsed":2359138,"internal_node_id":"0.0-7.0-7.0"},{"rt":5846,"responses":"{\"Q0\":\"Same structure\"}","trial_type":"survey-multi-choice","trial_index":83,"time_elapsed":2365986,"internal_node_id":"0.0-7.0-8.0"},{"rt":14161,"responses":"{\"Q0\":\"white door = acid, black door = ray\",\"Q1\":\"Moderately confident\"}","trial_type":"survey-multi-choice","trial_index":84,"time_elapsed":2381151,"internal_node_id":"0.0-7.0-9.0"},{"rt":6703,"responses":"{\"Q0\":\"25-35\",\"Q1\":\"Bachelor's degree\",\"Q2\":\"Female\",\"Q3\":\"Hispanic\"}","trial_type":"survey-multi-choice","trial_index":85,"time_elapsed":2388863,"internal_node_id":"0.0-8.0"},{"rt":1300,"responses":"{\"Q0\":\"\"}","trial_type":"survey-text","trial_index":86,"time_elapsed":2391165,"internal_node_id":"0.0-9.0"}]