[{"view_history":"[{\"page_index\":0,\"viewing_time\":210453},{\"page_index\":1,\"viewing_time\":16714}]","rt":227168,"trial_type":"instructions","trial_index":0,"time_elapsed":227168,"internal_node_id":"0.0-0.0"},{"view_history":"[{\"page_index\":0,\"viewing_time\":2813},{\"page_index\":1,\"viewing_time\":46254}]","rt":49067,"trial_type":"instructions","trial_index":1,"time_elapsed":277236,"internal_node_id":"0.0-1.0"},{"group":"dihedral group of order 12","room_assignment":["grey","yellow","orange","red","cyan","brown","pink","blue","purple","ivory","olive","green"],"door_color_assignment":["white","black"],"door_generator_assignment":[0,1],"goal":7,"start":3,"action_noise":0.15,"location_history":"[3,9,3,9,8,2,3,9,8,7]","action_history":"[1,1,0,0,1,0,1,0,0]","door_history":"[1,1,0,0,1,0,1,0,0]","location_rts":"[1887,617,340,812,580,556,402,1136,477]","trial_type":"two-door-navigation","trial_index":2,"time_elapsed":296740,"internal_node_id":"0.0-2.0-0.0"},{"group":"dihedral group of order 12","room_assignment":["grey","yellow","orange","red","cyan","brown","pink","blue","purple","ivory","olive","green"],"door_color_assignment":["white","black"],"door_generator_assignment":[0,1],"goal":5,"start":7,"action_noise":0.15,"location_history":"[7,6,0,1,7,6,11,5]","action_history":"[1,1,0,1,0,1,1]","door_history":"[1,1,0,1,0,1,1]","location_rts":"[865,332,292,346,383,486,765]","trial_type":"two-door-navigation","trial_index":3,"time_elapsed":310859,"internal_node_id":"0.0-2.0-1.0"},{"group":"dihedral group of order 12","room_assignment":["grey","yellow","orange","red","cyan","brown","pink","blue","purple","ivory","olive","green"],"door_color_assignment":["white","black"],"door_generator_assignment":[0,1],"goal":0,"start":5,"action_noise":0.15,"location_history":"[5,0]","action_history":"[1]","door_history":"[1]","location_rts":"[3296]","trial_type":"two-door-navigation","trial_index":4,"time_elapsed":318677,"internal_node_id":"0.0-2.0-2.0"},{"group":"dihedral group of order 12","room_assignment":["grey","yellow","orange","red","cyan","brown","pink","blue","purple","ivory","olive","green"],"door_color_assignment":["white","black"],"door_generator_assignment":[0,1],"goal":2,"start":0,"action_noise":0.15,"location_history":"[0,1,7,1,2]","action_history":"[0,1,1,1]","door_history":"[0,1,1,1]","location_rts":"[533,266,313,259]","trial_type":"two-door-navigation","trial_index":5,"time_elapsed":327637,"internal_node_id":"0.0-2.0-3.0"},{"group":"dihedral group of order 12","room_assignment":["grey","yellow","orange","red","cyan","brown","pink","blue","purple","ivory","olive","green"],"door_color_assignment":["white","black"],"door_generator_assignment":[0,1],"goal":10,"start":2,"action_noise":0.15,"location_history":"[2,3,9,8,2,8,7,6,11,10]","action_history":"[1,1,0,1,1,1,0,0,0]","door_history":"[1,1,0,1,1,1,0,0,0]","location_rts":"[363,270,331,325,277,354,353,275,556]","trial_type":"two-door-navigation","trial_index":6,"time_elapsed":343436,"internal_node_id":"0.0-2.0-4.0"},{"group":"dihedral group of order 12","room_assignment":["grey","yellow","orange","red","cyan","brown","pink","blue","purple","ivory","olive","green"],"door_color_assignment":["white","black"],"door_generator_assignment":[0,1],"goal":8,"start":10,"action_noise":0.15,"location_history":"[10,4,5,11,5,11,5,11,10,9,8]","action_history":"[1,1,1,1,1,1,1,1,0,0]","door_history":"[1,1,1,1,1,1,1,1,0,0]","location_rts":"[358,269,622,466,731,659,747,419,592,493]","trial_type":"two-door-navigation","trial_index":7,"time_elapsed":362511,"internal_node_id":"0.0-2.0-5.0"},{"group":"dihedral group of order 12","room_assignment":["grey","yellow","orange","red","cyan","brown","pink","blue","purple","ivory","olive","green"],"door_color_assignment":["white","black"],"door_generator_assignment":[0,1],"goal":11,"start":8,"action_noise":0.15,"location_history":"[8,2,8,7,6,0,6,0,6,0,6,11]","action_history":"[1,1,0,0,1,1,1,1,1,1,0]","door_history":"[1,1,0,0,1,1,1,1,1,1,0]","location_rts":"[724,282,588,347,483,352,376,659,411,413,287]","trial_type":"two-door-navigation","trial_index":8,"time_elapsed":382166,"internal_node_id":"0.0-2.0-6.0"},{"group":"dihedral group of order 12","room_assignment":["grey","yellow","orange","red","cyan","brown","pink","blue","purple","ivory","olive","green"],"door_color_assignment":["white","black"],"door_generator_assignment":[0,1],"goal":6,"start":11,"action_noise":0.15,"location_history":"[11,5,11,10,4,5,11,5,11,10,9,3,4,5,11,10,4,5,0,1,7,1,2,8,7,6]","action_history":"[1,1,0,1,0,1,1,1,0,0,1,0,0,1,0,1,0,0,0,1,1,0,1,1,1]","door_history":"[1,1,0,1,0,1,1,1,0,0,1,0,0,1,0,1,0,0,0,1,1,0,1,1,1]","location_rts":"[522,330,365,556,268,380,275,387,445,277,766,318,347,757,356,314,440,364,347,462,595,353,331,257,314]","trial_type":"two-door-navigation","trial_index":9,"time_elapsed":421324,"internal_node_id":"0.0-2.0-7.0"},{"group":"dihedral group of order 12","room_assignment":["grey","yellow","orange","red","cyan","brown","pink","blue","purple","ivory","olive","green"],"door_color_assignment":["white","black"],"door_generator_assignment":[0,1],"goal":4,"start":6,"action_noise":0.15,"location_history":"[6,0,6,0,1,2,8,7,1,2,3,9,8,7,1,7,1,7,6,11,10,9,3,4]","action_history":"[1,1,1,0,0,0,0,1,1,0,0,0,1,1,1,1,1,0,0,0,0,0,0]","door_history":"[1,1,1,0,0,0,0,1,1,0,0,0,1,1,1,1,1,0,0,0,0,0,0]","location_rts":"[310,263,291,229,308,235,240,223,245,90,251,522,271,218,243,172,267,257,267,307,292,308,291]","trial_type":"two-door-navigation","trial_index":10,"time_elapsed":454410,"internal_node_id":"0.0-2.0-8.0"},{"group":"dihedral group of order 12","room_assignment":["grey","yellow","orange","red","cyan","brown","pink","blue","purple","ivory","olive","green"],"door_color_assignment":["white","black"],"door_generator_assignment":[0,1],"goal":1,"start":4,"action_noise":0.15,"location_history":"[4,10,4,5,11,5,11,5,11,5,11,10,9,3,4,5,11,10,4,10,9,8,2,8,2,3,9,3,4,5,0,6,0,6,11,10,9,3,9,3,4,5,0,6,11,10,4,5,0,6,11,5,0,1]","action_history":"[1,1,0,0,0,1,1,1,0,0,0,1,1,0,0,0,1,1,1,0,0,1,1,1,0,1,1,0,0,0,1,1,1,0,0,0,1,1,1,0,0,0,0,0,0,1,0,0,1,1,1,0,0]","door_history":"[1,1,0,0,0,1,1,1,0,0,0,1,1,0,0,0,1,1,1,0,0,1,1,1,0,1,1,0,0,0,1,1,1,0,0,0,1,1,1,0,0,0,0,0,0,1,0,0,1,1,1,0,0]","location_rts":"[1442,334,259,204,251,191,90,259,262,186,245,257,235,219,291,300,275,204,315,291,114,276,257,292,550,259,245,270,221,289,117,250,212,254,302,252,208,212,69,124,181,258,252,251,268,255,256,292,171,213,228,173,234]","trial_type":"two-door-navigation","trial_index":11,"time_elapsed":525940,"internal_node_id":"0.0-2.0-9.0"},{"group":"dihedral group of order 12","room_assignment":["grey","yellow","orange","red","cyan","brown","pink","blue","purple","ivory","olive","green"],"door_color_assignment":["white","black"],"door_generator_assignment":[0,1],"goal":9,"start":1,"action_noise":0.15,"location_history":"[1,2,3,9]","action_history":"[0,1,1]","door_history":"[0,1,1]","location_rts":"[626,527,74]","trial_type":"two-door-navigation","trial_index":12,"time_elapsed":533736,"internal_node_id":"0.0-2.0-10.0"},{"group":"dihedral group of order 12","room_assignment":["grey","yellow","orange","red","cyan","brown","pink","blue","purple","ivory","olive","green"],"door_color_assignment":["white","black"],"door_generator_assignment":[0,1],"goal":10,"start":9,"action_noise":0.15,"location_history":"[9,3,9,3,9,8,7,6,11,5,11,5,11,10]","action_history":"[1,1,1,1,0,0,0,0,1,1,1,1,0]","door_history":"[1,1,1,1,0,0,0,0,1,1,1,1,0]","location_rts":"[278,195,170,219,246,107,196,228,203,248,220,189,270]","trial_type":"two-door-navigation","trial_index":13,"time_elapsed":553283,"internal_node_id":"0.0-2.0-11.0"},{"group":"dihedral group of order 12","room_assignment":["grey","yellow","orange","red","cyan","brown","pink","blue","purple","ivory","olive","green"],"door_color_assignment":["white","black"],"door_generator_assignment":[0,1],"goal":2,"start":10,"action_noise":0.15,"location_history":"[10,4,10,4,10,4,5,11,5,11,10,4,5,0,6,11,10,4,5,0,1,2]","action_history":"[1,1,1,1,1,0,0,1,1,0,0,0,1,1,0,0,1,1,0,0,1]","door_history":"[1,1,1,1,1,0,0,1,1,0,0,0,1,1,0,0,1,1,0,0,1]","location_rts":"[254,204,251,307,530,249,259,250,189,261,189,203,251,235,125,179,194,109,113,140,214]","trial_type":"two-door-navigation","trial_index":14,"time_elapsed":582926,"internal_node_id":"0.0-2.0-12.0"},{"group":"dihedral group of order 12","room_assignment":["grey","yellow","orange","red","cyan","brown","pink","blue","purple","ivory","olive","green"],"door_color_assignment":["white","black"],"door_generator_assignment":[0,1],"goal":0,"start":2,"action_noise":0.15,"location_history":"[2,8,7,6,0]","action_history":"[1,0,0,1]","door_history":"[1,0,0,1]","location_rts":"[288,480,170,220]","trial_type":"two-door-navigation","trial_index":15,"time_elapsed":591671,"internal_node_id":"0.0-2.0-13.0"},{"group":"dihedral group of order 12","room_assignment":["grey","yellow","orange","red","cyan","brown","pink","blue","purple","ivory","olive","green"],"door_color_assignment":["white","black"],"door_generator_assignment":[0,1],"goal":9,"start":0,"action_noise":0.15,"location_history":"[0,6,11,10,9]","action_history":"[1,0,0,0]","door_history":"[1,0,0,0]","location_rts":"[263,45,202,112]","trial_type":"two-door-navigation","trial_index":16,"time_elapsed":599882,"internal_node_id":"0.0-2.0-14.0"},{"group":"dihedral group of order 12","room_assignment":["grey","yellow","orange","red","cyan","brown","pink","blue","purple","ivory","olive","green"],"door_color_assignment":["white","black"],"door_generator_assignment":[0,1],"goal":8,"start":9,"action_noise":0.15,"location_history":"[9,3,4,5,11,5,11,10,9,8]","action_history":"[1,0,0,1,1,1,0,0,0]","door_history":"[1,0,0,1,1,1,0,0,0]","location_rts":"[318,129,251,260,258,187,256,243,196]","trial_type":"two-door-navigation","trial_index":17,"time_elapsed":614669,"internal_node_id":"0.0-2.0-15.0"},{"group":"dihedral group of order 12","room_assignment":["grey","yellow","orange","red","cyan","brown","pink","blue","purple","ivory","olive","green"],"door_color_assignment":["white","black"],"door_generator_assignment":[0,1],"goal":6,"start":8,"action_noise":0.15,"location_history":"[8,2,8,7,6]","action_history":"[1,1,0,0]","door_history":"[1,1,0,0]","location_rts":"[279,133,257,227]","trial_type":"two-door-navigation","trial_index":18,"time_elapsed":623149,"internal_node_id":"0.0-2.0-16.0"},{"group":"dihedral group of order 12","room_assignment":["grey","yellow","orange","red","cyan","brown","pink","blue","purple","ivory","olive","green"],"door_color_assignment":["white","black"],"door_generator_assignment":[0,1],"goal":1,"start":6,"action_noise":0.15,"location_history":"[6,0,6,0,1]","action_history":"[1,1,1,0]","door_history":"[1,1,1,0]","location_rts":"[281,50,114,193]","trial_type":"two-door-navigation","trial_index":19,"time_elapsed":631383,"internal_node_id":"0.0-2.0-17.0"},{"group":"dihedral group of order 12","room_assignment":["grey","yellow","orange","red","cyan","brown","pink","blue","purple","ivory","olive","green"],"door_color_assignment":["white","black"],"door_generator_assignment":[0,1],"goal":4,"start":1,"action_noise":0.15,"location_history":"[1,7,1,7,1,2,3,9,8,7,1,7,6,11,5,0,6,0,1,7,1,7,1,2,3,9,8,7,6,11,10,9,8,7,1,7,6,0,1,7,1,2,8,7,6,0,1,2,8,2,3,9,8,7,6,0,6,0,1,2,3,4]","action_history":"[1,1,1,0,0,0,1,1,1,1,1,0,0,1,1,1,0,0,1,1,1,1,0,0,1,1,1,0,0,0,0,0,0,1,1,0,1,0,1,1,1,1,0,0,0,0,0,1,1,0,1,0,0,0,1,1,1,0,0,0,0]","door_history":"[1,1,1,0,0,0,1,1,1,1,1,0,0,1,1,1,0,0,1,1,1,1,0,0,1,1,1,0,0,0,0,0,0,1,1,0,1,0,1,1,1,1,0,0,0,0,0,1,1,0,1,0,0,0,1,1,1,0,0,0,0]","location_rts":"[282,11,252,248,227,217,253,90,179,131,211,154,204,234,227,260,170,218,243,220,156,140,229,125,243,229,260,221,260,221,267,195,219,236,268,219,247,219,252,161,173,204,67,227,139,182,99,142,220,77,257,112,196,242,87,164,699,200,176,260,549]","trial_type":"two-door-navigation","trial_index":20,"time_elapsed":710042,"internal_node_id":"0.0-2.0-18.0"},{"group":"dihedral group of order 12","room_assignment":["grey","yellow","orange","red","cyan","brown","pink","blue","purple","ivory","olive","green"],"door_color_assignment":["white","black"],"door_generator_assignment":[0,1],"goal":11,"start":4,"action_noise":0.15,"location_history":"[4,10,9,8,2,8,2,8,2,8,2,8,7,1,2,8,7,6,0,6,11]","action_history":"[1,0,0,1,1,1,1,1,1,1,1,0,0,0,0,0,0,1,1,1]","door_history":"[1,0,0,1,1,1,1,1,1,1,1,0,0,0,0,0,0,1,1,1]","location_rts":"[303,629,228,193,123,354,109,212,232,210,216,244,163,242,219,227,250,209,211,237]","trial_type":"two-door-navigation","trial_index":21,"time_elapsed":738781,"internal_node_id":"0.0-2.0-19.0"},{"group":"dihedral group of order 12","room_assignment":["grey","yellow","orange","red","cyan","brown","pink","blue","purple","ivory","olive","green"],"door_color_assignment":["white","black"],"door_generator_assignment":[0,1],"goal":3,"start":11,"action_noise":0.15,"location_history":"[11,5,0,6,11,5,0,6,11,5,11,10,4,10,4,10,4,10,4,5,0,1,7,1,2,8,2,8,7,6,11,10,9,8,7,1,7,1,7,6,11,10,9,8,7,1,2,3]","action_history":"[1,0,1,0,1,0,0,0,1,1,0,1,1,1,1,1,0,1,0,0,0,1,0,0,1,1,1,0,0,0,1,0,1,0,0,0,1,1,1,0,0,0,0,0,1,0,0]","door_history":"[1,0,1,0,1,0,0,0,1,1,0,1,1,1,1,1,0,1,0,0,0,1,0,0,1,1,1,0,0,0,1,0,1,0,0,0,1,1,1,0,0,0,0,0,1,0,0]","location_rts":"[5655,8799,4082,3567,6715,4851,349,127,239,229,197,213,219,243,228,244,246,1221,808,267,275,198,252,284,233,269,267,261,265,242,248,208,244,115,211,227,188,204,75,101,216,37,234,428,401,130,243]","trial_type":"two-door-navigation","trial_index":22,"time_elapsed":834830,"internal_node_id":"0.0-2.0-20.0"},{"group":"dihedral group of order 12","room_assignment":["grey","yellow","orange","red","cyan","brown","pink","blue","purple","ivory","olive","green"],"door_color_assignment":["white","black"],"door_generator_assignment":[0,1],"goal":5,"start":3,"action_noise":0.15,"location_history":"[3,9,8,2,3,4,5]","action_history":"[1,1,1,1,1,0]","door_history":"[1,1,1,1,1,0]","location_rts":"[941,254,132,283,124,148]","trial_type":"two-door-navigation","trial_index":23,"time_elapsed":846342,"internal_node_id":"0.0-2.0-21.0"},{"group":"dihedral group of order 12","room_assignment":["grey","yellow","orange","red","cyan","brown","pink","blue","purple","ivory","olive","green"],"door_color_assignment":["white","black"],"door_generator_assignment":[0,1],"goal":7,"start":5,"action_noise":0.15,"location_history":"[5,11,5,11,10,9,3,9,8,7]","action_history":"[1,1,0,0,0,1,1,0,0]","door_history":"[1,1,0,0,0,1,1,0,0]","location_rts":"[292,266,231,395,412,251,296,282,255]","trial_type":"two-door-navigation","trial_index":24,"time_elapsed":861712,"internal_node_id":"0.0-2.0-22.0"},{"group":"dihedral group of order 12","room_assignment":["grey","yellow","orange","red","cyan","brown","pink","blue","purple","ivory","olive","green"],"door_color_assignment":["white","black"],"door_generator_assignment":[0,1],"goal":3,"start":7,"action_noise":0.15,"location_history":"[7,1,7,6,11,10,9,3]","action_history":"[1,1,0,0,0,0,1]","door_history":"[1,1,0,0,0,0,1]","location_rts":"[345,244,260,266,278,299,415]","trial_type":"two-door-navigation","trial_index":25,"time_elapsed":874472,"internal_node_id":"0.0-2.0-23.0"},{"group":"dihedral group of order 12","room_assignment":["grey","yellow","orange","red","cyan","brown","pink","blue","purple","ivory","olive","green"],"door_color_assignment":["white","black"],"door_generator_assignment":[0,1],"goal":4,"start":3,"action_noise":0.15,"location_history":"[3,9,8,2,8,2,3,4]","action_history":"[1,1,1,1,1,0,0]","door_history":"[1,1,1,1,1,0,0]","location_rts":"[314,179,228,267,258,256,355]","trial_type":"two-door-navigation","trial_index":26,"time_elapsed":886978,"internal_node_id":"0.0-2.0-24.0"},{"group":"dihedral group of order 12","room_assignment":["grey","yellow","orange","red","cyan","brown","pink","blue","purple","ivory","olive","green"],"door_color_assignment":["white","black"],"door_generator_assignment":[0,1],"goal":8,"start":4,"action_noise":0.15,"location_history":"[4,5,0,1,7,1,7,6,11,5,11,10,9,8]","action_history":"[0,0,0,1,1,1,0,0,1,1,0,0,0]","door_history":"[0,0,0,1,1,1,0,0,1,1,0,0,0]","location_rts":"[454,232,207,236,252,227,252,244,244,308,260,243,251]","trial_type":"two-door-navigation","trial_index":27,"time_elapsed":907153,"internal_node_id":"0.0-2.0-25.0"},{"group":"dihedral group of order 12","room_assignment":["grey","yellow","orange","red","cyan","brown","pink","blue","purple","ivory","olive","green"],"door_color_assignment":["white","black"],"door_generator_assignment":[0,1],"goal":6,"start":8,"action_noise":0.15,"location_history":"[8,7,6]","action_history":"[0,0]","door_history":"[0,0]","location_rts":"[477,171]","trial_type":"two-door-navigation","trial_index":28,"time_elapsed":913347,"internal_node_id":"0.0-2.0-26.0"},{"group":"dihedral group of order 12","room_assignment":["grey","yellow","orange","red","cyan","brown","pink","blue","purple","ivory","olive","green"],"door_color_assignment":["white","black"],"door_generator_assignment":[0,1],"goal":1,"start":6,"action_noise":0.15,"location_history":"[6,11,10,9,8,2,8,7,6,11,5,0,6,0,6,0,1]","action_history":"[1,1,0,0,1,1,0,0,0,0,0,1,1,1,0,0]","door_history":"[1,1,0,0,1,1,0,0,0,0,0,1,1,1,0,0]","location_rts":"[260,278,82,219,235,197,274,267,212,227,277,251,225,227,242,251]","trial_type":"two-door-navigation","trial_index":29,"time_elapsed":936905,"internal_node_id":"0.0-2.0-27.0"},{"group":"dihedral group of order 12","room_assignment":["grey","yellow","orange","red","cyan","brown","pink","blue","purple","ivory","olive","green"],"door_color_assignment":["white","black"],"door_generator_assignment":[0,1],"goal":5,"start":1,"action_noise":0.15,"location_history":"[1,2,8,2,3,4,5]","action_history":"[1,1,1,0,1,0]","door_history":"[1,1,1,0,1,0]","location_rts":"[626,179,203,134,338,148]","trial_type":"two-door-navigation","trial_index":30,"time_elapsed":948162,"internal_node_id":"0.0-2.0-28.0"},{"group":"dihedral group of order 12","room_assignment":["grey","yellow","orange","red","cyan","brown","pink","blue","purple","ivory","olive","green"],"door_color_assignment":["white","black"],"door_generator_assignment":[0,1],"goal":9,"start":5,"action_noise":0.15,"location_history":"[5,11,5,11,10,9]","action_history":"[1,1,1,0,0]","door_history":"[1,1,1,0,0]","location_rts":"[284,117,123,156,260]","trial_type":"two-door-navigation","trial_index":31,"time_elapsed":957714,"internal_node_id":"0.0-2.0-29.0"},{"group":"dihedral group of order 12","room_assignment":["grey","yellow","orange","red","cyan","brown","pink","blue","purple","ivory","olive","green"],"door_color_assignment":["white","black"],"door_generator_assignment":[0,1],"goal":10,"start":9,"action_noise":0.15,"location_history":"[9,3,9,3,4,10]","action_history":"[1,1,1,0,0]","door_history":"[1,1,1,0,0]","location_rts":"[278,219,195,227,211]","trial_type":"two-door-navigation","trial_index":32,"time_elapsed":967464,"internal_node_id":"0.0-2.0-30.0"},{"group":"dihedral group of order 12","room_assignment":["grey","yellow","orange","red","cyan","brown","pink","blue","purple","ivory","olive","green"],"door_color_assignment":["white","black"],"door_generator_assignment":[0,1],"goal":0,"start":10,"action_noise":0.15,"location_history":"[10,4,10,4,10,4,10,4,10,4,5,11,5,0]","action_history":"[1,1,1,0,0,0,1,1,1,1,1,1,1]","door_history":"[1,1,1,0,0,0,1,1,1,1,1,1,1]","location_rts":"[262,191,123,216,218,259,214,202,214,155,161,172,252]","trial_type":"two-door-navigation","trial_index":33,"time_elapsed":986888,"internal_node_id":"0.0-2.0-31.0"},{"group":"dihedral group of order 12","room_assignment":["grey","yellow","orange","red","cyan","brown","pink","blue","purple","ivory","olive","green"],"door_color_assignment":["white","black"],"door_generator_assignment":[0,1],"goal":7,"start":0,"action_noise":0.15,"location_history":"[0,6,0,1,2,3,9,3,4,5,0,6,0,6,0,1,7]","action_history":"[1,1,1,0,1,1,1,0,0,0,1,1,1,1,1,1]","door_history":"[1,1,1,0,1,1,1,0,0,0,1,1,1,1,1,1]","location_rts":"[285,146,203,227,183,187,124,142,259,204,220,229,107,253,196,118]","trial_type":"two-door-navigation","trial_index":34,"time_elapsed":1009817,"internal_node_id":"0.0-2.0-32.0"},{"group":"dihedral group of order 12","room_assignment":["grey","yellow","orange","red","cyan","brown","pink","blue","purple","ivory","olive","green"],"door_color_assignment":["white","black"],"door_generator_assignment":[0,1],"goal":11,"start":7,"action_noise":0.15,"location_history":"[7,1,7,1,7,1,2,3,4,10,4,10,4,10,9,8,7,6,11]","action_history":"[1,1,1,1,1,0,0,0,1,1,1,1,1,0,0,0,0,0]","door_history":"[1,1,1,1,1,0,0,0,1,1,1,1,1,0,0,0,0,0]","location_rts":"[469,42,203,214,205,213,244,196,270,121,163,179,300,220,171,176,218,140]","trial_type":"two-door-navigation","trial_index":35,"time_elapsed":1035440,"internal_node_id":"0.0-2.0-33.0"},{"group":"dihedral group of order 12","room_assignment":["grey","yellow","orange","red","cyan","brown","pink","blue","purple","ivory","olive","green"],"door_color_assignment":["white","black"],"door_generator_assignment":[0,1],"goal":2,"start":11,"action_noise":0.15,"location_history":"[11,5,11,10,4,10,4,5,11,10,9,8,2]","action_history":"[1,1,0,1,1,0,0,0,0,0,0,1]","door_history":"[1,1,0,1,1,0,0,0,0,0,0,1]","location_rts":"[283,91,102,248,220,178,188,244,188,276,220,291]","trial_type":"two-door-navigation","trial_index":36,"time_elapsed":1053722,"internal_node_id":"0.0-2.0-34.0"},{"view_history":"[{\"page_index\":0,\"viewing_time\":24118}]","rt":24118,"trial_type":"instructions","trial_index":37,"time_elapsed":1078840,"internal_node_id":"0.0-3.0"},{"view_history":"[{\"page_index\":0,\"viewing_time\":2850},{\"page_index\":1,\"viewing_time\":27963}]","rt":30814,"trial_type":"instructions","trial_index":38,"time_elapsed":1110655,"internal_node_id":"0.0-4.0"},{"group":"dihedral group of order 12","fractal_assignment":["../images/org_blu.png","../images/grn_blu.png","../images/ylw_slt.png","../images/red_prp.png","../images/gry_blk.png","../images/grn_prp.png","../images/blu_wht.png","../images/wht_red.png","../images/grn_red.png","../images/ylw_pnk.png","../images/cyn_red.png","../images/pnk_blu.png"],"mutagen_generator_assignment":[1,0],"goal":7,"start":3,"action_noise":0.15,"location_history":"[3,4,5,0,1,2,3,9,8,7]","action_history":"[1,0,0,0,1,1,1,0,0]","mutagen_history":"[0,1,1,1,0,0,0,1,1]","location_rts":"[1308,845,13,358,245,271,254,357,301]","trial_type":"fractal-mutation","trial_index":39,"time_elapsed":1128157,"internal_node_id":"0.0-5.0-0.0"},{"group":"dihedral group of order 12","fractal_assignment":["../images/org_blu.png","../images/grn_blu.png","../images/ylw_slt.png","../images/red_prp.png","../images/gry_blk.png","../images/grn_prp.png","../images/blu_wht.png","../images/wht_red.png","../images/grn_red.png","../images/ylw_pnk.png","../images/cyn_red.png","../images/pnk_blu.png"],"mutagen_generator_assignment":[1,0],"goal":5,"start":7,"action_noise":0.15,"location_history":"[7,1,7,1,2,8,7,1,7,1,2,3,4,5]","action_history":"[1,1,0,0,0,0,1,1,1,0,0,0,0]","mutagen_history":"[0,0,1,1,1,1,0,0,0,1,1,1,1]","location_rts":"[364,250,250,261,271,296,265,261,323,256,191,125,137]","trial_type":"fractal-mutation","trial_index":40,"time_elapsed":1149484,"internal_node_id":"0.0-5.0-1.0"},{"group":"dihedral group of order 12","fractal_assignment":["../images/org_blu.png","../images/grn_blu.png","../images/ylw_slt.png","../images/red_prp.png","../images/gry_blk.png","../images/grn_prp.png","../images/blu_wht.png","../images/wht_red.png","../images/grn_red.png","../images/ylw_pnk.png","../images/cyn_red.png","../images/pnk_blu.png"],"mutagen_generator_assignment":[1,0],"goal":0,"start":5,"action_noise":0.15,"location_history":"[5,0]","action_history":"[0]","mutagen_history":"[1]","location_rts":"[555]","trial_type":"fractal-mutation","trial_index":41,"time_elapsed":1154681,"internal_node_id":"0.0-5.0-2.0"},{"group":"dihedral group of order 12","fractal_assignment":["../images/org_blu.png","../images/grn_blu.png","../images/ylw_slt.png","../images/red_prp.png","../images/gry_blk.png","../images/grn_prp.png","../images/blu_wht.png","../images/wht_red.png","../images/grn_red.png","../images/ylw_pnk.png","../images/cyn_red.png","../images/pnk_blu.png"],"mutagen_generator_assignment":[1,0],"goal":2,"start":0,"action_noise":0.15,"location_history":"[0,6,0,1,7,6,11,5,0,1,7,6,11,10,9,8,2]","action_history":"[1,0,0,1,0,0,0,0,1,1,0,0,0,0,0,1]","mutagen_history":"[0,1,1,0,1,1,1,1,0,0,1,1,1,1,1,0]","location_rts":"[807,258,302,470,293,261,223,255,241,242,263,243,256,278,289,266]","trial_type":"fractal-mutation","trial_index":42,"time_elapsed":1181024,"internal_node_id":"0.0-5.0-3.0"},{"group":"dihedral group of order 12","fractal_assignment":["../images/org_blu.png","../images/grn_blu.png","../images/ylw_slt.png","../images/red_prp.png","../images/gry_blk.png","../images/grn_prp.png","../images/blu_wht.png","../images/wht_red.png","../images/grn_red.png","../images/ylw_pnk.png","../images/cyn_red.png","../images/pnk_blu.png"],"mutagen_generator_assignment":[1,0],"goal":10,"start":2,"action_noise":0.15,"location_history":"[2,3,9,8,7,6,11,5,11,5,0,1,2,3,4,5,11,10]","action_history":"[0,0,0,0,0,1,1,1,1,0,0,0,0,0,0,0,0]","mutagen_history":"[1,1,1,1,1,0,0,0,0,1,1,1,1,1,1,1,1]","location_rts":"[440,224,234,347,315,265,173,187,249,262,345,433,113,218,143,542,4896]","trial_type":"fractal-mutation","trial_index":43,"time_elapsed":1213251,"internal_node_id":"0.0-5.0-4.0"},{"group":"dihedral group of order 12","fractal_assignment":["../images/org_blu.png","../images/grn_blu.png","../images/ylw_slt.png","../images/red_prp.png","../images/gry_blk.png","../images/grn_prp.png","../images/blu_wht.png","../images/wht_red.png","../images/grn_red.png","../images/ylw_pnk.png","../images/cyn_red.png","../images/pnk_blu.png"],"mutagen_generator_assignment":[1,0],"goal":8,"start":10,"action_noise":0.15,"location_history":"[10,9,8]","action_history":"[0,0]","mutagen_history":"[1,1]","location_rts":"[4214,1846]","trial_type":"fractal-mutation","trial_index":44,"time_elapsed":1225106,"internal_node_id":"0.0-5.0-5.0"},{"group":"dihedral group of order 12","fractal_assignment":["../images/org_blu.png","../images/grn_blu.png","../images/ylw_slt.png","../images/red_prp.png","../images/gry_blk.png","../images/grn_prp.png","../images/blu_wht.png","../images/wht_red.png","../images/grn_red.png","../images/ylw_pnk.png","../images/cyn_red.png","../images/pnk_blu.png"],"mutagen_generator_assignment":[1,0],"goal":11,"start":8,"action_noise":0.15,"location_history":"[8,2,3,9,3,9,8,7,6,11]","action_history":"[0,0,1,1,1,0,0,0,0]","mutagen_history":"[1,1,0,0,0,1,1,1,1]","location_rts":"[7686,757,238,260,102,209,117,315,234]","trial_type":"fractal-mutation","trial_index":45,"time_elapsed":1248644,"internal_node_id":"0.0-5.0-6.0"},{"group":"dihedral group of order 12","fractal_assignment":["../images/org_blu.png","../images/grn_blu.png","../images/ylw_slt.png","../images/red_prp.png","../images/gry_blk.png","../images/grn_prp.png","../images/blu_wht.png","../images/wht_red.png","../images/grn_red.png","../images/ylw_pnk.png","../images/cyn_red.png","../images/pnk_blu.png"],"mutagen_generator_assignment":[1,0],"goal":6,"start":11,"action_noise":0.15,"location_history":"[11,5,11,10,4,5,11,5,11,5,11,5,11,10,4,10,9,8,7,6]","action_history":"[1,1,0,0,0,1,1,1,0,0,1,1,0,1,0,0,0,0,0]","mutagen_history":"[0,0,1,1,1,0,0,0,1,1,0,0,1,0,1,1,1,1,1]","location_rts":"[307,249,561,306,265,349,394,322,373,307,243,311,235,237,325,1081,399,243,447]","trial_type":"fractal-mutation","trial_index":46,"time_elapsed":1280300,"internal_node_id":"0.0-5.0-7.0"},{"group":"dihedral group of order 12","fractal_assignment":["../images/org_blu.png","../images/grn_blu.png","../images/ylw_slt.png","../images/red_prp.png","../images/gry_blk.png","../images/grn_prp.png","../images/blu_wht.png","../images/wht_red.png","../images/grn_red.png","../images/ylw_pnk.png","../images/cyn_red.png","../images/pnk_blu.png"],"mutagen_generator_assignment":[1,0],"goal":4,"start":6,"action_noise":0.15,"location_history":"[6,0,1,7,1,2,3,9,3,9,3,4]","action_history":"[0,1,1,1,1,0,1,1,1,0,0]","mutagen_history":"[1,0,0,0,0,1,0,0,0,1,1]","location_rts":"[811,325,251,259,240,402,319,248,231,212,169]","trial_type":"fractal-mutation","trial_index":47,"time_elapsed":1299355,"internal_node_id":"0.0-5.0-8.0"},{"group":"dihedral group of order 12","fractal_assignment":["../images/org_blu.png","../images/grn_blu.png","../images/ylw_slt.png","../images/red_prp.png","../images/gry_blk.png","../images/grn_prp.png","../images/blu_wht.png","../images/wht_red.png","../images/grn_red.png","../images/ylw_pnk.png","../images/cyn_red.png","../images/pnk_blu.png"],"mutagen_generator_assignment":[1,0],"goal":1,"start":4,"action_noise":0.15,"location_history":"[4,10,4,5,0,1]","action_history":"[1,1,1,0,0]","mutagen_history":"[0,0,0,1,1]","location_rts":"[317,265,282,193,170]","trial_type":"fractal-mutation","trial_index":48,"time_elapsed":1309462,"internal_node_id":"0.0-5.0-9.0"},{"group":"dihedral group of order 12","fractal_assignment":["../images/org_blu.png","../images/grn_blu.png","../images/ylw_slt.png","../images/red_prp.png","../images/gry_blk.png","../images/grn_prp.png","../images/blu_wht.png","../images/wht_red.png","../images/grn_red.png","../images/ylw_pnk.png","../images/cyn_red.png","../images/pnk_blu.png"],"mutagen_generator_assignment":[1,0],"goal":9,"start":1,"action_noise":0.15,"location_history":"[1,7,1,2,3,4,10,9]","action_history":"[0,1,0,0,0,1,0]","mutagen_history":"[1,0,1,1,1,0,1]","location_rts":"[345,289,206,221,214,143,226]","trial_type":"fractal-mutation","trial_index":49,"time_elapsed":1322530,"internal_node_id":"0.0-5.0-10.0"},{"group":"dihedral group of order 12","fractal_assignment":["../images/org_blu.png","../images/grn_blu.png","../images/ylw_slt.png","../images/red_prp.png","../images/gry_blk.png","../images/grn_prp.png","../images/blu_wht.png","../images/wht_red.png","../images/grn_red.png","../images/ylw_pnk.png","../images/cyn_red.png","../images/pnk_blu.png"],"mutagen_generator_assignment":[1,0],"goal":10,"start":9,"action_noise":0.15,"location_history":"[9,3,4,5,11,5,11,10]","action_history":"[0,0,0,1,1,1,0]","mutagen_history":"[1,1,1,0,0,0,1]","location_rts":"[427,279,217,150,316,215,158]","trial_type":"fractal-mutation","trial_index":50,"time_elapsed":1335618,"internal_node_id":"0.0-5.0-11.0"},{"group":"dihedral group of order 12","fractal_assignment":["../images/org_blu.png","../images/grn_blu.png","../images/ylw_slt.png","../images/red_prp.png","../images/gry_blk.png","../images/grn_prp.png","../images/blu_wht.png","../images/wht_red.png","../images/grn_red.png","../images/ylw_pnk.png","../images/cyn_red.png","../images/pnk_blu.png"],"mutagen_generator_assignment":[1,0],"goal":2,"start":10,"action_noise":0.15,"location_history":"[10,4,10,4,10,4,5,0,1,7,6,11,10,9,8,7,1,7,6,11,5,11,5,0,6,11,5,0,1,7,1,7,1,2]","action_history":"[1,1,1,1,1,0,0,0,1,0,0,0,0,0,0,1,1,0,0,0,0,1,1,1,0,0,0,0,1,1,1,0,0]","mutagen_history":"[0,0,0,0,0,1,1,1,0,1,1,1,1,1,1,0,0,1,1,1,1,0,0,0,1,1,1,1,0,0,0,1,1]","location_rts":"[300,234,234,279,256,295,244,226,277,227,202,159,215,174,248,221,250,193,191,212,171,200,121,258,159,211,240,271,146,250,285,148,231]","trial_type":"fractal-mutation","trial_index":51,"time_elapsed":1383004,"internal_node_id":"0.0-5.0-12.0"},{"group":"dihedral group of order 12","fractal_assignment":["../images/org_blu.png","../images/grn_blu.png","../images/ylw_slt.png","../images/red_prp.png","../images/gry_blk.png","../images/grn_prp.png","../images/blu_wht.png","../images/wht_red.png","../images/grn_red.png","../images/ylw_pnk.png","../images/cyn_red.png","../images/pnk_blu.png"],"mutagen_generator_assignment":[1,0],"goal":0,"start":2,"action_noise":0.15,"location_history":"[2,3,9,8,7,1,7,6,11,10,4,5,11,10,9,3,4,5,0]","action_history":"[1,1,0,0,1,1,0,0,0,1,1,1,0,0,1,0,0,0]","mutagen_history":"[0,0,1,1,0,0,1,1,1,0,0,0,1,1,0,1,1,1]","location_rts":"[450,240,24,183,182,255,246,250,280,249,291,252,281,156,385,277,229,269]","trial_type":"fractal-mutation","trial_index":52,"time_elapsed":1410964,"internal_node_id":"0.0-5.0-13.0"},{"group":"dihedral group of order 12","fractal_assignment":["../images/org_blu.png","../images/grn_blu.png","../images/ylw_slt.png","../images/red_prp.png","../images/gry_blk.png","../images/grn_prp.png","../images/blu_wht.png","../images/wht_red.png","../images/grn_red.png","../images/ylw_pnk.png","../images/cyn_red.png","../images/pnk_blu.png"],"mutagen_generator_assignment":[1,0],"goal":9,"start":0,"action_noise":0.15,"location_history":"[0,6,11,5,11,10,9]","action_history":"[1,0,0,0,0,0]","mutagen_history":"[0,1,1,1,1,1]","location_rts":"[555,283,162,217,187,210]","trial_type":"fractal-mutation","trial_index":53,"time_elapsed":1422841,"internal_node_id":"0.0-5.0-14.0"},{"group":"dihedral group of order 12","fractal_assignment":["../images/org_blu.png","../images/grn_blu.png","../images/ylw_slt.png","../images/red_prp.png","../images/gry_blk.png","../images/grn_prp.png","../images/blu_wht.png","../images/wht_red.png","../images/grn_red.png","../images/ylw_pnk.png","../images/cyn_red.png","../images/pnk_blu.png"],"mutagen_generator_assignment":[1,0],"goal":8,"start":9,"action_noise":0.15,"location_history":"[9,3,9,3,9,8]","action_history":"[1,1,1,1,0]","mutagen_history":"[0,0,0,0,1]","location_rts":"[285,234,241,256,307]","trial_type":"fractal-mutation","trial_index":54,"time_elapsed":1432917,"internal_node_id":"0.0-5.0-15.0"},{"group":"dihedral group of order 12","fractal_assignment":["../images/org_blu.png","../images/grn_blu.png","../images/ylw_slt.png","../images/red_prp.png","../images/gry_blk.png","../images/grn_prp.png","../images/blu_wht.png","../images/wht_red.png","../images/grn_red.png","../images/ylw_pnk.png","../images/cyn_red.png","../images/pnk_blu.png"],"mutagen_generator_assignment":[1,0],"goal":6,"start":8,"action_noise":0.15,"location_history":"[8,2,8,2,8,2,3,4,5,0,6]","action_history":"[1,1,1,1,1,0,0,0,0,1]","mutagen_history":"[0,0,0,0,0,1,1,1,1,0]","location_rts":"[402,267,273,257,251,192,130,150,278,217]","trial_type":"fractal-mutation","trial_index":55,"time_elapsed":1449632,"internal_node_id":"0.0-5.0-16.0"},{"group":"dihedral group of order 12","fractal_assignment":["../images/org_blu.png","../images/grn_blu.png","../images/ylw_slt.png","../images/red_prp.png","../images/gry_blk.png","../images/grn_prp.png","../images/blu_wht.png","../images/wht_red.png","../images/grn_red.png","../images/ylw_pnk.png","../images/cyn_red.png","../images/pnk_blu.png"],"mutagen_generator_assignment":[1,0],"goal":1,"start":6,"action_noise":0.15,"location_history":"[6,11,10,9,8,7,6,11,5,11,5,0,6,11,10,4,10,9,3,9,3,4,5,0,6,11,5,0,6,11,10,9,8,7,1]","action_history":"[0,0,0,0,0,0,0,1,1,1,0,0,0,0,1,1,1,0,0,1,0,0,0,0,0,1,1,1,0,0,0,0,1,1]","mutagen_history":"[1,1,1,1,1,1,1,0,0,0,1,1,1,1,0,0,0,1,1,0,1,1,1,1,1,0,0,0,1,1,1,1,0,0]","location_rts":"[350,332,219,110,288,220,235,299,284,279,131,288,187,222,174,447,281,156,252,271,204,288,160,138,229,227,301,264,247,284,284,154,240,169]","trial_type":"fractal-mutation","trial_index":56,"time_elapsed":1499432,"internal_node_id":"0.0-5.0-17.0"},{"group":"dihedral group of order 12","fractal_assignment":["../images/org_blu.png","../images/grn_blu.png","../images/ylw_slt.png","../images/red_prp.png","../images/gry_blk.png","../images/grn_prp.png","../images/blu_wht.png","../images/wht_red.png","../images/grn_red.png","../images/ylw_pnk.png","../images/cyn_red.png","../images/pnk_blu.png"],"mutagen_generator_assignment":[1,0],"goal":4,"start":1,"action_noise":0.15,"location_history":"[1,7,6,11,5,11,5,0,1,7,1,2,3,4]","action_history":"[0,0,0,1,1,1,0,0,1,1,0,0,0]","mutagen_history":"[1,1,1,0,0,0,1,1,0,0,1,1,1]","location_rts":"[349,340,381,320,306,278,18,253,284,289,278,345,293]","trial_type":"fractal-mutation","trial_index":57,"time_elapsed":1521181,"internal_node_id":"0.0-5.0-18.0"},{"group":"dihedral group of order 12","fractal_assignment":["../images/org_blu.png","../images/grn_blu.png","../images/ylw_slt.png","../images/red_prp.png","../images/gry_blk.png","../images/grn_prp.png","../images/blu_wht.png","../images/wht_red.png","../images/grn_red.png","../images/ylw_pnk.png","../images/cyn_red.png","../images/pnk_blu.png"],"mutagen_generator_assignment":[1,0],"goal":11,"start":4,"action_noise":0.15,"location_history":"[4,5,0,1,2,8,7,6,0,1,7,1,2,8,7,1,7,6,11]","action_history":"[0,0,0,1,1,0,0,0,1,1,0,0,0,0,0,1,0,0]","mutagen_history":"[1,1,1,0,0,1,1,1,0,0,1,1,1,1,1,0,1,1]","location_rts":"[267,257,301,290,131,315,290,248,401,310,348,263,253,343,444,350,327,414]","trial_type":"fractal-mutation","trial_index":58,"time_elapsed":1550457,"internal_node_id":"0.0-5.0-19.0"},{"group":"dihedral group of order 12","fractal_assignment":["../images/org_blu.png","../images/grn_blu.png","../images/ylw_slt.png","../images/red_prp.png","../images/gry_blk.png","../images/grn_prp.png","../images/blu_wht.png","../images/wht_red.png","../images/grn_red.png","../images/ylw_pnk.png","../images/cyn_red.png","../images/pnk_blu.png"],"mutagen_generator_assignment":[1,0],"goal":3,"start":11,"action_noise":0.15,"location_history":"[11,5,11,10,9,8,7,1,2,3]","action_history":"[1,1,0,0,0,0,1,1,0]","mutagen_history":"[0,0,1,1,1,1,0,0,1]","location_rts":"[252647,423,277,260,374,315,325,319,308]","trial_type":"fractal-mutation","trial_index":59,"time_elapsed":1820200,"internal_node_id":"0.0-5.0-20.0"},{"group":"dihedral group of order 12","fractal_assignment":["../images/org_blu.png","../images/grn_blu.png","../images/ylw_slt.png","../images/red_prp.png","../images/gry_blk.png","../images/grn_prp.png","../images/blu_wht.png","../images/wht_red.png","../images/grn_red.png","../images/ylw_pnk.png","../images/cyn_red.png","../images/pnk_blu.png"],"mutagen_generator_assignment":[1,0],"goal":5,"start":3,"action_noise":0.15,"location_history":"[3,9,3,9,8,7,6,11,5]","action_history":"[1,1,1,0,0,0,0,1]","mutagen_history":"[0,0,0,1,1,1,1,0]","location_rts":"[311,272,293,314,315,179,283,302]","trial_type":"fractal-mutation","trial_index":60,"time_elapsed":1834966,"internal_node_id":"0.0-5.0-21.0"},{"group":"dihedral group of order 12","fractal_assignment":["../images/org_blu.png","../images/grn_blu.png","../images/ylw_slt.png","../images/red_prp.png","../images/gry_blk.png","../images/grn_prp.png","../images/blu_wht.png","../images/wht_red.png","../images/grn_red.png","../images/ylw_pnk.png","../images/cyn_red.png","../images/pnk_blu.png"],"mutagen_generator_assignment":[1,0],"goal":7,"start":5,"action_noise":0.15,"location_history":"[5,11,10,4,10,4,10,9,8,7]","action_history":"[0,0,0,1,1,1,0,0,0]","mutagen_history":"[1,1,1,0,0,0,1,1,1]","location_rts":"[368,231,223,308,279,285,322,288,262]","trial_type":"fractal-mutation","trial_index":61,"time_elapsed":1851526,"internal_node_id":"0.0-5.0-22.0"},{"group":"dihedral group of order 12","fractal_assignment":["../images/org_blu.png","../images/grn_blu.png","../images/ylw_slt.png","../images/red_prp.png","../images/gry_blk.png","../images/grn_prp.png","../images/blu_wht.png","../images/wht_red.png","../images/grn_red.png","../images/ylw_pnk.png","../images/cyn_red.png","../images/pnk_blu.png"],"mutagen_generator_assignment":[1,0],"goal":3,"start":7,"action_noise":0.15,"location_history":"[7,1,2,3]","action_history":"[1,0,0]","mutagen_history":"[0,1,1]","location_rts":"[299,220,267]","trial_type":"fractal-mutation","trial_index":62,"time_elapsed":1859222,"internal_node_id":"0.0-5.0-23.0"},{"group":"dihedral group of order 12","fractal_assignment":["../images/org_blu.png","../images/grn_blu.png","../images/ylw_slt.png","../images/red_prp.png","../images/gry_blk.png","../images/grn_prp.png","../images/blu_wht.png","../images/wht_red.png","../images/grn_red.png","../images/ylw_pnk.png","../images/cyn_red.png","../images/pnk_blu.png"],"mutagen_generator_assignment":[1,0],"goal":4,"start":3,"action_noise":0.15,"location_history":"[3,9,3,9,8,7,6,11,10,4]","action_history":"[1,1,1,0,0,0,0,0,1]","mutagen_history":"[0,0,0,1,1,1,1,1,0]","location_rts":"[318,232,239,113,74,214,190,171,308]","trial_type":"fractal-mutation","trial_index":63,"time_elapsed":1874783,"internal_node_id":"0.0-5.0-24.0"},{"group":"dihedral group of order 12","fractal_assignment":["../images/org_blu.png","../images/grn_blu.png","../images/ylw_slt.png","../images/red_prp.png","../images/gry_blk.png","../images/grn_prp.png","../images/blu_wht.png","../images/wht_red.png","../images/grn_red.png","../images/ylw_pnk.png","../images/cyn_red.png","../images/pnk_blu.png"],"mutagen_generator_assignment":[1,0],"goal":8,"start":4,"action_noise":0.15,"location_history":"[4,5,0,1,2,8]","action_history":"[0,0,0,0,1]","mutagen_history":"[1,1,1,1,0]","location_rts":"[283,267,193,276,274]","trial_type":"fractal-mutation","trial_index":64,"time_elapsed":1885503,"internal_node_id":"0.0-5.0-25.0"},{"group":"dihedral group of order 12","fractal_assignment":["../images/org_blu.png","../images/grn_blu.png","../images/ylw_slt.png","../images/red_prp.png","../images/gry_blk.png","../images/grn_prp.png","../images/blu_wht.png","../images/wht_red.png","../images/grn_red.png","../images/ylw_pnk.png","../images/cyn_red.png","../images/pnk_blu.png"],"mutagen_generator_assignment":[1,0],"goal":6,"start":8,"action_noise":0.15,"location_history":"[8,7,6]","action_history":"[0,0]","mutagen_history":"[1,1]","location_rts":"[300,352]","trial_type":"fractal-mutation","trial_index":65,"time_elapsed":1892015,"internal_node_id":"0.0-5.0-26.0"},{"group":"dihedral group of order 12","fractal_assignment":["../images/org_blu.png","../images/grn_blu.png","../images/ylw_slt.png","../images/red_prp.png","../images/gry_blk.png","../images/grn_prp.png","../images/blu_wht.png","../images/wht_red.png","../images/grn_red.png","../images/ylw_pnk.png","../images/cyn_red.png","../images/pnk_blu.png"],"mutagen_generator_assignment":[1,0],"goal":1,"start":6,"action_noise":0.15,"location_history":"[6,0,6,0,1]","action_history":"[1,1,1,0]","mutagen_history":"[0,0,0,1]","location_rts":"[356,281,245,303]","trial_type":"fractal-mutation","trial_index":66,"time_elapsed":1900981,"internal_node_id":"0.0-5.0-27.0"},{"group":"dihedral group of order 12","fractal_assignment":["../images/org_blu.png","../images/grn_blu.png","../images/ylw_slt.png","../images/red_prp.png","../images/gry_blk.png","../images/grn_prp.png","../images/blu_wht.png","../images/wht_red.png","../images/grn_red.png","../images/ylw_pnk.png","../images/cyn_red.png","../images/pnk_blu.png"],"mutagen_generator_assignment":[1,0],"goal":5,"start":1,"action_noise":0.15,"location_history":"[1,7,1,7,6,11,10,4,5]","action_history":"[1,1,1,0,0,0,1,0]","mutagen_history":"[0,0,0,1,1,1,0,1]","location_rts":"[324,219,283,209,311,252,298,270]","trial_type":"fractal-mutation","trial_index":67,"time_elapsed":1915686,"internal_node_id":"0.0-5.0-28.0"},{"group":"dihedral group of order 12","fractal_assignment":["../images/org_blu.png","../images/grn_blu.png","../images/ylw_slt.png","../images/red_prp.png","../images/gry_blk.png","../images/grn_prp.png","../images/blu_wht.png","../images/wht_red.png","../images/grn_red.png","../images/ylw_pnk.png","../images/cyn_red.png","../images/pnk_blu.png"],"mutagen_generator_assignment":[1,0],"goal":9,"start":5,"action_noise":0.15,"location_history":"[5,11,10,9]","action_history":"[1,0,0]","mutagen_history":"[0,1,1]","location_rts":"[1934,654,549]","trial_type":"fractal-mutation","trial_index":68,"time_elapsed":1925735,"internal_node_id":"0.0-5.0-29.0"},{"group":"dihedral group of order 12","fractal_assignment":["../images/org_blu.png","../images/grn_blu.png","../images/ylw_slt.png","../images/red_prp.png","../images/gry_blk.png","../images/grn_prp.png","../images/blu_wht.png","../images/wht_red.png","../images/grn_red.png","../images/ylw_pnk.png","../images/cyn_red.png","../images/pnk_blu.png"],"mutagen_generator_assignment":[1,0],"goal":10,"start":9,"action_noise":0.15,"location_history":"[9,3,9,3,4,5,0,1,2,8,2,3,4,5,11,10]","action_history":"[1,1,1,0,0,0,0,0,1,1,0,0,0,0,0]","mutagen_history":"[0,0,0,1,1,1,1,1,0,0,1,1,1,1,1]","location_rts":"[15515,439,305,287,356,441,380,477,328,586,318,472,349,341,584]","trial_type":"fractal-mutation","trial_index":69,"time_elapsed":1967579,"internal_node_id":"0.0-5.0-30.0"},{"group":"dihedral group of order 12","fractal_assignment":["../images/org_blu.png","../images/grn_blu.png","../images/ylw_slt.png","../images/red_prp.png","../images/gry_blk.png","../images/grn_prp.png","../images/blu_wht.png","../images/wht_red.png","../images/grn_red.png","../images/ylw_pnk.png","../images/cyn_red.png","../images/pnk_blu.png"],"mutagen_generator_assignment":[1,0],"goal":0,"start":10,"action_noise":0.15,"location_history":"[10,9,8,7,1,2,3,4,10,4,5,0]","action_history":"[0,0,0,1,0,0,0,1,1,0,0]","mutagen_history":"[1,1,1,0,1,1,1,0,0,1,1]","location_rts":"[494,291,441,432,459,382,308,303,373,361,288]","trial_type":"fractal-mutation","trial_index":70,"time_elapsed":1988087,"internal_node_id":"0.0-5.0-31.0"},{"group":"dihedral group of order 12","fractal_assignment":["../images/org_blu.png","../images/grn_blu.png","../images/ylw_slt.png","../images/red_prp.png","../images/gry_blk.png","../images/grn_prp.png","../images/blu_wht.png","../images/wht_red.png","../images/grn_red.png","../images/ylw_pnk.png","../images/cyn_red.png","../images/pnk_blu.png"],"mutagen_generator_assignment":[1,0],"goal":7,"start":0,"action_noise":0.15,"location_history":"[0,6,0,1,2,3,9,8,2,3,4,5,11,5,11,5,0,1,2,3,4,10,4,10,9,8,7]","action_history":"[0,0,0,0,0,1,1,1,0,0,0,1,1,1,1,0,0,0,0,0,1,1,1,0,0,0]","mutagen_history":"[1,1,1,1,1,0,0,0,1,1,1,0,0,0,0,1,1,1,1,1,0,0,0,1,1,1]","location_rts":"[340,261,145,225,286,299,312,298,275,580,401,319,292,304,802,321,268,187,281,309,307,287,321,286,277,210]","trial_type":"fractal-mutation","trial_index":71,"time_elapsed":2030001,"internal_node_id":"0.0-5.0-32.0"},{"group":"dihedral group of order 12","fractal_assignment":["../images/org_blu.png","../images/grn_blu.png","../images/ylw_slt.png","../images/red_prp.png","../images/gry_blk.png","../images/grn_prp.png","../images/blu_wht.png","../images/wht_red.png","../images/grn_red.png","../images/ylw_pnk.png","../images/cyn_red.png","../images/pnk_blu.png"],"mutagen_generator_assignment":[1,0],"goal":11,"start":7,"action_noise":0.15,"location_history":"[7,1,7,6,11]","action_history":"[1,1,1,0]","mutagen_history":"[0,0,0,1]","location_rts":"[514,318,216,120]","trial_type":"fractal-mutation","trial_index":72,"time_elapsed":2038943,"internal_node_id":"0.0-5.0-33.0"},{"group":"dihedral group of order 12","fractal_assignment":["../images/org_blu.png","../images/grn_blu.png","../images/ylw_slt.png","../images/red_prp.png","../images/gry_blk.png","../images/grn_prp.png","../images/blu_wht.png","../images/wht_red.png","../images/grn_red.png","../images/ylw_pnk.png","../images/cyn_red.png","../images/pnk_blu.png"],"mutagen_generator_assignment":[1,0],"goal":2,"start":11,"action_noise":0.15,"location_history":"[11,5,11,5,0,1,2]","action_history":"[1,1,1,1,0,0]","mutagen_history":"[0,0,0,0,1,1]","location_rts":"[474,266,168,261,285,120]","trial_type":"fractal-mutation","trial_index":73,"time_elapsed":2050553,"internal_node_id":"0.0-5.0-34.0"},{"view_history":"[{\"page_index\":0,\"viewing_time\":14912}]","rt":14913,"trial_type":"instructions","trial_index":74,"time_elapsed":2066466,"internal_node_id":"0.0-6.0"},{"rt":35561,"responses":"{\"Q0\":\"How well you learn patterns that aren't always consistent.\"}","trial_type":"survey-text","trial_index":75,"time_elapsed":2103033,"internal_node_id":"0.0-7.0-0.0"},{"rt":21365,"responses":"{\"Q0\":\"How well you learn complex patterns that aren't always consistent.\"}","trial_type":"survey-text","trial_index":76,"time_elapsed":2125401,"internal_node_id":"0.0-7.0-1.0"},{"rt":5838,"responses":"{\"Q0\":\"2\"}","trial_type":"survey-likert","trial_index":77,"time_elapsed":2132243,"internal_node_id":"0.0-7.0-2.0"},{"rt":26944,"responses":"{\"Q0\":\"The patterns weren't always consistent.\"}","trial_type":"survey-text","trial_index":78,"time_elapsed":2160188,"internal_node_id":"0.0-7.0-3.0"},{"rt":5093,"responses":"{\"Q0\":\"No\"}","trial_type":"survey-multi-choice","trial_index":79,"time_elapsed":2166287,"internal_node_id":"0.0-7.0-4.0"},{"rt":8290,"responses":"{\"Q0\":\"Did not notice\"}","trial_type":"survey-multi-choice","trial_index":80,"time_elapsed":2175582,"internal_node_id":"0.0-7.0-5.0"},{"rt":2661,"responses":"{\"Q0\":\"\"}","trial_type":"survey-text","trial_index":81,"time_elapsed":2179246,"internal_node_id":"0.0-7.0-6.0"},{"rt":5811,"responses":"{\"Q0\":\"0\"}","trial_type":"survey-likert","trial_index":82,"time_elapsed":2186060,"internal_node_id":"0.0-7.0-7.0"},{"rt":16930,"responses":"{\"Q0\":\"Same structure\"}","trial_type":"survey-multi-choice","trial_index":83,"time_elapsed":2203994,"internal_node_id":"0.0-7.0-8.0"},{"rt":41945,"responses":"{\"Q0\":\"white door = acid, black door = ray\",\"Q1\":\"Not at all confident\"}","trial_type":"survey-multi-choice","trial_index":84,"time_elapsed":2246944,"internal_node_id":"0.0-7.0-9.0"},{"rt":8594,"responses":"{\"Q0\":\"35-45\",\"Q1\":\"Master's degree\",\"Q2\":\"Female\",\"Q3\":\"White\"}","trial_type":"survey-multi-choice","trial_index":85,"time_elapsed":2256572,"internal_node_id":"0.0-8.0"},{"rt":4404,"responses":"{\"Q0\":\"No\"}","trial_type":"survey-text","trial_index":86,"time_elapsed":2261980,"internal_node_id":"0.0-9.0"}]