[{"view_history":"[{\"page_index\":0,\"viewing_time\":11828},{\"page_index\":1,\"viewing_time\":95013}]","rt":106842,"trial_type":"instructions","trial_index":0,"time_elapsed":106844,"internal_node_id":"0.0-0.0"},{"view_history":"[{\"page_index\":0,\"viewing_time\":1805},{\"page_index\":1,\"viewing_time\":1089}]","rt":2895,"trial_type":"instructions","trial_index":1,"time_elapsed":110740,"internal_node_id":"0.0-1.0"},{"group":"dihedral group of order 12","room_assignment":["orange","green","red","olive","pink","cyan","yellow","purple","blue","brown","grey","ivory"],"door_color_assignment":["white","black"],"door_generator_assignment":[1,0],"goal":7,"start":3,"action_noise":0.15,"location_history":"[3,4,5,11,5,0,1,7]","action_history":"[0,0,1,0,0,0,0]","door_history":"[1,1,0,1,1,1,1]","location_rts":"[8014,718,616,433,485,347,376]","trial_type":"two-door-navigation","trial_index":2,"time_elapsed":132468,"internal_node_id":"0.0-2.0-0.0"},{"group":"dihedral group of order 12","room_assignment":["orange","green","red","olive","pink","cyan","yellow","purple","blue","brown","grey","ivory"],"door_color_assignment":["white","black"],"door_generator_assignment":[1,0],"goal":5,"start":7,"action_noise":0.15,"location_history":"[7,1,2,3,4,10,9,3,4,5]","action_history":"[1,0,0,0,0,0,0,0,0]","door_history":"[0,1,1,1,1,1,1,1,1]","location_rts":"[1941,780,435,425,337,368,354,398,709]","trial_type":"two-door-navigation","trial_index":3,"time_elapsed":150941,"internal_node_id":"0.0-2.0-1.0"},{"group":"dihedral group of order 12","room_assignment":["orange","green","red","olive","pink","cyan","yellow","purple","blue","brown","grey","ivory"],"door_color_assignment":["white","black"],"door_generator_assignment":[1,0],"goal":0,"start":5,"action_noise":0.15,"location_history":"[5,11,5,11,10,9,8,7,6,11,5,0]","action_history":"[1,0,0,0,0,0,0,0,0,1,0]","door_history":"[0,1,1,1,1,1,1,1,1,0,1]","location_rts":"[2586,1202,560,465,712,711,683,756,772,742,326]","trial_type":"two-door-navigation","trial_index":4,"time_elapsed":175237,"internal_node_id":"0.0-2.0-2.0"},{"group":"dihedral group of order 12","room_assignment":["orange","green","red","olive","pink","cyan","yellow","purple","blue","brown","grey","ivory"],"door_color_assignment":["white","black"],"door_generator_assignment":[1,0],"goal":2,"start":0,"action_noise":0.15,"location_history":"[0,6,0,1,2]","action_history":"[1,0,0,0]","door_history":"[0,1,1,1]","location_rts":"[2159,543,914,904]","trial_type":"two-door-navigation","trial_index":5,"time_elapsed":187352,"internal_node_id":"0.0-2.0-3.0"},{"group":"dihedral group of order 12","room_assignment":["orange","green","red","olive","pink","cyan","yellow","purple","blue","brown","grey","ivory"],"door_color_assignment":["white","black"],"door_generator_assignment":[1,0],"goal":10,"start":2,"action_noise":0.15,"location_history":"[2,8,7,6,11,10]","action_history":"[1,0,0,0,0]","door_history":"[0,1,1,1,1]","location_rts":"[1677,759,489,712,1205]","trial_type":"two-door-navigation","trial_index":6,"time_elapsed":200824,"internal_node_id":"0.0-2.0-4.0"},{"group":"dihedral group of order 12","room_assignment":["orange","green","red","olive","pink","cyan","yellow","purple","blue","brown","grey","ivory"],"door_color_assignment":["white","black"],"door_generator_assignment":[1,0],"goal":8,"start":10,"action_noise":0.15,"location_history":"[10,4,10,9,3,4,10,9,8]","action_history":"[1,1,0,0,0,0,0,0]","door_history":"[0,0,1,1,1,1,1,1]","location_rts":"[1731,290,824,493,1181,445,841,475]","trial_type":"two-door-navigation","trial_index":7,"time_elapsed":218802,"internal_node_id":"0.0-2.0-5.0"},{"group":"dihedral group of order 12","room_assignment":["orange","green","red","olive","pink","cyan","yellow","purple","blue","brown","grey","ivory"],"door_color_assignment":["white","black"],"door_generator_assignment":[1,0],"goal":11,"start":8,"action_noise":0.15,"location_history":"[8,7,1,7,1,7,6,11]","action_history":"[0,1,1,1,1,0,0]","door_history":"[1,0,0,0,0,1,1]","location_rts":"[1230,625,545,546,1135,1966,948]","trial_type":"two-door-navigation","trial_index":8,"time_elapsed":236457,"internal_node_id":"0.0-2.0-6.0"},{"group":"dihedral group of order 12","room_assignment":["orange","green","red","olive","pink","cyan","yellow","purple","blue","brown","grey","ivory"],"door_color_assignment":["white","black"],"door_generator_assignment":[1,0],"goal":6,"start":11,"action_noise":0.15,"location_history":"[11,10,4,5,0,1,2,8,2,8,7,6]","action_history":"[0,1,1,0,0,0,1,1,1,0,0]","door_history":"[1,0,0,1,1,1,0,0,0,1,1]","location_rts":"[1635,897,509,1046,628,665,788,522,1402,1091,1330]","trial_type":"two-door-navigation","trial_index":9,"time_elapsed":261757,"internal_node_id":"0.0-2.0-7.0"},{"group":"dihedral group of order 12","room_assignment":["orange","green","red","olive","pink","cyan","yellow","purple","blue","brown","grey","ivory"],"door_color_assignment":["white","black"],"door_generator_assignment":[1,0],"goal":4,"start":6,"action_noise":0.15,"location_history":"[6,11,10,9,8,2,3,4]","action_history":"[0,0,0,0,0,0,0]","door_history":"[1,1,1,1,1,1,1]","location_rts":"[967,348,649,1468,1023,756,695]","trial_type":"two-door-navigation","trial_index":10,"time_elapsed":278324,"internal_node_id":"0.0-2.0-8.0"},{"group":"dihedral group of order 12","room_assignment":["orange","green","red","olive","pink","cyan","yellow","purple","blue","brown","grey","ivory"],"door_color_assignment":["white","black"],"door_generator_assignment":[1,0],"goal":1,"start":4,"action_noise":0.15,"location_history":"[4,5,0,1]","action_history":"[0,0,0]","door_history":"[1,1,1]","location_rts":"[4234,4507,1516]","trial_type":"two-door-navigation","trial_index":11,"time_elapsed":295152,"internal_node_id":"0.0-2.0-9.0"},{"group":"dihedral group of order 12","room_assignment":["orange","green","red","olive","pink","cyan","yellow","purple","blue","brown","grey","ivory"],"door_color_assignment":["white","black"],"door_generator_assignment":[1,0],"goal":9,"start":1,"action_noise":0.15,"location_history":"[1,2,8,2,8,2,8,7,1,7,1,2,3,4,5,0,1,2,8,7,6,11,10,9]","action_history":"[0,1,1,1,1,1,0,0,0,0,0,0,0,0,0,0,0,0,0,0,0,0,0]","door_history":"[1,0,0,0,0,0,1,1,1,1,1,1,1,1,1,1,1,1,1,1,1,1,1]","location_rts":"[504,603,386,707,880,978,1469,1067,809,2708,1295,3072,1250,4907,446,1039,625,566,581,900,1362,1147,679]","trial_type":"two-door-navigation","trial_index":12,"time_elapsed":350183,"internal_node_id":"0.0-2.0-10.0"},{"group":"dihedral group of order 12","room_assignment":["orange","green","red","olive","pink","cyan","yellow","purple","blue","brown","grey","ivory"],"door_color_assignment":["white","black"],"door_generator_assignment":[1,0],"goal":10,"start":9,"action_noise":0.15,"location_history":"[9,3,4,5,0,1,2,3,4,5,0,6,11,10]","action_history":"[1,0,0,0,0,0,0,0,0,1,1,0,0]","door_history":"[0,1,1,1,1,1,1,1,1,0,0,1,1]","location_rts":"[1306,996,452,743,1052,895,615,503,543,781,553,759,645]","trial_type":"two-door-navigation","trial_index":13,"time_elapsed":376845,"internal_node_id":"0.0-2.0-11.0"},{"group":"dihedral group of order 12","room_assignment":["orange","green","red","olive","pink","cyan","yellow","purple","blue","brown","grey","ivory"],"door_color_assignment":["white","black"],"door_generator_assignment":[1,0],"goal":2,"start":10,"action_noise":0.15,"location_history":"[10,9,8,7,1,2]","action_history":"[0,0,0,0,0]","door_history":"[1,1,1,1,1]","location_rts":"[7348,20954,822,3393,743]","trial_type":"two-door-navigation","trial_index":14,"time_elapsed":418736,"internal_node_id":"0.0-2.0-12.0"},{"group":"dihedral group of order 12","room_assignment":["orange","green","red","olive","pink","cyan","yellow","purple","blue","brown","grey","ivory"],"door_color_assignment":["white","black"],"door_generator_assignment":[1,0],"goal":0,"start":2,"action_noise":0.15,"location_history":"[2,3,4,5,0]","action_history":"[0,0,0,0]","door_history":"[1,1,1,1]","location_rts":"[3161,822,1523,481]","trial_type":"two-door-navigation","trial_index":15,"time_elapsed":432320,"internal_node_id":"0.0-2.0-13.0"},{"group":"dihedral group of order 12","room_assignment":["orange","green","red","olive","pink","cyan","yellow","purple","blue","brown","grey","ivory"],"door_color_assignment":["white","black"],"door_generator_assignment":[1,0],"goal":9,"start":0,"action_noise":0.15,"location_history":"[0,6,0,1,2,3,4,5,0,1,2,3,4,10,9]","action_history":"[0,1,0,0,0,0,0,0,0,0,0,0,0,0]","door_history":"[1,0,1,1,1,1,1,1,1,1,1,1,1,1]","location_rts":"[1281,1984,1175,701,402,557,3389,751,381,420,265,1368,1349,786]","trial_type":"two-door-navigation","trial_index":16,"time_elapsed":464961,"internal_node_id":"0.0-2.0-14.0"},{"group":"dihedral group of order 12","room_assignment":["orange","green","red","olive","pink","cyan","yellow","purple","blue","brown","grey","ivory"],"door_color_assignment":["white","black"],"door_generator_assignment":[1,0],"goal":8,"start":9,"action_noise":0.15,"location_history":"[9,8]","action_history":"[0]","door_history":"[1]","location_rts":"[540592]","trial_type":"two-door-navigation","trial_index":17,"time_elapsed":1010081,"internal_node_id":"0.0-2.0-15.0"},{"group":"dihedral group of order 12","room_assignment":["orange","green","red","olive","pink","cyan","yellow","purple","blue","brown","grey","ivory"],"door_color_assignment":["white","black"],"door_generator_assignment":[1,0],"goal":6,"start":8,"action_noise":0.15,"location_history":"[8,2,3,4,5,11,10,9,8,7,1,2,3,4,5,11,10,9,8,7,1,7,1,2,3,4,5,0,1,7,6]","action_history":"[0,0,0,0,1,0,0,0,0,0,0,0,0,0,0,0,0,0,0,0,0,0,0,0,0,0,0,0,1,0]","door_history":"[1,1,1,1,0,1,1,1,1,1,1,1,1,1,1,1,1,1,1,1,1,1,1,1,1,1,1,1,0,1]","location_rts":"[2448,2521,978,697,308,366,664,849,731,691,634,722,1035,1418,529,859,546,673,724,1633,568,506,803,426,542,574,1306,461,301,2279]","trial_type":"two-door-navigation","trial_index":18,"time_elapsed":1071085,"internal_node_id":"0.0-2.0-16.0"},{"group":"dihedral group of order 12","room_assignment":["orange","green","red","olive","pink","cyan","yellow","purple","blue","brown","grey","ivory"],"door_color_assignment":["white","black"],"door_generator_assignment":[1,0],"goal":1,"start":6,"action_noise":0.15,"location_history":"[6,11,5,11,5,0,6,0,1]","action_history":"[0,0,0,0,0,1,0,0]","door_history":"[1,1,1,1,1,0,1,1]","location_rts":"[2199,529,597,3333,806,925,1082,396]","trial_type":"two-door-navigation","trial_index":19,"time_elapsed":1092644,"internal_node_id":"0.0-2.0-17.0"},{"group":"dihedral group of order 12","room_assignment":["orange","green","red","olive","pink","cyan","yellow","purple","blue","brown","grey","ivory"],"door_color_assignment":["white","black"],"door_generator_assignment":[1,0],"goal":4,"start":1,"action_noise":0.15,"location_history":"[1,2,8,7,6,11,10,9,8,2,3,9,8,7,6,11,10,9,8,7,6,11,10,9,8,2,3,4]","action_history":"[0,0,0,0,0,0,0,0,0,0,1,0,0,0,0,0,0,0,0,0,0,0,0,0,1,0,0]","door_history":"[1,1,1,1,1,1,1,1,1,1,0,1,1,1,1,1,1,1,1,1,1,1,1,1,0,1,1]","location_rts":"[2160,462,698,14194,2303,2962,3068,4190,3524,760,1893,991,453,1000,1501,4181,786,7344,722,639,2904,803,3901,877,2125,3586,9503]","trial_type":"two-door-navigation","trial_index":20,"time_elapsed":1201307,"internal_node_id":"0.0-2.0-18.0"},{"group":"dihedral group of order 12","room_assignment":["orange","green","red","olive","pink","cyan","yellow","purple","blue","brown","grey","ivory"],"door_color_assignment":["white","black"],"door_generator_assignment":[1,0],"goal":11,"start":4,"action_noise":0.15,"location_history":"[4,5,11]","action_history":"[0,0]","door_history":"[1,1]","location_rts":"[4578,10459]","trial_type":"two-door-navigation","trial_index":21,"time_elapsed":1221892,"internal_node_id":"0.0-2.0-19.0"},{"group":"dihedral group of order 12","room_assignment":["orange","green","red","olive","pink","cyan","yellow","purple","blue","brown","grey","ivory"],"door_color_assignment":["white","black"],"door_generator_assignment":[1,0],"goal":3,"start":11,"action_noise":0.15,"location_history":"[11,10,4,10,4,5,11,10,4,5,11,10,9,8,7,6,11,10,9,8,2,3]","action_history":"[0,1,1,1,1,1,0,1,0,0,0,0,0,0,0,0,0,0,0,1,0]","door_history":"[1,0,0,0,0,0,1,0,1,1,1,1,1,1,1,1,1,1,1,0,1]","location_rts":"[1757,929,1517,801,696,3157,1669,422,1513,541,671,633,1017,1362,573,1046,722,2322,409,285,2292]","trial_type":"two-door-navigation","trial_index":22,"time_elapsed":1271224,"internal_node_id":"0.0-2.0-20.0"},{"group":"dihedral group of order 12","room_assignment":["orange","green","red","olive","pink","cyan","yellow","purple","blue","brown","grey","ivory"],"door_color_assignment":["white","black"],"door_generator_assignment":[1,0],"goal":5,"start":3,"action_noise":0.15,"location_history":"[3,9,3,4,10,9,8,7,6,0,1,7,6,11,10,4,5]","action_history":"[1,0,0,0,0,0,0,0,0,0,1,0,0,0,0,0]","door_history":"[0,1,1,1,1,1,1,1,1,1,0,1,1,1,1,1]","location_rts":"[5692,657,1162,970,1809,1730,650,1116,1336,1403,1659,1063,1545,2114,1065,6020]","trial_type":"two-door-navigation","trial_index":23,"time_elapsed":1321122,"internal_node_id":"0.0-2.0-21.0"},{"group":"dihedral group of order 12","room_assignment":["orange","green","red","olive","pink","cyan","yellow","purple","blue","brown","grey","ivory"],"door_color_assignment":["white","black"],"door_generator_assignment":[1,0],"goal":7,"start":5,"action_noise":0.15,"location_history":"[5,11,5,11,10,4,5,0,1,2,8,7]","action_history":"[0,1,1,0,0,0,0,0,0,0,0]","door_history":"[1,0,0,1,1,1,1,1,1,1,1]","location_rts":"[1308,736,1076,1412,1054,514,897,899,1850,4460,3051]","trial_type":"two-door-navigation","trial_index":24,"time_elapsed":1353128,"internal_node_id":"0.0-2.0-22.0"},{"group":"dihedral group of order 12","room_assignment":["orange","green","red","olive","pink","cyan","yellow","purple","blue","brown","grey","ivory"],"door_color_assignment":["white","black"],"door_generator_assignment":[1,0],"goal":3,"start":7,"action_noise":0.15,"location_history":"[7,1,2,8,7,6,0,1,7,6,11,10,9,8,2,3]","action_history":"[1,0,1,0,0,0,0,1,0,0,0,0,0,0,0]","door_history":"[0,1,0,1,1,1,1,0,1,1,1,1,1,1,1]","location_rts":"[3176,1089,813,1110,1262,668,532,1371,1010,2154,432,809,1491,584,2583]","trial_type":"two-door-navigation","trial_index":25,"time_elapsed":1391101,"internal_node_id":"0.0-2.0-23.0"},{"group":"dihedral group of order 12","room_assignment":["orange","green","red","olive","pink","cyan","yellow","purple","blue","brown","grey","ivory"],"door_color_assignment":["white","black"],"door_generator_assignment":[1,0],"goal":4,"start":3,"action_noise":0.15,"location_history":"[3,9,8,7,6,11,5,0,1,2,8,7,6,11,10,9,8,7,1,2,3,4]","action_history":"[1,0,0,0,0,0,0,0,0,0,0,0,0,0,0,0,0,1,1,0,0]","door_history":"[0,1,1,1,1,1,1,1,1,1,1,1,1,1,1,1,1,0,0,1,1]","location_rts":"[1571,987,1075,807,682,691,1181,1576,810,875,5508,4702,842,5402,4391,5769,513,1362,654,1210,877]","trial_type":"two-door-navigation","trial_index":26,"time_elapsed":1457619,"internal_node_id":"0.0-2.0-24.0"},{"group":"dihedral group of order 12","room_assignment":["orange","green","red","olive","pink","cyan","yellow","purple","blue","brown","grey","ivory"],"door_color_assignment":["white","black"],"door_generator_assignment":[1,0],"goal":8,"start":4,"action_noise":0.15,"location_history":"[4,10,4,10,4,5,0,1,2,3,4,10,9,8]","action_history":"[0,1,1,0,0,0,0,0,1,0,0,0,0]","door_history":"[1,0,0,1,1,1,1,1,0,1,1,1,1]","location_rts":"[872,1032,666,925,579,819,490,2395,745,534,587,615,425]","trial_type":"two-door-navigation","trial_index":27,"time_elapsed":1485144,"internal_node_id":"0.0-2.0-25.0"},{"group":"dihedral group of order 12","room_assignment":["orange","green","red","olive","pink","cyan","yellow","purple","blue","brown","grey","ivory"],"door_color_assignment":["white","black"],"door_generator_assignment":[1,0],"goal":6,"start":8,"action_noise":0.15,"location_history":"[8,7,6]","action_history":"[0,1]","door_history":"[1,0]","location_rts":"[5882,562]","trial_type":"two-door-navigation","trial_index":28,"time_elapsed":1497134,"internal_node_id":"0.0-2.0-26.0"},{"group":"dihedral group of order 12","room_assignment":["orange","green","red","olive","pink","cyan","yellow","purple","blue","brown","grey","ivory"],"door_color_assignment":["white","black"],"door_generator_assignment":[1,0],"goal":1,"start":6,"action_noise":0.15,"location_history":"[6,0,1]","action_history":"[1,1]","door_history":"[0,0]","location_rts":"[2490,1079]","trial_type":"two-door-navigation","trial_index":29,"time_elapsed":1506275,"internal_node_id":"0.0-2.0-27.0"},{"group":"dihedral group of order 12","room_assignment":["orange","green","red","olive","pink","cyan","yellow","purple","blue","brown","grey","ivory"],"door_color_assignment":["white","black"],"door_generator_assignment":[1,0],"goal":5,"start":1,"action_noise":0.15,"location_history":"[1,2,8,2,8,7,6,0,1,2,8,7,1,2,3,9,8,7,6,11,10,9,8,7,6,11,5]","action_history":"[1,1,1,1,1,0,0,0,0,0,0,0,0,0,1,0,0,0,0,0,0,0,0,0,0,1]","door_history":"[0,0,0,0,0,1,1,1,1,1,1,1,1,1,0,1,1,1,1,1,1,1,1,1,1,0]","location_rts":"[1989,401,567,484,635,382,429,374,389,331,373,330,315,387,825,291,594,395,618,384,340,1161,1048,801,594,918]","trial_type":"two-door-navigation","trial_index":30,"time_elapsed":1551750,"internal_node_id":"0.0-2.0-28.0"},{"group":"dihedral group of order 12","room_assignment":["orange","green","red","olive","pink","cyan","yellow","purple","blue","brown","grey","ivory"],"door_color_assignment":["white","black"],"door_generator_assignment":[1,0],"goal":9,"start":5,"action_noise":0.15,"location_history":"[5,0,6,11,10,9]","action_history":"[0,0,0,0,0]","door_history":"[1,1,1,1,1]","location_rts":"[4843,1330,3676,747,515]","trial_type":"two-door-navigation","trial_index":31,"time_elapsed":1571470,"internal_node_id":"0.0-2.0-29.0"},{"group":"dihedral group of order 12","room_assignment":["orange","green","red","olive","pink","cyan","yellow","purple","blue","brown","grey","ivory"],"door_color_assignment":["white","black"],"door_generator_assignment":[1,0],"goal":10,"start":9,"action_noise":0.15,"location_history":"[9,8,7,6,11,10]","action_history":"[0,0,0,0,0]","door_history":"[1,1,1,1,1]","location_rts":"[5535,1118,1052,1494,1712]","trial_type":"two-door-navigation","trial_index":32,"time_elapsed":1590994,"internal_node_id":"0.0-2.0-30.0"},{"group":"dihedral group of order 12","room_assignment":["orange","green","red","olive","pink","cyan","yellow","purple","blue","brown","grey","ivory"],"door_color_assignment":["white","black"],"door_generator_assignment":[1,0],"goal":0,"start":10,"action_noise":0.15,"location_history":"[10,9,8,7,6,11,10,9,3,4,5,0]","action_history":"[0,0,0,0,0,0,0,1,0,0,0]","door_history":"[1,1,1,1,1,1,1,0,1,1,1]","location_rts":"[590,417,614,164,638,2305,444,3020,1211,3802,2793]","trial_type":"two-door-navigation","trial_index":33,"time_elapsed":1621759,"internal_node_id":"0.0-2.0-31.0"},{"group":"dihedral group of order 12","room_assignment":["orange","green","red","olive","pink","cyan","yellow","purple","blue","brown","grey","ivory"],"door_color_assignment":["white","black"],"door_generator_assignment":[1,0],"goal":7,"start":0,"action_noise":0.15,"location_history":"[0,1,2,3,4,5,0,1,2,8,2,3,4,5,0,1,7]","action_history":"[0,0,0,0,0,0,0,0,1,1,0,0,0,0,0,0]","door_history":"[1,1,1,1,1,1,1,1,0,0,1,1,1,1,1,1]","location_rts":"[5161,560,435,565,1168,1529,485,512,955,889,3136,436,738,9079,926,1153]","trial_type":"two-door-navigation","trial_index":34,"time_elapsed":1669359,"internal_node_id":"0.0-2.0-32.0"},{"group":"dihedral group of order 12","room_assignment":["orange","green","red","olive","pink","cyan","yellow","purple","blue","brown","grey","ivory"],"door_color_assignment":["white","black"],"door_generator_assignment":[1,0],"goal":11,"start":7,"action_noise":0.15,"location_history":"[7,6,0,6,11]","action_history":"[0,1,1,0]","door_history":"[1,0,0,1]","location_rts":"[8656,717,764,1010]","trial_type":"two-door-navigation","trial_index":35,"time_elapsed":1688094,"internal_node_id":"0.0-2.0-33.0"},{"group":"dihedral group of order 12","room_assignment":["orange","green","red","olive","pink","cyan","yellow","purple","blue","brown","grey","ivory"],"door_color_assignment":["white","black"],"door_generator_assignment":[1,0],"goal":2,"start":11,"action_noise":0.15,"location_history":"[11,5,0,1,2]","action_history":"[1,0,0,0]","door_history":"[0,1,1,1]","location_rts":"[1275,1224,474,431]","trial_type":"two-door-navigation","trial_index":36,"time_elapsed":1699093,"internal_node_id":"0.0-2.0-34.0"},{"view_history":"[{\"page_index\":0,\"viewing_time\":2570}]","rt":2571,"trial_type":"instructions","trial_index":37,"time_elapsed":1702665,"internal_node_id":"0.0-3.0"},{"view_history":"[{\"page_index\":0,\"viewing_time\":1494},{\"page_index\":1,\"viewing_time\":11002}]","rt":12497,"trial_type":"instructions","trial_index":38,"time_elapsed":1716163,"internal_node_id":"0.0-4.0"},{"group":"dicyclic group of order 12","fractal_assignment":["../images/wht_red.png","../images/grn_blu.png","../images/org_blu.png","../images/gry_blk.png","../images/cyn_red.png","../images/grn_red.png","../images/pnk_blu.png","../images/grn_prp.png","../images/red_prp.png","../images/blu_wht.png","../images/ylw_slt.png","../images/ylw_pnk.png"],"mutagen_generator_assignment":[0,1],"goal":7,"start":3,"action_noise":0.15,"location_history":"[3,0,1,2,3,7]","action_history":"[0,0,0,1,0]","mutagen_history":"[0,0,0,1,0]","location_rts":"[3897,747,707,382,495]","trial_type":"fractal-mutation","trial_index":39,"time_elapsed":1731335,"internal_node_id":"0.0-5.0-0.0"},{"group":"dicyclic group of order 12","fractal_assignment":["../images/wht_red.png","../images/grn_blu.png","../images/org_blu.png","../images/gry_blk.png","../images/cyn_red.png","../images/grn_red.png","../images/pnk_blu.png","../images/grn_prp.png","../images/red_prp.png","../images/blu_wht.png","../images/ylw_slt.png","../images/ylw_pnk.png"],"mutagen_generator_assignment":[0,1],"goal":5,"start":7,"action_noise":0.15,"location_history":"[7,8,5]","action_history":"[0,0]","mutagen_history":"[0,0]","location_rts":"[2082,484]","trial_type":"fractal-mutation","trial_index":40,"time_elapsed":1739486,"internal_node_id":"0.0-5.0-1.0"},{"group":"dicyclic group of order 12","fractal_assignment":["../images/wht_red.png","../images/grn_blu.png","../images/org_blu.png","../images/gry_blk.png","../images/cyn_red.png","../images/grn_red.png","../images/pnk_blu.png","../images/grn_prp.png","../images/red_prp.png","../images/blu_wht.png","../images/ylw_slt.png","../images/ylw_pnk.png"],"mutagen_generator_assignment":[0,1],"goal":0,"start":5,"action_noise":0.15,"location_history":"[5,9,6,10,2,6,11,3,0]","action_history":"[0,0,1,1,0,1,1,0]","mutagen_history":"[0,0,1,1,0,1,1,0]","location_rts":"[1330,442,508,535,1301,652,644,656]","trial_type":"fractal-mutation","trial_index":41,"time_elapsed":1758159,"internal_node_id":"0.0-5.0-2.0"},{"group":"dicyclic group of order 12","fractal_assignment":["../images/wht_red.png","../images/grn_blu.png","../images/org_blu.png","../images/gry_blk.png","../images/cyn_red.png","../images/grn_red.png","../images/pnk_blu.png","../images/grn_prp.png","../images/red_prp.png","../images/blu_wht.png","../images/ylw_slt.png","../images/ylw_pnk.png"],"mutagen_generator_assignment":[0,1],"goal":2,"start":0,"action_noise":0.15,"location_history":"[0,1,2]","action_history":"[0,0]","mutagen_history":"[0,0]","location_rts":"[1954,456]","trial_type":"fractal-mutation","trial_index":42,"time_elapsed":1766150,"internal_node_id":"0.0-5.0-3.0"},{"group":"dicyclic group of order 12","fractal_assignment":["../images/wht_red.png","../images/grn_blu.png","../images/org_blu.png","../images/gry_blk.png","../images/cyn_red.png","../images/grn_red.png","../images/pnk_blu.png","../images/grn_prp.png","../images/red_prp.png","../images/blu_wht.png","../images/ylw_slt.png","../images/ylw_pnk.png"],"mutagen_generator_assignment":[0,1],"goal":10,"start":2,"action_noise":0.15,"location_history":"[2,6,11,3,7,11,4,8,5,10]","action_history":"[1,1,1,1,0,0,0,0,0]","mutagen_history":"[1,1,1,1,0,0,0,0,0]","location_rts":"[1941,559,411,501,806,571,517,676,448]","trial_type":"fractal-mutation","trial_index":43,"time_elapsed":1786515,"internal_node_id":"0.0-5.0-4.0"},{"group":"dicyclic group of order 12","fractal_assignment":["../images/wht_red.png","../images/grn_blu.png","../images/org_blu.png","../images/gry_blk.png","../images/cyn_red.png","../images/grn_red.png","../images/pnk_blu.png","../images/grn_prp.png","../images/red_prp.png","../images/blu_wht.png","../images/ylw_slt.png","../images/ylw_pnk.png"],"mutagen_generator_assignment":[0,1],"goal":8,"start":10,"action_noise":0.15,"location_history":"[10,7,8]","action_history":"[0,0]","mutagen_history":"[0,0]","location_rts":"[1290,921]","trial_type":"fractal-mutation","trial_index":44,"time_elapsed":1794289,"internal_node_id":"0.0-5.0-5.0"},{"group":"dicyclic group of order 12","fractal_assignment":["../images/wht_red.png","../images/grn_blu.png","../images/org_blu.png","../images/gry_blk.png","../images/cyn_red.png","../images/grn_red.png","../images/pnk_blu.png","../images/grn_prp.png","../images/red_prp.png","../images/blu_wht.png","../images/ylw_slt.png","../images/ylw_pnk.png"],"mutagen_generator_assignment":[0,1],"goal":11,"start":8,"action_noise":0.15,"location_history":"[8,5,10,2,6,10,2,3,0,1,2,3,0,1,5,9,6,10,2,6,10,2,6,10,2,3,0,1,2,3,0,1,5,10,2,6,10,2,6,10,2,6,10,7,8,5,9,6,11]","action_history":"[0,0,1,1,1,1,0,0,0,0,0,0,0,1,1,1,1,1,1,1,1,1,1,1,0,0,0,0,0,0,0,1,0,1,1,1,1,1,1,1,1,1,0,0,0,1,0,0]","mutagen_history":"[0,0,1,1,1,1,0,0,0,0,0,0,0,1,1,1,1,1,1,1,1,1,1,1,0,0,0,0,0,0,0,1,0,1,1,1,1,1,1,1,1,1,0,0,0,1,0,0]","location_rts":"[1117,555,404,504,629,644,362,360,8106,440,492,517,556,365,684,436,394,806,1556,1543,682,558,1264,744,4691,698,423,513,469,405,565,516,366,381,211,254,315,302,327,337,359,436,333,339,267,1260,383,376]","trial_type":"fractal-mutation","trial_index":45,"time_elapsed":1891683,"internal_node_id":"0.0-5.0-6.0"},{"group":"dicyclic group of order 12","fractal_assignment":["../images/wht_red.png","../images/grn_blu.png","../images/org_blu.png","../images/gry_blk.png","../images/cyn_red.png","../images/grn_red.png","../images/pnk_blu.png","../images/grn_prp.png","../images/red_prp.png","../images/blu_wht.png","../images/ylw_slt.png","../images/ylw_pnk.png"],"mutagen_generator_assignment":[0,1],"goal":6,"start":11,"action_noise":0.15,"location_history":"[11,3,0,4,8,5,10,7,8,5,9,1,5,9,6]","action_history":"[1,1,1,1,0,0,0,0,0,1,1,1,1,1]","mutagen_history":"[1,1,1,1,0,0,0,0,0,1,1,1,1,1]","location_rts":"[3406,422,369,557,717,479,369,388,598,315,380,309,301,458]","trial_type":"fractal-mutation","trial_index":46,"time_elapsed":1920703,"internal_node_id":"0.0-5.0-7.0"},{"group":"dicyclic group of order 12","fractal_assignment":["../images/wht_red.png","../images/grn_blu.png","../images/org_blu.png","../images/gry_blk.png","../images/cyn_red.png","../images/grn_red.png","../images/pnk_blu.png","../images/grn_prp.png","../images/red_prp.png","../images/blu_wht.png","../images/ylw_slt.png","../images/ylw_pnk.png"],"mutagen_generator_assignment":[0,1],"goal":4,"start":6,"action_noise":0.15,"location_history":"[6,10,7,8,5,10,7,8,5,10,2,6,10,2,3,0,1,2,6,11,4]","action_history":"[0,0,0,0,0,0,0,0,0,1,1,1,1,0,0,0,0,0,0,0]","mutagen_history":"[0,0,0,0,0,0,0,0,0,1,1,1,1,0,0,0,0,0,0,0]","location_rts":"[1958,453,90696,717,564,617,301,1800,490,1088,443,418,301,265,194,228,337,244,273,204]","trial_type":"fractal-mutation","trial_index":47,"time_elapsed":2047729,"internal_node_id":"0.0-5.0-8.0"},{"group":"dicyclic group of order 12","fractal_assignment":["../images/wht_red.png","../images/grn_blu.png","../images/org_blu.png","../images/gry_blk.png","../images/cyn_red.png","../images/grn_red.png","../images/pnk_blu.png","../images/grn_prp.png","../images/red_prp.png","../images/blu_wht.png","../images/ylw_slt.png","../images/ylw_pnk.png"],"mutagen_generator_assignment":[0,1],"goal":1,"start":4,"action_noise":0.15,"location_history":"[4,9,1]","action_history":"[1,1]","mutagen_history":"[1,1]","location_rts":"[3547,465]","trial_type":"fractal-mutation","trial_index":48,"time_elapsed":2057693,"internal_node_id":"0.0-5.0-9.0"},{"group":"dicyclic group of order 12","fractal_assignment":["../images/wht_red.png","../images/grn_blu.png","../images/org_blu.png","../images/gry_blk.png","../images/cyn_red.png","../images/grn_red.png","../images/pnk_blu.png","../images/grn_prp.png","../images/red_prp.png","../images/blu_wht.png","../images/ylw_slt.png","../images/ylw_pnk.png"],"mutagen_generator_assignment":[0,1],"goal":9,"start":1,"action_noise":0.15,"location_history":"[1,5,9]","action_history":"[1,1]","mutagen_history":"[1,1]","location_rts":"[1313,886]","trial_type":"fractal-mutation","trial_index":49,"time_elapsed":2065853,"internal_node_id":"0.0-5.0-10.0"},{"group":"dicyclic group of order 12","fractal_assignment":["../images/wht_red.png","../images/grn_blu.png","../images/org_blu.png","../images/gry_blk.png","../images/cyn_red.png","../images/grn_red.png","../images/pnk_blu.png","../images/grn_prp.png","../images/red_prp.png","../images/blu_wht.png","../images/ylw_slt.png","../images/ylw_pnk.png"],"mutagen_generator_assignment":[0,1],"goal":10,"start":9,"action_noise":0.15,"location_history":"[9,1,5,10]","action_history":"[1,1,1]","mutagen_history":"[1,1,1]","location_rts":"[1374,982,460]","trial_type":"fractal-mutation","trial_index":50,"time_elapsed":2075786,"internal_node_id":"0.0-5.0-11.0"},{"group":"dicyclic group of order 12","fractal_assignment":["../images/wht_red.png","../images/grn_blu.png","../images/org_blu.png","../images/gry_blk.png","../images/cyn_red.png","../images/grn_red.png","../images/pnk_blu.png","../images/grn_prp.png","../images/red_prp.png","../images/blu_wht.png","../images/ylw_slt.png","../images/ylw_pnk.png"],"mutagen_generator_assignment":[0,1],"goal":2,"start":10,"action_noise":0.15,"location_history":"[10,2]","action_history":"[1]","mutagen_history":"[1]","location_rts":"[1371]","trial_type":"fractal-mutation","trial_index":51,"time_elapsed":2081881,"internal_node_id":"0.0-5.0-12.0"},{"group":"dicyclic group of order 12","fractal_assignment":["../images/wht_red.png","../images/grn_blu.png","../images/org_blu.png","../images/gry_blk.png","../images/cyn_red.png","../images/grn_red.png","../images/pnk_blu.png","../images/grn_prp.png","../images/red_prp.png","../images/blu_wht.png","../images/ylw_slt.png","../images/ylw_pnk.png"],"mutagen_generator_assignment":[0,1],"goal":0,"start":2,"action_noise":0.15,"location_history":"[2,6,11,4,9,6,11,4,9,6,11,3,7,11,4,9,6,10,7,8,5,10,7,11,3,7,11,4,9,6,10,2,3,0]","action_history":"[1,0,0,0,0,0,0,0,0,0,1,1,1,0,0,0,0,0,0,0,0,0,1,1,1,1,1,0,0,0,0,0,0]","mutagen_history":"[1,0,0,0,0,0,0,0,0,0,1,1,1,0,0,0,0,0,0,0,0,0,1,1,1,1,1,0,0,0,0,0,0]","location_rts":"[1657,380,460,433,357,510,784,400,310,628,358,301,1827,788,622,790,508,762,566,749,491,807,315,267,302,356,534,586,479,564,368,576,1493]","trial_type":"fractal-mutation","trial_index":52,"time_elapsed":2143449,"internal_node_id":"0.0-5.0-13.0"},{"group":"dicyclic group of order 12","fractal_assignment":["../images/wht_red.png","../images/grn_blu.png","../images/org_blu.png","../images/gry_blk.png","../images/cyn_red.png","../images/grn_red.png","../images/pnk_blu.png","../images/grn_prp.png","../images/red_prp.png","../images/blu_wht.png","../images/ylw_slt.png","../images/ylw_pnk.png"],"mutagen_generator_assignment":[0,1],"goal":9,"start":0,"action_noise":0.15,"location_history":"[0,4,8,5,10,2,3,0,4,8,0,4,9]","action_history":"[1,1,0,1,1,1,1,1,1,1,1,0]","mutagen_history":"[1,1,0,1,1,1,1,1,1,1,1,0]","location_rts":"[1624,418,322,353,280,393,477,492,368,367,558,517]","trial_type":"fractal-mutation","trial_index":53,"time_elapsed":2167395,"internal_node_id":"0.0-5.0-14.0"},{"group":"dicyclic group of order 12","fractal_assignment":["../images/wht_red.png","../images/grn_blu.png","../images/org_blu.png","../images/gry_blk.png","../images/cyn_red.png","../images/grn_red.png","../images/pnk_blu.png","../images/grn_prp.png","../images/red_prp.png","../images/blu_wht.png","../images/ylw_slt.png","../images/ylw_pnk.png"],"mutagen_generator_assignment":[0,1],"goal":8,"start":9,"action_noise":0.15,"location_history":"[9,1,5,9,1,5,10,7,8]","action_history":"[1,0,1,1,0,0,0,0]","mutagen_history":"[1,0,1,1,0,0,0,0]","location_rts":"[1869,417,863,500,642,412,398,628]","trial_type":"fractal-mutation","trial_index":54,"time_elapsed":2185857,"internal_node_id":"0.0-5.0-15.0"},{"group":"dicyclic group of order 12","fractal_assignment":["../images/wht_red.png","../images/grn_blu.png","../images/org_blu.png","../images/gry_blk.png","../images/cyn_red.png","../images/grn_red.png","../images/pnk_blu.png","../images/grn_prp.png","../images/red_prp.png","../images/blu_wht.png","../images/ylw_slt.png","../images/ylw_pnk.png"],"mutagen_generator_assignment":[0,1],"goal":6,"start":8,"action_noise":0.15,"location_history":"[8,0,4,9,1,2,6]","action_history":"[1,1,1,1,1,1]","mutagen_history":"[1,1,1,1,1,1]","location_rts":"[1364,469,366,333,390,410]","trial_type":"fractal-mutation","trial_index":55,"time_elapsed":2199908,"internal_node_id":"0.0-5.0-16.0"},{"group":"dicyclic group of order 12","fractal_assignment":["../images/wht_red.png","../images/grn_blu.png","../images/org_blu.png","../images/gry_blk.png","../images/cyn_red.png","../images/grn_red.png","../images/pnk_blu.png","../images/grn_prp.png","../images/red_prp.png","../images/blu_wht.png","../images/ylw_slt.png","../images/ylw_pnk.png"],"mutagen_generator_assignment":[0,1],"goal":1,"start":6,"action_noise":0.15,"location_history":"[6,10,2,6,10,7,8,0,1]","action_history":"[1,1,1,1,0,1,1,0]","mutagen_history":"[1,1,1,1,0,1,1,0]","location_rts":"[2562,2321,2534,3103,1011,1377,542,670]","trial_type":"fractal-mutation","trial_index":56,"time_elapsed":2226974,"internal_node_id":"0.0-5.0-17.0"},{"group":"dicyclic group of order 12","fractal_assignment":["../images/wht_red.png","../images/grn_blu.png","../images/org_blu.png","../images/gry_blk.png","../images/cyn_red.png","../images/grn_red.png","../images/pnk_blu.png","../images/grn_prp.png","../images/red_prp.png","../images/blu_wht.png","../images/ylw_slt.png","../images/ylw_pnk.png"],"mutagen_generator_assignment":[0,1],"goal":4,"start":1,"action_noise":0.15,"location_history":"[1,5,9,1,2,3,0,1,2,3,0,1,2,3,7,8,0,4]","action_history":"[1,0,0,0,0,0,0,0,0,0,0,0,0,1,0,1,1]","mutagen_history":"[1,0,0,0,0,0,0,0,0,0,0,0,0,1,0,1,1]","location_rts":"[695,656,635,687,723,527,1541,970,791,672,1951,2000,1205,1428,1846,991,689]","trial_type":"fractal-mutation","trial_index":57,"time_elapsed":2267970,"internal_node_id":"0.0-5.0-18.0"},{"group":"dicyclic group of order 12","fractal_assignment":["../images/wht_red.png","../images/grn_blu.png","../images/org_blu.png","../images/gry_blk.png","../images/cyn_red.png","../images/grn_red.png","../images/pnk_blu.png","../images/grn_prp.png","../images/red_prp.png","../images/blu_wht.png","../images/ylw_slt.png","../images/ylw_pnk.png"],"mutagen_generator_assignment":[0,1],"goal":11,"start":4,"action_noise":0.15,"location_history":"[4,9,1,5,9,6,11]","action_history":"[0,1,1,0,0,0]","mutagen_history":"[0,1,1,0,0,0]","location_rts":"[1228,3045,3334,1451,2088,2971]","trial_type":"fractal-mutation","trial_index":58,"time_elapsed":2292380,"internal_node_id":"0.0-5.0-19.0"},{"group":"dicyclic group of order 12","fractal_assignment":["../images/wht_red.png","../images/grn_blu.png","../images/org_blu.png","../images/gry_blk.png","../images/cyn_red.png","../images/grn_red.png","../images/pnk_blu.png","../images/grn_prp.png","../images/red_prp.png","../images/blu_wht.png","../images/ylw_slt.png","../images/ylw_pnk.png"],"mutagen_generator_assignment":[0,1],"goal":3,"start":11,"action_noise":0.15,"location_history":"[11,3]","action_history":"[1]","mutagen_history":"[1]","location_rts":"[914]","trial_type":"fractal-mutation","trial_index":59,"time_elapsed":2297991,"internal_node_id":"0.0-5.0-20.0"},{"group":"dicyclic group of order 12","fractal_assignment":["../images/wht_red.png","../images/grn_blu.png","../images/org_blu.png","../images/gry_blk.png","../images/cyn_red.png","../images/grn_red.png","../images/pnk_blu.png","../images/grn_prp.png","../images/red_prp.png","../images/blu_wht.png","../images/ylw_slt.png","../images/ylw_pnk.png"],"mutagen_generator_assignment":[0,1],"goal":5,"start":3,"action_noise":0.15,"location_history":"[3,0,1,2,3,0,1,5]","action_history":"[0,1,1,0,0,0,1]","mutagen_history":"[0,1,1,0,0,0,1]","location_rts":"[868,818,389,672,2493,733,1693]","trial_type":"fractal-mutation","trial_index":60,"time_elapsed":2317152,"internal_node_id":"0.0-5.0-21.0"},{"group":"dicyclic group of order 12","fractal_assignment":["../images/wht_red.png","../images/grn_blu.png","../images/org_blu.png","../images/gry_blk.png","../images/cyn_red.png","../images/grn_red.png","../images/pnk_blu.png","../images/grn_prp.png","../images/red_prp.png","../images/blu_wht.png","../images/ylw_slt.png","../images/ylw_pnk.png"],"mutagen_generator_assignment":[0,1],"goal":7,"start":5,"action_noise":0.15,"location_history":"[5,9,6,10,7]","action_history":"[1,0,0,0]","mutagen_history":"[1,0,0,0]","location_rts":"[1363,319,893,584]","trial_type":"fractal-mutation","trial_index":61,"time_elapsed":2328388,"internal_node_id":"0.0-5.0-22.0"},{"group":"dicyclic group of order 12","fractal_assignment":["../images/wht_red.png","../images/grn_blu.png","../images/org_blu.png","../images/gry_blk.png","../images/cyn_red.png","../images/grn_red.png","../images/pnk_blu.png","../images/grn_prp.png","../images/red_prp.png","../images/blu_wht.png","../images/ylw_slt.png","../images/ylw_pnk.png"],"mutagen_generator_assignment":[0,1],"goal":3,"start":7,"action_noise":0.15,"location_history":"[7,11,3]","action_history":"[1,1]","mutagen_history":"[1,1]","location_rts":"[1089,447]","trial_type":"fractal-mutation","trial_index":62,"time_elapsed":2335825,"internal_node_id":"0.0-5.0-23.0"},{"group":"dicyclic group of order 12","fractal_assignment":["../images/wht_red.png","../images/grn_blu.png","../images/org_blu.png","../images/gry_blk.png","../images/cyn_red.png","../images/grn_red.png","../images/pnk_blu.png","../images/grn_prp.png","../images/red_prp.png","../images/blu_wht.png","../images/ylw_slt.png","../images/ylw_pnk.png"],"mutagen_generator_assignment":[0,1],"goal":4,"start":3,"action_noise":0.15,"location_history":"[3,0,1,2,3,0,1,2,3,0,1,2,3,7,8,0,4]","action_history":"[0,0,0,0,0,0,0,0,0,0,0,0,0,0,1,1]","mutagen_history":"[0,0,0,0,0,0,0,0,0,0,0,0,0,0,1,1]","location_rts":"[1852,877,3870,402,1516,331,844,475,799,858,7959,618,599,445,353,438]","trial_type":"fractal-mutation","trial_index":63,"time_elapsed":2378339,"internal_node_id":"0.0-5.0-24.0"},{"group":"dicyclic group of order 12","fractal_assignment":["../images/wht_red.png","../images/grn_blu.png","../images/org_blu.png","../images/gry_blk.png","../images/cyn_red.png","../images/grn_red.png","../images/pnk_blu.png","../images/grn_prp.png","../images/red_prp.png","../images/blu_wht.png","../images/ylw_slt.png","../images/ylw_pnk.png"],"mutagen_generator_assignment":[0,1],"goal":8,"start":4,"action_noise":0.15,"location_history":"[4,9,6,11,4,9,1,5,9,1,5,9,1,5,9,1,5,9,1,5,9,1,2,6,10,2,6,11,4,8]","action_history":"[0,0,0,0,0,1,1,1,1,1,1,1,1,1,1,1,1,1,1,1,1,1,1,1,0,0,0,0,1]","mutagen_history":"[0,0,0,0,0,1,1,1,1,1,1,1,1,1,1,1,1,1,1,1,1,1,1,1,0,0,0,0,1]","location_rts":"[832,2324,635,512,352,234,335,310,369,375,376,561,449,547,272,610,4599,1521,739,527,2090,1211,347,380,569,537,377,360,489]","trial_type":"fractal-mutation","trial_index":64,"time_elapsed":2438385,"internal_node_id":"0.0-5.0-25.0"},{"group":"dicyclic group of order 12","fractal_assignment":["../images/wht_red.png","../images/grn_blu.png","../images/org_blu.png","../images/gry_blk.png","../images/cyn_red.png","../images/grn_red.png","../images/pnk_blu.png","../images/grn_prp.png","../images/red_prp.png","../images/blu_wht.png","../images/ylw_slt.png","../images/ylw_pnk.png"],"mutagen_generator_assignment":[0,1],"goal":6,"start":8,"action_noise":0.15,"location_history":"[8,0,1,5,9,1,2,6]","action_history":"[1,1,1,1,1,1,1]","mutagen_history":"[1,1,1,1,1,1,1]","location_rts":"[1244,472,476,389,447,754,351]","trial_type":"fractal-mutation","trial_index":65,"time_elapsed":2454441,"internal_node_id":"0.0-5.0-26.0"},{"group":"dicyclic group of order 12","fractal_assignment":["../images/wht_red.png","../images/grn_blu.png","../images/org_blu.png","../images/gry_blk.png","../images/cyn_red.png","../images/grn_red.png","../images/pnk_blu.png","../images/grn_prp.png","../images/red_prp.png","../images/blu_wht.png","../images/ylw_slt.png","../images/ylw_pnk.png"],"mutagen_generator_assignment":[0,1],"goal":1,"start":6,"action_noise":0.15,"location_history":"[6,11,3,7,11,3,7,8,0,4,9,1]","action_history":"[1,1,1,1,1,1,1,1,1,1,1]","mutagen_history":"[1,1,1,1,1,1,1,1,1,1,1]","location_rts":"[1001,470,517,1075,859,753,858,786,589,753,2494]","trial_type":"fractal-mutation","trial_index":66,"time_elapsed":2481314,"internal_node_id":"0.0-5.0-27.0"},{"group":"dicyclic group of order 12","fractal_assignment":["../images/wht_red.png","../images/grn_blu.png","../images/org_blu.png","../images/gry_blk.png","../images/cyn_red.png","../images/grn_red.png","../images/pnk_blu.png","../images/grn_prp.png","../images/red_prp.png","../images/blu_wht.png","../images/ylw_slt.png","../images/ylw_pnk.png"],"mutagen_generator_assignment":[0,1],"goal":5,"start":1,"action_noise":0.15,"location_history":"[1,5]","action_history":"[1]","mutagen_history":"[1]","location_rts":"[823]","trial_type":"fractal-mutation","trial_index":67,"time_elapsed":2486849,"internal_node_id":"0.0-5.0-28.0"},{"group":"dicyclic group of order 12","fractal_assignment":["../images/wht_red.png","../images/grn_blu.png","../images/org_blu.png","../images/gry_blk.png","../images/cyn_red.png","../images/grn_red.png","../images/pnk_blu.png","../images/grn_prp.png","../images/red_prp.png","../images/blu_wht.png","../images/ylw_slt.png","../images/ylw_pnk.png"],"mutagen_generator_assignment":[0,1],"goal":9,"start":5,"action_noise":0.15,"location_history":"[5,9]","action_history":"[1]","mutagen_history":"[1]","location_rts":"[784]","trial_type":"fractal-mutation","trial_index":68,"time_elapsed":2492337,"internal_node_id":"0.0-5.0-29.0"},{"group":"dicyclic group of order 12","fractal_assignment":["../images/wht_red.png","../images/grn_blu.png","../images/org_blu.png","../images/gry_blk.png","../images/cyn_red.png","../images/grn_red.png","../images/pnk_blu.png","../images/grn_prp.png","../images/red_prp.png","../images/blu_wht.png","../images/ylw_slt.png","../images/ylw_pnk.png"],"mutagen_generator_assignment":[0,1],"goal":10,"start":9,"action_noise":0.15,"location_history":"[9,6,11,3,7,11,3,7,11,4,8,0,1,5,9,1,2,3,7,11,4,9,1,5,9,1,2,6,10]","action_history":"[0,0,1,1,1,1,1,1,1,1,1,1,1,1,1,1,1,1,1,1,1,1,1,1,1,0,1,1]","mutagen_history":"[0,0,1,1,1,1,1,1,1,1,1,1,1,1,1,1,1,1,1,1,1,1,1,1,1,0,1,1]","location_rts":"[3190,534,494,369,853,1612,545,595,556,565,789,564,888,746,694,533,551,432,570,664,1045,594,426,239,655,941,2333,779]","trial_type":"fractal-mutation","trial_index":69,"time_elapsed":2551981,"internal_node_id":"0.0-5.0-30.0"},{"group":"dicyclic group of order 12","fractal_assignment":["../images/wht_red.png","../images/grn_blu.png","../images/org_blu.png","../images/gry_blk.png","../images/cyn_red.png","../images/grn_red.png","../images/pnk_blu.png","../images/grn_prp.png","../images/red_prp.png","../images/blu_wht.png","../images/ylw_slt.png","../images/ylw_pnk.png"],"mutagen_generator_assignment":[0,1],"goal":0,"start":10,"action_noise":0.15,"location_history":"[10,2,3,7,11,3,7,11,4,8,5,9,1,5,9,1,5,9,1,2,6,11,3,7,11,3,7,11,3,0]","action_history":"[0,1,1,1,1,1,1,1,1,1,1,1,1,1,1,1,1,1,1,1,1,1,1,1,0,1,1,1,0]","mutagen_history":"[0,1,1,1,1,1,1,1,1,1,1,1,1,1,1,1,1,1,1,1,1,1,1,1,0,1,1,1,0]","location_rts":"[1130,1187,2231,407,571,495,684,628,481,497,715,1140,2464,576,520,769,3126,1643,631,1111,940,2452,2168,834,1617,936,505,644,239]","trial_type":"fractal-mutation","trial_index":70,"time_elapsed":2621391,"internal_node_id":"0.0-5.0-31.0"},{"group":"dicyclic group of order 12","fractal_assignment":["../images/wht_red.png","../images/grn_blu.png","../images/org_blu.png","../images/gry_blk.png","../images/cyn_red.png","../images/grn_red.png","../images/pnk_blu.png","../images/grn_prp.png","../images/red_prp.png","../images/blu_wht.png","../images/ylw_slt.png","../images/ylw_pnk.png"],"mutagen_generator_assignment":[0,1],"goal":7,"start":0,"action_noise":0.15,"location_history":"[0,4,8,5,10,7]","action_history":"[1,1,1,0,0]","mutagen_history":"[1,1,1,0,0]","location_rts":"[560,751,988,421,598]","trial_type":"fractal-mutation","trial_index":71,"time_elapsed":2634054,"internal_node_id":"0.0-5.0-32.0"},{"group":"dicyclic group of order 12","fractal_assignment":["../images/wht_red.png","../images/grn_blu.png","../images/org_blu.png","../images/gry_blk.png","../images/cyn_red.png","../images/grn_red.png","../images/pnk_blu.png","../images/grn_prp.png","../images/red_prp.png","../images/blu_wht.png","../images/ylw_slt.png","../images/ylw_pnk.png"],"mutagen_generator_assignment":[0,1],"goal":11,"start":7,"action_noise":0.15,"location_history":"[7,8,5,10,7,8,5,10,2,6,10,2,6,10,2,6,10,2,6,10,7,11]","action_history":"[0,0,0,0,0,0,0,1,1,1,1,1,1,1,1,1,1,1,1,1,1]","mutagen_history":"[0,0,0,0,0,0,0,1,1,1,1,1,1,1,1,1,1,1,1,1,1]","location_rts":"[1032,532,216,302,278,262,258,213,226,441,447,685,550,514,732,621,1003,1309,686,904,355]","trial_type":"fractal-mutation","trial_index":72,"time_elapsed":2673125,"internal_node_id":"0.0-5.0-33.0"},{"group":"dicyclic group of order 12","fractal_assignment":["../images/wht_red.png","../images/grn_blu.png","../images/org_blu.png","../images/gry_blk.png","../images/cyn_red.png","../images/grn_red.png","../images/pnk_blu.png","../images/grn_prp.png","../images/red_prp.png","../images/blu_wht.png","../images/ylw_slt.png","../images/ylw_pnk.png"],"mutagen_generator_assignment":[0,1],"goal":2,"start":11,"action_noise":0.15,"location_history":"[11,4,8,0,1,5,10,7,11,3,0,4,8,0,4,9,1,2]","action_history":"[1,1,1,1,1,0,0,1,1,1,1,1,1,0,0,0,0]","mutagen_history":"[1,1,1,1,1,0,0,1,1,1,1,1,1,0,0,0,0]","location_rts":"[477,554,513,970,2752,763,634,518,2407,1272,1283,555,648,845,489,2004,2638]","trial_type":"fractal-mutation","trial_index":73,"time_elapsed":2716064,"internal_node_id":"0.0-5.0-34.0"},{"view_history":"[{\"page_index\":0,\"viewing_time\":2513}]","rt":2514,"trial_type":"instructions","trial_index":74,"time_elapsed":2719579,"internal_node_id":"0.0-6.0"},{"rt":81385,"responses":"{\"Q0\":\"Maybe studying how people make decisions based on historical occurrences.\"}","trial_type":"survey-text","trial_index":75,"time_elapsed":2801979,"internal_node_id":"0.0-7.0-0.0"},{"rt":29289,"responses":"{\"Q0\":\"Maybe studying the importance of luck when making decisions.\"}","trial_type":"survey-text","trial_index":76,"time_elapsed":2832274,"internal_node_id":"0.0-7.0-1.0"},{"rt":12433,"responses":"{\"Q0\":\"1\"}","trial_type":"survey-likert","trial_index":77,"time_elapsed":2845717,"internal_node_id":"0.0-7.0-2.0"},{"rt":79270,"responses":"{\"Q0\":\"Some fractals occurred after other most of the time, also some rooms where always next to others.\"}","trial_type":"survey-text","trial_index":78,"time_elapsed":2925992,"internal_node_id":"0.0-7.0-3.0"},{"rt":8705,"responses":"{\"Q0\":\"No\"}","trial_type":"survey-multi-choice","trial_index":79,"time_elapsed":2935712,"internal_node_id":"0.0-7.0-4.0"},{"rt":7684,"responses":"{\"Q0\":\"Did not notice\"}","trial_type":"survey-multi-choice","trial_index":80,"time_elapsed":2944403,"internal_node_id":"0.0-7.0-5.0"},{"rt":5951,"responses":"{\"Q0\":\"\"}","trial_type":"survey-text","trial_index":81,"time_elapsed":2951358,"internal_node_id":"0.0-7.0-6.0"},{"rt":8635,"responses":"{\"Q0\":\"0\"}","trial_type":"survey-likert","trial_index":82,"time_elapsed":2961001,"internal_node_id":"0.0-7.0-7.0"},{"rt":14530,"responses":"{\"Q0\":\"Different structure\"}","trial_type":"survey-multi-choice","trial_index":83,"time_elapsed":2976534,"internal_node_id":"0.0-7.0-8.0"},{"rt":29803,"responses":"{\"Q0\":\"white door = acid, black door = ray\",\"Q1\":\"Not at all confident\"}","trial_type":"survey-multi-choice","trial_index":84,"time_elapsed":3007354,"internal_node_id":"0.0-7.0-9.0"},{"rt":8152,"responses":"{\"Q0\":\"25-35\",\"Q1\":\"Bachelor's degree\",\"Q2\":\"Male\",\"Q3\":\"Black or African American\"}","trial_type":"survey-multi-choice","trial_index":85,"time_elapsed":3016543,"internal_node_id":"0.0-8.0"},{"rt":23810,"responses":"{\"Q0\":\"Interesting and amazing pay. Wish you the best in your research.\"}","trial_type":"survey-text","trial_index":86,"time_elapsed":3041358,"internal_node_id":"0.0-9.0"}]