[{"view_history":"[{\"page_index\":0,\"viewing_time\":15431},{\"page_index\":1,\"viewing_time\":145467}]","rt":160898,"trial_type":"instructions","trial_index":0,"time_elapsed":160899,"internal_node_id":"0.0-0.0"},{"view_history":"[{\"page_index\":0,\"viewing_time\":860},{\"page_index\":1,\"viewing_time\":1860}]","rt":2720,"trial_type":"instructions","trial_index":1,"time_elapsed":164621,"internal_node_id":"0.0-1.0"},{"group":"dicyclic group of order 12","room_assignment":["olive","blue","yellow","red","orange","pink","cyan","green","purple","grey","ivory","brown"],"door_color_assignment":["white","black"],"door_generator_assignment":[0,1],"goal":7,"start":3,"action_noise":0.15,"location_history":"[3,0,4,9,6,10,2,6,11,3,7]","action_history":"[1,0,0,0,1,1,1,0,0,0]","door_history":"[1,0,0,0,1,1,1,0,0,0]","location_rts":"[651,467,333,649,297,250,268,257,269,241]","trial_type":"two-door-navigation","trial_index":2,"time_elapsed":182003,"internal_node_id":"0.0-2.0-0.0"},{"group":"dicyclic group of order 12","room_assignment":["olive","blue","yellow","red","orange","pink","cyan","green","purple","grey","ivory","brown"],"door_color_assignment":["white","black"],"door_generator_assignment":[0,1],"goal":5,"start":7,"action_noise":0.15,"location_history":"[7,8,5]","action_history":"[1,0]","door_history":"[1,0]","location_rts":"[517,505]","trial_type":"two-door-navigation","trial_index":3,"time_elapsed":188566,"internal_node_id":"0.0-2.0-1.0"},{"group":"dicyclic group of order 12","room_assignment":["olive","blue","yellow","red","orange","pink","cyan","green","purple","grey","ivory","brown"],"door_color_assignment":["white","black"],"door_generator_assignment":[0,1],"goal":0,"start":5,"action_noise":0.15,"location_history":"[5,9,6,11,3,7,11,3,7,8,5,9,6,10,7,11,4,8,5,10,7,8,5,9,1,2,3,0]","action_history":"[0,0,0,1,1,1,1,1,1,0,1,0,1,0,1,0,1,0,0,0,0,0,1,1,1,0,0]","door_history":"[0,0,0,1,1,1,1,1,1,0,1,0,1,0,1,0,1,0,0,0,0,0,1,1,1,0,0]","location_rts":"[804,712,335,715,359,318,794,411,513,613,1566,649,377,790,355,891,630,821,700,708,414,280,335,603,307,354,360]","trial_type":"two-door-navigation","trial_index":4,"time_elapsed":235280,"internal_node_id":"0.0-2.0-2.0"},{"group":"dicyclic group of order 12","room_assignment":["olive","blue","yellow","red","orange","pink","cyan","green","purple","grey","ivory","brown"],"door_color_assignment":["white","black"],"door_generator_assignment":[0,1],"goal":2,"start":0,"action_noise":0.15,"location_history":"[0,4,9,1,2]","action_history":"[1,0,1,0]","door_history":"[1,0,1,0]","location_rts":"[522,714,334,304]","trial_type":"two-door-navigation","trial_index":5,"time_elapsed":244731,"internal_node_id":"0.0-2.0-3.0"},{"group":"dicyclic group of order 12","room_assignment":["olive","blue","yellow","red","orange","pink","cyan","green","purple","grey","ivory","brown"],"door_color_assignment":["white","black"],"door_generator_assignment":[0,1],"goal":10,"start":2,"action_noise":0.15,"location_history":"[2,3,7,8,0,1,5,10]","action_history":"[0,1,0,1,0,1,0]","door_history":"[0,1,0,1,0,1,0]","location_rts":"[837,374,561,301,539,303,726]","trial_type":"two-door-navigation","trial_index":6,"time_elapsed":259003,"internal_node_id":"0.0-2.0-4.0"},{"group":"dicyclic group of order 12","room_assignment":["olive","blue","yellow","red","orange","pink","cyan","green","purple","grey","ivory","brown"],"door_color_assignment":["white","black"],"door_generator_assignment":[0,1],"goal":8,"start":10,"action_noise":0.15,"location_history":"[10,2,6,10,7,11,4,8]","action_history":"[1,1,1,0,1,0,1]","door_history":"[1,1,1,0,1,0,1]","location_rts":"[549,376,1148,869,441,356,311]","trial_type":"two-door-navigation","trial_index":7,"time_elapsed":273689,"internal_node_id":"0.0-2.0-5.0"},{"group":"dicyclic group of order 12","room_assignment":["olive","blue","yellow","red","orange","pink","cyan","green","purple","grey","ivory","brown"],"door_color_assignment":["white","black"],"door_generator_assignment":[0,1],"goal":11,"start":8,"action_noise":0.15,"location_history":"[8,5,10,2,3,7,8,5,9,6,10,7,11]","action_history":"[0,0,1,0,1,0,1,1,0,1,0,1]","door_history":"[0,0,1,0,1,0,1,1,0,1,0,1]","location_rts":"[647,750,410,322,283,327,294,421,1104,414,417,371]","trial_type":"two-door-navigation","trial_index":8,"time_elapsed":295163,"internal_node_id":"0.0-2.0-6.0"},{"group":"dicyclic group of order 12","room_assignment":["olive","blue","yellow","red","orange","pink","cyan","green","purple","grey","ivory","brown"],"door_color_assignment":["white","black"],"door_generator_assignment":[0,1],"goal":6,"start":11,"action_noise":0.15,"location_history":"[11,4,8,0,4,8,5,10,7,11,3,0,1,2,6]","action_history":"[0,1,1,0,1,1,0,0,1,1,0,0,0,1]","door_history":"[0,1,1,0,1,1,0,0,1,1,0,0,0,1]","location_rts":"[410,502,386,305,499,500,246,255,503,319,275,205,207,391]","trial_type":"two-door-navigation","trial_index":9,"time_elapsed":317935,"internal_node_id":"0.0-2.0-7.0"},{"group":"dicyclic group of order 12","room_assignment":["olive","blue","yellow","red","orange","pink","cyan","green","purple","grey","ivory","brown"],"door_color_assignment":["white","black"],"door_generator_assignment":[0,1],"goal":4,"start":6,"action_noise":0.15,"location_history":"[6,11,4]","action_history":"[0,0]","door_history":"[0,0]","location_rts":"[553,595]","trial_type":"two-door-navigation","trial_index":10,"time_elapsed":324625,"internal_node_id":"0.0-2.0-8.0"},{"group":"dicyclic group of order 12","room_assignment":["olive","blue","yellow","red","orange","pink","cyan","green","purple","grey","ivory","brown"],"door_color_assignment":["white","black"],"door_generator_assignment":[0,1],"goal":1,"start":4,"action_noise":0.15,"location_history":"[4,8,5,10,2,6,11,4,9,6,10,2,3,0,1]","action_history":"[1,0,0,1,1,0,0,1,1,1,1,0,0,0]","door_history":"[1,0,0,1,1,0,0,1,1,1,1,0,0,0]","location_rts":"[321,297,267,307,865,770,597,380,324,413,356,327,361,794]","trial_type":"two-door-navigation","trial_index":11,"time_elapsed":348750,"internal_node_id":"0.0-2.0-9.0"},{"group":"dicyclic group of order 12","room_assignment":["olive","blue","yellow","red","orange","pink","cyan","green","purple","grey","ivory","brown"],"door_color_assignment":["white","black"],"door_generator_assignment":[0,1],"goal":9,"start":1,"action_noise":0.15,"location_history":"[1,5,9]","action_history":"[1,1]","door_history":"[1,1]","location_rts":"[785,599]","trial_type":"two-door-navigation","trial_index":12,"time_elapsed":355680,"internal_node_id":"0.0-2.0-10.0"},{"group":"dicyclic group of order 12","room_assignment":["olive","blue","yellow","red","orange","pink","cyan","green","purple","grey","ivory","brown"],"door_color_assignment":["white","black"],"door_generator_assignment":[0,1],"goal":10,"start":9,"action_noise":0.15,"location_history":"[9,6,10]","action_history":"[0,1]","door_history":"[0,1]","location_rts":"[1075,228]","trial_type":"two-door-navigation","trial_index":13,"time_elapsed":362522,"internal_node_id":"0.0-2.0-11.0"},{"group":"dicyclic group of order 12","room_assignment":["olive","blue","yellow","red","orange","pink","cyan","green","purple","grey","ivory","brown"],"door_color_assignment":["white","black"],"door_generator_assignment":[0,1],"goal":2,"start":10,"action_noise":0.15,"location_history":"[10,2]","action_history":"[1]","door_history":"[1]","location_rts":"[427]","trial_type":"two-door-navigation","trial_index":14,"time_elapsed":367474,"internal_node_id":"0.0-2.0-12.0"},{"group":"dicyclic group of order 12","room_assignment":["olive","blue","yellow","red","orange","pink","cyan","green","purple","grey","ivory","brown"],"door_color_assignment":["white","black"],"door_generator_assignment":[0,1],"goal":0,"start":2,"action_noise":0.15,"location_history":"[2,3,7,11,3,0]","action_history":"[0,1,1,1,0]","door_history":"[0,1,1,1,0]","location_rts":"[745,466,284,602,501]","trial_type":"two-door-navigation","trial_index":15,"time_elapsed":378666,"internal_node_id":"0.0-2.0-13.0"},{"group":"dicyclic group of order 12","room_assignment":["olive","blue","yellow","red","orange","pink","cyan","green","purple","grey","ivory","brown"],"door_color_assignment":["white","black"],"door_generator_assignment":[0,1],"goal":9,"start":0,"action_noise":0.15,"location_history":"[0,4,9]","action_history":"[1,0]","door_history":"[1,0]","location_rts":"[638,554]","trial_type":"two-door-navigation","trial_index":16,"time_elapsed":385402,"internal_node_id":"0.0-2.0-14.0"},{"group":"dicyclic group of order 12","room_assignment":["olive","blue","yellow","red","orange","pink","cyan","green","purple","grey","ivory","brown"],"door_color_assignment":["white","black"],"door_generator_assignment":[0,1],"goal":8,"start":9,"action_noise":0.15,"location_history":"[9,1,5,10,7,8]","action_history":"[1,1,0,0,0]","door_history":"[1,1,0,0,0]","location_rts":"[448,419,291,268,498]","trial_type":"two-door-navigation","trial_index":17,"time_elapsed":395933,"internal_node_id":"0.0-2.0-15.0"},{"group":"dicyclic group of order 12","room_assignment":["olive","blue","yellow","red","orange","pink","cyan","green","purple","grey","ivory","brown"],"door_color_assignment":["white","black"],"door_generator_assignment":[0,1],"goal":6,"start":8,"action_noise":0.15,"location_history":"[8,0,4,9,6]","action_history":"[1,1,0,0]","door_history":"[1,1,0,0]","location_rts":"[364,282,268,450]","trial_type":"two-door-navigation","trial_index":18,"time_elapsed":404874,"internal_node_id":"0.0-2.0-16.0"},{"group":"dicyclic group of order 12","room_assignment":["olive","blue","yellow","red","orange","pink","cyan","green","purple","grey","ivory","brown"],"door_color_assignment":["white","black"],"door_generator_assignment":[0,1],"goal":1,"start":6,"action_noise":0.15,"location_history":"[6,10,2,3,0,4,8,0,4,9,1]","action_history":"[1,1,0,0,1,0,1,1,0,0]","door_history":"[1,1,0,0,1,0,1,1,0,0]","location_rts":"[390,313,321,295,329,382,616,313,565,400]","trial_type":"two-door-navigation","trial_index":19,"time_elapsed":422484,"internal_node_id":"0.0-2.0-17.0"},{"group":"dicyclic group of order 12","room_assignment":["olive","blue","yellow","red","orange","pink","cyan","green","purple","grey","ivory","brown"],"door_color_assignment":["white","black"],"door_generator_assignment":[0,1],"goal":4,"start":1,"action_noise":0.15,"location_history":"[1,5,9,6,11,4]","action_history":"[1,1,0,0,1]","door_history":"[1,1,0,0,1]","location_rts":"[789,433,339,310,418]","trial_type":"two-door-navigation","trial_index":20,"time_elapsed":433366,"internal_node_id":"0.0-2.0-18.0"},{"group":"dicyclic group of order 12","room_assignment":["olive","blue","yellow","red","orange","pink","cyan","green","purple","grey","ivory","brown"],"door_color_assignment":["white","black"],"door_generator_assignment":[0,1],"goal":11,"start":4,"action_noise":0.15,"location_history":"[4,8,5,9,1,5,9,6,10,7,8,5,9,6,11]","action_history":"[1,0,0,1,0,1,0,1,0,0,1,1,1,1]","door_history":"[1,0,0,1,0,1,0,1,0,0,1,1,1,1]","location_rts":"[534,194,368,350,303,256,329,356,359,586,984,523,488,316]","trial_type":"two-door-navigation","trial_index":21,"time_elapsed":457083,"internal_node_id":"0.0-2.0-19.0"},{"group":"dicyclic group of order 12","room_assignment":["olive","blue","yellow","red","orange","pink","cyan","green","purple","grey","ivory","brown"],"door_color_assignment":["white","black"],"door_generator_assignment":[0,1],"goal":3,"start":11,"action_noise":0.15,"location_history":"[11,3]","action_history":"[1]","door_history":"[1]","location_rts":"[546]","trial_type":"two-door-navigation","trial_index":22,"time_elapsed":462147,"internal_node_id":"0.0-2.0-20.0"},{"group":"dicyclic group of order 12","room_assignment":["olive","blue","yellow","red","orange","pink","cyan","green","purple","grey","ivory","brown"],"door_color_assignment":["white","black"],"door_generator_assignment":[0,1],"goal":5,"start":3,"action_noise":0.15,"location_history":"[3,7,8,5]","action_history":"[1,0,0]","door_history":"[1,0,0]","location_rts":"[441,318,308]","trial_type":"two-door-navigation","trial_index":23,"time_elapsed":469774,"internal_node_id":"0.0-2.0-21.0"},{"group":"dicyclic group of order 12","room_assignment":["olive","blue","yellow","red","orange","pink","cyan","green","purple","grey","ivory","brown"],"door_color_assignment":["white","black"],"door_generator_assignment":[0,1],"goal":7,"start":5,"action_noise":0.15,"location_history":"[5,9,1,5,9,1,5,9,6,10,2,6,10,2,3,0,1,2,6,11,4,9,1,5,10,7]","action_history":"[0,1,1,1,0,0,1,0,1,1,1,1,1,0,0,0,0,1,1,0,0,0,0,0,0]","door_history":"[0,1,1,1,0,0,1,0,1,1,1,1,1,0,0,0,0,1,1,0,0,0,0,0,0]","location_rts":"[517,324,264,411,678,435,666,282,560,275,367,327,438,675,386,727,367,332,331,359,379,384,466,293,269]","trial_type":"two-door-navigation","trial_index":24,"time_elapsed":509259,"internal_node_id":"0.0-2.0-22.0"},{"group":"dicyclic group of order 12","room_assignment":["olive","blue","yellow","red","orange","pink","cyan","green","purple","grey","ivory","brown"],"door_color_assignment":["white","black"],"door_generator_assignment":[0,1],"goal":3,"start":7,"action_noise":0.15,"location_history":"[7,8,0,4,8,5,10,7,11,3]","action_history":"[0,1,1,0,0,0,0,1,1]","door_history":"[0,1,1,0,0,0,0,1,1]","location_rts":"[1916,582,306,708,365,327,308,280,309]","trial_type":"two-door-navigation","trial_index":25,"time_elapsed":527019,"internal_node_id":"0.0-2.0-23.0"},{"group":"dicyclic group of order 12","room_assignment":["olive","blue","yellow","red","orange","pink","cyan","green","purple","grey","ivory","brown"],"door_color_assignment":["white","black"],"door_generator_assignment":[0,1],"goal":4,"start":3,"action_noise":0.15,"location_history":"[3,7,8,5,10,2,6,10,7,8,0,1,5,9,1,2,3,0,1,2,3,0,1,2,6,10,2,6,10,7,11,4]","action_history":"[1,0,0,0,1,1,1,0,0,0,0,1,1,1,1,0,0,0,0,1,0,0,0,1,1,1,1,1,0,0,0]","door_history":"[1,0,0,0,1,1,1,0,0,0,0,1,1,1,1,0,0,0,0,1,0,0,0,1,1,1,1,1,0,0,0]","location_rts":"[379,384,355,471,282,372,289,372,325,331,294,342,344,294,243,295,311,301,597,93,350,232,191,459,250,330,231,235,184,176,257]","trial_type":"two-door-navigation","trial_index":26,"time_elapsed":571679,"internal_node_id":"0.0-2.0-24.0"},{"group":"dicyclic group of order 12","room_assignment":["olive","blue","yellow","red","orange","pink","cyan","green","purple","grey","ivory","brown"],"door_color_assignment":["white","black"],"door_generator_assignment":[0,1],"goal":8,"start":4,"action_noise":0.15,"location_history":"[4,8]","action_history":"[1]","door_history":"[1]","location_rts":"[434]","trial_type":"two-door-navigation","trial_index":27,"time_elapsed":576633,"internal_node_id":"0.0-2.0-25.0"},{"group":"dicyclic group of order 12","room_assignment":["olive","blue","yellow","red","orange","pink","cyan","green","purple","grey","ivory","brown"],"door_color_assignment":["white","black"],"door_generator_assignment":[0,1],"goal":6,"start":8,"action_noise":0.15,"location_history":"[8,0,4,8,0,1,2,6]","action_history":"[0,1,1,1,0,0,1]","door_history":"[0,1,1,1,0,0,1]","location_rts":"[613,186,87,238,147,248,483]","trial_type":"two-door-navigation","trial_index":28,"time_elapsed":589263,"internal_node_id":"0.0-2.0-26.0"},{"group":"dicyclic group of order 12","room_assignment":["olive","blue","yellow","red","orange","pink","cyan","green","purple","grey","ivory","brown"],"door_color_assignment":["white","black"],"door_generator_assignment":[0,1],"goal":1,"start":6,"action_noise":0.15,"location_history":"[6,10,7,8,5,9,1]","action_history":"[1,0,0,0,1,1]","door_history":"[1,0,0,0,1,1]","location_rts":"[408,281,487,327,17,532]","trial_type":"two-door-navigation","trial_index":29,"time_elapsed":600934,"internal_node_id":"0.0-2.0-27.0"},{"group":"dicyclic group of order 12","room_assignment":["olive","blue","yellow","red","orange","pink","cyan","green","purple","grey","ivory","brown"],"door_color_assignment":["white","black"],"door_generator_assignment":[0,1],"goal":5,"start":1,"action_noise":0.15,"location_history":"[1,5]","action_history":"[1]","door_history":"[1]","location_rts":"[782]","trial_type":"two-door-navigation","trial_index":30,"time_elapsed":606239,"internal_node_id":"0.0-2.0-28.0"},{"group":"dicyclic group of order 12","room_assignment":["olive","blue","yellow","red","orange","pink","cyan","green","purple","grey","ivory","brown"],"door_color_assignment":["white","black"],"door_generator_assignment":[0,1],"goal":9,"start":5,"action_noise":0.15,"location_history":"[5,9]","action_history":"[1]","door_history":"[1]","location_rts":"[462]","trial_type":"two-door-navigation","trial_index":31,"time_elapsed":611220,"internal_node_id":"0.0-2.0-29.0"},{"group":"dicyclic group of order 12","room_assignment":["olive","blue","yellow","red","orange","pink","cyan","green","purple","grey","ivory","brown"],"door_color_assignment":["white","black"],"door_generator_assignment":[0,1],"goal":10,"start":9,"action_noise":0.15,"location_history":"[9,1,2,3,0,4,8,5,10]","action_history":"[1,0,0,0,1,1,0,0]","door_history":"[1,0,0,0,1,1,0,0]","location_rts":"[1878,783,775,279,63,301,322,271]","trial_type":"two-door-navigation","trial_index":32,"time_elapsed":627535,"internal_node_id":"0.0-2.0-30.0"},{"group":"dicyclic group of order 12","room_assignment":["olive","blue","yellow","red","orange","pink","cyan","green","purple","grey","ivory","brown"],"door_color_assignment":["white","black"],"door_generator_assignment":[0,1],"goal":0,"start":10,"action_noise":0.15,"location_history":"[10,2,3,0]","action_history":"[1,0,0]","door_history":"[1,0,0]","location_rts":"[602,484,307]","trial_type":"two-door-navigation","trial_index":33,"time_elapsed":635492,"internal_node_id":"0.0-2.0-31.0"},{"group":"dicyclic group of order 12","room_assignment":["olive","blue","yellow","red","orange","pink","cyan","green","purple","grey","ivory","brown"],"door_color_assignment":["white","black"],"door_generator_assignment":[0,1],"goal":7,"start":0,"action_noise":0.15,"location_history":"[0,4,9,6,10,2,6,11,4,9,1,5,9,6,11,4,8,0,1,5,10,2,3,7]","action_history":"[1,0,0,1,1,1,0,0,0,1,1,1,0,0,0,1,1,0,0,0,1,1,1]","door_history":"[1,0,0,1,1,1,0,0,0,1,1,1,0,0,0,1,1,0,0,0,1,1,1]","location_rts":"[351,299,249,796,332,230,252,264,318,136,231,291,164,238,356,322,336,861,372,317,908,117,201]","trial_type":"two-door-navigation","trial_index":34,"time_elapsed":670369,"internal_node_id":"0.0-2.0-32.0"},{"group":"dicyclic group of order 12","room_assignment":["olive","blue","yellow","red","orange","pink","cyan","green","purple","grey","ivory","brown"],"door_color_assignment":["white","black"],"door_generator_assignment":[0,1],"goal":11,"start":7,"action_noise":0.15,"location_history":"[7,8,5,10,2,6,10,2,3,7,11]","action_history":"[1,0,0,1,1,1,1,0,1,1]","door_history":"[1,0,0,1,1,1,1,0,1,1]","location_rts":"[1101,342,481,493,313,320,262,321,597,242]","trial_type":"two-door-navigation","trial_index":35,"time_elapsed":688522,"internal_node_id":"0.0-2.0-33.0"},{"group":"dicyclic group of order 12","room_assignment":["olive","blue","yellow","red","orange","pink","cyan","green","purple","grey","ivory","brown"],"door_color_assignment":["white","black"],"door_generator_assignment":[0,1],"goal":2,"start":11,"action_noise":0.15,"location_history":"[11,4,9,6,11,3,0,1,5,10,7,8,0,4,8,0,1,5,9,1,2]","action_history":"[1,0,0,0,1,1,1,1,0,0,1,1,1,1,0,0,0,1,1,0]","door_history":"[1,0,0,0,1,1,1,1,0,0,1,1,1,1,0,0,0,1,1,0]","location_rts":"[879,1008,475,321,261,231,223,327,90,322,733,189,172,1151,340,260,351,150,232,309]","trial_type":"two-door-navigation","trial_index":36,"time_elapsed":720437,"internal_node_id":"0.0-2.0-34.0"},{"view_history":"[{\"page_index\":0,\"viewing_time\":969}]","rt":969,"trial_type":"instructions","trial_index":37,"time_elapsed":722406,"internal_node_id":"0.0-3.0"},{"view_history":"[{\"page_index\":0,\"viewing_time\":609},{\"page_index\":1,\"viewing_time\":4451}]","rt":5061,"trial_type":"instructions","trial_index":38,"time_elapsed":728468,"internal_node_id":"0.0-4.0"},{"group":"dihedral group of order 12","fractal_assignment":["../images/cyn_red.png","../images/red_prp.png","../images/grn_blu.png","../images/grn_prp.png","../images/pnk_blu.png","../images/org_blu.png","../images/wht_red.png","../images/ylw_slt.png","../images/gry_blk.png","../images/grn_red.png","../images/blu_wht.png","../images/ylw_pnk.png"],"mutagen_generator_assignment":[0,1],"goal":7,"start":3,"action_noise":0.15,"location_history":"[3,4,5,0,1,2,3,9,8,2,3,9,3,9,8,2,8,7]","action_history":"[0,1,1,0,0,0,1,1,1,0,1,1,1,0,1,1,0]","mutagen_history":"[0,1,1,0,0,0,1,1,1,0,1,1,1,0,1,1,0]","location_rts":"[3546,951,413,369,490,1521,504,402,808,541,267,373,898,406,487,351,481]","trial_type":"fractal-mutation","trial_index":39,"time_elapsed":763351,"internal_node_id":"0.0-5.0-0.0"},{"group":"dihedral group of order 12","fractal_assignment":["../images/cyn_red.png","../images/red_prp.png","../images/grn_blu.png","../images/grn_prp.png","../images/pnk_blu.png","../images/org_blu.png","../images/wht_red.png","../images/ylw_slt.png","../images/gry_blk.png","../images/grn_red.png","../images/blu_wht.png","../images/ylw_pnk.png"],"mutagen_generator_assignment":[0,1],"goal":5,"start":7,"action_noise":0.15,"location_history":"[7,6,0,6,0,1,2,3,4,10,9,8,7,6,11,10,9,8,7,1,2,3,4,10,9,3,9,3,4,5]","action_history":"[0,1,1,1,0,0,0,0,0,0,0,0,0,0,0,0,0,0,1,0,0,0,0,0,0,1,1,0,0]","mutagen_history":"[0,1,1,1,0,0,0,0,0,0,0,0,0,0,0,0,0,0,1,0,0,0,0,0,0,1,1,0,0]","location_rts":"[571,603,576,694,369,272,334,478,581,2097,354,395,356,443,348,362,412,355,462,535,350,466,360,406,386,638,441,323,310]","trial_type":"fractal-mutation","trial_index":40,"time_elapsed":812283,"internal_node_id":"0.0-5.0-1.0"},{"group":"dihedral group of order 12","fractal_assignment":["../images/cyn_red.png","../images/red_prp.png","../images/grn_blu.png","../images/grn_prp.png","../images/pnk_blu.png","../images/org_blu.png","../images/wht_red.png","../images/ylw_slt.png","../images/gry_blk.png","../images/grn_red.png","../images/blu_wht.png","../images/ylw_pnk.png"],"mutagen_generator_assignment":[0,1],"goal":0,"start":5,"action_noise":0.15,"location_history":"[5,11,10,9,8,2,3,4,10,4,5,11,5,0]","action_history":"[0,0,0,1,1,0,0,1,0,0,1,1,0]","mutagen_history":"[0,0,0,1,1,0,0,1,0,0,1,1,0]","location_rts":"[1314,447,385,373,541,563,734,447,581,377,255,370,556]","trial_type":"fractal-mutation","trial_index":41,"time_elapsed":836628,"internal_node_id":"0.0-5.0-2.0"},{"group":"dihedral group of order 12","fractal_assignment":["../images/cyn_red.png","../images/red_prp.png","../images/grn_blu.png","../images/grn_prp.png","../images/pnk_blu.png","../images/org_blu.png","../images/wht_red.png","../images/ylw_slt.png","../images/gry_blk.png","../images/grn_red.png","../images/blu_wht.png","../images/ylw_pnk.png"],"mutagen_generator_assignment":[0,1],"goal":2,"start":0,"action_noise":0.15,"location_history":"[0,1,2]","action_history":"[1,0]","mutagen_history":"[1,0]","location_rts":"[752,487]","trial_type":"fractal-mutation","trial_index":42,"time_elapsed":843532,"internal_node_id":"0.0-5.0-3.0"},{"group":"dihedral group of order 12","fractal_assignment":["../images/cyn_red.png","../images/red_prp.png","../images/grn_blu.png","../images/grn_prp.png","../images/pnk_blu.png","../images/org_blu.png","../images/wht_red.png","../images/ylw_slt.png","../images/gry_blk.png","../images/grn_red.png","../images/blu_wht.png","../images/ylw_pnk.png"],"mutagen_generator_assignment":[0,1],"goal":10,"start":2,"action_noise":0.15,"location_history":"[2,3,4,5,0,1,2,3,4,5,0,1,2,8,2,8,7,6,0,1,7,1,7,6,0,1,7,6,11,10]","action_history":"[0,0,1,1,0,0,0,0,0,0,0,0,1,1,1,0,0,0,0,0,1,1,0,1,0,0,0,0,0]","mutagen_history":"[0,0,1,1,0,0,0,0,0,0,0,0,1,1,1,0,0,0,0,0,1,1,0,1,0,0,0,0,0]","location_rts":"[600,363,234,311,443,392,375,387,450,428,436,393,218,257,867,78,468,476,394,438,420,392,417,483,630,288,316,321,369]","trial_type":"fractal-mutation","trial_index":43,"time_elapsed":889782,"internal_node_id":"0.0-5.0-4.0"},{"group":"dihedral group of order 12","fractal_assignment":["../images/cyn_red.png","../images/red_prp.png","../images/grn_blu.png","../images/grn_prp.png","../images/pnk_blu.png","../images/org_blu.png","../images/wht_red.png","../images/ylw_slt.png","../images/gry_blk.png","../images/grn_red.png","../images/blu_wht.png","../images/ylw_pnk.png"],"mutagen_generator_assignment":[0,1],"goal":8,"start":10,"action_noise":0.15,"location_history":"[10,9,8]","action_history":"[1,0]","mutagen_history":"[1,0]","location_rts":"[930,353]","trial_type":"fractal-mutation","trial_index":44,"time_elapsed":896757,"internal_node_id":"0.0-5.0-5.0"},{"group":"dihedral group of order 12","fractal_assignment":["../images/cyn_red.png","../images/red_prp.png","../images/grn_blu.png","../images/grn_prp.png","../images/pnk_blu.png","../images/org_blu.png","../images/wht_red.png","../images/ylw_slt.png","../images/gry_blk.png","../images/grn_red.png","../images/blu_wht.png","../images/ylw_pnk.png"],"mutagen_generator_assignment":[0,1],"goal":11,"start":8,"action_noise":0.15,"location_history":"[8,2,3,4,5,11]","action_history":"[1,0,0,0,1]","mutagen_history":"[1,0,0,0,1]","location_rts":"[761,446,317,441,853]","trial_type":"fractal-mutation","trial_index":45,"time_elapsed":908518,"internal_node_id":"0.0-5.0-6.0"},{"group":"dihedral group of order 12","fractal_assignment":["../images/cyn_red.png","../images/red_prp.png","../images/grn_blu.png","../images/grn_prp.png","../images/pnk_blu.png","../images/org_blu.png","../images/wht_red.png","../images/ylw_slt.png","../images/gry_blk.png","../images/grn_red.png","../images/blu_wht.png","../images/ylw_pnk.png"],"mutagen_generator_assignment":[0,1],"goal":6,"start":11,"action_noise":0.15,"location_history":"[11,5,11,10,9,3,9,3,4,10,4,10,9,3,4,5,0,1,2,8,2,3,4,10,4,10,9,8,7,1,7,1,7,6]","action_history":"[1,0,0,0,1,1,0,0,1,1,1,0,0,0,0,0,0,0,1,1,0,0,0,1,0,0,0,0,1,1,1,1,0]","mutagen_history":"[1,0,0,0,1,1,0,0,1,1,1,0,0,0,0,0,0,0,1,1,0,0,0,1,0,0,0,0,1,1,1,1,0]","location_rts":"[766,572,299,437,446,382,477,279,632,398,373,396,367,437,359,474,367,604,453,686,360,245,415,487,567,236,611,637,469,414,376,399,184]","trial_type":"fractal-mutation","trial_index":46,"time_elapsed":962473,"internal_node_id":"0.0-5.0-7.0"},{"group":"dihedral group of order 12","fractal_assignment":["../images/cyn_red.png","../images/red_prp.png","../images/grn_blu.png","../images/grn_prp.png","../images/pnk_blu.png","../images/org_blu.png","../images/wht_red.png","../images/ylw_slt.png","../images/gry_blk.png","../images/grn_red.png","../images/blu_wht.png","../images/ylw_pnk.png"],"mutagen_generator_assignment":[0,1],"goal":4,"start":6,"action_noise":0.15,"location_history":"[6,0,1,2,3,9,3,9,8,2,8,7,1,2,3,4]","action_history":"[1,0,0,0,0,0,0,1,1,1,0,1,0,0,0]","mutagen_history":"[1,0,0,0,0,0,0,1,1,1,0,1,0,0,0]","location_rts":"[1539,439,300,368,427,334,401,562,482,518,686,681,549,363,373]","trial_type":"fractal-mutation","trial_index":47,"time_elapsed":990250,"internal_node_id":"0.0-5.0-8.0"},{"group":"dihedral group of order 12","fractal_assignment":["../images/cyn_red.png","../images/red_prp.png","../images/grn_blu.png","../images/grn_prp.png","../images/pnk_blu.png","../images/org_blu.png","../images/wht_red.png","../images/ylw_slt.png","../images/gry_blk.png","../images/grn_red.png","../images/blu_wht.png","../images/ylw_pnk.png"],"mutagen_generator_assignment":[0,1],"goal":1,"start":4,"action_noise":0.15,"location_history":"[4,10,9,3,4,10,9,8,2,8,7,6,11,10,4,5,0,6,11,5,0,1]","action_history":"[1,0,1,0,0,0,0,0,1,1,0,0,0,1,0,0,1,0,1,1,0]","mutagen_history":"[1,0,1,0,0,0,0,0,1,1,0,0,0,1,0,0,1,0,1,1,0]","location_rts":"[587,440,581,437,340,258,342,360,312,365,461,462,386,406,400,979,633,719,666,1049,495]","trial_type":"fractal-mutation","trial_index":48,"time_elapsed":1027195,"internal_node_id":"0.0-5.0-9.0"},{"group":"dihedral group of order 12","fractal_assignment":["../images/cyn_red.png","../images/red_prp.png","../images/grn_blu.png","../images/grn_prp.png","../images/pnk_blu.png","../images/org_blu.png","../images/wht_red.png","../images/ylw_slt.png","../images/gry_blk.png","../images/grn_red.png","../images/blu_wht.png","../images/ylw_pnk.png"],"mutagen_generator_assignment":[0,1],"goal":9,"start":1,"action_noise":0.15,"location_history":"[1,7,6,11,10,9]","action_history":"[1,0,0,0,0]","mutagen_history":"[1,0,0,0,0]","location_rts":"[877,475,494,712,625]","trial_type":"fractal-mutation","trial_index":49,"time_elapsed":1039263,"internal_node_id":"0.0-5.0-10.0"},{"group":"dihedral group of order 12","fractal_assignment":["../images/cyn_red.png","../images/red_prp.png","../images/grn_blu.png","../images/grn_prp.png","../images/pnk_blu.png","../images/org_blu.png","../images/wht_red.png","../images/ylw_slt.png","../images/gry_blk.png","../images/grn_red.png","../images/blu_wht.png","../images/ylw_pnk.png"],"mutagen_generator_assignment":[0,1],"goal":10,"start":9,"action_noise":0.15,"location_history":"[9,8,7,1,7,6,11,10]","action_history":"[0,0,0,1,0,0,0]","mutagen_history":"[0,0,0,1,0,0,0]","location_rts":"[1224,742,755,328,386,395,336]","trial_type":"fractal-mutation","trial_index":50,"time_elapsed":1054314,"internal_node_id":"0.0-5.0-11.0"},{"group":"dihedral group of order 12","fractal_assignment":["../images/cyn_red.png","../images/red_prp.png","../images/grn_blu.png","../images/grn_prp.png","../images/pnk_blu.png","../images/org_blu.png","../images/wht_red.png","../images/ylw_slt.png","../images/gry_blk.png","../images/grn_red.png","../images/blu_wht.png","../images/ylw_pnk.png"],"mutagen_generator_assignment":[0,1],"goal":2,"start":10,"action_noise":0.15,"location_history":"[10,4,10,4,5,11,5,0,1,2]","action_history":"[1,1,0,0,1,1,0,0,0]","mutagen_history":"[1,1,0,0,1,1,0,0,0]","location_rts":"[671,408,632,971,630,625,688,571,592]","trial_type":"fractal-mutation","trial_index":51,"time_elapsed":1073381,"internal_node_id":"0.0-5.0-12.0"},{"group":"dihedral group of order 12","fractal_assignment":["../images/cyn_red.png","../images/red_prp.png","../images/grn_blu.png","../images/grn_prp.png","../images/pnk_blu.png","../images/org_blu.png","../images/wht_red.png","../images/ylw_slt.png","../images/gry_blk.png","../images/grn_red.png","../images/blu_wht.png","../images/ylw_pnk.png"],"mutagen_generator_assignment":[0,1],"goal":0,"start":2,"action_noise":0.15,"location_history":"[2,3,9,8,2,3,9,8,7,6,11,10,9,8,7,1,7,6,0]","action_history":"[1,1,0,1,0,0,0,0,0,0,0,0,0,1,1,0,0,1]","mutagen_history":"[1,1,0,1,0,0,0,0,0,0,0,0,0,1,1,0,0,1]","location_rts":"[704,1376,707,1453,578,746,645,528,563,361,375,420,427,466,402,576,473,734]","trial_type":"fractal-mutation","trial_index":52,"time_elapsed":1107935,"internal_node_id":"0.0-5.0-13.0"},{"group":"dihedral group of order 12","fractal_assignment":["../images/cyn_red.png","../images/red_prp.png","../images/grn_blu.png","../images/grn_prp.png","../images/pnk_blu.png","../images/org_blu.png","../images/wht_red.png","../images/ylw_slt.png","../images/gry_blk.png","../images/grn_red.png","../images/blu_wht.png","../images/ylw_pnk.png"],"mutagen_generator_assignment":[0,1],"goal":9,"start":0,"action_noise":0.15,"location_history":"[0,1,2,8,2,3,4,5,0,6,11,5,11,10,9]","action_history":"[1,1,1,1,0,0,0,0,1,0,1,0,0,0]","mutagen_history":"[1,1,1,1,0,0,0,0,1,0,1,0,0,0]","location_rts":"[1449,420,599,399,688,687,749,842,523,595,829,458,250,484]","trial_type":"fractal-mutation","trial_index":53,"time_elapsed":1135610,"internal_node_id":"0.0-5.0-14.0"},{"group":"dihedral group of order 12","fractal_assignment":["../images/cyn_red.png","../images/red_prp.png","../images/grn_blu.png","../images/grn_prp.png","../images/pnk_blu.png","../images/org_blu.png","../images/wht_red.png","../images/ylw_slt.png","../images/gry_blk.png","../images/grn_red.png","../images/blu_wht.png","../images/ylw_pnk.png"],"mutagen_generator_assignment":[0,1],"goal":8,"start":9,"action_noise":0.15,"location_history":"[9,3,9,8]","action_history":"[1,1,0]","mutagen_history":"[1,1,0]","location_rts":"[1457,651,729]","trial_type":"fractal-mutation","trial_index":54,"time_elapsed":1145233,"internal_node_id":"0.0-5.0-15.0"},{"group":"dihedral group of order 12","fractal_assignment":["../images/cyn_red.png","../images/red_prp.png","../images/grn_blu.png","../images/grn_prp.png","../images/pnk_blu.png","../images/org_blu.png","../images/wht_red.png","../images/ylw_slt.png","../images/gry_blk.png","../images/grn_red.png","../images/blu_wht.png","../images/ylw_pnk.png"],"mutagen_generator_assignment":[0,1],"goal":6,"start":8,"action_noise":0.15,"location_history":"[8,2,8,2,8,2,8,2,8,7,1,7,1,7,1,2,3,9,8,7,1,2,3,4,10,4,10,9,3,4,10,4,10,9,8,7,1,7,1,7,1,7,6]","action_history":"[1,0,0,0,1,1,1,1,0,0,1,1,1,0,0,0,1,0,0,0,0,1,1,1,1,1,0,0,0,1,1,0,0,0,1,1,0,0,1,1,0,0]","mutagen_history":"[1,0,0,0,1,1,1,1,0,0,1,1,1,0,0,0,1,0,0,0,0,1,1,1,1,1,0,0,0,1,1,0,0,0,1,1,0,0,1,1,0,0]","location_rts":"[1133,590,319,855,1506,399,811,332,398,710,542,530,460,518,490,590,632,723,348,536,520,544,300,341,387,418,349,327,585,522,415,196,312,293,393,293,308,395,472,442,400,551]","trial_type":"fractal-mutation","trial_index":55,"time_elapsed":1215632,"internal_node_id":"0.0-5.0-16.0"},{"group":"dihedral group of order 12","fractal_assignment":["../images/cyn_red.png","../images/red_prp.png","../images/grn_blu.png","../images/grn_prp.png","../images/pnk_blu.png","../images/org_blu.png","../images/wht_red.png","../images/ylw_slt.png","../images/gry_blk.png","../images/grn_red.png","../images/blu_wht.png","../images/ylw_pnk.png"],"mutagen_generator_assignment":[0,1],"goal":1,"start":6,"action_noise":0.15,"location_history":"[6,11,5,0,6,11,5,0,1]","action_history":"[1,0,0,1,0,0,0,0]","mutagen_history":"[1,0,0,1,0,0,0,0]","location_rts":"[356,564,593,486,656,372,828,559]","trial_type":"fractal-mutation","trial_index":56,"time_elapsed":1232190,"internal_node_id":"0.0-5.0-17.0"},{"group":"dihedral group of order 12","fractal_assignment":["../images/cyn_red.png","../images/red_prp.png","../images/grn_blu.png","../images/grn_prp.png","../images/pnk_blu.png","../images/org_blu.png","../images/wht_red.png","../images/ylw_slt.png","../images/gry_blk.png","../images/grn_red.png","../images/blu_wht.png","../images/ylw_pnk.png"],"mutagen_generator_assignment":[0,1],"goal":4,"start":1,"action_noise":0.15,"location_history":"[1,7,1,2,3,4]","action_history":"[1,1,0,0,0]","mutagen_history":"[1,1,0,0,0]","location_rts":"[615,644,353,371,414]","trial_type":"fractal-mutation","trial_index":57,"time_elapsed":1243513,"internal_node_id":"0.0-5.0-18.0"},{"group":"dihedral group of order 12","fractal_assignment":["../images/cyn_red.png","../images/red_prp.png","../images/grn_blu.png","../images/grn_prp.png","../images/pnk_blu.png","../images/org_blu.png","../images/wht_red.png","../images/ylw_slt.png","../images/gry_blk.png","../images/grn_red.png","../images/blu_wht.png","../images/ylw_pnk.png"],"mutagen_generator_assignment":[0,1],"goal":11,"start":4,"action_noise":0.15,"location_history":"[4,5,11]","action_history":"[0,1]","mutagen_history":"[0,1]","location_rts":"[476,723]","trial_type":"fractal-mutation","trial_index":58,"time_elapsed":1250346,"internal_node_id":"0.0-5.0-19.0"},{"group":"dihedral group of order 12","fractal_assignment":["../images/cyn_red.png","../images/red_prp.png","../images/grn_blu.png","../images/grn_prp.png","../images/pnk_blu.png","../images/org_blu.png","../images/wht_red.png","../images/ylw_slt.png","../images/gry_blk.png","../images/grn_red.png","../images/blu_wht.png","../images/ylw_pnk.png"],"mutagen_generator_assignment":[0,1],"goal":3,"start":11,"action_noise":0.15,"location_history":"[11,5,11,10,4,10,9,8,7,1,2,8,7,1,7,6,0,6,0,6,11,10,9,8,7,6,11,10,4,5,0,6,11,5,0,6,11,5,0,1,7,1,7,6,0,1,2,8,7,1,2,3]","action_history":"[1,1,0,0,1,0,0,0,1,0,0,0,0,1,1,1,1,1,0,0,0,0,0,0,0,0,0,1,0,0,1,1,1,0,0,0,1,0,0,1,1,1,0,0,0,0,1,1,1,0,0]","mutagen_history":"[1,1,0,0,1,0,0,0,1,0,0,0,0,1,1,1,1,1,0,0,0,0,0,0,0,0,0,1,0,0,1,1,1,0,0,0,1,0,0,1,1,1,0,0,0,0,1,1,1,0,0]","location_rts":"[941,688,835,397,704,387,1224,591,472,717,864,393,380,418,440,589,479,418,700,393,390,477,538,502,439,366,918,307,674,809,434,320,365,330,302,328,469,509,480,556,378,402,279,231,290,676,656,456,347,730,281]","trial_type":"fractal-mutation","trial_index":59,"time_elapsed":1335445,"internal_node_id":"0.0-5.0-20.0"},{"group":"dihedral group of order 12","fractal_assignment":["../images/cyn_red.png","../images/red_prp.png","../images/grn_blu.png","../images/grn_prp.png","../images/pnk_blu.png","../images/org_blu.png","../images/wht_red.png","../images/ylw_slt.png","../images/gry_blk.png","../images/grn_red.png","../images/blu_wht.png","../images/ylw_pnk.png"],"mutagen_generator_assignment":[0,1],"goal":5,"start":3,"action_noise":0.15,"location_history":"[3,9,8,2,3,9,8,7,6,11,10,9,3,9,8,7,1,7,6,11,5]","action_history":"[1,0,1,1,1,0,0,0,0,0,0,1,1,0,0,0,1,0,0,1]","mutagen_history":"[1,0,1,1,1,0,0,0,0,0,0,1,1,0,0,0,1,0,0,1]","location_rts":"[3706,398,553,387,378,359,275,479,320,1020,434,404,314,386,293,282,758,346,361,662]","trial_type":"fractal-mutation","trial_index":60,"time_elapsed":1372760,"internal_node_id":"0.0-5.0-21.0"},{"group":"dihedral group of order 12","fractal_assignment":["../images/cyn_red.png","../images/red_prp.png","../images/grn_blu.png","../images/grn_prp.png","../images/pnk_blu.png","../images/org_blu.png","../images/wht_red.png","../images/ylw_slt.png","../images/gry_blk.png","../images/grn_red.png","../images/blu_wht.png","../images/ylw_pnk.png"],"mutagen_generator_assignment":[0,1],"goal":7,"start":5,"action_noise":0.15,"location_history":"[5,11,5,0,1,2,8,7]","action_history":"[1,1,0,0,0,0,0]","mutagen_history":"[1,1,0,0,0,0,0]","location_rts":"[785,305,443,271,374,471,681]","trial_type":"fractal-mutation","trial_index":61,"time_elapsed":1387159,"internal_node_id":"0.0-5.0-22.0"},{"group":"dihedral group of order 12","fractal_assignment":["../images/cyn_red.png","../images/red_prp.png","../images/grn_blu.png","../images/grn_prp.png","../images/pnk_blu.png","../images/org_blu.png","../images/wht_red.png","../images/ylw_slt.png","../images/gry_blk.png","../images/grn_red.png","../images/blu_wht.png","../images/ylw_pnk.png"],"mutagen_generator_assignment":[0,1],"goal":3,"start":7,"action_noise":0.15,"location_history":"[7,6,11,5,0,1,2,3]","action_history":"[0,0,0,0,0,0,0]","mutagen_history":"[0,0,0,0,0,0,0]","location_rts":"[516,419,479,354,503,428,399]","trial_type":"fractal-mutation","trial_index":62,"time_elapsed":1400931,"internal_node_id":"0.0-5.0-23.0"},{"group":"dihedral group of order 12","fractal_assignment":["../images/cyn_red.png","../images/red_prp.png","../images/grn_blu.png","../images/grn_prp.png","../images/pnk_blu.png","../images/org_blu.png","../images/wht_red.png","../images/ylw_slt.png","../images/gry_blk.png","../images/grn_red.png","../images/blu_wht.png","../images/ylw_pnk.png"],"mutagen_generator_assignment":[0,1],"goal":4,"start":3,"action_noise":0.15,"location_history":"[3,9,8,2,3,4]","action_history":"[1,1,1,0,0]","mutagen_history":"[1,1,1,0,0]","location_rts":"[513,317,452,346,300]","trial_type":"fractal-mutation","trial_index":63,"time_elapsed":1411841,"internal_node_id":"0.0-5.0-24.0"},{"group":"dihedral group of order 12","fractal_assignment":["../images/cyn_red.png","../images/red_prp.png","../images/grn_blu.png","../images/grn_prp.png","../images/pnk_blu.png","../images/org_blu.png","../images/wht_red.png","../images/ylw_slt.png","../images/gry_blk.png","../images/grn_red.png","../images/blu_wht.png","../images/ylw_pnk.png"],"mutagen_generator_assignment":[0,1],"goal":8,"start":4,"action_noise":0.15,"location_history":"[4,10,4,10,4,5,11,5,11,5,11,5,0,6,0,6,0,1,2,8]","action_history":"[1,1,1,1,0,1,1,1,1,1,1,0,1,1,1,1,0,1,1]","mutagen_history":"[1,1,1,1,0,1,1,1,1,1,1,0,1,1,1,1,0,1,1]","location_rts":"[326,447,315,319,361,561,420,299,287,348,394,977,402,419,337,120,651,255,244]","trial_type":"fractal-mutation","trial_index":64,"time_elapsed":1443818,"internal_node_id":"0.0-5.0-25.0"},{"group":"dihedral group of order 12","fractal_assignment":["../images/cyn_red.png","../images/red_prp.png","../images/grn_blu.png","../images/grn_prp.png","../images/pnk_blu.png","../images/org_blu.png","../images/wht_red.png","../images/ylw_slt.png","../images/gry_blk.png","../images/grn_red.png","../images/blu_wht.png","../images/ylw_pnk.png"],"mutagen_generator_assignment":[0,1],"goal":6,"start":8,"action_noise":0.15,"location_history":"[8,7,6]","action_history":"[0,1]","mutagen_history":"[0,1]","location_rts":"[935,443]","trial_type":"fractal-mutation","trial_index":65,"time_elapsed":1450833,"internal_node_id":"0.0-5.0-26.0"},{"group":"dihedral group of order 12","fractal_assignment":["../images/cyn_red.png","../images/red_prp.png","../images/grn_blu.png","../images/grn_prp.png","../images/pnk_blu.png","../images/org_blu.png","../images/wht_red.png","../images/ylw_slt.png","../images/gry_blk.png","../images/grn_red.png","../images/blu_wht.png","../images/ylw_pnk.png"],"mutagen_generator_assignment":[0,1],"goal":1,"start":6,"action_noise":0.15,"location_history":"[6,0,1]","action_history":"[1,0]","mutagen_history":"[1,0]","location_rts":"[782,310]","trial_type":"fractal-mutation","trial_index":66,"time_elapsed":1457601,"internal_node_id":"0.0-5.0-27.0"},{"group":"dihedral group of order 12","fractal_assignment":["../images/cyn_red.png","../images/red_prp.png","../images/grn_blu.png","../images/grn_prp.png","../images/pnk_blu.png","../images/org_blu.png","../images/wht_red.png","../images/ylw_slt.png","../images/gry_blk.png","../images/grn_red.png","../images/blu_wht.png","../images/ylw_pnk.png"],"mutagen_generator_assignment":[0,1],"goal":5,"start":1,"action_noise":0.15,"location_history":"[1,7,6,11,10,9,8,7,6,0,1,2,3,4,5]","action_history":"[1,0,0,0,0,0,0,0,1,0,0,0,0,0]","mutagen_history":"[1,0,0,0,0,0,0,0,1,0,0,0,0,0]","location_rts":"[395,295,265,373,402,287,411,412,668,216,304,301,408,317]","trial_type":"fractal-mutation","trial_index":67,"time_elapsed":1481228,"internal_node_id":"0.0-5.0-28.0"},{"group":"dihedral group of order 12","fractal_assignment":["../images/cyn_red.png","../images/red_prp.png","../images/grn_blu.png","../images/grn_prp.png","../images/pnk_blu.png","../images/org_blu.png","../images/wht_red.png","../images/ylw_slt.png","../images/gry_blk.png","../images/grn_red.png","../images/blu_wht.png","../images/ylw_pnk.png"],"mutagen_generator_assignment":[0,1],"goal":9,"start":5,"action_noise":0.15,"location_history":"[5,11,5,11,10,4,10,9]","action_history":"[1,1,1,0,1,1,1]","mutagen_history":"[1,1,1,0,1,1,1]","location_rts":"[320,308,495,269,252,294,353]","trial_type":"fractal-mutation","trial_index":68,"time_elapsed":1494768,"internal_node_id":"0.0-5.0-29.0"},{"group":"dihedral group of order 12","fractal_assignment":["../images/cyn_red.png","../images/red_prp.png","../images/grn_blu.png","../images/grn_prp.png","../images/pnk_blu.png","../images/org_blu.png","../images/wht_red.png","../images/ylw_slt.png","../images/gry_blk.png","../images/grn_red.png","../images/blu_wht.png","../images/ylw_pnk.png"],"mutagen_generator_assignment":[0,1],"goal":10,"start":9,"action_noise":0.15,"location_history":"[9,3,4,10]","action_history":"[1,0,0]","mutagen_history":"[1,0,0]","location_rts":"[722,253,394]","trial_type":"fractal-mutation","trial_index":69,"time_elapsed":1502889,"internal_node_id":"0.0-5.0-30.0"},{"group":"dihedral group of order 12","fractal_assignment":["../images/cyn_red.png","../images/red_prp.png","../images/grn_blu.png","../images/grn_prp.png","../images/pnk_blu.png","../images/org_blu.png","../images/wht_red.png","../images/ylw_slt.png","../images/gry_blk.png","../images/grn_red.png","../images/blu_wht.png","../images/ylw_pnk.png"],"mutagen_generator_assignment":[0,1],"goal":0,"start":10,"action_noise":0.15,"location_history":"[10,4,10,4,5,0]","action_history":"[1,1,1,0,1]","mutagen_history":"[1,1,1,0,1]","location_rts":"[838,323,330,211,232]","trial_type":"fractal-mutation","trial_index":70,"time_elapsed":1513852,"internal_node_id":"0.0-5.0-31.0"},{"group":"dihedral group of order 12","fractal_assignment":["../images/cyn_red.png","../images/red_prp.png","../images/grn_blu.png","../images/grn_prp.png","../images/pnk_blu.png","../images/org_blu.png","../images/wht_red.png","../images/ylw_slt.png","../images/gry_blk.png","../images/grn_red.png","../images/blu_wht.png","../images/ylw_pnk.png"],"mutagen_generator_assignment":[0,1],"goal":7,"start":0,"action_noise":0.15,"location_history":"[0,6,0,1,2,8,2,8,7]","action_history":"[1,1,0,1,1,1,1,0]","mutagen_history":"[1,1,0,1,1,1,1,0]","location_rts":"[943,498,416,175,428,376,350,325]","trial_type":"fractal-mutation","trial_index":71,"time_elapsed":1529671,"internal_node_id":"0.0-5.0-32.0"},{"group":"dihedral group of order 12","fractal_assignment":["../images/cyn_red.png","../images/red_prp.png","../images/grn_blu.png","../images/grn_prp.png","../images/pnk_blu.png","../images/org_blu.png","../images/wht_red.png","../images/ylw_slt.png","../images/gry_blk.png","../images/grn_red.png","../images/blu_wht.png","../images/ylw_pnk.png"],"mutagen_generator_assignment":[0,1],"goal":11,"start":7,"action_noise":0.15,"location_history":"[7,1,7,1,2,8,2,8,2,3,9,3,9,3,9,8,2,8,2,3,9,3,9,8,2,8,7,6,0,6,0,6,11]","action_history":"[1,1,1,0,1,1,1,1,0,1,1,1,1,1,0,1,1,1,0,1,1,1,0,1,1,0,1,1,1,1,1,0]","mutagen_history":"[1,1,1,0,1,1,1,1,0,1,1,1,1,1,0,1,1,1,0,1,1,1,0,1,1,0,1,1,1,1,1,0]","location_rts":"[395,345,405,370,345,195,297,398,238,264,336,339,420,401,434,233,461,375,525,226,364,410,871,521,314,712,678,372,472,464,437,335]","trial_type":"fractal-mutation","trial_index":72,"time_elapsed":1581361,"internal_node_id":"0.0-5.0-33.0"},{"group":"dihedral group of order 12","fractal_assignment":["../images/cyn_red.png","../images/red_prp.png","../images/grn_blu.png","../images/grn_prp.png","../images/pnk_blu.png","../images/org_blu.png","../images/wht_red.png","../images/ylw_slt.png","../images/gry_blk.png","../images/grn_red.png","../images/blu_wht.png","../images/ylw_pnk.png"],"mutagen_generator_assignment":[0,1],"goal":2,"start":11,"action_noise":0.15,"location_history":"[11,5,0,6,0,6,11,10,4,10,9,8,2]","action_history":"[1,1,1,1,1,0,1,1,1,1,0,1]","mutagen_history":"[1,1,1,1,1,0,1,1,1,1,0,1]","location_rts":"[1006,1436,523,506,429,188,939,357,415,367,209,835]","trial_type":"fractal-mutation","trial_index":73,"time_elapsed":1605333,"internal_node_id":"0.0-5.0-34.0"},{"view_history":"[{\"page_index\":0,\"viewing_time\":2526}]","rt":2526,"trial_type":"instructions","trial_index":74,"time_elapsed":1608860,"internal_node_id":"0.0-6.0"},{"rt":23484,"responses":"{\"Q0\":\"how we can navigate colored rooms following a pattern\"}","trial_type":"survey-text","trial_index":75,"time_elapsed":1633348,"internal_node_id":"0.0-7.0-0.0"},{"rt":12892,"responses":"{\"Q0\":\"connection between shapes\"}","trial_type":"survey-text","trial_index":76,"time_elapsed":1647244,"internal_node_id":"0.0-7.0-1.0"},{"rt":2889,"responses":"{\"Q0\":\"2\"}","trial_type":"survey-likert","trial_index":77,"time_elapsed":1651136,"internal_node_id":"0.0-7.0-2.0"},{"rt":8702,"responses":"{\"Q0\":\"noticing color patterns\"}","trial_type":"survey-text","trial_index":78,"time_elapsed":1660841,"internal_node_id":"0.0-7.0-3.0"},{"rt":3552,"responses":"{\"Q0\":\"No\"}","trial_type":"survey-multi-choice","trial_index":79,"time_elapsed":1665397,"internal_node_id":"0.0-7.0-4.0"},{"rt":7152,"responses":"{\"Q0\":\"During these questions/I wasn't aware until you pointed it out\"}","trial_type":"survey-multi-choice","trial_index":80,"time_elapsed":1673553,"internal_node_id":"0.0-7.0-5.0"},{"rt":2643,"responses":"{\"Q0\":\"\"}","trial_type":"survey-text","trial_index":81,"time_elapsed":1677198,"internal_node_id":"0.0-7.0-6.0"},{"rt":4031,"responses":"{\"Q0\":\"2\"}","trial_type":"survey-likert","trial_index":82,"time_elapsed":1682231,"internal_node_id":"0.0-7.0-7.0"},{"rt":5951,"responses":"{\"Q0\":\"Same structure\"}","trial_type":"survey-multi-choice","trial_index":83,"time_elapsed":1689186,"internal_node_id":"0.0-7.0-8.0"},{"rt":12648,"responses":"{\"Q0\":\"black door = acid, white door = ray\",\"Q1\":\"Slightly confident\"}","trial_type":"survey-multi-choice","trial_index":84,"time_elapsed":1702837,"internal_node_id":"0.0-7.0-9.0"},{"rt":7601,"responses":"{\"Q0\":\"25-35\",\"Q1\":\"Some college\",\"Q2\":\"Male\",\"Q3\":\"White\"}","trial_type":"survey-multi-choice","trial_index":85,"time_elapsed":1711450,"internal_node_id":"0.0-8.0"},{"rt":4131,"responses":"{\"Q0\":\"no\"}","trial_type":"survey-text","trial_index":86,"time_elapsed":1716584,"internal_node_id":"0.0-9.0"}]