[{"view_history":"[{\"page_index\":0,\"viewing_time\":1549},{\"page_index\":1,\"viewing_time\":5432}]","rt":6981,"trial_type":"instructions","trial_index":0,"time_elapsed":6982,"internal_node_id":"0.0-0.0"},{"view_history":"[{\"page_index\":0,\"viewing_time\":912},{\"page_index\":1,\"viewing_time\":4120}]","rt":5032,"trial_type":"instructions","trial_index":1,"time_elapsed":13019,"internal_node_id":"0.0-1.0"},{"group":"dicyclic group of order 12","room_assignment":["brown","green","purple","blue","red","yellow","pink","ivory","orange","grey","olive","cyan"],"door_color_assignment":["white","black"],"door_generator_assignment":[1,0],"goal":7,"start":3,"action_noise":0.15,"location_history":"[3,7]","action_history":"[0]","door_history":"[1]","location_rts":"[2060]","trial_type":"two-door-navigation","trial_index":2,"time_elapsed":19639,"internal_node_id":"0.0-2.0-0.0"},{"group":"dicyclic group of order 12","room_assignment":["brown","green","purple","blue","red","yellow","pink","ivory","orange","grey","olive","cyan"],"door_color_assignment":["white","black"],"door_generator_assignment":[1,0],"goal":5,"start":7,"action_noise":0.15,"location_history":"[7,8,5]","action_history":"[0,0]","door_history":"[1,1]","location_rts":"[2213,402]","trial_type":"two-door-navigation","trial_index":3,"time_elapsed":27907,"internal_node_id":"0.0-2.0-1.0"},{"group":"dicyclic group of order 12","room_assignment":["brown","green","purple","blue","red","yellow","pink","ivory","orange","grey","olive","cyan"],"door_color_assignment":["white","black"],"door_generator_assignment":[1,0],"goal":0,"start":5,"action_noise":0.15,"location_history":"[5,9,6,11,4,9,1,2,3,0]","action_history":"[1,0,0,0,0,1,0,0,0]","door_history":"[0,1,1,1,1,0,1,1,1]","location_rts":"[1361,840,476,393,458,898,1103,446,423]","trial_type":"two-door-navigation","trial_index":4,"time_elapsed":47453,"internal_node_id":"0.0-2.0-2.0"},{"group":"dicyclic group of order 12","room_assignment":["brown","green","purple","blue","red","yellow","pink","ivory","orange","grey","olive","cyan"],"door_color_assignment":["white","black"],"door_generator_assignment":[1,0],"goal":2,"start":0,"action_noise":0.15,"location_history":"[0,4,9,6,11,4,9,1,2]","action_history":"[1,0,0,0,0,0,1,0]","door_history":"[0,1,1,1,1,1,0,1]","location_rts":"[1922,995,1052,388,439,579,945,767]","trial_type":"two-door-navigation","trial_index":5,"time_elapsed":66559,"internal_node_id":"0.0-2.0-3.0"},{"group":"dicyclic group of order 12","room_assignment":["brown","green","purple","blue","red","yellow","pink","ivory","orange","grey","olive","cyan"],"door_color_assignment":["white","black"],"door_generator_assignment":[1,0],"goal":10,"start":2,"action_noise":0.15,"location_history":"[2,6,10]","action_history":"[1,0]","door_history":"[0,1]","location_rts":"[1880,1047]","trial_type":"two-door-navigation","trial_index":6,"time_elapsed":75145,"internal_node_id":"0.0-2.0-4.0"},{"group":"dicyclic group of order 12","room_assignment":["brown","green","purple","blue","red","yellow","pink","ivory","orange","grey","olive","cyan"],"door_color_assignment":["white","black"],"door_generator_assignment":[1,0],"goal":8,"start":10,"action_noise":0.15,"location_history":"[10,7,8]","action_history":"[0,0]","door_history":"[1,1]","location_rts":"[2620,668]","trial_type":"two-door-navigation","trial_index":7,"time_elapsed":84087,"internal_node_id":"0.0-2.0-5.0"},{"group":"dicyclic group of order 12","room_assignment":["brown","green","purple","blue","red","yellow","pink","ivory","orange","grey","olive","cyan"],"door_color_assignment":["white","black"],"door_generator_assignment":[1,0],"goal":11,"start":8,"action_noise":0.15,"location_history":"[8,0,4,8,5,10,7,11]","action_history":"[1,1,1,0,0,0,0]","door_history":"[0,0,0,1,1,1,1]","location_rts":"[1275,909,712,542,391,338,469]","trial_type":"two-door-navigation","trial_index":8,"time_elapsed":99699,"internal_node_id":"0.0-2.0-6.0"},{"group":"dicyclic group of order 12","room_assignment":["brown","green","purple","blue","red","yellow","pink","ivory","orange","grey","olive","cyan"],"door_color_assignment":["white","black"],"door_generator_assignment":[1,0],"goal":6,"start":11,"action_noise":0.15,"location_history":"[11,3,0,4,9,6]","action_history":"[1,0,0,0,0]","door_history":"[0,1,1,1,1]","location_rts":"[1726,617,537,400,488]","trial_type":"two-door-navigation","trial_index":9,"time_elapsed":112317,"internal_node_id":"0.0-2.0-7.0"},{"group":"dicyclic group of order 12","room_assignment":["brown","green","purple","blue","red","yellow","pink","ivory","orange","grey","olive","cyan"],"door_color_assignment":["white","black"],"door_generator_assignment":[1,0],"goal":4,"start":6,"action_noise":0.15,"location_history":"[6,10,7,11,3,0,4]","action_history":"[0,0,1,1,0,0]","door_history":"[1,1,0,0,1,1]","location_rts":"[2480,566,636,1373,913,447]","trial_type":"two-door-navigation","trial_index":10,"time_elapsed":128666,"internal_node_id":"0.0-2.0-8.0"},{"group":"dicyclic group of order 12","room_assignment":["brown","green","purple","blue","red","yellow","pink","ivory","orange","grey","olive","cyan"],"door_color_assignment":["white","black"],"door_generator_assignment":[1,0],"goal":1,"start":4,"action_noise":0.15,"location_history":"[4,8,5,10,7,11,4,9,6,10,2,3,0,1]","action_history":"[1,0,0,0,1,0,0,0,1,0,0,0,0]","door_history":"[0,1,1,1,0,1,1,1,0,1,1,1,1]","location_rts":"[2126,868,708,2941,1200,416,344,361,1182,815,374,400,632]","trial_type":"two-door-navigation","trial_index":11,"time_elapsed":158393,"internal_node_id":"0.0-2.0-9.0"},{"group":"dicyclic group of order 12","room_assignment":["brown","green","purple","blue","red","yellow","pink","ivory","orange","grey","olive","cyan"],"door_color_assignment":["white","black"],"door_generator_assignment":[1,0],"goal":9,"start":1,"action_noise":0.15,"location_history":"[1,5,9]","action_history":"[1,0]","door_history":"[0,1]","location_rts":"[2213,939]","trial_type":"two-door-navigation","trial_index":12,"time_elapsed":167195,"internal_node_id":"0.0-2.0-10.0"},{"group":"dicyclic group of order 12","room_assignment":["brown","green","purple","blue","red","yellow","pink","ivory","orange","grey","olive","cyan"],"door_color_assignment":["white","black"],"door_generator_assignment":[1,0],"goal":10,"start":9,"action_noise":0.15,"location_history":"[9,6,11,4,8,0,1,2,3,0,4,9,1,2,3,7,8,5,10]","action_history":"[1,0,0,0,1,0,0,0,0,1,0,0,0,0,1,0,0,0]","door_history":"[0,1,1,1,0,1,1,1,1,0,1,1,1,1,0,1,1,1]","location_rts":"[1642,724,2349,652,1045,565,590,445,582,1098,589,553,521,481,963,971,548,405]","trial_type":"two-door-navigation","trial_index":13,"time_elapsed":204617,"internal_node_id":"0.0-2.0-11.0"},{"group":"dicyclic group of order 12","room_assignment":["brown","green","purple","blue","red","yellow","pink","ivory","orange","grey","olive","cyan"],"door_color_assignment":["white","black"],"door_generator_assignment":[1,0],"goal":2,"start":10,"action_noise":0.15,"location_history":"[10,2]","action_history":"[1]","door_history":"[0]","location_rts":"[2024]","trial_type":"two-door-navigation","trial_index":14,"time_elapsed":211208,"internal_node_id":"0.0-2.0-12.0"},{"group":"dicyclic group of order 12","room_assignment":["brown","green","purple","blue","red","yellow","pink","ivory","orange","grey","olive","cyan"],"door_color_assignment":["white","black"],"door_generator_assignment":[1,0],"goal":0,"start":2,"action_noise":0.15,"location_history":"[2,6,10,7,8,5,10,2,6,11,4,9,1,2,6,10,2,6,10,7,11,4,9,6,11,3,0]","action_history":"[1,0,0,0,0,0,1,1,0,0,0,0,0,1,1,1,1,1,0,1,0,0,0,0,1,0]","door_history":"[0,1,1,1,1,1,0,0,1,1,1,1,1,0,0,0,0,0,1,0,1,1,1,1,0,1]","location_rts":"[1262,804,507,830,597,622,1245,1103,1077,441,516,501,585,648,766,1273,910,769,691,1328,943,375,1213,446,582,856]","trial_type":"two-door-navigation","trial_index":15,"time_elapsed":263418,"internal_node_id":"0.0-2.0-13.0"},{"group":"dicyclic group of order 12","room_assignment":["brown","green","purple","blue","red","yellow","pink","ivory","orange","grey","olive","cyan"],"door_color_assignment":["white","black"],"door_generator_assignment":[1,0],"goal":9,"start":0,"action_noise":0.15,"location_history":"[0,4,8,0,1,5,10,7,11,3,7,8,0,4,9]","action_history":"[1,1,0,0,1,0,0,0,1,1,0,0,0,0]","door_history":"[0,0,1,1,0,1,1,1,0,0,1,1,1,1]","location_rts":"[1391,2904,1356,501,902,983,540,641,650,1321,633,443,681,408]","trial_type":"two-door-navigation","trial_index":16,"time_elapsed":295214,"internal_node_id":"0.0-2.0-14.0"},{"group":"dicyclic group of order 12","room_assignment":["brown","green","purple","blue","red","yellow","pink","ivory","orange","grey","olive","cyan"],"door_color_assignment":["white","black"],"door_generator_assignment":[1,0],"goal":8,"start":9,"action_noise":0.15,"location_history":"[9,1,5,10,2,3,0,1,2,3,0,1,5,9,6,11,3,0,1,5,10,7,8]","action_history":"[1,1,0,0,0,0,0,1,0,0,0,0,0,1,0,0,0,0,1,0,0,0]","door_history":"[0,0,1,1,1,1,1,0,1,1,1,1,1,0,1,1,1,1,0,1,1,1]","location_rts":"[1405,1052,753,573,666,570,961,613,1055,974,1241,1512,514,721,966,390,344,413,377,841,396,772]","trial_type":"two-door-navigation","trial_index":17,"time_elapsed":339328,"internal_node_id":"0.0-2.0-15.0"},{"group":"dicyclic group of order 12","room_assignment":["brown","green","purple","blue","red","yellow","pink","ivory","orange","grey","olive","cyan"],"door_color_assignment":["white","black"],"door_generator_assignment":[1,0],"goal":6,"start":8,"action_noise":0.15,"location_history":"[8,0,1,2,3,0,4,9,1,5,10,2,3,0,1,5,10,7,11,4,8,5,10,7,8,5,9,1,2,3,0,4,9,6]","action_history":"[1,0,0,0,0,1,0,0,0,0,1,0,0,0,0,0,0,1,0,0,0,0,0,0,0,0,1,0,0,0,1,0,0]","door_history":"[0,1,1,1,1,0,1,1,1,1,0,1,1,1,1,1,1,0,1,1,1,1,1,1,1,1,0,1,1,1,0,1,1]","location_rts":"[2183,687,597,444,695,425,722,535,607,774,695,570,634,709,568,601,672,1263,523,395,404,378,595,607,605,372,374,861,538,551,1178,761,513]","trial_type":"two-door-navigation","trial_index":18,"time_elapsed":399994,"internal_node_id":"0.0-2.0-16.0"},{"group":"dicyclic group of order 12","room_assignment":["brown","green","purple","blue","red","yellow","pink","ivory","orange","grey","olive","cyan"],"door_color_assignment":["white","black"],"door_generator_assignment":[1,0],"goal":1,"start":6,"action_noise":0.15,"location_history":"[6,10,7,8,0,4,9,6,11,4,8,5,10,7,8,5,9,1]","action_history":"[1,0,0,1,1,0,0,0,0,1,1,0,0,0,0,0,1]","door_history":"[0,1,1,0,0,1,1,1,1,0,0,1,1,1,1,1,0]","location_rts":"[1838,1125,637,667,797,961,645,673,914,597,963,806,510,589,479,616,829]","trial_type":"two-door-navigation","trial_index":19,"time_elapsed":435333,"internal_node_id":"0.0-2.0-17.0"},{"group":"dicyclic group of order 12","room_assignment":["brown","green","purple","blue","red","yellow","pink","ivory","orange","grey","olive","cyan"],"door_color_assignment":["white","black"],"door_generator_assignment":[1,0],"goal":4,"start":1,"action_noise":0.15,"location_history":"[1,5,9,6,10,7,11,3,0,4]","action_history":"[1,0,0,1,1,0,1,0,0]","door_history":"[0,1,1,0,0,1,0,1,1]","location_rts":"[2013,768,573,1069,1325,1169,1348,804,593]","trial_type":"two-door-navigation","trial_index":20,"time_elapsed":458138,"internal_node_id":"0.0-2.0-18.0"},{"group":"dicyclic group of order 12","room_assignment":["brown","green","purple","blue","red","yellow","pink","ivory","orange","grey","olive","cyan"],"door_color_assignment":["white","black"],"door_generator_assignment":[1,0],"goal":11,"start":4,"action_noise":0.15,"location_history":"[4,9,6,10,2,3,0,1,2,6,11]","action_history":"[0,0,1,1,0,0,0,0,1,0]","door_history":"[1,1,0,0,1,1,1,1,0,1]","location_rts":"[2043,499,835,1113,460,582,780,586,347,495]","trial_type":"two-door-navigation","trial_index":21,"time_elapsed":480076,"internal_node_id":"0.0-2.0-19.0"},{"group":"dicyclic group of order 12","room_assignment":["brown","green","purple","blue","red","yellow","pink","ivory","orange","grey","olive","cyan"],"door_color_assignment":["white","black"],"door_generator_assignment":[1,0],"goal":3,"start":11,"action_noise":0.15,"location_history":"[11,3]","action_history":"[1]","door_history":"[0]","location_rts":"[1920]","trial_type":"two-door-navigation","trial_index":22,"time_elapsed":486577,"internal_node_id":"0.0-2.0-20.0"},{"group":"dicyclic group of order 12","room_assignment":["brown","green","purple","blue","red","yellow","pink","ivory","orange","grey","olive","cyan"],"door_color_assignment":["white","black"],"door_generator_assignment":[1,0],"goal":5,"start":3,"action_noise":0.15,"location_history":"[3,7,8,5]","action_history":"[1,0,0]","door_history":"[0,1,1]","location_rts":"[2838,1472,715]","trial_type":"two-door-navigation","trial_index":23,"time_elapsed":498313,"internal_node_id":"0.0-2.0-21.0"},{"group":"dicyclic group of order 12","room_assignment":["brown","green","purple","blue","red","yellow","pink","ivory","orange","grey","olive","cyan"],"door_color_assignment":["white","black"],"door_generator_assignment":[1,0],"goal":7,"start":5,"action_noise":0.15,"location_history":"[5,9,6,11,4,8,0,4,9,6,10,2,6,11,4,8,0,1,5,10,2,3,0,4,9,1,5,10,2,3,0,1,5,10,2,6,11,4,9,6,10,2,3,0,1,2,3,0,1,5,10,7]","action_history":"[1,0,0,0,1,1,0,0,0,1,0,0,0,0,1,1,0,0,0,1,0,0,0,0,1,1,0,0,0,0,1,1,0,1,1,0,0,0,0,1,0,0,0,0,0,1,0,0,0,0,1]","door_history":"[0,1,1,1,0,0,1,1,1,0,1,1,1,1,0,0,1,1,1,0,1,1,1,1,0,0,1,1,1,1,0,0,1,0,0,1,1,1,1,0,1,1,1,1,1,0,1,1,1,1,0]","location_rts":"[9826,830,437,759,955,1390,430,525,442,557,2857,778,1071,627,656,716,1172,569,598,1399,1013,376,468,568,798,420,1255,409,505,565,542,636,750,1438,840,890,697,519,598,1228,589,345,822,821,1340,1248,815,403,805,800,771]","trial_type":"two-door-navigation","trial_index":24,"time_elapsed":606253,"internal_node_id":"0.0-2.0-22.0"},{"group":"dicyclic group of order 12","room_assignment":["brown","green","purple","blue","red","yellow","pink","ivory","orange","grey","olive","cyan"],"door_color_assignment":["white","black"],"door_generator_assignment":[1,0],"goal":3,"start":7,"action_noise":0.15,"location_history":"[7,11,3]","action_history":"[1,1]","door_history":"[0,0]","location_rts":"[2481,1122]","trial_type":"two-door-navigation","trial_index":25,"time_elapsed":615458,"internal_node_id":"0.0-2.0-23.0"},{"group":"dicyclic group of order 12","room_assignment":["brown","green","purple","blue","red","yellow","pink","ivory","orange","grey","olive","cyan"],"door_color_assignment":["white","black"],"door_generator_assignment":[1,0],"goal":4,"start":3,"action_noise":0.15,"location_history":"[3,7,11,4]","action_history":"[1,0,0]","door_history":"[0,1,1]","location_rts":"[1707,768,363]","trial_type":"two-door-navigation","trial_index":26,"time_elapsed":625035,"internal_node_id":"0.0-2.0-24.0"},{"group":"dicyclic group of order 12","room_assignment":["brown","green","purple","blue","red","yellow","pink","ivory","orange","grey","olive","cyan"],"door_color_assignment":["white","black"],"door_generator_assignment":[1,0],"goal":8,"start":4,"action_noise":0.15,"location_history":"[4,8]","action_history":"[1]","door_history":"[0]","location_rts":"[1322]","trial_type":"two-door-navigation","trial_index":27,"time_elapsed":630937,"internal_node_id":"0.0-2.0-25.0"},{"group":"dicyclic group of order 12","room_assignment":["brown","green","purple","blue","red","yellow","pink","ivory","orange","grey","olive","cyan"],"door_color_assignment":["white","black"],"door_generator_assignment":[1,0],"goal":6,"start":8,"action_noise":0.15,"location_history":"[8,0,1,5,9,6]","action_history":"[1,0,1,1,0]","door_history":"[0,1,0,0,1]","location_rts":"[1789,1715,635,554,700]","trial_type":"two-door-navigation","trial_index":28,"time_elapsed":645136,"internal_node_id":"0.0-2.0-26.0"},{"group":"dicyclic group of order 12","room_assignment":["brown","green","purple","blue","red","yellow","pink","ivory","orange","grey","olive","cyan"],"door_color_assignment":["white","black"],"door_generator_assignment":[1,0],"goal":1,"start":6,"action_noise":0.15,"location_history":"[6,10,2,6,11,4,9,1]","action_history":"[1,1,1,1,0,0,0]","door_history":"[0,0,0,0,1,1,1]","location_rts":"[1694,1629,1673,1988,442,406,451]","trial_type":"two-door-navigation","trial_index":29,"time_elapsed":664387,"internal_node_id":"0.0-2.0-27.0"},{"group":"dicyclic group of order 12","room_assignment":["brown","green","purple","blue","red","yellow","pink","ivory","orange","grey","olive","cyan"],"door_color_assignment":["white","black"],"door_generator_assignment":[1,0],"goal":5,"start":1,"action_noise":0.15,"location_history":"[1,2,6,11,4,9,6,11,4,9,6,11,3,0,1,2,6,10,7,11,4,9,6,10,7,8,5]","action_history":"[0,1,0,0,0,0,1,0,0,0,1,0,0,0,0,1,1,0,0,0,0,0,1,0,0,0]","door_history":"[1,0,1,1,1,1,0,1,1,1,0,1,1,1,1,0,0,1,1,1,1,1,0,1,1,1]","location_rts":"[3109,446,1021,625,525,720,781,974,431,652,964,477,710,772,667,513,1634,693,604,583,487,476,1157,909,914,647]","trial_type":"two-door-navigation","trial_index":30,"time_elapsed":717182,"internal_node_id":"0.0-2.0-28.0"},{"group":"dicyclic group of order 12","room_assignment":["brown","green","purple","blue","red","yellow","pink","ivory","orange","grey","olive","cyan"],"door_color_assignment":["white","black"],"door_generator_assignment":[1,0],"goal":9,"start":5,"action_noise":0.15,"location_history":"[5,9]","action_history":"[1]","door_history":"[0]","location_rts":"[1488]","trial_type":"two-door-navigation","trial_index":31,"time_elapsed":723259,"internal_node_id":"0.0-2.0-29.0"},{"group":"dicyclic group of order 12","room_assignment":["brown","green","purple","blue","red","yellow","pink","ivory","orange","grey","olive","cyan"],"door_color_assignment":["white","black"],"door_generator_assignment":[1,0],"goal":10,"start":9,"action_noise":0.15,"location_history":"[9,1,5,10]","action_history":"[1,1,0]","door_history":"[0,0,1]","location_rts":"[1288,1095,957]","trial_type":"two-door-navigation","trial_index":32,"time_elapsed":733293,"internal_node_id":"0.0-2.0-30.0"},{"group":"dicyclic group of order 12","room_assignment":["brown","green","purple","blue","red","yellow","pink","ivory","orange","grey","olive","cyan"],"door_color_assignment":["white","black"],"door_generator_assignment":[1,0],"goal":0,"start":10,"action_noise":0.15,"location_history":"[10,2,3,0]","action_history":"[1,0,0]","door_history":"[0,1,1]","location_rts":"[1487,1015,482]","trial_type":"two-door-navigation","trial_index":33,"time_elapsed":743008,"internal_node_id":"0.0-2.0-31.0"},{"group":"dicyclic group of order 12","room_assignment":["brown","green","purple","blue","red","yellow","pink","ivory","orange","grey","olive","cyan"],"door_color_assignment":["white","black"],"door_generator_assignment":[1,0],"goal":7,"start":0,"action_noise":0.15,"location_history":"[0,4,8,5,10,2,3,0,1,5,10,7]","action_history":"[1,1,0,0,1,0,0,0,1,0,0]","door_history":"[0,0,1,1,0,1,1,1,0,1,1]","location_rts":"[1841,775,1278,454,2491,639,401,468,1114,417,414]","trial_type":"two-door-navigation","trial_index":34,"time_elapsed":768540,"internal_node_id":"0.0-2.0-32.0"},{"group":"dicyclic group of order 12","room_assignment":["brown","green","purple","blue","red","yellow","pink","ivory","orange","grey","olive","cyan"],"door_color_assignment":["white","black"],"door_generator_assignment":[1,0],"goal":11,"start":7,"action_noise":0.15,"location_history":"[7,8,5,10,2,3,0,4,9,6,11]","action_history":"[0,0,0,1,0,0,1,0,0,0]","door_history":"[1,1,1,0,1,1,0,1,1,1]","location_rts":"[1953,475,759,775,978,600,552,758,423,679]","trial_type":"two-door-navigation","trial_index":35,"time_elapsed":790746,"internal_node_id":"0.0-2.0-33.0"},{"group":"dicyclic group of order 12","room_assignment":["brown","green","purple","blue","red","yellow","pink","ivory","orange","grey","olive","cyan"],"door_color_assignment":["white","black"],"door_generator_assignment":[1,0],"goal":2,"start":11,"action_noise":0.15,"location_history":"[11,4,8,5,9,1,2]","action_history":"[1,1,0,1,1,0]","door_history":"[0,0,1,0,0,1]","location_rts":"[2550,937,828,1215,1563,650]","trial_type":"two-door-navigation","trial_index":36,"time_elapsed":808366,"internal_node_id":"0.0-2.0-34.0"},{"view_history":"[{\"page_index\":0,\"viewing_time\":1452}]","rt":1452,"trial_type":"instructions","trial_index":37,"time_elapsed":810822,"internal_node_id":"0.0-3.0"},{"view_history":"[{\"page_index\":0,\"viewing_time\":1449},{\"page_index\":1,\"viewing_time\":2369}]","rt":3819,"trial_type":"instructions","trial_index":38,"time_elapsed":815644,"internal_node_id":"0.0-4.0"},{"group":"dicyclic group of order 12","fractal_assignment":["../images/grn_prp.png","../images/wht_red.png","../images/ylw_slt.png","../images/grn_red.png","../images/gry_blk.png","../images/org_blu.png","../images/grn_blu.png","../images/red_prp.png","../images/pnk_blu.png","../images/ylw_pnk.png","../images/blu_wht.png","../images/cyn_red.png"],"mutagen_generator_assignment":[0,1],"goal":7,"start":3,"action_noise":0.15,"location_history":"[3,7]","action_history":"[1]","mutagen_history":"[1]","location_rts":"[4503]","trial_type":"fractal-mutation","trial_index":39,"time_elapsed":824785,"internal_node_id":"0.0-5.0-0.0"},{"group":"dicyclic group of order 12","fractal_assignment":["../images/grn_prp.png","../images/wht_red.png","../images/ylw_slt.png","../images/grn_red.png","../images/gry_blk.png","../images/org_blu.png","../images/grn_blu.png","../images/red_prp.png","../images/pnk_blu.png","../images/ylw_pnk.png","../images/blu_wht.png","../images/cyn_red.png"],"mutagen_generator_assignment":[0,1],"goal":5,"start":7,"action_noise":0.15,"location_history":"[7,8,5]","action_history":"[0,0]","mutagen_history":"[0,0]","location_rts":"[2065,1220]","trial_type":"fractal-mutation","trial_index":40,"time_elapsed":833748,"internal_node_id":"0.0-5.0-1.0"},{"group":"dicyclic group of order 12","fractal_assignment":["../images/grn_prp.png","../images/wht_red.png","../images/ylw_slt.png","../images/grn_red.png","../images/gry_blk.png","../images/org_blu.png","../images/grn_blu.png","../images/red_prp.png","../images/pnk_blu.png","../images/ylw_pnk.png","../images/blu_wht.png","../images/cyn_red.png"],"mutagen_generator_assignment":[0,1],"goal":0,"start":5,"action_noise":0.15,"location_history":"[5,10,7,11,3,0]","action_history":"[1,0,0,1,0]","mutagen_history":"[1,0,0,1,0]","location_rts":"[1097,716,620,653,934]","trial_type":"fractal-mutation","trial_index":41,"time_elapsed":846833,"internal_node_id":"0.0-5.0-2.0"},{"group":"dicyclic group of order 12","fractal_assignment":["../images/grn_prp.png","../images/wht_red.png","../images/ylw_slt.png","../images/grn_red.png","../images/gry_blk.png","../images/org_blu.png","../images/grn_blu.png","../images/red_prp.png","../images/pnk_blu.png","../images/ylw_pnk.png","../images/blu_wht.png","../images/cyn_red.png"],"mutagen_generator_assignment":[0,1],"goal":2,"start":0,"action_noise":0.15,"location_history":"[0,4,9,1,5,10,2]","action_history":"[1,0,1,0,0,1]","mutagen_history":"[1,0,1,0,0,1]","location_rts":"[3984,717,836,460,701,941]","trial_type":"fractal-mutation","trial_index":42,"time_elapsed":864675,"internal_node_id":"0.0-5.0-3.0"},{"group":"dicyclic group of order 12","fractal_assignment":["../images/grn_prp.png","../images/wht_red.png","../images/ylw_slt.png","../images/grn_red.png","../images/gry_blk.png","../images/org_blu.png","../images/grn_blu.png","../images/red_prp.png","../images/pnk_blu.png","../images/ylw_pnk.png","../images/blu_wht.png","../images/cyn_red.png"],"mutagen_generator_assignment":[0,1],"goal":10,"start":2,"action_noise":0.15,"location_history":"[2,6,10]","action_history":"[1,1]","mutagen_history":"[1,1]","location_rts":"[1478,777]","trial_type":"fractal-mutation","trial_index":43,"time_elapsed":872678,"internal_node_id":"0.0-5.0-4.0"},{"group":"dicyclic group of order 12","fractal_assignment":["../images/grn_prp.png","../images/wht_red.png","../images/ylw_slt.png","../images/grn_red.png","../images/gry_blk.png","../images/org_blu.png","../images/grn_blu.png","../images/red_prp.png","../images/pnk_blu.png","../images/ylw_pnk.png","../images/blu_wht.png","../images/cyn_red.png"],"mutagen_generator_assignment":[0,1],"goal":8,"start":10,"action_noise":0.15,"location_history":"[10,7,11,4,9,6,11,4,8]","action_history":"[0,1,0,0,0,1,1,1]","mutagen_history":"[0,1,0,0,0,1,1,1]","location_rts":"[1394,615,1411,817,1381,564,660,680]","trial_type":"fractal-mutation","trial_index":44,"time_elapsed":892585,"internal_node_id":"0.0-5.0-5.0"},{"group":"dicyclic group of order 12","fractal_assignment":["../images/grn_prp.png","../images/wht_red.png","../images/ylw_slt.png","../images/grn_red.png","../images/gry_blk.png","../images/org_blu.png","../images/grn_blu.png","../images/red_prp.png","../images/pnk_blu.png","../images/ylw_pnk.png","../images/blu_wht.png","../images/cyn_red.png"],"mutagen_generator_assignment":[0,1],"goal":11,"start":8,"action_noise":0.15,"location_history":"[8,5,9,1,2,6,11]","action_history":"[0,1,1,0,0,0]","mutagen_history":"[0,1,1,0,0,0]","location_rts":"[2087,881,1005,715,534,674]","trial_type":"fractal-mutation","trial_index":45,"time_elapsed":908621,"internal_node_id":"0.0-5.0-6.0"},{"group":"dicyclic group of order 12","fractal_assignment":["../images/grn_prp.png","../images/wht_red.png","../images/ylw_slt.png","../images/grn_red.png","../images/gry_blk.png","../images/org_blu.png","../images/grn_blu.png","../images/red_prp.png","../images/pnk_blu.png","../images/ylw_pnk.png","../images/blu_wht.png","../images/cyn_red.png"],"mutagen_generator_assignment":[0,1],"goal":6,"start":11,"action_noise":0.15,"location_history":"[11,3,7,8,5,10,2,6]","action_history":"[1,0,0,0,1,1,0]","mutagen_history":"[1,0,0,0,1,1,0]","location_rts":"[1237,1100,508,800,663,729,710]","trial_type":"fractal-mutation","trial_index":46,"time_elapsed":925661,"internal_node_id":"0.0-5.0-7.0"},{"group":"dicyclic group of order 12","fractal_assignment":["../images/grn_prp.png","../images/wht_red.png","../images/ylw_slt.png","../images/grn_red.png","../images/gry_blk.png","../images/org_blu.png","../images/grn_blu.png","../images/red_prp.png","../images/pnk_blu.png","../images/ylw_pnk.png","../images/blu_wht.png","../images/cyn_red.png"],"mutagen_generator_assignment":[0,1],"goal":4,"start":6,"action_noise":0.15,"location_history":"[6,11,4]","action_history":"[0,1]","mutagen_history":"[0,1]","location_rts":"[1546,743]","trial_type":"fractal-mutation","trial_index":47,"time_elapsed":933676,"internal_node_id":"0.0-5.0-8.0"},{"group":"dicyclic group of order 12","fractal_assignment":["../images/grn_prp.png","../images/wht_red.png","../images/ylw_slt.png","../images/grn_red.png","../images/gry_blk.png","../images/org_blu.png","../images/grn_blu.png","../images/red_prp.png","../images/pnk_blu.png","../images/ylw_pnk.png","../images/blu_wht.png","../images/cyn_red.png"],"mutagen_generator_assignment":[0,1],"goal":1,"start":4,"action_noise":0.15,"location_history":"[4,9,1]","action_history":"[0,1]","mutagen_history":"[0,1]","location_rts":"[1812,592]","trial_type":"fractal-mutation","trial_index":48,"time_elapsed":941775,"internal_node_id":"0.0-5.0-9.0"},{"group":"dicyclic group of order 12","fractal_assignment":["../images/grn_prp.png","../images/wht_red.png","../images/ylw_slt.png","../images/grn_red.png","../images/gry_blk.png","../images/org_blu.png","../images/grn_blu.png","../images/red_prp.png","../images/pnk_blu.png","../images/ylw_pnk.png","../images/blu_wht.png","../images/cyn_red.png"],"mutagen_generator_assignment":[0,1],"goal":9,"start":1,"action_noise":0.15,"location_history":"[1,2,6,11,4,9]","action_history":"[0,0,0,0,0]","mutagen_history":"[0,0,0,0,0]","location_rts":"[1098,824,420,403,379]","trial_type":"fractal-mutation","trial_index":49,"time_elapsed":953806,"internal_node_id":"0.0-5.0-10.0"},{"group":"dicyclic group of order 12","fractal_assignment":["../images/grn_prp.png","../images/wht_red.png","../images/ylw_slt.png","../images/grn_red.png","../images/gry_blk.png","../images/org_blu.png","../images/grn_blu.png","../images/red_prp.png","../images/pnk_blu.png","../images/ylw_pnk.png","../images/blu_wht.png","../images/cyn_red.png"],"mutagen_generator_assignment":[0,1],"goal":10,"start":9,"action_noise":0.15,"location_history":"[9,1,2,3,0,4,9,1,5,9,6,10]","action_history":"[1,0,0,0,1,0,1,1,1,0,1]","mutagen_history":"[1,0,0,0,1,0,1,1,1,0,1]","location_rts":"[1168,1243,347,782,615,1055,370,380,385,681,710]","trial_type":"fractal-mutation","trial_index":50,"time_elapsed":977325,"internal_node_id":"0.0-5.0-11.0"},{"group":"dicyclic group of order 12","fractal_assignment":["../images/grn_prp.png","../images/wht_red.png","../images/ylw_slt.png","../images/grn_red.png","../images/gry_blk.png","../images/org_blu.png","../images/grn_blu.png","../images/red_prp.png","../images/pnk_blu.png","../images/ylw_pnk.png","../images/blu_wht.png","../images/cyn_red.png"],"mutagen_generator_assignment":[0,1],"goal":2,"start":10,"action_noise":0.15,"location_history":"[10,2]","action_history":"[1]","mutagen_history":"[1]","location_rts":"[2216]","trial_type":"fractal-mutation","trial_index":51,"time_elapsed":984176,"internal_node_id":"0.0-5.0-12.0"},{"group":"dicyclic group of order 12","fractal_assignment":["../images/grn_prp.png","../images/wht_red.png","../images/ylw_slt.png","../images/grn_red.png","../images/gry_blk.png","../images/org_blu.png","../images/grn_blu.png","../images/red_prp.png","../images/pnk_blu.png","../images/ylw_pnk.png","../images/blu_wht.png","../images/cyn_red.png"],"mutagen_generator_assignment":[0,1],"goal":0,"start":2,"action_noise":0.15,"location_history":"[2,6,11,4,8,5,9,6,10,7,8,5,10,2,6,10,2,3,7,11,3,0]","action_history":"[1,0,0,1,0,1,0,1,0,0,0,0,1,1,1,1,0,1,1,1,1]","mutagen_history":"[1,0,0,1,0,1,0,1,0,0,0,0,1,1,1,1,0,1,1,1,1]","location_rts":"[1477,774,418,762,741,736,772,908,923,1509,1131,821,801,563,786,752,850,629,745,765,641]","trial_type":"fractal-mutation","trial_index":52,"time_elapsed":1028536,"internal_node_id":"0.0-5.0-13.0"},{"group":"dicyclic group of order 12","fractal_assignment":["../images/grn_prp.png","../images/wht_red.png","../images/ylw_slt.png","../images/grn_red.png","../images/gry_blk.png","../images/org_blu.png","../images/grn_blu.png","../images/red_prp.png","../images/pnk_blu.png","../images/ylw_pnk.png","../images/blu_wht.png","../images/cyn_red.png"],"mutagen_generator_assignment":[0,1],"goal":9,"start":0,"action_noise":0.15,"location_history":"[0,4,8,5,9]","action_history":"[0,1,0,0]","mutagen_history":"[0,1,0,0]","location_rts":"[1308,833,652,863]","trial_type":"fractal-mutation","trial_index":53,"time_elapsed":1040101,"internal_node_id":"0.0-5.0-14.0"},{"group":"dicyclic group of order 12","fractal_assignment":["../images/grn_prp.png","../images/wht_red.png","../images/ylw_slt.png","../images/grn_red.png","../images/gry_blk.png","../images/org_blu.png","../images/grn_blu.png","../images/red_prp.png","../images/pnk_blu.png","../images/ylw_pnk.png","../images/blu_wht.png","../images/cyn_red.png"],"mutagen_generator_assignment":[0,1],"goal":8,"start":9,"action_noise":0.15,"location_history":"[9,1,5,10,7,8]","action_history":"[1,1,0,1,0]","mutagen_history":"[1,1,0,1,0]","location_rts":"[1792,966,479,740,816]","trial_type":"fractal-mutation","trial_index":54,"time_elapsed":1053961,"internal_node_id":"0.0-5.0-15.0"},{"group":"dicyclic group of order 12","fractal_assignment":["../images/grn_prp.png","../images/wht_red.png","../images/ylw_slt.png","../images/grn_red.png","../images/gry_blk.png","../images/org_blu.png","../images/grn_blu.png","../images/red_prp.png","../images/pnk_blu.png","../images/ylw_pnk.png","../images/blu_wht.png","../images/cyn_red.png"],"mutagen_generator_assignment":[0,1],"goal":6,"start":8,"action_noise":0.15,"location_history":"[8,5,10,7,11,3,0,1,5,10,7,8,0,4,9,6]","action_history":"[1,0,0,1,1,0,0,1,1,0,0,1,1,1,1]","mutagen_history":"[1,0,0,1,1,0,0,1,1,0,0,1,1,1,1]","location_rts":"[1347,796,691,672,750,514,1030,660,1083,610,923,641,736,604,934]","trial_type":"fractal-mutation","trial_index":55,"time_elapsed":1086160,"internal_node_id":"0.0-5.0-16.0"},{"group":"dicyclic group of order 12","fractal_assignment":["../images/grn_prp.png","../images/wht_red.png","../images/ylw_slt.png","../images/grn_red.png","../images/gry_blk.png","../images/org_blu.png","../images/grn_blu.png","../images/red_prp.png","../images/pnk_blu.png","../images/ylw_pnk.png","../images/blu_wht.png","../images/cyn_red.png"],"mutagen_generator_assignment":[0,1],"goal":1,"start":6,"action_noise":0.15,"location_history":"[6,11,4,8,0,1]","action_history":"[0,0,1,1,1]","mutagen_history":"[0,0,1,1,1]","location_rts":"[1426,745,943,747,748]","trial_type":"fractal-mutation","trial_index":56,"time_elapsed":1099788,"internal_node_id":"0.0-5.0-17.0"},{"group":"dicyclic group of order 12","fractal_assignment":["../images/grn_prp.png","../images/wht_red.png","../images/ylw_slt.png","../images/grn_red.png","../images/gry_blk.png","../images/org_blu.png","../images/grn_blu.png","../images/red_prp.png","../images/pnk_blu.png","../images/ylw_pnk.png","../images/blu_wht.png","../images/cyn_red.png"],"mutagen_generator_assignment":[0,1],"goal":4,"start":1,"action_noise":0.15,"location_history":"[1,2,6,11,3,0,1,5,9,6,10,7,11,3,7,8,5,9,1,2,3,0,1,5,10,7,8,5,9,6,11,3,7,11,4]","action_history":"[0,1,1,1,0,0,1,0,0,1,0,1,1,1,0,0,1,1,0,0,0,0,1,0,0,0,1,1,1,0,1,1,1,0]","mutagen_history":"[0,1,1,1,0,0,1,0,0,1,0,1,1,1,0,0,1,1,0,0,0,0,1,0,0,0,1,1,1,0,1,1,1,0]","location_rts":"[1566,424,387,507,551,666,723,757,361,617,984,658,513,749,679,492,848,669,650,772,538,611,858,821,882,771,597,488,401,1073,876,807,760,712]","trial_type":"fractal-mutation","trial_index":57,"time_elapsed":1164831,"internal_node_id":"0.0-5.0-18.0"},{"group":"dicyclic group of order 12","fractal_assignment":["../images/grn_prp.png","../images/wht_red.png","../images/ylw_slt.png","../images/grn_red.png","../images/gry_blk.png","../images/org_blu.png","../images/grn_blu.png","../images/red_prp.png","../images/pnk_blu.png","../images/ylw_pnk.png","../images/blu_wht.png","../images/cyn_red.png"],"mutagen_generator_assignment":[0,1],"goal":11,"start":4,"action_noise":0.15,"location_history":"[4,9,1,5,9,1,5,10,7,11]","action_history":"[1,1,1,1,1,1,0,0,1]","mutagen_history":"[1,1,1,1,1,1,0,0,1]","location_rts":"[2273,411,418,545,449,1298,696,942,717]","trial_type":"fractal-mutation","trial_index":58,"time_elapsed":1186084,"internal_node_id":"0.0-5.0-19.0"},{"group":"dicyclic group of order 12","fractal_assignment":["../images/grn_prp.png","../images/wht_red.png","../images/ylw_slt.png","../images/grn_red.png","../images/gry_blk.png","../images/org_blu.png","../images/grn_blu.png","../images/red_prp.png","../images/pnk_blu.png","../images/ylw_pnk.png","../images/blu_wht.png","../images/cyn_red.png"],"mutagen_generator_assignment":[0,1],"goal":3,"start":11,"action_noise":0.15,"location_history":"[11,3]","action_history":"[1]","mutagen_history":"[1]","location_rts":"[1708]","trial_type":"fractal-mutation","trial_index":59,"time_elapsed":1192440,"internal_node_id":"0.0-5.0-20.0"},{"group":"dicyclic group of order 12","fractal_assignment":["../images/grn_prp.png","../images/wht_red.png","../images/ylw_slt.png","../images/grn_red.png","../images/gry_blk.png","../images/org_blu.png","../images/grn_blu.png","../images/red_prp.png","../images/pnk_blu.png","../images/ylw_pnk.png","../images/blu_wht.png","../images/cyn_red.png"],"mutagen_generator_assignment":[0,1],"goal":5,"start":3,"action_noise":0.15,"location_history":"[3,0,1,5]","action_history":"[0,0,1]","mutagen_history":"[0,0,1]","location_rts":"[1657,687,873]","trial_type":"fractal-mutation","trial_index":60,"time_elapsed":1202452,"internal_node_id":"0.0-5.0-21.0"},{"group":"dicyclic group of order 12","fractal_assignment":["../images/grn_prp.png","../images/wht_red.png","../images/ylw_slt.png","../images/grn_red.png","../images/gry_blk.png","../images/org_blu.png","../images/grn_blu.png","../images/red_prp.png","../images/pnk_blu.png","../images/ylw_pnk.png","../images/blu_wht.png","../images/cyn_red.png"],"mutagen_generator_assignment":[0,1],"goal":7,"start":5,"action_noise":0.15,"location_history":"[5,10,2,3,7]","action_history":"[0,1,1,1]","mutagen_history":"[0,1,1,1]","location_rts":"[1635,1093,560,506]","trial_type":"fractal-mutation","trial_index":61,"time_elapsed":1214187,"internal_node_id":"0.0-5.0-22.0"},{"group":"dicyclic group of order 12","fractal_assignment":["../images/grn_prp.png","../images/wht_red.png","../images/ylw_slt.png","../images/grn_red.png","../images/gry_blk.png","../images/org_blu.png","../images/grn_blu.png","../images/red_prp.png","../images/pnk_blu.png","../images/ylw_pnk.png","../images/blu_wht.png","../images/cyn_red.png"],"mutagen_generator_assignment":[0,1],"goal":3,"start":7,"action_noise":0.15,"location_history":"[7,11,4,9,6,10,7,8,0,1,5,10,2,6,11,3]","action_history":"[1,0,0,0,1,0,1,1,0,1,0,1,0,0,1]","mutagen_history":"[1,0,0,0,1,0,1,1,0,1,0,1,0,0,1]","location_rts":"[1630,846,446,780,665,1081,722,456,736,687,755,807,763,848,878]","trial_type":"fractal-mutation","trial_index":62,"time_elapsed":1246508,"internal_node_id":"0.0-5.0-23.0"},{"group":"dicyclic group of order 12","fractal_assignment":["../images/grn_prp.png","../images/wht_red.png","../images/ylw_slt.png","../images/grn_red.png","../images/gry_blk.png","../images/org_blu.png","../images/grn_blu.png","../images/red_prp.png","../images/pnk_blu.png","../images/ylw_pnk.png","../images/blu_wht.png","../images/cyn_red.png"],"mutagen_generator_assignment":[0,1],"goal":4,"start":3,"action_noise":0.15,"location_history":"[3,0,4]","action_history":"[0,1]","mutagen_history":"[0,1]","location_rts":"[2529,802]","trial_type":"fractal-mutation","trial_index":63,"time_elapsed":1255557,"internal_node_id":"0.0-5.0-24.0"},{"group":"dicyclic group of order 12","fractal_assignment":["../images/grn_prp.png","../images/wht_red.png","../images/ylw_slt.png","../images/grn_red.png","../images/gry_blk.png","../images/org_blu.png","../images/grn_blu.png","../images/red_prp.png","../images/pnk_blu.png","../images/ylw_pnk.png","../images/blu_wht.png","../images/cyn_red.png"],"mutagen_generator_assignment":[0,1],"goal":8,"start":4,"action_noise":0.15,"location_history":"[4,8]","action_history":"[1]","mutagen_history":"[1]","location_rts":"[1323]","trial_type":"fractal-mutation","trial_index":64,"time_elapsed":1261515,"internal_node_id":"0.0-5.0-25.0"},{"group":"dicyclic group of order 12","fractal_assignment":["../images/grn_prp.png","../images/wht_red.png","../images/ylw_slt.png","../images/grn_red.png","../images/gry_blk.png","../images/org_blu.png","../images/grn_blu.png","../images/red_prp.png","../images/pnk_blu.png","../images/ylw_pnk.png","../images/blu_wht.png","../images/cyn_red.png"],"mutagen_generator_assignment":[0,1],"goal":6,"start":8,"action_noise":0.15,"location_history":"[8,0,4,9,6]","action_history":"[1,1,0,0]","mutagen_history":"[1,1,0,0]","location_rts":"[1505,1018,1760,587]","trial_type":"fractal-mutation","trial_index":65,"time_elapsed":1274332,"internal_node_id":"0.0-5.0-26.0"},{"group":"dicyclic group of order 12","fractal_assignment":["../images/grn_prp.png","../images/wht_red.png","../images/ylw_slt.png","../images/grn_red.png","../images/gry_blk.png","../images/org_blu.png","../images/grn_blu.png","../images/red_prp.png","../images/pnk_blu.png","../images/ylw_pnk.png","../images/blu_wht.png","../images/cyn_red.png"],"mutagen_generator_assignment":[0,1],"goal":1,"start":6,"action_noise":0.15,"location_history":"[6,11,4,9,1]","action_history":"[0,0,0,1]","mutagen_history":"[0,0,0,1]","location_rts":"[1465,581,526,541]","trial_type":"fractal-mutation","trial_index":66,"time_elapsed":1285324,"internal_node_id":"0.0-5.0-27.0"},{"group":"dicyclic group of order 12","fractal_assignment":["../images/grn_prp.png","../images/wht_red.png","../images/ylw_slt.png","../images/grn_red.png","../images/gry_blk.png","../images/org_blu.png","../images/grn_blu.png","../images/red_prp.png","../images/pnk_blu.png","../images/ylw_pnk.png","../images/blu_wht.png","../images/cyn_red.png"],"mutagen_generator_assignment":[0,1],"goal":5,"start":1,"action_noise":0.15,"location_history":"[1,5]","action_history":"[1]","mutagen_history":"[1]","location_rts":"[1192]","trial_type":"fractal-mutation","trial_index":67,"time_elapsed":1291146,"internal_node_id":"0.0-5.0-28.0"},{"group":"dicyclic group of order 12","fractal_assignment":["../images/grn_prp.png","../images/wht_red.png","../images/ylw_slt.png","../images/grn_red.png","../images/gry_blk.png","../images/org_blu.png","../images/grn_blu.png","../images/red_prp.png","../images/pnk_blu.png","../images/ylw_pnk.png","../images/blu_wht.png","../images/cyn_red.png"],"mutagen_generator_assignment":[0,1],"goal":9,"start":5,"action_noise":0.15,"location_history":"[5,9]","action_history":"[1]","mutagen_history":"[1]","location_rts":"[942]","trial_type":"fractal-mutation","trial_index":68,"time_elapsed":1296729,"internal_node_id":"0.0-5.0-29.0"},{"group":"dicyclic group of order 12","fractal_assignment":["../images/grn_prp.png","../images/wht_red.png","../images/ylw_slt.png","../images/grn_red.png","../images/gry_blk.png","../images/org_blu.png","../images/grn_blu.png","../images/red_prp.png","../images/pnk_blu.png","../images/ylw_pnk.png","../images/blu_wht.png","../images/cyn_red.png"],"mutagen_generator_assignment":[0,1],"goal":10,"start":9,"action_noise":0.15,"location_history":"[9,1,2,6,11,4,8,5,9,6,11,3,0,1,2,6,10]","action_history":"[1,1,0,0,0,1,0,1,0,0,1,0,0,0,0,1]","mutagen_history":"[1,1,0,0,0,1,0,1,0,0,1,0,0,0,0,1]","location_rts":"[18363,655,690,704,599,611,782,663,417,820,692,591,561,867,1402,709]","trial_type":"fractal-mutation","trial_index":69,"time_elapsed":1347141,"internal_node_id":"0.0-5.0-30.0"},{"group":"dicyclic group of order 12","fractal_assignment":["../images/grn_prp.png","../images/wht_red.png","../images/ylw_slt.png","../images/grn_red.png","../images/gry_blk.png","../images/org_blu.png","../images/grn_blu.png","../images/red_prp.png","../images/pnk_blu.png","../images/ylw_pnk.png","../images/blu_wht.png","../images/cyn_red.png"],"mutagen_generator_assignment":[0,1],"goal":0,"start":10,"action_noise":0.15,"location_history":"[10,7,8,0]","action_history":"[0,0,1]","mutagen_history":"[0,0,1]","location_rts":"[16422,1218,988]","trial_type":"fractal-mutation","trial_index":70,"time_elapsed":1372798,"internal_node_id":"0.0-5.0-31.0"},{"group":"dicyclic group of order 12","fractal_assignment":["../images/grn_prp.png","../images/wht_red.png","../images/ylw_slt.png","../images/grn_red.png","../images/gry_blk.png","../images/org_blu.png","../images/grn_blu.png","../images/red_prp.png","../images/pnk_blu.png","../images/ylw_pnk.png","../images/blu_wht.png","../images/cyn_red.png"],"mutagen_generator_assignment":[0,1],"goal":7,"start":0,"action_noise":0.15,"location_history":"[0,4,8,5,10,7]","action_history":"[1,1,0,0,1]","mutagen_history":"[1,1,0,0,1]","location_rts":"[1235,539,822,474,541]","trial_type":"fractal-mutation","trial_index":71,"time_elapsed":1385427,"internal_node_id":"0.0-5.0-32.0"},{"group":"dicyclic group of order 12","fractal_assignment":["../images/grn_prp.png","../images/wht_red.png","../images/ylw_slt.png","../images/grn_red.png","../images/gry_blk.png","../images/org_blu.png","../images/grn_blu.png","../images/red_prp.png","../images/pnk_blu.png","../images/ylw_pnk.png","../images/blu_wht.png","../images/cyn_red.png"],"mutagen_generator_assignment":[0,1],"goal":11,"start":7,"action_noise":0.15,"location_history":"[7,11]","action_history":"[1]","mutagen_history":"[1]","location_rts":"[1406]","trial_type":"fractal-mutation","trial_index":72,"time_elapsed":1391448,"internal_node_id":"0.0-5.0-33.0"},{"group":"dicyclic group of order 12","fractal_assignment":["../images/grn_prp.png","../images/wht_red.png","../images/ylw_slt.png","../images/grn_red.png","../images/gry_blk.png","../images/org_blu.png","../images/grn_blu.png","../images/red_prp.png","../images/pnk_blu.png","../images/ylw_pnk.png","../images/blu_wht.png","../images/cyn_red.png"],"mutagen_generator_assignment":[0,1],"goal":2,"start":11,"action_noise":0.15,"location_history":"[11,4,8,5,10,2]","action_history":"[0,1,0,0,1]","mutagen_history":"[0,1,0,0,1]","location_rts":"[1148,661,522,723,1040]","trial_type":"fractal-mutation","trial_index":73,"time_elapsed":1404570,"internal_node_id":"0.0-5.0-34.0"},{"view_history":"[{\"page_index\":0,\"viewing_time\":4594}]","rt":4594,"trial_type":"instructions","trial_index":74,"time_elapsed":1410166,"internal_node_id":"0.0-6.0"},{"rt":64947,"responses":"{\"Q0\":\"To study how individuals learn patterns and become aware of object matching over time. I think this study was a good example of understanding at a certain level.\"}","trial_type":"survey-text","trial_index":75,"time_elapsed":1476119,"internal_node_id":"0.0-7.0-0.0"},{"rt":104012,"responses":"{\"Q0\":\"The visual patterns were a way to check judgement based on pattern recognition. The awareness of the patterns over time coincided with the learning curriculum over the past few days.\"}","trial_type":"survey-text","trial_index":76,"time_elapsed":1581137,"internal_node_id":"0.0-7.0-1.0"},{"rt":10101,"responses":"{\"Q0\":\"0\"}","trial_type":"survey-likert","trial_index":77,"time_elapsed":1592241,"internal_node_id":"0.0-7.0-2.0"},{"rt":51477,"responses":"{\"Q0\":\"I only noticed the coordination of certain colors, but that didn't always mean they led to the same location over time. Within the visual patterns, they were always the same. It was just a matter of learning the pattern matching.\"}","trial_type":"survey-text","trial_index":78,"time_elapsed":1644724,"internal_node_id":"0.0-7.0-3.0"},{"rt":4990,"responses":"{\"Q0\":\"Yes\"}","trial_type":"survey-multi-choice","trial_index":79,"time_elapsed":1650719,"internal_node_id":"0.0-7.0-4.0"},{"rt":18545,"responses":"{\"Q0\":\"During session 2\"}","trial_type":"survey-multi-choice","trial_index":80,"time_elapsed":1670270,"internal_node_id":"0.0-7.0-5.0"},{"rt":75491,"responses":"{\"Q0\":\"I think that the color coordination were similar in each test. The spatial recognition was based on a solid color, but the pattern recognition was based on specific patterns. One color or pattern mostly lead to the matching pattern or color consistently.\"}","trial_type":"survey-text","trial_index":81,"time_elapsed":1746767,"internal_node_id":"0.0-7.0-6.0"},{"rt":17380,"responses":"{\"Q0\":\"1\"}","trial_type":"survey-likert","trial_index":82,"time_elapsed":1765154,"internal_node_id":"0.0-7.0-7.0"},{"rt":11255,"responses":"{\"Q0\":\"Different structure\"}","trial_type":"survey-multi-choice","trial_index":83,"time_elapsed":1777415,"internal_node_id":"0.0-7.0-8.0"},{"rt":36955,"responses":"{\"Q0\":\"white door = acid, black door = ray\",\"Q1\":\"Pretty confident\"}","trial_type":"survey-multi-choice","trial_index":84,"time_elapsed":1815378,"internal_node_id":"0.0-7.0-9.0"},{"rt":20630,"responses":"{\"Q0\":\"25-35\",\"Q1\":\"Bachelor's degree\",\"Q2\":\"Male\",\"Q3\":\"White\"}","trial_type":"survey-multi-choice","trial_index":85,"time_elapsed":1837021,"internal_node_id":"0.0-8.0"},{"rt":97520,"responses":"{\"Q0\":\"Thank you so much Andrew. It has been a pleasure completing these HITs for you. I really wish it didn't end here. I have had the most fun doing these. It is rare that a requester comes along and pays appropriately for a task. I thank you so much for you generosity and I hope that you will contact myself in the future if you have any additional experiments! Best of luck and hope to hear from you soon!\"}","trial_type":"survey-text","trial_index":86,"time_elapsed":1935543,"internal_node_id":"0.0-9.0"}]