[{"view_history":"[{\"page_index\":0,\"viewing_time\":2123},{\"page_index\":1,\"viewing_time\":8816}]","rt":10941,"trial_type":"instructions","trial_index":0,"time_elapsed":10945,"internal_node_id":"0.0-0.0"},{"view_history":"[{\"page_index\":0,\"viewing_time\":4070},{\"page_index\":1,\"viewing_time\":10665}]","rt":14736,"trial_type":"instructions","trial_index":1,"time_elapsed":26683,"internal_node_id":"0.0-1.0"},{"group":"dihedral group of order 12","room_assignment":["purple","olive","pink","yellow","ivory","red","green","grey","brown","blue","orange","cyan"],"door_color_assignment":["white","black"],"door_generator_assignment":[1,0],"goal":7,"start":3,"action_noise":0.15,"location_history":"[3,4,5,0,1,7]","action_history":"[0,0,0,0,1]","door_history":"[1,1,1,1,0]","location_rts":"[3880,1184,490,601,973]","trial_type":"two-door-navigation","trial_index":2,"time_elapsed":42424,"internal_node_id":"0.0-2.0-0.0"},{"group":"dihedral group of order 12","room_assignment":["purple","olive","pink","yellow","ivory","red","green","grey","brown","blue","orange","cyan"],"door_color_assignment":["white","black"],"door_generator_assignment":[1,0],"goal":5,"start":7,"action_noise":0.15,"location_history":"[7,6,11,10,4,10,9,8,2,8,2,8,7,6,11,10,4,10,9,8,2,8,2,3,9,8,2,3,9,3,4,5]","action_history":"[0,0,0,1,1,0,0,1,1,1,1,0,0,0,0,1,1,0,0,1,1,0,0,0,0,1,0,0,1,0,0]","door_history":"[1,1,1,0,0,1,1,0,0,0,0,1,1,1,1,0,0,1,1,0,0,1,1,1,1,0,1,1,0,1,1]","location_rts":"[1104,333,321,690,437,507,503,685,394,432,543,1440,361,444,371,1678,375,690,1829,993,771,347,118,318,538,2217,378,483,697,492,357]","trial_type":"two-door-navigation","trial_index":3,"time_elapsed":97899,"internal_node_id":"0.0-2.0-1.0"},{"group":"dihedral group of order 12","room_assignment":["purple","olive","pink","yellow","ivory","red","green","grey","brown","blue","orange","cyan"],"door_color_assignment":["white","black"],"door_generator_assignment":[1,0],"goal":0,"start":5,"action_noise":0.15,"location_history":"[5,0]","action_history":"[0]","door_history":"[1]","location_rts":"[1064]","trial_type":"two-door-navigation","trial_index":4,"time_elapsed":103470,"internal_node_id":"0.0-2.0-2.0"},{"group":"dihedral group of order 12","room_assignment":["purple","olive","pink","yellow","ivory","red","green","grey","brown","blue","orange","cyan"],"door_color_assignment":["white","black"],"door_generator_assignment":[1,0],"goal":2,"start":0,"action_noise":0.15,"location_history":"[0,1,7,6,11,5,0,1,2]","action_history":"[0,1,0,0,0,0,0,0]","door_history":"[1,0,1,1,1,1,1,1]","location_rts":"[1315,2037,707,796,740,473,595,753]","trial_type":"two-door-navigation","trial_index":5,"time_elapsed":122421,"internal_node_id":"0.0-2.0-3.0"},{"group":"dihedral group of order 12","room_assignment":["purple","olive","pink","yellow","ivory","red","green","grey","brown","blue","orange","cyan"],"door_color_assignment":["white","black"],"door_generator_assignment":[1,0],"goal":10,"start":2,"action_noise":0.15,"location_history":"[2,3,4,10]","action_history":"[0,0,1]","door_history":"[1,1,0]","location_rts":"[820,1248,996]","trial_type":"two-door-navigation","trial_index":6,"time_elapsed":131992,"internal_node_id":"0.0-2.0-4.0"},{"group":"dihedral group of order 12","room_assignment":["purple","olive","pink","yellow","ivory","red","green","grey","brown","blue","orange","cyan"],"door_color_assignment":["white","black"],"door_generator_assignment":[1,0],"goal":8,"start":10,"action_noise":0.15,"location_history":"[10,9,8]","action_history":"[0,0]","door_history":"[1,1]","location_rts":"[1112,599]","trial_type":"two-door-navigation","trial_index":7,"time_elapsed":139218,"internal_node_id":"0.0-2.0-5.0"},{"group":"dihedral group of order 12","room_assignment":["purple","olive","pink","yellow","ivory","red","green","grey","brown","blue","orange","cyan"],"door_color_assignment":["white","black"],"door_generator_assignment":[1,0],"goal":11,"start":8,"action_noise":0.15,"location_history":"[8,7,6,11]","action_history":"[0,0,0]","door_history":"[1,1,1]","location_rts":"[1133,485,561]","trial_type":"two-door-navigation","trial_index":8,"time_elapsed":147908,"internal_node_id":"0.0-2.0-6.0"},{"group":"dihedral group of order 12","room_assignment":["purple","olive","pink","yellow","ivory","red","green","grey","brown","blue","orange","cyan"],"door_color_assignment":["white","black"],"door_generator_assignment":[1,0],"goal":6,"start":11,"action_noise":0.15,"location_history":"[11,10,9,8,7,6]","action_history":"[0,1,0,0,0]","door_history":"[1,0,1,1,1]","location_rts":"[817,2254,554,396,822]","trial_type":"two-door-navigation","trial_index":9,"time_elapsed":161264,"internal_node_id":"0.0-2.0-7.0"},{"group":"dihedral group of order 12","room_assignment":["purple","olive","pink","yellow","ivory","red","green","grey","brown","blue","orange","cyan"],"door_color_assignment":["white","black"],"door_generator_assignment":[1,0],"goal":4,"start":6,"action_noise":0.15,"location_history":"[6,11,10,4]","action_history":"[0,0,1]","door_history":"[1,1,0]","location_rts":"[1097,1451,1360]","trial_type":"two-door-navigation","trial_index":10,"time_elapsed":171689,"internal_node_id":"0.0-2.0-8.0"},{"group":"dihedral group of order 12","room_assignment":["purple","olive","pink","yellow","ivory","red","green","grey","brown","blue","orange","cyan"],"door_color_assignment":["white","black"],"door_generator_assignment":[1,0],"goal":1,"start":4,"action_noise":0.15,"location_history":"[4,10,4,5,0,1]","action_history":"[1,1,0,0,1]","door_history":"[0,0,1,1,0]","location_rts":"[1642,769,537,333,1351]","trial_type":"two-door-navigation","trial_index":11,"time_elapsed":184845,"internal_node_id":"0.0-2.0-9.0"},{"group":"dihedral group of order 12","room_assignment":["purple","olive","pink","yellow","ivory","red","green","grey","brown","blue","orange","cyan"],"door_color_assignment":["white","black"],"door_generator_assignment":[1,0],"goal":9,"start":1,"action_noise":0.15,"location_history":"[1,2,3,4,5,0,6,11,10,4,10,9]","action_history":"[0,0,0,0,0,1,0,0,0,0,0]","door_history":"[1,1,1,1,1,0,1,1,1,1,1]","location_rts":"[815,594,608,876,515,776,1218,637,598,372,363]","trial_type":"two-door-navigation","trial_index":12,"time_elapsed":206791,"internal_node_id":"0.0-2.0-10.0"},{"group":"dihedral group of order 12","room_assignment":["purple","olive","pink","yellow","ivory","red","green","grey","brown","blue","orange","cyan"],"door_color_assignment":["white","black"],"door_generator_assignment":[1,0],"goal":10,"start":9,"action_noise":0.15,"location_history":"[9,8,7,6,11,10]","action_history":"[1,0,0,0,0]","door_history":"[0,1,1,1,1]","location_rts":"[1531,544,353,314,704]","trial_type":"two-door-navigation","trial_index":13,"time_elapsed":218754,"internal_node_id":"0.0-2.0-11.0"},{"group":"dihedral group of order 12","room_assignment":["purple","olive","pink","yellow","ivory","red","green","grey","brown","blue","orange","cyan"],"door_color_assignment":["white","black"],"door_generator_assignment":[1,0],"goal":2,"start":10,"action_noise":0.15,"location_history":"[10,4,10,4,5,11,10,9,8,2]","action_history":"[1,1,0,0,0,0,0,0,1]","door_history":"[0,0,1,1,1,1,1,1,0]","location_rts":"[1872,692,594,349,501,591,584,480,1171]","trial_type":"two-door-navigation","trial_index":14,"time_elapsed":238112,"internal_node_id":"0.0-2.0-12.0"},{"group":"dihedral group of order 12","room_assignment":["purple","olive","pink","yellow","ivory","red","green","grey","brown","blue","orange","cyan"],"door_color_assignment":["white","black"],"door_generator_assignment":[1,0],"goal":0,"start":2,"action_noise":0.15,"location_history":"[2,8,2,8,7,6,0]","action_history":"[1,1,0,0,0,1]","door_history":"[0,0,1,1,1,0]","location_rts":"[1612,738,1000,412,554,1132]","trial_type":"two-door-navigation","trial_index":15,"time_elapsed":253085,"internal_node_id":"0.0-2.0-13.0"},{"group":"dihedral group of order 12","room_assignment":["purple","olive","pink","yellow","ivory","red","green","grey","brown","blue","orange","cyan"],"door_color_assignment":["white","black"],"door_generator_assignment":[1,0],"goal":9,"start":0,"action_noise":0.15,"location_history":"[0,1,2,3,4,5,0,1,2,8,7,6,11,10,9]","action_history":"[0,0,0,0,0,0,0,0,0,0,0,0,0,0]","door_history":"[1,1,1,1,1,1,1,1,1,1,1,1,1,1]","location_rts":"[912,582,576,671,401,446,460,431,916,830,476,508,505,386]","trial_type":"two-door-navigation","trial_index":16,"time_elapsed":278742,"internal_node_id":"0.0-2.0-14.0"},{"group":"dihedral group of order 12","room_assignment":["purple","olive","pink","yellow","ivory","red","green","grey","brown","blue","orange","cyan"],"door_color_assignment":["white","black"],"door_generator_assignment":[1,0],"goal":8,"start":9,"action_noise":0.15,"location_history":"[9,3,4,10,9,3,4,5,0,6,11,5,0,1,7,1,7,1,2,8]","action_history":"[0,0,1,0,0,0,0,0,1,0,1,0,0,1,1,0,1,0,0]","door_history":"[1,1,0,1,1,1,1,1,0,1,0,1,1,0,0,1,0,1,1]","location_rts":"[2691,1528,922,778,401,490,1220,844,1174,468,1162,454,464,903,1164,700,840,848,381]","trial_type":"two-door-navigation","trial_index":17,"time_elapsed":318750,"internal_node_id":"0.0-2.0-15.0"},{"group":"dihedral group of order 12","room_assignment":["purple","olive","pink","yellow","ivory","red","green","grey","brown","blue","orange","cyan"],"door_color_assignment":["white","black"],"door_generator_assignment":[1,0],"goal":6,"start":8,"action_noise":0.15,"location_history":"[8,7,6]","action_history":"[0,0]","door_history":"[1,1]","location_rts":"[1542,1046]","trial_type":"two-door-navigation","trial_index":18,"time_elapsed":326844,"internal_node_id":"0.0-2.0-16.0"},{"group":"dihedral group of order 12","room_assignment":["purple","olive","pink","yellow","ivory","red","green","grey","brown","blue","orange","cyan"],"door_color_assignment":["white","black"],"door_generator_assignment":[1,0],"goal":1,"start":6,"action_noise":0.15,"location_history":"[6,11,10,4,10,9,3,4,5,0,6,0,1]","action_history":"[0,0,1,1,0,0,0,0,0,1,1,0]","door_history":"[1,1,0,0,1,1,1,1,1,0,0,1]","location_rts":"[1317,647,2097,842,310,618,1705,1365,515,1487,969,309]","trial_type":"two-door-navigation","trial_index":19,"time_elapsed":354564,"internal_node_id":"0.0-2.0-17.0"},{"group":"dihedral group of order 12","room_assignment":["purple","olive","pink","yellow","ivory","red","green","grey","brown","blue","orange","cyan"],"door_color_assignment":["white","black"],"door_generator_assignment":[1,0],"goal":4,"start":1,"action_noise":0.15,"location_history":"[1,2,8,2,3,4]","action_history":"[0,1,1,0,0]","door_history":"[1,0,0,1,1]","location_rts":"[1523,1987,772,271,579]","trial_type":"two-door-navigation","trial_index":20,"time_elapsed":368216,"internal_node_id":"0.0-2.0-18.0"},{"group":"dihedral group of order 12","room_assignment":["purple","olive","pink","yellow","ivory","red","green","grey","brown","blue","orange","cyan"],"door_color_assignment":["white","black"],"door_generator_assignment":[1,0],"goal":11,"start":4,"action_noise":0.15,"location_history":"[4,5,0,6,0,6,0,1,2,3,4,10,9,8,7,6,0,1,2,3,4,10,4,10,9,8,2,8,2,3,4,5,0,6,0,1,7,1,2,8,7,6,0,1,2,3,4,5,0,6,11]","action_history":"[0,1,1,1,1,0,0,0,0,0,0,0,0,0,0,0,0,0,0,0,0,0,1,1,0,1,1,1,0,0,0,0,1,1,0,1,1,0,1,1,0,1,0,0,0,0,1,0,1,0]","door_history":"[1,0,0,0,0,1,1,1,1,1,1,1,1,1,1,1,1,1,1,1,1,1,0,0,1,0,0,0,1,1,1,1,0,0,1,0,0,1,0,0,1,0,1,1,1,1,0,1,0,1]","location_rts":"[1198,1030,1175,1096,350,805,569,367,623,1560,727,1243,654,452,484,745,500,434,1158,677,474,546,675,326,1217,1112,519,342,1248,3130,1348,865,1929,943,374,918,1406,1610,884,461,528,1274,1811,835,1104,833,1569,994,1051,1047]","trial_type":"two-door-navigation","trial_index":21,"time_elapsed":469113,"internal_node_id":"0.0-2.0-19.0"},{"group":"dihedral group of order 12","room_assignment":["purple","olive","pink","yellow","ivory","red","green","grey","brown","blue","orange","cyan"],"door_color_assignment":["white","black"],"door_generator_assignment":[1,0],"goal":3,"start":11,"action_noise":0.15,"location_history":"[11,10,4,10,9,3]","action_history":"[0,1,1,0,1]","door_history":"[1,0,0,1,0]","location_rts":"[2408,942,684,10429,9278]","trial_type":"two-door-navigation","trial_index":22,"time_elapsed":501448,"internal_node_id":"0.0-2.0-20.0"},{"group":"dihedral group of order 12","room_assignment":["purple","olive","pink","yellow","ivory","red","green","grey","brown","blue","orange","cyan"],"door_color_assignment":["white","black"],"door_generator_assignment":[1,0],"goal":5,"start":3,"action_noise":0.15,"location_history":"[3,4,5]","action_history":"[0,0]","door_history":"[1,1]","location_rts":"[1567,739]","trial_type":"two-door-navigation","trial_index":23,"time_elapsed":509273,"internal_node_id":"0.0-2.0-21.0"},{"group":"dihedral group of order 12","room_assignment":["purple","olive","pink","yellow","ivory","red","green","grey","brown","blue","orange","cyan"],"door_color_assignment":["white","black"],"door_generator_assignment":[1,0],"goal":7,"start":5,"action_noise":0.15,"location_history":"[5,11,5,0,6,0,1,7]","action_history":"[1,1,0,1,1,0,1]","door_history":"[0,0,1,0,0,1,0]","location_rts":"[1572,543,925,1209,554,767,1213]","trial_type":"two-door-navigation","trial_index":24,"time_elapsed":526579,"internal_node_id":"0.0-2.0-22.0"},{"group":"dihedral group of order 12","room_assignment":["purple","olive","pink","yellow","ivory","red","green","grey","brown","blue","orange","cyan"],"door_color_assignment":["white","black"],"door_generator_assignment":[1,0],"goal":3,"start":7,"action_noise":0.15,"location_history":"[7,1,7,6,0,1,2,3]","action_history":"[1,1,0,0,0,0,0]","door_history":"[0,0,1,1,1,1,1]","location_rts":"[2096,1179,798,527,407,353,459]","trial_type":"two-door-navigation","trial_index":25,"time_elapsed":542921,"internal_node_id":"0.0-2.0-23.0"},{"group":"dihedral group of order 12","room_assignment":["purple","olive","pink","yellow","ivory","red","green","grey","brown","blue","orange","cyan"],"door_color_assignment":["white","black"],"door_generator_assignment":[1,0],"goal":4,"start":3,"action_noise":0.15,"location_history":"[3,4]","action_history":"[0]","door_history":"[1]","location_rts":"[2326]","trial_type":"two-door-navigation","trial_index":26,"time_elapsed":549756,"internal_node_id":"0.0-2.0-24.0"},{"group":"dihedral group of order 12","room_assignment":["purple","olive","pink","yellow","ivory","red","green","grey","brown","blue","orange","cyan"],"door_color_assignment":["white","black"],"door_generator_assignment":[1,0],"goal":8,"start":4,"action_noise":0.15,"location_history":"[4,5,0,6,11,10,9,3,4,5,11,5,0,6,11,10,4,5,0,1,7,1,2,8]","action_history":"[0,0,1,1,0,0,0,0,0,0,1,0,1,0,0,0,0,0,0,1,1,0,1]","door_history":"[1,1,0,0,1,1,1,1,1,1,0,1,0,1,1,1,1,1,1,0,0,1,0]","location_rts":"[1660,746,2263,986,824,1120,348,473,716,545,1332,723,1457,493,423,568,535,468,918,1387,832,298,787]","trial_type":"two-door-navigation","trial_index":27,"time_elapsed":596251,"internal_node_id":"0.0-2.0-25.0"},{"group":"dihedral group of order 12","room_assignment":["purple","olive","pink","yellow","ivory","red","green","grey","brown","blue","orange","cyan"],"door_color_assignment":["white","black"],"door_generator_assignment":[1,0],"goal":6,"start":8,"action_noise":0.15,"location_history":"[8,7,1,2,3,9,8,7,6]","action_history":"[0,0,0,1,0,0,0,0]","door_history":"[1,1,1,0,1,1,1,1]","location_rts":"[1157,1512,1476,972,535,337,314,484]","trial_type":"two-door-navigation","trial_index":28,"time_elapsed":614569,"internal_node_id":"0.0-2.0-26.0"},{"group":"dihedral group of order 12","room_assignment":["purple","olive","pink","yellow","ivory","red","green","grey","brown","blue","orange","cyan"],"door_color_assignment":["white","black"],"door_generator_assignment":[1,0],"goal":1,"start":6,"action_noise":0.15,"location_history":"[6,0,6,0,1]","action_history":"[1,1,1,0]","door_history":"[0,0,0,1]","location_rts":"[2157,628,453,245]","trial_type":"two-door-navigation","trial_index":29,"time_elapsed":625586,"internal_node_id":"0.0-2.0-27.0"},{"group":"dihedral group of order 12","room_assignment":["purple","olive","pink","yellow","ivory","red","green","grey","brown","blue","orange","cyan"],"door_color_assignment":["white","black"],"door_generator_assignment":[1,0],"goal":5,"start":1,"action_noise":0.15,"location_history":"[1,7,6,11,10,4,5]","action_history":"[1,0,0,0,1,1]","door_history":"[0,1,1,1,0,0]","location_rts":"[1603,484,368,462,655,380]","trial_type":"two-door-navigation","trial_index":30,"time_elapsed":639068,"internal_node_id":"0.0-2.0-28.0"},{"group":"dihedral group of order 12","room_assignment":["purple","olive","pink","yellow","ivory","red","green","grey","brown","blue","orange","cyan"],"door_color_assignment":["white","black"],"door_generator_assignment":[1,0],"goal":9,"start":5,"action_noise":0.15,"location_history":"[5,11,5,11,5,0,1,2,3,4,10,9]","action_history":"[0,1,1,0,0,0,0,0,0,1,0]","door_history":"[1,0,0,1,1,1,1,1,1,0,1]","location_rts":"[1422,812,832,687,327,888,902,1544,660,851,906]","trial_type":"two-door-navigation","trial_index":31,"time_elapsed":663453,"internal_node_id":"0.0-2.0-29.0"},{"group":"dihedral group of order 12","room_assignment":["purple","olive","pink","yellow","ivory","red","green","grey","brown","blue","orange","cyan"],"door_color_assignment":["white","black"],"door_generator_assignment":[1,0],"goal":10,"start":9,"action_noise":0.15,"location_history":"[9,8,7,1,7,1,2,3,4,5,0,1,7,6,11,5,0,1,2,3,4,5,0,1,7,6,0,6,0,1,2,8,7,6,11,5,11,10]","action_history":"[0,1,1,1,1,0,0,0,0,0,0,0,0,0,1,0,0,0,0,0,0,0,0,0,0,0,1,1,0,0,1,0,0,0,1,1,0]","door_history":"[1,0,0,0,0,1,1,1,1,1,1,1,1,1,0,1,1,1,1,1,1,1,1,1,1,1,0,0,1,1,0,1,1,1,0,0,1]","location_rts":"[2107,772,524,388,409,467,237,1089,513,742,441,390,712,1622,1424,1263,721,941,567,1012,585,612,561,823,679,737,1151,469,605,990,1389,466,520,646,1063,1209,613]","trial_type":"two-door-navigation","trial_index":32,"time_elapsed":733579,"internal_node_id":"0.0-2.0-30.0"},{"group":"dihedral group of order 12","room_assignment":["purple","olive","pink","yellow","ivory","red","green","grey","brown","blue","orange","cyan"],"door_color_assignment":["white","black"],"door_generator_assignment":[1,0],"goal":0,"start":10,"action_noise":0.15,"location_history":"[10,9,8,7,6,11,5,11,10,9,8,2,8,7,1,2,3,4,5,11,10,4,5,0]","action_history":"[0,0,0,0,0,1,1,0,0,0,1,1,0,1,0,0,0,0,1,0,1,0,0]","door_history":"[1,1,1,1,1,0,0,1,1,1,0,0,1,0,1,1,1,1,0,1,0,1,1]","location_rts":"[1113,923,585,525,532,982,446,473,899,596,1112,1168,236,1933,904,1021,915,1232,1167,666,1389,628,407]","trial_type":"two-door-navigation","trial_index":33,"time_elapsed":780031,"internal_node_id":"0.0-2.0-31.0"},{"group":"dihedral group of order 12","room_assignment":["purple","olive","pink","yellow","ivory","red","green","grey","brown","blue","orange","cyan"],"door_color_assignment":["white","black"],"door_generator_assignment":[1,0],"goal":7,"start":0,"action_noise":0.15,"location_history":"[0,1,7]","action_history":"[0,1]","door_history":"[1,0]","location_rts":"[2497,1305]","trial_type":"two-door-navigation","trial_index":34,"time_elapsed":789347,"internal_node_id":"0.0-2.0-32.0"},{"group":"dihedral group of order 12","room_assignment":["purple","olive","pink","yellow","ivory","red","green","grey","brown","blue","orange","cyan"],"door_color_assignment":["white","black"],"door_generator_assignment":[1,0],"goal":11,"start":7,"action_noise":0.15,"location_history":"[7,6,11]","action_history":"[0,0]","door_history":"[1,1]","location_rts":"[3310,813]","trial_type":"two-door-navigation","trial_index":35,"time_elapsed":798980,"internal_node_id":"0.0-2.0-33.0"},{"group":"dihedral group of order 12","room_assignment":["purple","olive","pink","yellow","ivory","red","green","grey","brown","blue","orange","cyan"],"door_color_assignment":["white","black"],"door_generator_assignment":[1,0],"goal":2,"start":11,"action_noise":0.15,"location_history":"[11,5,11,10,4,10,4,5,0,1,2]","action_history":"[1,1,0,1,0,0,0,0,1,0]","door_history":"[0,0,1,0,1,1,1,1,0,1]","location_rts":"[1860,726,413,1656,691,466,769,1619,2457,1867]","trial_type":"two-door-navigation","trial_index":36,"time_elapsed":825057,"internal_node_id":"0.0-2.0-34.0"},{"view_history":"[{\"page_index\":0,\"viewing_time\":1721}]","rt":1733,"trial_type":"instructions","trial_index":37,"time_elapsed":827790,"internal_node_id":"0.0-3.0"},{"view_history":"[{\"page_index\":0,\"viewing_time\":1468},{\"page_index\":1,\"viewing_time\":3426}]","rt":4895,"trial_type":"instructions","trial_index":38,"time_elapsed":833685,"internal_node_id":"0.0-4.0"},{"group":"dicyclic group of order 12","fractal_assignment":["../images/red_prp.png","../images/cyn_red.png","../images/ylw_slt.png","../images/pnk_blu.png","../images/ylw_pnk.png","../images/grn_red.png","../images/grn_prp.png","../images/grn_blu.png","../images/gry_blk.png","../images/blu_wht.png","../images/wht_red.png","../images/org_blu.png"],"mutagen_generator_assignment":[0,1],"goal":7,"start":3,"action_noise":0.15,"location_history":"[3,7]","action_history":"[1]","mutagen_history":"[1]","location_rts":"[3552]","trial_type":"fractal-mutation","trial_index":39,"time_elapsed":842055,"internal_node_id":"0.0-5.0-0.0"},{"group":"dicyclic group of order 12","fractal_assignment":["../images/red_prp.png","../images/cyn_red.png","../images/ylw_slt.png","../images/pnk_blu.png","../images/ylw_pnk.png","../images/grn_red.png","../images/grn_prp.png","../images/grn_blu.png","../images/gry_blk.png","../images/blu_wht.png","../images/wht_red.png","../images/org_blu.png"],"mutagen_generator_assignment":[0,1],"goal":5,"start":7,"action_noise":0.15,"location_history":"[7,11,3,7,11,4,9,1,5]","action_history":"[1,1,1,1,0,1,1,1]","mutagen_history":"[1,1,1,1,0,1,1,1]","location_rts":"[1648,443,958,801,447,540,363,377]","trial_type":"fractal-mutation","trial_index":40,"time_elapsed":861036,"internal_node_id":"0.0-5.0-1.0"},{"group":"dicyclic group of order 12","fractal_assignment":["../images/red_prp.png","../images/cyn_red.png","../images/ylw_slt.png","../images/pnk_blu.png","../images/ylw_pnk.png","../images/grn_red.png","../images/grn_prp.png","../images/grn_blu.png","../images/gry_blk.png","../images/blu_wht.png","../images/wht_red.png","../images/org_blu.png"],"mutagen_generator_assignment":[0,1],"goal":0,"start":5,"action_noise":0.15,"location_history":"[5,10,2,6,11,3,7,11,4,8,0]","action_history":"[0,1,1,1,1,1,1,0,1,1]","mutagen_history":"[0,1,1,1,1,1,1,0,1,1]","location_rts":"[1581,551,327,349,435,566,597,444,505,319]","trial_type":"fractal-mutation","trial_index":41,"time_elapsed":882000,"internal_node_id":"0.0-5.0-2.0"},{"group":"dicyclic group of order 12","fractal_assignment":["../images/red_prp.png","../images/cyn_red.png","../images/ylw_slt.png","../images/pnk_blu.png","../images/ylw_pnk.png","../images/grn_red.png","../images/grn_prp.png","../images/grn_blu.png","../images/gry_blk.png","../images/blu_wht.png","../images/wht_red.png","../images/org_blu.png"],"mutagen_generator_assignment":[0,1],"goal":2,"start":0,"action_noise":0.15,"location_history":"[0,1,5,9,1,5,9,6,11,3,7,11,4,8,0,4,9,6,10,2]","action_history":"[0,1,1,1,1,0,0,1,1,1,1,0,1,1,1,0,0,1,1]","mutagen_history":"[0,1,1,1,1,0,0,1,1,1,1,0,1,1,1,0,0,1,1]","location_rts":"[1184,645,373,362,640,534,1124,485,313,401,345,841,1124,378,360,895,756,808,514]","trial_type":"fractal-mutation","trial_index":42,"time_elapsed":920066,"internal_node_id":"0.0-5.0-3.0"},{"group":"dicyclic group of order 12","fractal_assignment":["../images/red_prp.png","../images/cyn_red.png","../images/ylw_slt.png","../images/pnk_blu.png","../images/ylw_pnk.png","../images/grn_red.png","../images/grn_prp.png","../images/grn_blu.png","../images/gry_blk.png","../images/blu_wht.png","../images/wht_red.png","../images/org_blu.png"],"mutagen_generator_assignment":[0,1],"goal":10,"start":2,"action_noise":0.15,"location_history":"[2,6,11,3,7,11,3,0,4,8,0,1,5,9,6,10]","action_history":"[1,1,1,1,1,1,0,1,1,0,0,1,1,1,1]","mutagen_history":"[1,1,1,1,1,1,0,1,1,0,0,1,1,1,1]","location_rts":"[927,201,385,346,355,593,429,639,426,1141,691,1827,395,712,593]","trial_type":"fractal-mutation","trial_index":43,"time_elapsed":951047,"internal_node_id":"0.0-5.0-4.0"},{"group":"dicyclic group of order 12","fractal_assignment":["../images/red_prp.png","../images/cyn_red.png","../images/ylw_slt.png","../images/pnk_blu.png","../images/ylw_pnk.png","../images/grn_red.png","../images/grn_prp.png","../images/grn_blu.png","../images/gry_blk.png","../images/blu_wht.png","../images/wht_red.png","../images/org_blu.png"],"mutagen_generator_assignment":[0,1],"goal":8,"start":10,"action_noise":0.15,"location_history":"[10,7,11,3,0,1,5,10,7,8]","action_history":"[0,1,1,0,1,1,0,0,0]","mutagen_history":"[0,1,1,0,1,1,0,0,0]","location_rts":"[1144,815,475,442,874,309,1479,1432,675]","trial_type":"fractal-mutation","trial_index":44,"time_elapsed":972509,"internal_node_id":"0.0-5.0-5.0"},{"group":"dicyclic group of order 12","fractal_assignment":["../images/red_prp.png","../images/cyn_red.png","../images/ylw_slt.png","../images/pnk_blu.png","../images/ylw_pnk.png","../images/grn_red.png","../images/grn_prp.png","../images/grn_blu.png","../images/gry_blk.png","../images/blu_wht.png","../images/wht_red.png","../images/org_blu.png"],"mutagen_generator_assignment":[0,1],"goal":11,"start":8,"action_noise":0.15,"location_history":"[8,0,4,8,5,9,1,5,10,2,6,11]","action_history":"[1,1,1,0,1,1,1,0,1,1,1]","mutagen_history":"[1,1,1,0,1,1,1,0,1,1,1]","location_rts":"[1042,490,359,713,506,583,548,429,1435,442,397]","trial_type":"fractal-mutation","trial_index":45,"time_elapsed":996015,"internal_node_id":"0.0-5.0-6.0"},{"group":"dicyclic group of order 12","fractal_assignment":["../images/red_prp.png","../images/cyn_red.png","../images/ylw_slt.png","../images/pnk_blu.png","../images/ylw_pnk.png","../images/grn_red.png","../images/grn_prp.png","../images/grn_blu.png","../images/gry_blk.png","../images/blu_wht.png","../images/wht_red.png","../images/org_blu.png"],"mutagen_generator_assignment":[0,1],"goal":6,"start":11,"action_noise":0.15,"location_history":"[11,3,7,8,0,1,2,3,7,11,4,8,0,1,2,6]","action_history":"[1,1,0,1,1,0,1,1,1,0,0,1,0,0,1]","mutagen_history":"[1,1,0,1,1,0,1,1,1,0,0,1,0,0,1]","location_rts":"[1130,370,775,620,350,481,750,406,420,760,1167,727,494,743,476]","trial_type":"fractal-mutation","trial_index":46,"time_elapsed":1026751,"internal_node_id":"0.0-5.0-7.0"},{"group":"dicyclic group of order 12","fractal_assignment":["../images/red_prp.png","../images/cyn_red.png","../images/ylw_slt.png","../images/pnk_blu.png","../images/ylw_pnk.png","../images/grn_red.png","../images/grn_prp.png","../images/grn_blu.png","../images/gry_blk.png","../images/blu_wht.png","../images/wht_red.png","../images/org_blu.png"],"mutagen_generator_assignment":[0,1],"goal":4,"start":6,"action_noise":0.15,"location_history":"[6,11,3,7,11,4]","action_history":"[0,1,1,1,0]","mutagen_history":"[0,1,1,1,0]","location_rts":"[1474,850,855,332,462]","trial_type":"fractal-mutation","trial_index":47,"time_elapsed":1040004,"internal_node_id":"0.0-5.0-8.0"},{"group":"dicyclic group of order 12","fractal_assignment":["../images/red_prp.png","../images/cyn_red.png","../images/ylw_slt.png","../images/pnk_blu.png","../images/ylw_pnk.png","../images/grn_red.png","../images/grn_prp.png","../images/grn_blu.png","../images/gry_blk.png","../images/blu_wht.png","../images/wht_red.png","../images/org_blu.png"],"mutagen_generator_assignment":[0,1],"goal":1,"start":4,"action_noise":0.15,"location_history":"[4,8,5,10,7,11,3,7,8,5,9,1]","action_history":"[1,1,0,1,1,1,1,0,0,1,1]","mutagen_history":"[1,1,0,1,1,1,1,0,0,1,1]","location_rts":"[1216,755,527,438,377,452,552,625,1061,538,397]","trial_type":"fractal-mutation","trial_index":48,"time_elapsed":1063390,"internal_node_id":"0.0-5.0-9.0"},{"group":"dicyclic group of order 12","fractal_assignment":["../images/red_prp.png","../images/cyn_red.png","../images/ylw_slt.png","../images/pnk_blu.png","../images/ylw_pnk.png","../images/grn_red.png","../images/grn_prp.png","../images/grn_blu.png","../images/gry_blk.png","../images/blu_wht.png","../images/wht_red.png","../images/org_blu.png"],"mutagen_generator_assignment":[0,1],"goal":9,"start":1,"action_noise":0.15,"location_history":"[1,2,3,7,8,5,9]","action_history":"[0,1,1,0,0,1]","mutagen_history":"[0,1,1,0,0,1]","location_rts":"[1481,578,324,540,1062,574]","trial_type":"fractal-mutation","trial_index":49,"time_elapsed":1078370,"internal_node_id":"0.0-5.0-10.0"},{"group":"dicyclic group of order 12","fractal_assignment":["../images/red_prp.png","../images/cyn_red.png","../images/ylw_slt.png","../images/pnk_blu.png","../images/ylw_pnk.png","../images/grn_red.png","../images/grn_prp.png","../images/grn_blu.png","../images/gry_blk.png","../images/blu_wht.png","../images/wht_red.png","../images/org_blu.png"],"mutagen_generator_assignment":[0,1],"goal":10,"start":9,"action_noise":0.15,"location_history":"[9,1,5,9,6,11,4,8,0,4,9,1,5,9,6,10]","action_history":"[1,1,1,0,0,0,1,1,1,0,1,1,1,0,1]","mutagen_history":"[1,1,1,0,0,0,1,1,1,0,1,1,1,0,1]","location_rts":"[1910,508,901,578,1183,3472,2279,370,354,517,674,1013,356,640,539]","trial_type":"fractal-mutation","trial_index":50,"time_elapsed":1114876,"internal_node_id":"0.0-5.0-11.0"},{"group":"dicyclic group of order 12","fractal_assignment":["../images/red_prp.png","../images/cyn_red.png","../images/ylw_slt.png","../images/pnk_blu.png","../images/ylw_pnk.png","../images/grn_red.png","../images/grn_prp.png","../images/grn_blu.png","../images/gry_blk.png","../images/blu_wht.png","../images/wht_red.png","../images/org_blu.png"],"mutagen_generator_assignment":[0,1],"goal":2,"start":10,"action_noise":0.15,"location_history":"[10,7,8,5,10,7,11,4,8,0,4,8,0,1,5,10,2]","action_history":"[0,0,0,0,1,1,0,1,1,0,1,1,0,0,1,1]","mutagen_history":"[0,0,0,0,1,1,0,1,1,0,1,1,0,0,1,1]","location_rts":"[1191,898,811,1214,1011,457,529,685,411,619,692,847,549,1769,644,467]","trial_type":"fractal-mutation","trial_index":51,"time_elapsed":1149323,"internal_node_id":"0.0-5.0-12.0"},{"group":"dicyclic group of order 12","fractal_assignment":["../images/red_prp.png","../images/cyn_red.png","../images/ylw_slt.png","../images/pnk_blu.png","../images/ylw_pnk.png","../images/grn_red.png","../images/grn_prp.png","../images/grn_blu.png","../images/gry_blk.png","../images/blu_wht.png","../images/wht_red.png","../images/org_blu.png"],"mutagen_generator_assignment":[0,1],"goal":0,"start":2,"action_noise":0.15,"location_history":"[2,3,0]","action_history":"[0,0]","mutagen_history":"[0,0]","location_rts":"[1320,1108]","trial_type":"fractal-mutation","trial_index":52,"time_elapsed":1157277,"internal_node_id":"0.0-5.0-13.0"},{"group":"dicyclic group of order 12","fractal_assignment":["../images/red_prp.png","../images/cyn_red.png","../images/ylw_slt.png","../images/pnk_blu.png","../images/ylw_pnk.png","../images/grn_red.png","../images/grn_prp.png","../images/grn_blu.png","../images/gry_blk.png","../images/blu_wht.png","../images/wht_red.png","../images/org_blu.png"],"mutagen_generator_assignment":[0,1],"goal":9,"start":0,"action_noise":0.15,"location_history":"[0,1,2,6,10,7,8,5,9]","action_history":"[0,0,1,1,1,0,0,1]","mutagen_history":"[0,0,1,1,1,0,0,1]","location_rts":"[1407,1297,619,349,340,567,1241,604]","trial_type":"fractal-mutation","trial_index":53,"time_elapsed":1176279,"internal_node_id":"0.0-5.0-14.0"},{"group":"dicyclic group of order 12","fractal_assignment":["../images/red_prp.png","../images/cyn_red.png","../images/ylw_slt.png","../images/pnk_blu.png","../images/ylw_pnk.png","../images/grn_red.png","../images/grn_prp.png","../images/grn_blu.png","../images/gry_blk.png","../images/blu_wht.png","../images/wht_red.png","../images/org_blu.png"],"mutagen_generator_assignment":[0,1],"goal":8,"start":9,"action_noise":0.15,"location_history":"[9,6,10,2,6,11,3,7,11,4,8]","action_history":"[0,1,1,1,0,1,1,1,0,1]","mutagen_history":"[0,1,1,1,0,1,1,1,0,1]","location_rts":"[1093,1299,338,458,515,581,415,357,556,442]","trial_type":"fractal-mutation","trial_index":54,"time_elapsed":1197528,"internal_node_id":"0.0-5.0-15.0"},{"group":"dicyclic group of order 12","fractal_assignment":["../images/red_prp.png","../images/cyn_red.png","../images/ylw_slt.png","../images/pnk_blu.png","../images/ylw_pnk.png","../images/grn_red.png","../images/grn_prp.png","../images/grn_blu.png","../images/gry_blk.png","../images/blu_wht.png","../images/wht_red.png","../images/org_blu.png"],"mutagen_generator_assignment":[0,1],"goal":6,"start":8,"action_noise":0.15,"location_history":"[8,5,10,2,6]","action_history":"[0,0,1,1]","mutagen_history":"[0,0,1,1]","location_rts":"[2430,1176,1103,506]","trial_type":"fractal-mutation","trial_index":55,"time_elapsed":1210662,"internal_node_id":"0.0-5.0-16.0"},{"group":"dicyclic group of order 12","fractal_assignment":["../images/red_prp.png","../images/cyn_red.png","../images/ylw_slt.png","../images/pnk_blu.png","../images/ylw_pnk.png","../images/grn_red.png","../images/grn_prp.png","../images/grn_blu.png","../images/gry_blk.png","../images/blu_wht.png","../images/wht_red.png","../images/org_blu.png"],"mutagen_generator_assignment":[0,1],"goal":1,"start":6,"action_noise":0.15,"location_history":"[6,11,3,0,4,9,1]","action_history":"[0,1,0,1,1,1]","mutagen_history":"[0,1,0,1,1,1]","location_rts":"[1512,647,647,1957,319,428]","trial_type":"fractal-mutation","trial_index":56,"time_elapsed":1226566,"internal_node_id":"0.0-5.0-17.0"},{"group":"dicyclic group of order 12","fractal_assignment":["../images/red_prp.png","../images/cyn_red.png","../images/ylw_slt.png","../images/pnk_blu.png","../images/ylw_pnk.png","../images/grn_red.png","../images/grn_prp.png","../images/grn_blu.png","../images/gry_blk.png","../images/blu_wht.png","../images/wht_red.png","../images/org_blu.png"],"mutagen_generator_assignment":[0,1],"goal":4,"start":1,"action_noise":0.15,"location_history":"[1,2,6,11,3,7,8,0,4]","action_history":"[0,1,1,1,1,1,0,1]","mutagen_history":"[0,1,1,1,1,1,0,1]","location_rts":"[2831,579,333,402,563,473,469,694]","trial_type":"fractal-mutation","trial_index":57,"time_elapsed":1245661,"internal_node_id":"0.0-5.0-18.0"},{"group":"dicyclic group of order 12","fractal_assignment":["../images/red_prp.png","../images/cyn_red.png","../images/ylw_slt.png","../images/pnk_blu.png","../images/ylw_pnk.png","../images/grn_red.png","../images/grn_prp.png","../images/grn_blu.png","../images/gry_blk.png","../images/blu_wht.png","../images/wht_red.png","../images/org_blu.png"],"mutagen_generator_assignment":[0,1],"goal":11,"start":4,"action_noise":0.15,"location_history":"[4,9,1,5,9,1,5,9,1,2,6,10,2,6,11]","action_history":"[0,1,1,1,1,1,1,0,0,1,1,1,1,0]","mutagen_history":"[0,1,1,1,1,1,1,0,0,1,1,1,1,0]","location_rts":"[1496,635,336,401,424,389,426,592,985,473,331,440,496,475]","trial_type":"fractal-mutation","trial_index":58,"time_elapsed":1273360,"internal_node_id":"0.0-5.0-19.0"},{"group":"dicyclic group of order 12","fractal_assignment":["../images/red_prp.png","../images/cyn_red.png","../images/ylw_slt.png","../images/pnk_blu.png","../images/ylw_pnk.png","../images/grn_red.png","../images/grn_prp.png","../images/grn_blu.png","../images/gry_blk.png","../images/blu_wht.png","../images/wht_red.png","../images/org_blu.png"],"mutagen_generator_assignment":[0,1],"goal":3,"start":11,"action_noise":0.15,"location_history":"[11,4,8,5,10,2,3]","action_history":"[0,1,0,0,1,1]","mutagen_history":"[0,1,0,0,1,1]","location_rts":"[1492,1234,486,771,940,283]","trial_type":"fractal-mutation","trial_index":59,"time_elapsed":1288957,"internal_node_id":"0.0-5.0-20.0"},{"group":"dicyclic group of order 12","fractal_assignment":["../images/red_prp.png","../images/cyn_red.png","../images/ylw_slt.png","../images/pnk_blu.png","../images/ylw_pnk.png","../images/grn_red.png","../images/grn_prp.png","../images/grn_blu.png","../images/gry_blk.png","../images/blu_wht.png","../images/wht_red.png","../images/org_blu.png"],"mutagen_generator_assignment":[0,1],"goal":5,"start":3,"action_noise":0.15,"location_history":"[3,0,4,9,1,5]","action_history":"[1,1,0,1,1]","mutagen_history":"[1,1,0,1,1]","location_rts":"[1297,379,711,772,395]","trial_type":"fractal-mutation","trial_index":60,"time_elapsed":1301925,"internal_node_id":"0.0-5.0-21.0"},{"group":"dicyclic group of order 12","fractal_assignment":["../images/red_prp.png","../images/cyn_red.png","../images/ylw_slt.png","../images/pnk_blu.png","../images/ylw_pnk.png","../images/grn_red.png","../images/grn_prp.png","../images/grn_blu.png","../images/gry_blk.png","../images/blu_wht.png","../images/wht_red.png","../images/org_blu.png"],"mutagen_generator_assignment":[0,1],"goal":7,"start":5,"action_noise":0.15,"location_history":"[5,9,1,5,10,2,3,7]","action_history":"[0,1,1,0,1,1,1]","mutagen_history":"[0,1,1,0,1,1,1]","location_rts":"[977,704,382,455,681,371,316]","trial_type":"fractal-mutation","trial_index":61,"time_elapsed":1317493,"internal_node_id":"0.0-5.0-22.0"},{"group":"dicyclic group of order 12","fractal_assignment":["../images/red_prp.png","../images/cyn_red.png","../images/ylw_slt.png","../images/pnk_blu.png","../images/ylw_pnk.png","../images/grn_red.png","../images/grn_prp.png","../images/grn_blu.png","../images/gry_blk.png","../images/blu_wht.png","../images/wht_red.png","../images/org_blu.png"],"mutagen_generator_assignment":[0,1],"goal":3,"start":7,"action_noise":0.15,"location_history":"[7,11,3]","action_history":"[0,1]","mutagen_history":"[0,1]","location_rts":"[2729,771]","trial_type":"fractal-mutation","trial_index":62,"time_elapsed":1326692,"internal_node_id":"0.0-5.0-23.0"},{"group":"dicyclic group of order 12","fractal_assignment":["../images/red_prp.png","../images/cyn_red.png","../images/ylw_slt.png","../images/pnk_blu.png","../images/ylw_pnk.png","../images/grn_red.png","../images/grn_prp.png","../images/grn_blu.png","../images/gry_blk.png","../images/blu_wht.png","../images/wht_red.png","../images/org_blu.png"],"mutagen_generator_assignment":[0,1],"goal":4,"start":3,"action_noise":0.15,"location_history":"[3,0,4]","action_history":"[0,1]","mutagen_history":"[0,1]","location_rts":"[1200,521]","trial_type":"fractal-mutation","trial_index":63,"time_elapsed":1334118,"internal_node_id":"0.0-5.0-24.0"},{"group":"dicyclic group of order 12","fractal_assignment":["../images/red_prp.png","../images/cyn_red.png","../images/ylw_slt.png","../images/pnk_blu.png","../images/ylw_pnk.png","../images/grn_red.png","../images/grn_prp.png","../images/grn_blu.png","../images/gry_blk.png","../images/blu_wht.png","../images/wht_red.png","../images/org_blu.png"],"mutagen_generator_assignment":[0,1],"goal":8,"start":4,"action_noise":0.15,"location_history":"[4,8]","action_history":"[1]","mutagen_history":"[1]","location_rts":"[1096]","trial_type":"fractal-mutation","trial_index":64,"time_elapsed":1339902,"internal_node_id":"0.0-5.0-25.0"},{"group":"dicyclic group of order 12","fractal_assignment":["../images/red_prp.png","../images/cyn_red.png","../images/ylw_slt.png","../images/pnk_blu.png","../images/ylw_pnk.png","../images/grn_red.png","../images/grn_prp.png","../images/grn_blu.png","../images/gry_blk.png","../images/blu_wht.png","../images/wht_red.png","../images/org_blu.png"],"mutagen_generator_assignment":[0,1],"goal":6,"start":8,"action_noise":0.15,"location_history":"[8,5,10,2,6]","action_history":"[0,0,1,1]","mutagen_history":"[0,0,1,1]","location_rts":"[2702,1079,423,477]","trial_type":"fractal-mutation","trial_index":65,"time_elapsed":1352563,"internal_node_id":"0.0-5.0-26.0"},{"group":"dicyclic group of order 12","fractal_assignment":["../images/red_prp.png","../images/cyn_red.png","../images/ylw_slt.png","../images/pnk_blu.png","../images/ylw_pnk.png","../images/grn_red.png","../images/grn_prp.png","../images/grn_blu.png","../images/gry_blk.png","../images/blu_wht.png","../images/wht_red.png","../images/org_blu.png"],"mutagen_generator_assignment":[0,1],"goal":1,"start":6,"action_noise":0.15,"location_history":"[6,11,3,7,8,5,9,1]","action_history":"[0,1,1,0,0,1,1]","mutagen_history":"[0,1,1,0,0,1,1]","location_rts":"[1457,867,831,900,1159,598,401]","trial_type":"fractal-mutation","trial_index":66,"time_elapsed":1370388,"internal_node_id":"0.0-5.0-27.0"},{"group":"dicyclic group of order 12","fractal_assignment":["../images/red_prp.png","../images/cyn_red.png","../images/ylw_slt.png","../images/pnk_blu.png","../images/ylw_pnk.png","../images/grn_red.png","../images/grn_prp.png","../images/grn_blu.png","../images/gry_blk.png","../images/blu_wht.png","../images/wht_red.png","../images/org_blu.png"],"mutagen_generator_assignment":[0,1],"goal":5,"start":1,"action_noise":0.15,"location_history":"[1,5]","action_history":"[1]","mutagen_history":"[1]","location_rts":"[1378]","trial_type":"fractal-mutation","trial_index":67,"time_elapsed":1376455,"internal_node_id":"0.0-5.0-28.0"},{"group":"dicyclic group of order 12","fractal_assignment":["../images/red_prp.png","../images/cyn_red.png","../images/ylw_slt.png","../images/pnk_blu.png","../images/ylw_pnk.png","../images/grn_red.png","../images/grn_prp.png","../images/grn_blu.png","../images/gry_blk.png","../images/blu_wht.png","../images/wht_red.png","../images/org_blu.png"],"mutagen_generator_assignment":[0,1],"goal":9,"start":5,"action_noise":0.15,"location_history":"[5,10,2,6,11,3,7,11,4,9]","action_history":"[0,1,1,1,1,1,1,0,0]","mutagen_history":"[0,1,1,1,1,1,1,0,0]","location_rts":"[1981,467,505,394,368,419,414,460,1370]","trial_type":"fractal-mutation","trial_index":68,"time_elapsed":1396808,"internal_node_id":"0.0-5.0-29.0"},{"group":"dicyclic group of order 12","fractal_assignment":["../images/red_prp.png","../images/cyn_red.png","../images/ylw_slt.png","../images/pnk_blu.png","../images/ylw_pnk.png","../images/grn_red.png","../images/grn_prp.png","../images/grn_blu.png","../images/gry_blk.png","../images/blu_wht.png","../images/wht_red.png","../images/org_blu.png"],"mutagen_generator_assignment":[0,1],"goal":10,"start":9,"action_noise":0.15,"location_history":"[9,1,5,10]","action_history":"[1,1,0]","mutagen_history":"[1,1,0]","location_rts":"[1580,518,642]","trial_type":"fractal-mutation","trial_index":69,"time_elapsed":1406704,"internal_node_id":"0.0-5.0-30.0"},{"group":"dicyclic group of order 12","fractal_assignment":["../images/red_prp.png","../images/cyn_red.png","../images/ylw_slt.png","../images/pnk_blu.png","../images/ylw_pnk.png","../images/grn_red.png","../images/grn_prp.png","../images/grn_blu.png","../images/gry_blk.png","../images/blu_wht.png","../images/wht_red.png","../images/org_blu.png"],"mutagen_generator_assignment":[0,1],"goal":0,"start":10,"action_noise":0.15,"location_history":"[10,7,11,3,7,11,4,9,1,5,9,6,11,3,0]","action_history":"[0,1,1,1,1,0,1,1,1,1,0,1,1,0]","mutagen_history":"[0,1,1,1,1,0,1,1,1,1,0,1,1,0]","location_rts":"[1878,1096,491,494,404,426,542,367,437,510,505,2669,384,679]","trial_type":"fractal-mutation","trial_index":70,"time_elapsed":1437439,"internal_node_id":"0.0-5.0-31.0"},{"group":"dicyclic group of order 12","fractal_assignment":["../images/red_prp.png","../images/cyn_red.png","../images/ylw_slt.png","../images/pnk_blu.png","../images/ylw_pnk.png","../images/grn_red.png","../images/grn_prp.png","../images/grn_blu.png","../images/gry_blk.png","../images/blu_wht.png","../images/wht_red.png","../images/org_blu.png"],"mutagen_generator_assignment":[0,1],"goal":7,"start":0,"action_noise":0.15,"location_history":"[0,1,2,6,10,2,6,11,3,7]","action_history":"[0,0,1,1,1,1,1,1,1]","mutagen_history":"[0,0,1,1,1,1,1,1,1]","location_rts":"[1141,913,561,448,361,422,441,494,488]","trial_type":"fractal-mutation","trial_index":71,"time_elapsed":1456754,"internal_node_id":"0.0-5.0-32.0"},{"group":"dicyclic group of order 12","fractal_assignment":["../images/red_prp.png","../images/cyn_red.png","../images/ylw_slt.png","../images/pnk_blu.png","../images/ylw_pnk.png","../images/grn_red.png","../images/grn_prp.png","../images/grn_blu.png","../images/gry_blk.png","../images/blu_wht.png","../images/wht_red.png","../images/org_blu.png"],"mutagen_generator_assignment":[0,1],"goal":11,"start":7,"action_noise":0.15,"location_history":"[7,11]","action_history":"[1]","mutagen_history":"[1]","location_rts":"[1594]","trial_type":"fractal-mutation","trial_index":72,"time_elapsed":1463051,"internal_node_id":"0.0-5.0-33.0"},{"group":"dicyclic group of order 12","fractal_assignment":["../images/red_prp.png","../images/cyn_red.png","../images/ylw_slt.png","../images/pnk_blu.png","../images/ylw_pnk.png","../images/grn_red.png","../images/grn_prp.png","../images/grn_blu.png","../images/gry_blk.png","../images/blu_wht.png","../images/wht_red.png","../images/org_blu.png"],"mutagen_generator_assignment":[0,1],"goal":2,"start":11,"action_noise":0.15,"location_history":"[11,3,7,11,4,8,5,10,2]","action_history":"[1,1,1,0,1,1,0,1]","mutagen_history":"[1,1,1,0,1,1,0,1]","location_rts":"[1564,385,386,879,619,819,450,586]","trial_type":"fractal-mutation","trial_index":73,"time_elapsed":1481683,"internal_node_id":"0.0-5.0-34.0"},{"view_history":"[{\"page_index\":0,\"viewing_time\":2299}]","rt":2300,"trial_type":"instructions","trial_index":74,"time_elapsed":1484984,"internal_node_id":"0.0-6.0"},{"rt":107147,"responses":"{\"Q0\":\"pattern recognition and if people can remember the pattern between colors and what the doors lead to. for instance. red/cyan, blue/orange, pink/brown. see if the brain can subconsciously remember a pattern involved.\"}","trial_type":"survey-text","trial_index":75,"time_elapsed":1593202,"internal_node_id":"0.0-7.0-0.0"},{"rt":75234,"responses":"{\"Q0\":\"pattern recognition of groups of images. how the brain can create quickly solve a puzzle.\"}","trial_type":"survey-text","trial_index":76,"time_elapsed":1669450,"internal_node_id":"0.0-7.0-1.0"},{"rt":13471,"responses":"{\"Q0\":\"1\"}","trial_type":"survey-likert","trial_index":77,"time_elapsed":1684034,"internal_node_id":"0.0-7.0-2.0"},{"rt":128630,"responses":"{\"Q0\":\"each image or room had specific answer that was affected by choice a or b. It was a matter of figuring out which response would lead to the proper answer. \"}","trial_type":"survey-text","trial_index":78,"time_elapsed":1813668,"internal_node_id":"0.0-7.0-3.0"},{"rt":10567,"responses":"{\"Q0\":\"Yes\"}","trial_type":"survey-multi-choice","trial_index":79,"time_elapsed":1825380,"internal_node_id":"0.0-7.0-4.0"},{"rt":14673,"responses":"{\"Q0\":\"During this session\"}","trial_type":"survey-multi-choice","trial_index":80,"time_elapsed":1841068,"internal_node_id":"0.0-7.0-5.0"},{"rt":117984,"responses":"{\"Q0\":\"It felt like 1 choice was a way to go backwards and the second choice was a way to shuffle through a group of options. The white door and the acid was (sort of) a 'go back' for me. and the black door was a way to advance through the options. \\n\\nIt could just be a mental trick my brain was playing on me though.\"}","trial_type":"survey-text","trial_index":81,"time_elapsed":1960055,"internal_node_id":"0.0-7.0-6.0"},{"rt":6934,"responses":"{\"Q0\":\"1\"}","trial_type":"survey-likert","trial_index":82,"time_elapsed":1967998,"internal_node_id":"0.0-7.0-7.0"},{"rt":7762,"responses":"{\"Q0\":\"Different structure\"}","trial_type":"survey-multi-choice","trial_index":83,"time_elapsed":1976785,"internal_node_id":"0.0-7.0-8.0"},{"rt":20698,"responses":"{\"Q0\":\"white door = acid, black door = ray\",\"Q1\":\"Pretty confident\"}","trial_type":"survey-multi-choice","trial_index":84,"time_elapsed":1998514,"internal_node_id":"0.0-7.0-9.0"},{"rt":9396,"responses":"{\"Q0\":\"35-45\",\"Q1\":\"Some college\",\"Q2\":\"Male\",\"Q3\":\"White\"}","trial_type":"survey-multi-choice","trial_index":85,"time_elapsed":2009024,"internal_node_id":"0.0-8.0"},{"rt":45385,"responses":"{\"Q0\":\"thank you for allowing me to participate in this study. I really focused on figuring out the patterns and it was very enjoyable to complete this 3 day study!\"}","trial_type":"survey-text","trial_index":86,"time_elapsed":2055414,"internal_node_id":"0.0-9.0"}]