[{"view_history":"[{\"page_index\":0,\"viewing_time\":1451},{\"page_index\":1,\"viewing_time\":2720}]","rt":4173,"trial_type":"instructions","trial_index":0,"time_elapsed":4175,"internal_node_id":"0.0-0.0"},{"view_history":"[{\"page_index\":0,\"viewing_time\":2277},{\"page_index\":1,\"viewing_time\":2518}]","rt":4796,"trial_type":"instructions","trial_index":1,"time_elapsed":9972,"internal_node_id":"0.0-1.0"},{"group":"dicyclic group of order 12","room_assignment":["orange","blue","pink","brown","green","olive","purple","grey","yellow","cyan","red","ivory"],"door_color_assignment":["white","black"],"door_generator_assignment":[1,0],"goal":7,"start":3,"action_noise":0.15,"location_history":"[3,7]","action_history":"[0]","door_history":"[1]","location_rts":"[2901]","trial_type":"two-door-navigation","trial_index":2,"time_elapsed":17399,"internal_node_id":"0.0-2.0-0.0"},{"group":"dicyclic group of order 12","room_assignment":["orange","blue","pink","brown","green","olive","purple","grey","yellow","cyan","red","ivory"],"door_color_assignment":["white","black"],"door_generator_assignment":[1,0],"goal":5,"start":7,"action_noise":0.15,"location_history":"[7,8,5]","action_history":"[1,0]","door_history":"[0,1]","location_rts":"[2592,1248]","trial_type":"two-door-navigation","trial_index":3,"time_elapsed":26748,"internal_node_id":"0.0-2.0-1.0"},{"group":"dicyclic group of order 12","room_assignment":["orange","blue","pink","brown","green","olive","purple","grey","yellow","cyan","red","ivory"],"door_color_assignment":["white","black"],"door_generator_assignment":[1,0],"goal":0,"start":5,"action_noise":0.15,"location_history":"[5,10,2,6,10,2,3,0]","action_history":"[0,0,1,1,1,0,0]","door_history":"[1,1,0,0,0,1,1]","location_rts":"[1626,782,743,701,1089,637,552]","trial_type":"two-door-navigation","trial_index":4,"time_elapsed":43418,"internal_node_id":"0.0-2.0-2.0"},{"group":"dicyclic group of order 12","room_assignment":["orange","blue","pink","brown","green","olive","purple","grey","yellow","cyan","red","ivory"],"door_color_assignment":["white","black"],"door_generator_assignment":[1,0],"goal":2,"start":0,"action_noise":0.15,"location_history":"[0,1,5,9,6,11,3,0,4,9,6,11,3,7,11,4,8,5,9,6,11,3,7,11,4,8,0,1,2]","action_history":"[0,1,1,1,0,0,1,1,0,0,0,0,0,1,1,1,0,1,0,1,1,0,0,0,0,0,0,1]","door_history":"[1,0,0,0,1,1,0,0,1,1,1,1,1,0,0,0,1,0,1,0,0,1,1,1,1,1,1,0]","location_rts":"[1273,1013,809,735,593,537,1247,1155,698,680,657,871,600,512,618,544,414,602,418,887,1267,673,555,498,544,509,1048,2034]","trial_type":"two-door-navigation","trial_index":5,"time_elapsed":97228,"internal_node_id":"0.0-2.0-3.0"},{"group":"dicyclic group of order 12","room_assignment":["orange","blue","pink","brown","green","olive","purple","grey","yellow","cyan","red","ivory"],"door_color_assignment":["white","black"],"door_generator_assignment":[1,0],"goal":10,"start":2,"action_noise":0.15,"location_history":"[2,3,7,8,5,10]","action_history":"[0,1,1,1,0]","door_history":"[1,0,0,0,1]","location_rts":"[3698,665,666,501,515]","trial_type":"two-door-navigation","trial_index":6,"time_elapsed":111851,"internal_node_id":"0.0-2.0-4.0"},{"group":"dicyclic group of order 12","room_assignment":["orange","blue","pink","brown","green","olive","purple","grey","yellow","cyan","red","ivory"],"door_color_assignment":["white","black"],"door_generator_assignment":[1,0],"goal":8,"start":10,"action_noise":0.15,"location_history":"[10,2,6,11,4,9,6,11,3,7,11,3,0,1,2,3,7,8]","action_history":"[1,1,1,0,0,0,0,1,1,1,1,0,0,0,0,1,0]","door_history":"[0,0,0,1,1,1,1,0,0,0,0,1,1,1,1,0,1]","location_rts":"[1629,661,742,494,429,460,529,427,454,674,677,752,1007,507,483,751,443]","trial_type":"two-door-navigation","trial_index":7,"time_elapsed":143708,"internal_node_id":"0.0-2.0-5.0"},{"group":"dicyclic group of order 12","room_assignment":["orange","blue","pink","brown","green","olive","purple","grey","yellow","cyan","red","ivory"],"door_color_assignment":["white","black"],"door_generator_assignment":[1,0],"goal":11,"start":8,"action_noise":0.15,"location_history":"[8,0,4,9,1,2,3,0,4,9,6,11]","action_history":"[1,1,0,1,0,0,1,1,0,0,0]","door_history":"[0,0,1,0,1,1,0,0,1,1,1]","location_rts":"[3333,560,484,1471,462,465,466,522,356,424,405]","trial_type":"two-door-navigation","trial_index":8,"time_elapsed":167211,"internal_node_id":"0.0-2.0-6.0"},{"group":"dicyclic group of order 12","room_assignment":["orange","blue","pink","brown","green","olive","purple","grey","yellow","cyan","red","ivory"],"door_color_assignment":["white","black"],"door_generator_assignment":[1,0],"goal":6,"start":11,"action_noise":0.15,"location_history":"[11,4,9,1,5,9,6]","action_history":"[0,1,1,1,1,0]","door_history":"[1,0,0,0,0,1]","location_rts":"[1665,1265,401,845,768,1358]","trial_type":"two-door-navigation","trial_index":9,"time_elapsed":183055,"internal_node_id":"0.0-2.0-7.0"},{"group":"dicyclic group of order 12","room_assignment":["orange","blue","pink","brown","green","olive","purple","grey","yellow","cyan","red","ivory"],"door_color_assignment":["white","black"],"door_generator_assignment":[1,0],"goal":4,"start":6,"action_noise":0.15,"location_history":"[6,10,2,3,0,1,5,9,1,2,3,0,1,2,3,0,1,5,10,2,6,11,4]","action_history":"[1,1,0,0,0,1,1,0,0,0,1,0,0,0,0,0,1,1,1,1,0,0]","door_history":"[0,0,1,1,1,0,0,1,1,1,0,1,1,1,1,1,0,0,0,0,1,1]","location_rts":"[2325,512,889,419,463,1270,942,447,432,438,629,402,483,499,614,965,1190,431,552,691,475,756]","trial_type":"two-door-navigation","trial_index":10,"time_elapsed":224459,"internal_node_id":"0.0-2.0-8.0"},{"group":"dicyclic group of order 12","room_assignment":["orange","blue","pink","brown","green","olive","purple","grey","yellow","cyan","red","ivory"],"door_color_assignment":["white","black"],"door_generator_assignment":[1,0],"goal":1,"start":4,"action_noise":0.15,"location_history":"[4,8,5,10,7,8,0,4,8,0,1]","action_history":"[1,0,0,0,0,1,1,1,1,0]","door_history":"[0,1,1,1,1,0,0,0,0,1]","location_rts":"[1943,1601,1315,723,622,443,438,800,577,378]","trial_type":"two-door-navigation","trial_index":11,"time_elapsed":246843,"internal_node_id":"0.0-2.0-9.0"},{"group":"dicyclic group of order 12","room_assignment":["orange","blue","pink","brown","green","olive","purple","grey","yellow","cyan","red","ivory"],"door_color_assignment":["white","black"],"door_generator_assignment":[1,0],"goal":9,"start":1,"action_noise":0.15,"location_history":"[1,5,9]","action_history":"[1,1]","door_history":"[0,0]","location_rts":"[2112,879]","trial_type":"two-door-navigation","trial_index":12,"time_elapsed":255339,"internal_node_id":"0.0-2.0-10.0"},{"group":"dicyclic group of order 12","room_assignment":["orange","blue","pink","brown","green","olive","purple","grey","yellow","cyan","red","ivory"],"door_color_assignment":["white","black"],"door_generator_assignment":[1,0],"goal":10,"start":9,"action_noise":0.15,"location_history":"[9,1,5,9,6,11,3,7,11,4,9,6,10]","action_history":"[1,1,1,0,0,1,1,1,0,0,0,1]","door_history":"[0,0,0,1,1,0,0,0,1,1,1,0]","location_rts":"[2279,415,518,329,461,444,439,409,398,360,425,447]","trial_type":"two-door-navigation","trial_index":13,"time_elapsed":277824,"internal_node_id":"0.0-2.0-11.0"},{"group":"dicyclic group of order 12","room_assignment":["orange","blue","pink","brown","green","olive","purple","grey","yellow","cyan","red","ivory"],"door_color_assignment":["white","black"],"door_generator_assignment":[1,0],"goal":2,"start":10,"action_noise":0.15,"location_history":"[10,2]","action_history":"[1]","door_history":"[0]","location_rts":"[2099]","trial_type":"two-door-navigation","trial_index":14,"time_elapsed":284429,"internal_node_id":"0.0-2.0-12.0"},{"group":"dicyclic group of order 12","room_assignment":["orange","blue","pink","brown","green","olive","purple","grey","yellow","cyan","red","ivory"],"door_color_assignment":["white","black"],"door_generator_assignment":[1,0],"goal":0,"start":2,"action_noise":0.15,"location_history":"[2,3,0]","action_history":"[0,0]","door_history":"[1,1]","location_rts":"[1256,537]","trial_type":"two-door-navigation","trial_index":15,"time_elapsed":291786,"internal_node_id":"0.0-2.0-13.0"},{"group":"dicyclic group of order 12","room_assignment":["orange","blue","pink","brown","green","olive","purple","grey","yellow","cyan","red","ivory"],"door_color_assignment":["white","black"],"door_generator_assignment":[1,0],"goal":9,"start":0,"action_noise":0.15,"location_history":"[0,1,5,10,7,8,0,4,9]","action_history":"[1,1,0,0,0,1,1,1]","door_history":"[0,0,1,1,1,0,0,0]","location_rts":"[1245,570,695,448,568,442,435,603]","trial_type":"two-door-navigation","trial_index":16,"time_elapsed":308311,"internal_node_id":"0.0-2.0-14.0"},{"group":"dicyclic group of order 12","room_assignment":["orange","blue","pink","brown","green","olive","purple","grey","yellow","cyan","red","ivory"],"door_color_assignment":["white","black"],"door_generator_assignment":[1,0],"goal":8,"start":9,"action_noise":0.15,"location_history":"[9,1,5,9,6,11,3,7,8]","action_history":"[1,1,0,0,0,1,1,1]","door_history":"[0,0,1,1,1,0,0,0]","location_rts":"[1669,835,656,374,420,960,449,462]","trial_type":"two-door-navigation","trial_index":17,"time_elapsed":325685,"internal_node_id":"0.0-2.0-15.0"},{"group":"dicyclic group of order 12","room_assignment":["orange","blue","pink","brown","green","olive","purple","grey","yellow","cyan","red","ivory"],"door_color_assignment":["white","black"],"door_generator_assignment":[1,0],"goal":6,"start":8,"action_noise":0.15,"location_history":"[8,0,1,5,10,2,6]","action_history":"[1,0,0,0,1,0]","door_history":"[0,1,1,1,0,1]","location_rts":"[1188,360,556,643,406,382]","trial_type":"two-door-navigation","trial_index":18,"time_elapsed":338740,"internal_node_id":"0.0-2.0-16.0"},{"group":"dicyclic group of order 12","room_assignment":["orange","blue","pink","brown","green","olive","purple","grey","yellow","cyan","red","ivory"],"door_color_assignment":["white","black"],"door_generator_assignment":[1,0],"goal":1,"start":6,"action_noise":0.15,"location_history":"[6,10,7,11,4,9,6,10,7,8,5,10,2,6,10,2,3,0,1]","action_history":"[1,0,1,0,0,0,1,0,0,0,0,0,1,1,1,0,0,0]","door_history":"[0,1,0,1,1,1,0,1,1,1,1,1,0,0,0,1,1,1]","location_rts":"[1221,391,467,407,603,657,926,495,450,438,589,435,1067,1178,408,931,452,598]","trial_type":"two-door-navigation","trial_index":19,"time_elapsed":372018,"internal_node_id":"0.0-2.0-17.0"},{"group":"dicyclic group of order 12","room_assignment":["orange","blue","pink","brown","green","olive","purple","grey","yellow","cyan","red","ivory"],"door_color_assignment":["white","black"],"door_generator_assignment":[1,0],"goal":4,"start":1,"action_noise":0.15,"location_history":"[1,2,3,0,4]","action_history":"[0,0,0,1]","door_history":"[1,1,1,0]","location_rts":"[2530,501,489,373]","trial_type":"two-door-navigation","trial_index":20,"time_elapsed":383418,"internal_node_id":"0.0-2.0-18.0"},{"group":"dicyclic group of order 12","room_assignment":["orange","blue","pink","brown","green","olive","purple","grey","yellow","cyan","red","ivory"],"door_color_assignment":["white","black"],"door_generator_assignment":[1,0],"goal":11,"start":4,"action_noise":0.15,"location_history":"[4,9,1,2,6,11]","action_history":"[0,1,0,1,0]","door_history":"[1,0,1,0,1]","location_rts":"[1050,449,445,401,446]","trial_type":"two-door-navigation","trial_index":21,"time_elapsed":394716,"internal_node_id":"0.0-2.0-19.0"},{"group":"dicyclic group of order 12","room_assignment":["orange","blue","pink","brown","green","olive","purple","grey","yellow","cyan","red","ivory"],"door_color_assignment":["white","black"],"door_generator_assignment":[1,0],"goal":3,"start":11,"action_noise":0.15,"location_history":"[11,4,9,6,10,7,8,0,1,2,3]","action_history":"[0,0,0,1,0,0,1,0,0,0]","door_history":"[1,1,1,0,1,1,0,1,1,1]","location_rts":"[1019,452,415,418,443,637,853,970,422,441]","trial_type":"two-door-navigation","trial_index":22,"time_elapsed":414309,"internal_node_id":"0.0-2.0-20.0"},{"group":"dicyclic group of order 12","room_assignment":["orange","blue","pink","brown","green","olive","purple","grey","yellow","cyan","red","ivory"],"door_color_assignment":["white","black"],"door_generator_assignment":[1,0],"goal":5,"start":3,"action_noise":0.15,"location_history":"[3,7,11,4,8,0,4,8,5]","action_history":"[1,0,0,0,1,1,1,0]","door_history":"[0,1,1,1,0,0,0,1]","location_rts":"[1052,616,853,571,362,384,561,339]","trial_type":"two-door-navigation","trial_index":23,"time_elapsed":430563,"internal_node_id":"0.0-2.0-21.0"},{"group":"dicyclic group of order 12","room_assignment":["orange","blue","pink","brown","green","olive","purple","grey","yellow","cyan","red","ivory"],"door_color_assignment":["white","black"],"door_generator_assignment":[1,0],"goal":7,"start":5,"action_noise":0.15,"location_history":"[5,9,1,5,10,7]","action_history":"[1,0,0,0,0]","door_history":"[0,1,1,1,1]","location_rts":"[840,462,352,579,461]","trial_type":"two-door-navigation","trial_index":24,"time_elapsed":441835,"internal_node_id":"0.0-2.0-22.0"},{"group":"dicyclic group of order 12","room_assignment":["orange","blue","pink","brown","green","olive","purple","grey","yellow","cyan","red","ivory"],"door_color_assignment":["white","black"],"door_generator_assignment":[1,0],"goal":3,"start":7,"action_noise":0.15,"location_history":"[7,11,3]","action_history":"[1,1]","door_history":"[0,0]","location_rts":"[830,786]","trial_type":"two-door-navigation","trial_index":25,"time_elapsed":448957,"internal_node_id":"0.0-2.0-23.0"},{"group":"dicyclic group of order 12","room_assignment":["orange","blue","pink","brown","green","olive","purple","grey","yellow","cyan","red","ivory"],"door_color_assignment":["white","black"],"door_generator_assignment":[1,0],"goal":4,"start":3,"action_noise":0.15,"location_history":"[3,0,1,2,6,11,4]","action_history":"[0,0,0,1,0,0]","door_history":"[1,1,1,0,1,1]","location_rts":"[1295,484,482,400,400,606]","trial_type":"two-door-navigation","trial_index":26,"time_elapsed":462138,"internal_node_id":"0.0-2.0-24.0"},{"group":"dicyclic group of order 12","room_assignment":["orange","blue","pink","brown","green","olive","purple","grey","yellow","cyan","red","ivory"],"door_color_assignment":["white","black"],"door_generator_assignment":[1,0],"goal":8,"start":4,"action_noise":0.15,"location_history":"[4,8]","action_history":"[1]","door_history":"[0]","location_rts":"[845]","trial_type":"two-door-navigation","trial_index":27,"time_elapsed":467485,"internal_node_id":"0.0-2.0-25.0"},{"group":"dicyclic group of order 12","room_assignment":["orange","blue","pink","brown","green","olive","purple","grey","yellow","cyan","red","ivory"],"door_color_assignment":["white","black"],"door_generator_assignment":[1,0],"goal":6,"start":8,"action_noise":0.15,"location_history":"[8,5,9,6]","action_history":"[0,0,0]","door_history":"[1,1,1]","location_rts":"[1296,487,466]","trial_type":"two-door-navigation","trial_index":28,"time_elapsed":476251,"internal_node_id":"0.0-2.0-26.0"},{"group":"dicyclic group of order 12","room_assignment":["orange","blue","pink","brown","green","olive","purple","grey","yellow","cyan","red","ivory"],"door_color_assignment":["white","black"],"door_generator_assignment":[1,0],"goal":1,"start":6,"action_noise":0.15,"location_history":"[6,10,2,3,0,1]","action_history":"[1,1,0,0,0]","door_history":"[0,0,1,1,1]","location_rts":"[2376,467,444,380,428]","trial_type":"two-door-navigation","trial_index":29,"time_elapsed":488865,"internal_node_id":"0.0-2.0-27.0"},{"group":"dicyclic group of order 12","room_assignment":["orange","blue","pink","brown","green","olive","purple","grey","yellow","cyan","red","ivory"],"door_color_assignment":["white","black"],"door_generator_assignment":[1,0],"goal":5,"start":1,"action_noise":0.15,"location_history":"[1,2,3,7,8,5]","action_history":"[0,0,1,0,0]","door_history":"[1,1,0,1,1]","location_rts":"[1436,444,409,658,583]","trial_type":"two-door-navigation","trial_index":30,"time_elapsed":500913,"internal_node_id":"0.0-2.0-28.0"},{"group":"dicyclic group of order 12","room_assignment":["orange","blue","pink","brown","green","olive","purple","grey","yellow","cyan","red","ivory"],"door_color_assignment":["white","black"],"door_generator_assignment":[1,0],"goal":9,"start":5,"action_noise":0.15,"location_history":"[5,10,2,3,7,11,4,9]","action_history":"[0,1,1,1,0,0,0]","door_history":"[1,0,0,0,1,1,1]","location_rts":"[913,759,753,463,434,408,434]","trial_type":"two-door-navigation","trial_index":31,"time_elapsed":515589,"internal_node_id":"0.0-2.0-29.0"},{"group":"dicyclic group of order 12","room_assignment":["orange","blue","pink","brown","green","olive","purple","grey","yellow","cyan","red","ivory"],"door_color_assignment":["white","black"],"door_generator_assignment":[1,0],"goal":10,"start":9,"action_noise":0.15,"location_history":"[9,1,5,9,1,2,3,7,8,0,1,2,3,7,11,4,8,5,9,1,5,9,1,2,6,11,3,0,1,2,3,0,4,9,1,5,9,6,10]","action_history":"[0,1,1,1,0,0,1,1,1,0,0,0,1,1,1,0,0,1,1,1,1,0,0,1,0,1,0,0,0,0,0,1,1,1,1,1,0,1]","door_history":"[1,0,0,0,1,1,0,0,0,1,1,1,0,0,0,1,1,0,0,0,0,1,1,0,1,0,1,1,1,1,1,0,0,0,0,0,1,0]","location_rts":"[1083,496,365,412,390,422,1035,441,458,521,408,411,383,549,360,976,439,352,404,467,473,433,722,707,356,369,452,323,399,344,405,306,404,342,436,402,525,637]","trial_type":"two-door-navigation","trial_index":32,"time_elapsed":575561,"internal_node_id":"0.0-2.0-30.0"},{"group":"dicyclic group of order 12","room_assignment":["orange","blue","pink","brown","green","olive","purple","grey","yellow","cyan","red","ivory"],"door_color_assignment":["white","black"],"door_generator_assignment":[1,0],"goal":0,"start":10,"action_noise":0.15,"location_history":"[10,2,3,0]","action_history":"[1,0,0]","door_history":"[0,1,1]","location_rts":"[823,369,412]","trial_type":"two-door-navigation","trial_index":33,"time_elapsed":583673,"internal_node_id":"0.0-2.0-31.0"},{"group":"dicyclic group of order 12","room_assignment":["orange","blue","pink","brown","green","olive","purple","grey","yellow","cyan","red","ivory"],"door_color_assignment":["white","black"],"door_generator_assignment":[1,0],"goal":7,"start":0,"action_noise":0.15,"location_history":"[0,1,2,6,10,2,3,7]","action_history":"[0,1,1,1,0,0,1]","door_history":"[1,0,0,0,1,1,0]","location_rts":"[967,389,529,447,398,891,339]","trial_type":"two-door-navigation","trial_index":34,"time_elapsed":598164,"internal_node_id":"0.0-2.0-32.0"},{"group":"dicyclic group of order 12","room_assignment":["orange","blue","pink","brown","green","olive","purple","grey","yellow","cyan","red","ivory"],"door_color_assignment":["white","black"],"door_generator_assignment":[1,0],"goal":11,"start":7,"action_noise":0.15,"location_history":"[7,11]","action_history":"[1]","door_history":"[0]","location_rts":"[952]","trial_type":"two-door-navigation","trial_index":35,"time_elapsed":603618,"internal_node_id":"0.0-2.0-33.0"},{"group":"dicyclic group of order 12","room_assignment":["orange","blue","pink","brown","green","olive","purple","grey","yellow","cyan","red","ivory"],"door_color_assignment":["white","black"],"door_generator_assignment":[1,0],"goal":2,"start":11,"action_noise":0.15,"location_history":"[11,3,7,8,5,10,2]","action_history":"[1,0,0,0,0,1]","door_history":"[0,1,1,1,1,0]","location_rts":"[1452,439,427,427,561,431]","trial_type":"two-door-navigation","trial_index":36,"time_elapsed":616866,"internal_node_id":"0.0-2.0-34.0"},{"view_history":"[{\"page_index\":0,\"viewing_time\":1944}]","rt":1945,"trial_type":"instructions","trial_index":37,"time_elapsed":619811,"internal_node_id":"0.0-3.0"},{"view_history":"[{\"page_index\":0,\"viewing_time\":1447},{\"page_index\":1,\"viewing_time\":4787}]","rt":6235,"trial_type":"instructions","trial_index":38,"time_elapsed":627046,"internal_node_id":"0.0-4.0"},{"group":"dihedral group of order 12","fractal_assignment":["../images/red_prp.png","../images/grn_blu.png","../images/org_blu.png","../images/pnk_blu.png","../images/ylw_slt.png","../images/grn_red.png","../images/ylw_pnk.png","../images/grn_prp.png","../images/wht_red.png","../images/gry_blk.png","../images/cyn_red.png","../images/blu_wht.png"],"mutagen_generator_assignment":[1,0],"goal":7,"start":3,"action_noise":0.15,"location_history":"[3,4,10,4,10,9,3,9,3,9,3,4,5,11,10,9,8,7]","action_history":"[0,1,1,0,0,0,1,1,1,0,0,0,1,0,0,0,0]","mutagen_history":"[1,0,0,1,1,1,0,0,0,1,1,1,0,1,1,1,1]","location_rts":"[17288,1750,526,857,444,583,669,390,538,593,270,707,399,739,533,563,644]","trial_type":"fractal-mutation","trial_index":39,"time_elapsed":680269,"internal_node_id":"0.0-5.0-0.0"},{"group":"dihedral group of order 12","fractal_assignment":["../images/red_prp.png","../images/grn_blu.png","../images/org_blu.png","../images/pnk_blu.png","../images/ylw_slt.png","../images/grn_red.png","../images/ylw_pnk.png","../images/grn_prp.png","../images/wht_red.png","../images/gry_blk.png","../images/cyn_red.png","../images/blu_wht.png"],"mutagen_generator_assignment":[1,0],"goal":5,"start":7,"action_noise":0.15,"location_history":"[7,1,7,1,2,3,9,8,7,1,7,1,7,6,11,10,9,3,9,3,4,10,4,10,9,8,2,8,2,8,7,6,11,5]","action_history":"[1,1,1,0,0,1,1,0,1,1,1,1,0,0,0,0,1,1,1,0,1,1,1,0,1,1,1,1,1,0,0,0,1]","mutagen_history":"[0,0,0,1,1,0,0,1,0,0,0,0,1,1,1,1,0,0,0,1,0,0,0,1,0,0,0,0,0,1,1,1,0]","location_rts":"[1362,645,569,394,571,418,487,352,479,621,511,402,361,861,432,497,345,402,374,610,431,764,373,609,416,574,534,630,701,660,553,975,986]","trial_type":"fractal-mutation","trial_index":40,"time_elapsed":743045,"internal_node_id":"0.0-5.0-1.0"},{"group":"dihedral group of order 12","fractal_assignment":["../images/red_prp.png","../images/grn_blu.png","../images/org_blu.png","../images/pnk_blu.png","../images/ylw_slt.png","../images/grn_red.png","../images/ylw_pnk.png","../images/grn_prp.png","../images/wht_red.png","../images/gry_blk.png","../images/cyn_red.png","../images/blu_wht.png"],"mutagen_generator_assignment":[1,0],"goal":0,"start":5,"action_noise":0.15,"location_history":"[5,11,5,11,10,9,8,2,3,9,3,9,8,2,8,7,6,11,10,4,5,0]","action_history":"[1,0,1,0,0,0,0,0,1,1,1,0,1,1,0,0,0,0,1,0,0]","mutagen_history":"[0,1,0,1,1,1,1,1,0,0,0,1,0,0,1,1,1,1,0,1,1]","location_rts":"[1715,723,2307,628,742,490,704,953,472,481,636,411,494,668,509,453,580,448,692,664,494]","trial_type":"fractal-mutation","trial_index":41,"time_elapsed":788448,"internal_node_id":"0.0-5.0-2.0"},{"group":"dihedral group of order 12","fractal_assignment":["../images/red_prp.png","../images/grn_blu.png","../images/org_blu.png","../images/pnk_blu.png","../images/ylw_slt.png","../images/grn_red.png","../images/ylw_pnk.png","../images/grn_prp.png","../images/wht_red.png","../images/gry_blk.png","../images/cyn_red.png","../images/blu_wht.png"],"mutagen_generator_assignment":[1,0],"goal":2,"start":0,"action_noise":0.15,"location_history":"[0,1,2]","action_history":"[1,0]","mutagen_history":"[0,1]","location_rts":"[1836,694]","trial_type":"fractal-mutation","trial_index":42,"time_elapsed":796835,"internal_node_id":"0.0-5.0-3.0"},{"group":"dihedral group of order 12","fractal_assignment":["../images/red_prp.png","../images/grn_blu.png","../images/org_blu.png","../images/pnk_blu.png","../images/ylw_slt.png","../images/grn_red.png","../images/ylw_pnk.png","../images/grn_prp.png","../images/wht_red.png","../images/gry_blk.png","../images/cyn_red.png","../images/blu_wht.png"],"mutagen_generator_assignment":[1,0],"goal":10,"start":2,"action_noise":0.15,"location_history":"[2,3,4,5,11,5,0,6,0,6,11,10]","action_history":"[0,1,1,1,1,1,0,1,0,0,0]","mutagen_history":"[1,0,0,0,0,0,1,0,1,1,1]","location_rts":"[2331,917,408,621,414,718,651,702,530,416,816]","trial_type":"fractal-mutation","trial_index":43,"time_elapsed":822590,"internal_node_id":"0.0-5.0-4.0"},{"group":"dihedral group of order 12","fractal_assignment":["../images/red_prp.png","../images/grn_blu.png","../images/org_blu.png","../images/pnk_blu.png","../images/ylw_slt.png","../images/grn_red.png","../images/ylw_pnk.png","../images/grn_prp.png","../images/wht_red.png","../images/gry_blk.png","../images/cyn_red.png","../images/blu_wht.png"],"mutagen_generator_assignment":[1,0],"goal":8,"start":10,"action_noise":0.15,"location_history":"[10,9,3,9,3,4,10,9,8]","action_history":"[0,1,1,1,0,1,0,0]","mutagen_history":"[1,0,0,0,1,0,1,1]","location_rts":"[2204,326,496,479,402,734,377,350]","trial_type":"fractal-mutation","trial_index":44,"time_elapsed":841472,"internal_node_id":"0.0-5.0-5.0"},{"group":"dihedral group of order 12","fractal_assignment":["../images/red_prp.png","../images/grn_blu.png","../images/org_blu.png","../images/pnk_blu.png","../images/ylw_slt.png","../images/grn_red.png","../images/ylw_pnk.png","../images/grn_prp.png","../images/wht_red.png","../images/gry_blk.png","../images/cyn_red.png","../images/blu_wht.png"],"mutagen_generator_assignment":[1,0],"goal":11,"start":8,"action_noise":0.15,"location_history":"[8,2,3,9,8,7,1,7,6,0,1,2,8,2,8,2,3,9,8,2,3,4,5,11]","action_history":"[1,0,1,0,0,1,1,0,0,0,0,1,1,1,0,0,0,1,1,0,0,0,1]","mutagen_history":"[0,1,0,1,1,0,0,1,1,1,1,0,0,0,1,1,1,0,0,1,1,1,0]","location_rts":"[2151,710,1323,634,494,521,509,447,437,443,704,423,454,393,466,668,646,294,296,352,626,522,564]","trial_type":"fractal-mutation","trial_index":45,"time_elapsed":887986,"internal_node_id":"0.0-5.0-6.0"},{"group":"dihedral group of order 12","fractal_assignment":["../images/red_prp.png","../images/grn_blu.png","../images/org_blu.png","../images/pnk_blu.png","../images/ylw_slt.png","../images/grn_red.png","../images/ylw_pnk.png","../images/grn_prp.png","../images/wht_red.png","../images/gry_blk.png","../images/cyn_red.png","../images/blu_wht.png"],"mutagen_generator_assignment":[1,0],"goal":6,"start":11,"action_noise":0.15,"location_history":"[11,10,4,5,11,5,0,1,7,1,2,3,4,10,9,8,2,3,4,10,4,5,11,5,0,6]","action_history":"[0,1,1,1,1,0,0,1,1,0,1,0,1,0,0,1,1,0,1,1,1,1,1,0,1]","mutagen_history":"[1,0,0,0,0,1,1,0,0,1,0,1,0,1,1,0,0,1,0,0,0,0,0,1,0]","location_rts":"[1436,754,1599,3187,672,694,589,471,711,454,1070,639,602,649,484,557,601,401,294,332,430,434,410,650,594]","trial_type":"fractal-mutation","trial_index":46,"time_elapsed":941100,"internal_node_id":"0.0-5.0-7.0"},{"group":"dihedral group of order 12","fractal_assignment":["../images/red_prp.png","../images/grn_blu.png","../images/org_blu.png","../images/pnk_blu.png","../images/ylw_slt.png","../images/grn_red.png","../images/ylw_pnk.png","../images/grn_prp.png","../images/wht_red.png","../images/gry_blk.png","../images/cyn_red.png","../images/blu_wht.png"],"mutagen_generator_assignment":[1,0],"goal":4,"start":6,"action_noise":0.15,"location_history":"[6,0,6,0,6,11,5,0,1,2,3,9,8,7,6,0,6,0,6,0,1,7,6,11,10,4]","action_history":"[0,1,1,0,0,1,0,0,0,0,1,1,0,0,1,0,1,1,0,0,0,1,0,1,0]","mutagen_history":"[1,0,0,1,1,0,1,1,1,1,0,0,1,1,0,1,0,0,1,1,1,0,1,0,1]","location_rts":"[1558,456,551,1292,968,1082,746,478,2764,723,439,702,660,1117,417,652,675,431,561,346,803,436,1054,9262,1003]","trial_type":"fractal-mutation","trial_index":47,"time_elapsed":1005597,"internal_node_id":"0.0-5.0-8.0"},{"group":"dihedral group of order 12","fractal_assignment":["../images/red_prp.png","../images/grn_blu.png","../images/org_blu.png","../images/pnk_blu.png","../images/ylw_slt.png","../images/grn_red.png","../images/ylw_pnk.png","../images/grn_prp.png","../images/wht_red.png","../images/gry_blk.png","../images/cyn_red.png","../images/blu_wht.png"],"mutagen_generator_assignment":[1,0],"goal":1,"start":4,"action_noise":0.15,"location_history":"[4,10,4,10,9,8,7,1]","action_history":"[1,0,1,0,0,0,1]","mutagen_history":"[0,1,0,1,1,1,0]","location_rts":"[2025,509,3124,503,683,491,1334]","trial_type":"fractal-mutation","trial_index":48,"time_elapsed":1026468,"internal_node_id":"0.0-5.0-9.0"},{"group":"dihedral group of order 12","fractal_assignment":["../images/red_prp.png","../images/grn_blu.png","../images/org_blu.png","../images/pnk_blu.png","../images/ylw_slt.png","../images/grn_red.png","../images/ylw_pnk.png","../images/grn_prp.png","../images/wht_red.png","../images/gry_blk.png","../images/cyn_red.png","../images/blu_wht.png"],"mutagen_generator_assignment":[1,0],"goal":9,"start":1,"action_noise":0.15,"location_history":"[1,7,6,11,5,0,1,2,8,7,6,0,1,2,3,4,10,4,5,0,6,11,10,4,5,0,1,2,8,2,8,2,3,9]","action_history":"[1,0,0,1,1,0,0,1,0,1,1,0,0,0,0,1,1,0,0,0,0,0,1,0,0,0,0,1,1,1,1,0,1]","mutagen_history":"[0,1,1,0,0,1,1,0,1,0,0,1,1,1,1,0,0,1,1,1,1,1,0,1,1,1,1,0,0,0,0,1,0]","location_rts":"[1416,3338,1178,750,608,496,1120,665,730,881,750,430,419,306,551,971,599,899,519,390,400,791,517,740,1032,455,683,501,458,439,414,1233,763]","trial_type":"fractal-mutation","trial_index":49,"time_elapsed":1097242,"internal_node_id":"0.0-5.0-10.0"},{"group":"dihedral group of order 12","fractal_assignment":["../images/red_prp.png","../images/grn_blu.png","../images/org_blu.png","../images/pnk_blu.png","../images/ylw_slt.png","../images/grn_red.png","../images/ylw_pnk.png","../images/grn_prp.png","../images/wht_red.png","../images/gry_blk.png","../images/cyn_red.png","../images/blu_wht.png"],"mutagen_generator_assignment":[1,0],"goal":10,"start":9,"action_noise":0.15,"location_history":"[9,8,2,3,4,5,0,1,7,1,7,1,2,3,4,10]","action_history":"[0,1,1,0,0,0,0,1,1,0,1,0,0,0,1]","mutagen_history":"[1,0,0,1,1,1,1,0,0,1,0,1,1,1,0]","location_rts":"[1367,510,595,299,387,558,792,269,433,317,426,435,511,640,455]","trial_type":"fractal-mutation","trial_index":50,"time_elapsed":1127756,"internal_node_id":"0.0-5.0-11.0"},{"group":"dihedral group of order 12","fractal_assignment":["../images/red_prp.png","../images/grn_blu.png","../images/org_blu.png","../images/pnk_blu.png","../images/ylw_slt.png","../images/grn_red.png","../images/ylw_pnk.png","../images/grn_prp.png","../images/wht_red.png","../images/gry_blk.png","../images/cyn_red.png","../images/blu_wht.png"],"mutagen_generator_assignment":[1,0],"goal":2,"start":10,"action_noise":0.15,"location_history":"[10,9,8,2]","action_history":"[1,0,1]","mutagen_history":"[0,1,0]","location_rts":"[1212,1975,1630]","trial_type":"fractal-mutation","trial_index":51,"time_elapsed":1139591,"internal_node_id":"0.0-5.0-12.0"},{"group":"dihedral group of order 12","fractal_assignment":["../images/red_prp.png","../images/grn_blu.png","../images/org_blu.png","../images/pnk_blu.png","../images/ylw_slt.png","../images/grn_red.png","../images/ylw_pnk.png","../images/grn_prp.png","../images/wht_red.png","../images/gry_blk.png","../images/cyn_red.png","../images/blu_wht.png"],"mutagen_generator_assignment":[1,0],"goal":0,"start":2,"action_noise":0.15,"location_history":"[2,3,9,3,9,8,7,1,2,3,4,10,9,8,2,3,9,8,7,1,7,6,0]","action_history":"[1,1,1,1,0,0,0,1,0,0,1,1,0,1,1,1,0,0,1,0,0,0]","mutagen_history":"[0,0,0,0,1,1,1,0,1,1,0,0,1,0,0,0,1,1,0,1,1,1]","location_rts":"[2133,659,569,927,534,1143,858,410,1173,642,415,440,655,930,993,536,460,779,360,756,575,747]","trial_type":"fractal-mutation","trial_index":52,"time_elapsed":1186664,"internal_node_id":"0.0-5.0-13.0"},{"group":"dihedral group of order 12","fractal_assignment":["../images/red_prp.png","../images/grn_blu.png","../images/org_blu.png","../images/pnk_blu.png","../images/ylw_slt.png","../images/grn_red.png","../images/ylw_pnk.png","../images/grn_prp.png","../images/wht_red.png","../images/gry_blk.png","../images/cyn_red.png","../images/blu_wht.png"],"mutagen_generator_assignment":[1,0],"goal":9,"start":0,"action_noise":0.15,"location_history":"[0,6,0,6,11,5,0,1,2,8,2,8,7,6,11,5,0,6,0,1,2,3,4,5,11,10,9]","action_history":"[1,1,0,0,1,0,0,0,1,1,0,0,0,0,1,0,1,1,1,1,0,0,0,1,0,0]","mutagen_history":"[0,0,1,1,0,1,1,1,0,0,1,1,1,1,0,1,0,0,0,0,1,1,1,0,1,1]","location_rts":"[5777,1322,563,875,2696,603,440,411,792,615,935,543,888,378,600,434,472,483,694,1118,640,467,574,303,776,725]","trial_type":"fractal-mutation","trial_index":53,"time_elapsed":1246940,"internal_node_id":"0.0-5.0-14.0"},{"group":"dihedral group of order 12","fractal_assignment":["../images/red_prp.png","../images/grn_blu.png","../images/org_blu.png","../images/pnk_blu.png","../images/ylw_slt.png","../images/grn_red.png","../images/ylw_pnk.png","../images/grn_prp.png","../images/wht_red.png","../images/gry_blk.png","../images/cyn_red.png","../images/blu_wht.png"],"mutagen_generator_assignment":[1,0],"goal":8,"start":9,"action_noise":0.15,"location_history":"[9,3,9,8]","action_history":"[1,1,0]","mutagen_history":"[0,0,1]","location_rts":"[1991,814,364]","trial_type":"fractal-mutation","trial_index":54,"time_elapsed":1256949,"internal_node_id":"0.0-5.0-15.0"},{"group":"dihedral group of order 12","fractal_assignment":["../images/red_prp.png","../images/grn_blu.png","../images/org_blu.png","../images/pnk_blu.png","../images/ylw_slt.png","../images/grn_red.png","../images/ylw_pnk.png","../images/grn_prp.png","../images/wht_red.png","../images/gry_blk.png","../images/cyn_red.png","../images/blu_wht.png"],"mutagen_generator_assignment":[1,0],"goal":6,"start":8,"action_noise":0.15,"location_history":"[8,2,8,2,3,4,5,0,6]","action_history":"[1,1,1,1,0,0,0,1]","mutagen_history":"[0,0,0,0,1,1,1,0]","location_rts":"[1283,935,728,940,1338,526,1004,777]","trial_type":"fractal-mutation","trial_index":55,"time_elapsed":1277185,"internal_node_id":"0.0-5.0-16.0"},{"group":"dihedral group of order 12","fractal_assignment":["../images/red_prp.png","../images/grn_blu.png","../images/org_blu.png","../images/pnk_blu.png","../images/ylw_slt.png","../images/grn_red.png","../images/ylw_pnk.png","../images/grn_prp.png","../images/wht_red.png","../images/gry_blk.png","../images/cyn_red.png","../images/blu_wht.png"],"mutagen_generator_assignment":[1,0],"goal":1,"start":6,"action_noise":0.15,"location_history":"[6,0,1]","action_history":"[1,0]","mutagen_history":"[0,1]","location_rts":"[1047,511]","trial_type":"fractal-mutation","trial_index":56,"time_elapsed":1284577,"internal_node_id":"0.0-5.0-17.0"},{"group":"dihedral group of order 12","fractal_assignment":["../images/red_prp.png","../images/grn_blu.png","../images/org_blu.png","../images/pnk_blu.png","../images/ylw_slt.png","../images/grn_red.png","../images/ylw_pnk.png","../images/grn_prp.png","../images/wht_red.png","../images/gry_blk.png","../images/cyn_red.png","../images/blu_wht.png"],"mutagen_generator_assignment":[1,0],"goal":4,"start":1,"action_noise":0.15,"location_history":"[1,7,6,11,5,11,5,0,6,0,6,11,10,9,3,4]","action_history":"[1,0,0,0,1,1,0,1,1,1,0,0,0,1,0]","mutagen_history":"[0,1,1,1,0,0,1,0,0,0,1,1,1,0,1]","location_rts":"[931,798,532,503,408,580,529,586,472,553,433,531,1110,1277,580]","trial_type":"fractal-mutation","trial_index":57,"time_elapsed":1316660,"internal_node_id":"0.0-5.0-18.0"},{"group":"dihedral group of order 12","fractal_assignment":["../images/red_prp.png","../images/grn_blu.png","../images/org_blu.png","../images/pnk_blu.png","../images/ylw_slt.png","../images/grn_red.png","../images/ylw_pnk.png","../images/grn_prp.png","../images/wht_red.png","../images/gry_blk.png","../images/cyn_red.png","../images/blu_wht.png"],"mutagen_generator_assignment":[1,0],"goal":11,"start":4,"action_noise":0.15,"location_history":"[4,5,0,6,11]","action_history":"[1,0,0,0]","mutagen_history":"[0,1,1,1]","location_rts":"[1460,465,421,489]","trial_type":"fractal-mutation","trial_index":58,"time_elapsed":1328024,"internal_node_id":"0.0-5.0-19.0"},{"group":"dihedral group of order 12","fractal_assignment":["../images/red_prp.png","../images/grn_blu.png","../images/org_blu.png","../images/pnk_blu.png","../images/ylw_slt.png","../images/grn_red.png","../images/ylw_pnk.png","../images/grn_prp.png","../images/wht_red.png","../images/gry_blk.png","../images/cyn_red.png","../images/blu_wht.png"],"mutagen_generator_assignment":[1,0],"goal":3,"start":11,"action_noise":0.15,"location_history":"[11,5,0,1,2,3]","action_history":"[1,0,0,0,0]","mutagen_history":"[0,1,1,1,1]","location_rts":"[1106,392,300,531,543]","trial_type":"fractal-mutation","trial_index":59,"time_elapsed":1340785,"internal_node_id":"0.0-5.0-20.0"},{"group":"dihedral group of order 12","fractal_assignment":["../images/red_prp.png","../images/grn_blu.png","../images/org_blu.png","../images/pnk_blu.png","../images/ylw_slt.png","../images/grn_red.png","../images/ylw_pnk.png","../images/grn_prp.png","../images/wht_red.png","../images/gry_blk.png","../images/cyn_red.png","../images/blu_wht.png"],"mutagen_generator_assignment":[1,0],"goal":5,"start":3,"action_noise":0.15,"location_history":"[3,4,10,4,5]","action_history":"[1,1,1,0]","mutagen_history":"[0,0,0,1]","location_rts":"[923,1852,625,539]","trial_type":"fractal-mutation","trial_index":60,"time_elapsed":1352623,"internal_node_id":"0.0-5.0-21.0"},{"group":"dihedral group of order 12","fractal_assignment":["../images/red_prp.png","../images/grn_blu.png","../images/org_blu.png","../images/pnk_blu.png","../images/ylw_slt.png","../images/grn_red.png","../images/ylw_pnk.png","../images/grn_prp.png","../images/wht_red.png","../images/gry_blk.png","../images/cyn_red.png","../images/blu_wht.png"],"mutagen_generator_assignment":[1,0],"goal":7,"start":5,"action_noise":0.15,"location_history":"[5,11,10,9,3,4,5,0,6,11,10,9,3,4,10,9,8,7]","action_history":"[1,0,0,1,0,0,0,1,0,0,0,1,0,0,0,0,0]","mutagen_history":"[0,1,1,0,1,1,1,0,1,1,1,0,1,1,1,1,1]","location_rts":"[847,334,425,769,453,505,570,558,429,399,402,733,335,662,474,958,689]","trial_type":"fractal-mutation","trial_index":61,"time_elapsed":1387678,"internal_node_id":"0.0-5.0-22.0"},{"group":"dihedral group of order 12","fractal_assignment":["../images/red_prp.png","../images/grn_blu.png","../images/org_blu.png","../images/pnk_blu.png","../images/ylw_slt.png","../images/grn_red.png","../images/ylw_pnk.png","../images/grn_prp.png","../images/wht_red.png","../images/gry_blk.png","../images/cyn_red.png","../images/blu_wht.png"],"mutagen_generator_assignment":[1,0],"goal":3,"start":7,"action_noise":0.15,"location_history":"[7,1,2,3]","action_history":"[1,0,0]","mutagen_history":"[0,1,1]","location_rts":"[695,370,395]","trial_type":"fractal-mutation","trial_index":62,"time_elapsed":1396346,"internal_node_id":"0.0-5.0-23.0"},{"group":"dihedral group of order 12","fractal_assignment":["../images/red_prp.png","../images/grn_blu.png","../images/org_blu.png","../images/pnk_blu.png","../images/ylw_slt.png","../images/grn_red.png","../images/ylw_pnk.png","../images/grn_prp.png","../images/wht_red.png","../images/gry_blk.png","../images/cyn_red.png","../images/blu_wht.png"],"mutagen_generator_assignment":[1,0],"goal":4,"start":3,"action_noise":0.15,"location_history":"[3,9,8,2,8,7,1,2,3,4]","action_history":"[1,1,1,1,0,1,1,0,0]","mutagen_history":"[0,0,0,0,1,0,0,1,1]","location_rts":"[797,628,529,505,417,752,804,400,442]","trial_type":"fractal-mutation","trial_index":63,"time_elapsed":1415489,"internal_node_id":"0.0-5.0-24.0"},{"group":"dihedral group of order 12","fractal_assignment":["../images/red_prp.png","../images/grn_blu.png","../images/org_blu.png","../images/pnk_blu.png","../images/ylw_slt.png","../images/grn_red.png","../images/ylw_pnk.png","../images/grn_prp.png","../images/wht_red.png","../images/gry_blk.png","../images/cyn_red.png","../images/blu_wht.png"],"mutagen_generator_assignment":[1,0],"goal":8,"start":4,"action_noise":0.15,"location_history":"[4,10,4,5,11,5,11,10,9,8]","action_history":"[1,1,0,1,1,1,0,0,0]","mutagen_history":"[0,0,1,0,0,0,1,1,1]","location_rts":"[654,607,581,810,719,882,616,597,546]","trial_type":"fractal-mutation","trial_index":64,"time_elapsed":1436008,"internal_node_id":"0.0-5.0-25.0"},{"group":"dihedral group of order 12","fractal_assignment":["../images/red_prp.png","../images/grn_blu.png","../images/org_blu.png","../images/pnk_blu.png","../images/ylw_slt.png","../images/grn_red.png","../images/ylw_pnk.png","../images/grn_prp.png","../images/wht_red.png","../images/gry_blk.png","../images/cyn_red.png","../images/blu_wht.png"],"mutagen_generator_assignment":[1,0],"goal":6,"start":8,"action_noise":0.15,"location_history":"[8,2,3,9,8,2,8,7,6]","action_history":"[1,0,0,0,1,1,0,0]","mutagen_history":"[0,1,1,1,0,0,1,1]","location_rts":"[568,718,341,320,208,589,652,437]","trial_type":"fractal-mutation","trial_index":65,"time_elapsed":1453403,"internal_node_id":"0.0-5.0-26.0"},{"group":"dihedral group of order 12","fractal_assignment":["../images/red_prp.png","../images/grn_blu.png","../images/org_blu.png","../images/pnk_blu.png","../images/ylw_slt.png","../images/grn_red.png","../images/ylw_pnk.png","../images/grn_prp.png","../images/wht_red.png","../images/gry_blk.png","../images/cyn_red.png","../images/blu_wht.png"],"mutagen_generator_assignment":[1,0],"goal":1,"start":6,"action_noise":0.15,"location_history":"[6,0,6,11,10,9,3,4,5,11,5,11,10,9,8,7,6,11,10,4,10,4,10,4,10,9,8,2,8,2,3,4,5,0,6,0,1]","action_history":"[1,1,0,0,0,0,0,1,0,1,1,0,0,0,0,0,0,0,1,1,1,1,1,1,0,0,1,1,0,0,0,0,0,1,0,0]","mutagen_history":"[0,0,1,1,1,1,1,0,1,0,0,1,1,1,1,1,1,1,0,0,0,0,0,0,1,1,0,0,1,1,1,1,1,0,1,1]","location_rts":"[2676,398,297,276,435,406,558,492,530,521,445,1016,411,597,571,787,947,1729,741,543,344,3736,18906,537,1901,1033,431,381,363,400,313,578,443,507,2476,673]","trial_type":"fractal-mutation","trial_index":66,"time_elapsed":1549968,"internal_node_id":"0.0-5.0-27.0"},{"group":"dihedral group of order 12","fractal_assignment":["../images/red_prp.png","../images/grn_blu.png","../images/org_blu.png","../images/pnk_blu.png","../images/ylw_slt.png","../images/grn_red.png","../images/ylw_pnk.png","../images/grn_prp.png","../images/wht_red.png","../images/gry_blk.png","../images/cyn_red.png","../images/blu_wht.png"],"mutagen_generator_assignment":[1,0],"goal":5,"start":1,"action_noise":0.15,"location_history":"[1,7,6,11,5]","action_history":"[1,0,0,1]","mutagen_history":"[0,1,1,0]","location_rts":"[4861,407,1102,306]","trial_type":"fractal-mutation","trial_index":67,"time_elapsed":1564987,"internal_node_id":"0.0-5.0-28.0"},{"group":"dihedral group of order 12","fractal_assignment":["../images/red_prp.png","../images/grn_blu.png","../images/org_blu.png","../images/pnk_blu.png","../images/ylw_slt.png","../images/grn_red.png","../images/ylw_pnk.png","../images/grn_prp.png","../images/wht_red.png","../images/gry_blk.png","../images/cyn_red.png","../images/blu_wht.png"],"mutagen_generator_assignment":[1,0],"goal":9,"start":5,"action_noise":0.15,"location_history":"[5,11,10,9]","action_history":"[1,0,0]","mutagen_history":"[0,1,1]","location_rts":"[681,864,600]","trial_type":"fractal-mutation","trial_index":68,"time_elapsed":1574285,"internal_node_id":"0.0-5.0-29.0"},{"group":"dihedral group of order 12","fractal_assignment":["../images/red_prp.png","../images/grn_blu.png","../images/org_blu.png","../images/pnk_blu.png","../images/ylw_slt.png","../images/grn_red.png","../images/ylw_pnk.png","../images/grn_prp.png","../images/wht_red.png","../images/gry_blk.png","../images/cyn_red.png","../images/blu_wht.png"],"mutagen_generator_assignment":[1,0],"goal":10,"start":9,"action_noise":0.15,"location_history":"[9,8,2,8,7,6,11,10]","action_history":"[1,0,0,0,0,1,0]","mutagen_history":"[0,1,1,1,1,0,1]","location_rts":"[769,401,521,541,433,509,343]","trial_type":"fractal-mutation","trial_index":69,"time_elapsed":1590154,"internal_node_id":"0.0-5.0-30.0"},{"group":"dihedral group of order 12","fractal_assignment":["../images/red_prp.png","../images/grn_blu.png","../images/org_blu.png","../images/pnk_blu.png","../images/ylw_slt.png","../images/grn_red.png","../images/ylw_pnk.png","../images/grn_prp.png","../images/wht_red.png","../images/gry_blk.png","../images/cyn_red.png","../images/blu_wht.png"],"mutagen_generator_assignment":[1,0],"goal":0,"start":10,"action_noise":0.15,"location_history":"[10,4,10,4,10,4,10,4,5,11,5,0]","action_history":"[1,1,1,0,1,1,1,0,1,1,0]","mutagen_history":"[0,0,0,1,0,0,0,1,0,0,1]","location_rts":"[712,659,954,590,227,381,367,419,378,471,803]","trial_type":"fractal-mutation","trial_index":70,"time_elapsed":1612544,"internal_node_id":"0.0-5.0-31.0"},{"group":"dihedral group of order 12","fractal_assignment":["../images/red_prp.png","../images/grn_blu.png","../images/org_blu.png","../images/pnk_blu.png","../images/ylw_slt.png","../images/grn_red.png","../images/ylw_pnk.png","../images/grn_prp.png","../images/wht_red.png","../images/gry_blk.png","../images/cyn_red.png","../images/blu_wht.png"],"mutagen_generator_assignment":[1,0],"goal":7,"start":0,"action_noise":0.15,"location_history":"[0,6,11,10,9,3,4,10,9,8,7]","action_history":"[1,0,0,0,1,1,1,0,0,0]","mutagen_history":"[0,1,1,1,0,0,0,1,1,1]","location_rts":"[770,383,456,1293,348,497,474,456,467,685]","trial_type":"fractal-mutation","trial_index":71,"time_elapsed":1634465,"internal_node_id":"0.0-5.0-32.0"},{"group":"dihedral group of order 12","fractal_assignment":["../images/red_prp.png","../images/grn_blu.png","../images/org_blu.png","../images/pnk_blu.png","../images/ylw_slt.png","../images/grn_red.png","../images/ylw_pnk.png","../images/grn_prp.png","../images/wht_red.png","../images/gry_blk.png","../images/cyn_red.png","../images/blu_wht.png"],"mutagen_generator_assignment":[1,0],"goal":11,"start":7,"action_noise":0.15,"location_history":"[7,1,7,6,0,1,2,3,4,10,4,5,0,1,7,1,7,1,2,3,9,8,2,8,7,1,7,1,7,6,0,1,2,8,2,8,2,3,4,10,9,8,7,1,7,1,2,8,2,8,7,6,0,6,11]","action_history":"[1,0,0,1,0,0,0,0,1,1,0,0,0,1,1,1,1,0,0,1,0,1,1,0,1,1,1,1,0,0,0,0,1,1,0,1,0,0,0,1,0,0,1,1,1,0,0,0,0,0,0,1,1,0]","mutagen_history":"[0,1,1,0,1,1,1,1,0,0,1,1,1,0,0,0,0,1,1,0,1,0,0,1,0,0,0,0,1,1,1,1,0,0,1,0,1,1,1,0,1,1,0,0,0,1,1,1,1,1,1,0,0,1]","location_rts":"[745,640,466,476,490,462,378,529,484,547,672,474,522,405,357,552,625,370,353,394,378,470,413,476,534,606,606,501,403,563,431,1960,469,389,417,839,463,855,680,870,1010,516,882,1249,917,476,438,569,700,911,971,712,582,534]","trial_type":"fractal-mutation","trial_index":72,"time_elapsed":1739059,"internal_node_id":"0.0-5.0-33.0"},{"group":"dihedral group of order 12","fractal_assignment":["../images/red_prp.png","../images/grn_blu.png","../images/org_blu.png","../images/pnk_blu.png","../images/ylw_slt.png","../images/grn_red.png","../images/ylw_pnk.png","../images/grn_prp.png","../images/wht_red.png","../images/gry_blk.png","../images/cyn_red.png","../images/blu_wht.png"],"mutagen_generator_assignment":[1,0],"goal":2,"start":11,"action_noise":0.15,"location_history":"[11,5,0,6,0,6,11,5,11,10,9,8,2]","action_history":"[1,0,1,1,1,0,1,1,0,0,0,1]","mutagen_history":"[0,1,0,0,0,1,0,0,1,1,1,0]","location_rts":"[876,1881,530,753,740,626,367,579,399,560,461,464]","trial_type":"fractal-mutation","trial_index":73,"time_elapsed":1765606,"internal_node_id":"0.0-5.0-34.0"},{"view_history":"[{\"page_index\":0,\"viewing_time\":3812}]","rt":3812,"trial_type":"instructions","trial_index":74,"time_elapsed":1770419,"internal_node_id":"0.0-6.0"},{"rt":21882,"responses":"{\"Q0\":\"remembering?\"}","trial_type":"survey-text","trial_index":75,"time_elapsed":1793315,"internal_node_id":"0.0-7.0-0.0"},{"rt":34480,"responses":"{\"Q0\":\"I think it tied into how to learn by repition\"}","trial_type":"survey-text","trial_index":76,"time_elapsed":1828798,"internal_node_id":"0.0-7.0-1.0"},{"rt":9018,"responses":"{\"Q0\":\"4\"}","trial_type":"survey-likert","trial_index":77,"time_elapsed":1838824,"internal_node_id":"0.0-7.0-2.0"},{"rt":43101,"responses":"{\"Q0\":\"sometimes there was a special figure or color that seemed crucial to finding the next object\"}","trial_type":"survey-text","trial_index":78,"time_elapsed":1882930,"internal_node_id":"0.0-7.0-3.0"},{"rt":7021,"responses":"{\"Q0\":\"Yes\"}","trial_type":"survey-multi-choice","trial_index":79,"time_elapsed":1890964,"internal_node_id":"0.0-7.0-4.0"},{"rt":10290,"responses":"{\"Q0\":\"Between sessions 1 and 2\"}","trial_type":"survey-multi-choice","trial_index":80,"time_elapsed":1902266,"internal_node_id":"0.0-7.0-5.0"},{"rt":24138,"responses":"{\"Q0\":\"couldn't put my finger on it, but I knew it was there.\"}","trial_type":"survey-text","trial_index":81,"time_elapsed":1927407,"internal_node_id":"0.0-7.0-6.0"},{"rt":7383,"responses":"{\"Q0\":\"1\"}","trial_type":"survey-likert","trial_index":82,"time_elapsed":1935795,"internal_node_id":"0.0-7.0-7.0"},{"rt":8091,"responses":"{\"Q0\":\"Same structure\"}","trial_type":"survey-multi-choice","trial_index":83,"time_elapsed":1944892,"internal_node_id":"0.0-7.0-8.0"},{"rt":27057,"responses":"{\"Q0\":\"white door = acid, black door = ray\",\"Q1\":\"Not at all confident\"}","trial_type":"survey-multi-choice","trial_index":84,"time_elapsed":1972958,"internal_node_id":"0.0-7.0-9.0"},{"rt":18588,"responses":"{\"Q0\":\"55-65\",\"Q1\":\"Some college\",\"Q2\":\"Female\",\"Q3\":\"White\"}","trial_type":"survey-multi-choice","trial_index":85,"time_elapsed":1992578,"internal_node_id":"0.0-8.0"},{"rt":10100,"responses":"{\"Q0\":\"no\"}","trial_type":"survey-text","trial_index":86,"time_elapsed":2003682,"internal_node_id":"0.0-9.0"}]