[{"view_history":"[{\"page_index\":0,\"viewing_time\":18913},{\"page_index\":1,\"viewing_time\":29339}]","rt":48254,"trial_type":"instructions","trial_index":0,"time_elapsed":48258,"internal_node_id":"0.0-0.0"},{"view_history":"[{\"page_index\":0,\"viewing_time\":3299},{\"page_index\":1,\"viewing_time\":22099}]","rt":25400,"trial_type":"instructions","trial_index":1,"time_elapsed":74660,"internal_node_id":"0.0-1.0"},{"group":"dihedral group of order 12","room_assignment":["blue","red","pink","purple","grey","yellow","olive","cyan","ivory","green","brown","orange"],"door_color_assignment":["white","black"],"door_generator_assignment":[0,1],"goal":7,"start":3,"action_noise":0.15,"location_history":"[3,4,5,0,6,11,5,0,6,0,6,11,10,9,8,7]","action_history":"[0,0,0,0,1,1,1,1,1,1,0,0,0,0,0]","door_history":"[0,0,0,0,1,1,1,1,1,1,0,0,0,0,0]","location_rts":"[2200,425,300,292,380,423,551,1089,521,480,786,472,510,512,459]","trial_type":"two-door-navigation","trial_index":2,"time_elapsed":102928,"internal_node_id":"0.0-2.0-0.0"},{"group":"dihedral group of order 12","room_assignment":["blue","red","pink","purple","grey","yellow","olive","cyan","ivory","green","brown","orange"],"door_color_assignment":["white","black"],"door_generator_assignment":[0,1],"goal":5,"start":7,"action_noise":0.15,"location_history":"[7,6,11,10,9,8,7,6,0,1,2,8,7,6,11,10,4,10,4,10,9,8,7,1,7,1,2,3,9,3,9,8,7,1,7,6,11,10,9,3,4,5]","action_history":"[0,0,0,0,0,1,1,1,1,1,0,0,0,0,0,0,1,1,1,0,0,0,1,1,1,0,0,0,1,1,0,0,1,1,0,0,0,0,1,0,0]","door_history":"[0,0,0,0,0,1,1,1,1,1,0,0,0,0,0,0,1,1,1,0,0,0,1,1,1,0,0,0,1,1,0,0,1,1,0,0,0,0,1,0,0]","location_rts":"[1442,486,74,419,155,729,389,448,342,1085,695,494,433,462,417,449,1021,727,478,1020,523,547,1051,787,875,1063,500,491,1076,628,913,645,937,653,802,553,492,540,1101,1405,568]","trial_type":"two-door-navigation","trial_index":3,"time_elapsed":176175,"internal_node_id":"0.0-2.0-1.0"},{"group":"dihedral group of order 12","room_assignment":["blue","red","pink","purple","grey","yellow","olive","cyan","ivory","green","brown","orange"],"door_color_assignment":["white","black"],"door_generator_assignment":[0,1],"goal":0,"start":5,"action_noise":0.15,"location_history":"[5,0]","action_history":"[0]","door_history":"[0]","location_rts":"[1541]","trial_type":"two-door-navigation","trial_index":4,"time_elapsed":182239,"internal_node_id":"0.0-2.0-2.0"},{"group":"dihedral group of order 12","room_assignment":["blue","red","pink","purple","grey","yellow","olive","cyan","ivory","green","brown","orange"],"door_color_assignment":["white","black"],"door_generator_assignment":[0,1],"goal":2,"start":0,"action_noise":0.15,"location_history":"[0,1,2]","action_history":"[0,0]","door_history":"[0,0]","location_rts":"[3681,382]","trial_type":"two-door-navigation","trial_index":5,"time_elapsed":191837,"internal_node_id":"0.0-2.0-3.0"},{"group":"dihedral group of order 12","room_assignment":["blue","red","pink","purple","grey","yellow","olive","cyan","ivory","green","brown","orange"],"door_color_assignment":["white","black"],"door_generator_assignment":[0,1],"goal":10,"start":2,"action_noise":0.15,"location_history":"[2,3,4,5,0,6,0,1,7,6,11,10]","action_history":"[0,0,0,0,1,1,1,1,0,0,0]","door_history":"[0,0,0,0,1,1,1,1,0,0,0]","location_rts":"[853,549,345,390,425,349,382,342,380,364,317]","trial_type":"two-door-navigation","trial_index":6,"time_elapsed":211386,"internal_node_id":"0.0-2.0-4.0"},{"group":"dihedral group of order 12","room_assignment":["blue","red","pink","purple","grey","yellow","olive","cyan","ivory","green","brown","orange"],"door_color_assignment":["white","black"],"door_generator_assignment":[0,1],"goal":8,"start":10,"action_noise":0.15,"location_history":"[10,4,10,4,10,4,5,0,1,2,8]","action_history":"[0,1,1,1,0,0,0,0,0,0]","door_history":"[0,1,1,1,0,0,0,0,0,0]","location_rts":"[2101,1147,1148,1842,1496,368,369,307,495,343]","trial_type":"two-door-navigation","trial_index":7,"time_elapsed":234847,"internal_node_id":"0.0-2.0-5.0"},{"group":"dihedral group of order 12","room_assignment":["blue","red","pink","purple","grey","yellow","olive","cyan","ivory","green","brown","orange"],"door_color_assignment":["white","black"],"door_generator_assignment":[0,1],"goal":11,"start":8,"action_noise":0.15,"location_history":"[8,7,6,11]","action_history":"[0,0,0]","door_history":"[0,0,0]","location_rts":"[16179,2203,402]","trial_type":"two-door-navigation","trial_index":8,"time_elapsed":260182,"internal_node_id":"0.0-2.0-6.0"},{"group":"dihedral group of order 12","room_assignment":["blue","red","pink","purple","grey","yellow","olive","cyan","ivory","green","brown","orange"],"door_color_assignment":["white","black"],"door_generator_assignment":[0,1],"goal":6,"start":11,"action_noise":0.15,"location_history":"[11,5,11,5,11,5,0,1,2,3,4,10,4,5,0,1,7,6]","action_history":"[0,1,1,1,1,0,0,0,0,0,1,1,0,0,0,0,0]","door_history":"[0,1,1,1,1,0,0,0,0,0,1,1,0,0,0,0,0]","location_rts":"[1829,1249,490,1318,2139,2108,518,413,1316,699,1775,1632,866,398,632,519,386]","trial_type":"two-door-navigation","trial_index":9,"time_elapsed":299355,"internal_node_id":"0.0-2.0-7.0"},{"group":"dihedral group of order 12","room_assignment":["blue","red","pink","purple","grey","yellow","olive","cyan","ivory","green","brown","orange"],"door_color_assignment":["white","black"],"door_generator_assignment":[0,1],"goal":4,"start":6,"action_noise":0.15,"location_history":"[6,11,10,4]","action_history":"[0,0,1]","door_history":"[0,0,1]","location_rts":"[1309,383,948]","trial_type":"two-door-navigation","trial_index":10,"time_elapsed":308552,"internal_node_id":"0.0-2.0-8.0"},{"group":"dihedral group of order 12","room_assignment":["blue","red","pink","purple","grey","yellow","olive","cyan","ivory","green","brown","orange"],"door_color_assignment":["white","black"],"door_generator_assignment":[0,1],"goal":1,"start":4,"action_noise":0.15,"location_history":"[4,5,0,1]","action_history":"[0,0,0]","door_history":"[0,0,0]","location_rts":"[1695,404,489]","trial_type":"two-door-navigation","trial_index":11,"time_elapsed":317705,"internal_node_id":"0.0-2.0-9.0"},{"group":"dihedral group of order 12","room_assignment":["blue","red","pink","purple","grey","yellow","olive","cyan","ivory","green","brown","orange"],"door_color_assignment":["white","black"],"door_generator_assignment":[0,1],"goal":9,"start":1,"action_noise":0.15,"location_history":"[1,2,3,4,5,11,5,11,10,9]","action_history":"[0,0,0,0,1,1,1,0,0]","door_history":"[0,0,0,0,1,1,1,0,0]","location_rts":"[608,340,360,380,597,579,108,1151,255]","trial_type":"two-door-navigation","trial_index":12,"time_elapsed":334757,"internal_node_id":"0.0-2.0-10.0"},{"group":"dihedral group of order 12","room_assignment":["blue","red","pink","purple","grey","yellow","olive","cyan","ivory","green","brown","orange"],"door_color_assignment":["white","black"],"door_generator_assignment":[0,1],"goal":10,"start":9,"action_noise":0.15,"location_history":"[9,8,7,6,11,5,11,5,11,5,0,1,2,8,2,8,2,3,4,5,0,1,7,1,2,3,4,5,11,10]","action_history":"[0,0,0,0,1,1,1,1,1,0,0,0,1,1,1,1,0,0,0,0,0,1,1,0,0,0,0,1,1]","door_history":"[0,0,0,0,1,1,1,1,1,0,0,0,1,1,1,1,0,0,0,0,0,1,1,0,0,0,0,1,1]","location_rts":"[565,408,370,362,419,158,360,374,340,233,306,183,443,334,60,105,90,169,236,38,238,1291,597,1545,4644,390,1098,947,629]","trial_type":"two-door-navigation","trial_index":13,"time_elapsed":384792,"internal_node_id":"0.0-2.0-11.0"},{"group":"dihedral group of order 12","room_assignment":["blue","red","pink","purple","grey","yellow","olive","cyan","ivory","green","brown","orange"],"door_color_assignment":["white","black"],"door_generator_assignment":[0,1],"goal":2,"start":10,"action_noise":0.15,"location_history":"[10,9,8,7,6,0,6,11,5,0,6,0,6,0,6,11,5,0,6,0,6,11,5,11,5,0,1,2]","action_history":"[0,0,0,1,1,0,0,0,0,0,1,1,1,1,0,0,0,0,0,1,1,1,1,1,0,0,0]","door_history":"[0,0,0,1,1,0,0,0,0,0,1,1,1,1,0,0,0,0,0,1,1,1,1,1,0,0,0]","location_rts":"[1542,412,384,434,604,407,417,408,469,600,1284,7603,729,613,687,479,297,366,481,1007,484,540,635,621,1256,553,2863]","trial_type":"two-door-navigation","trial_index":14,"time_elapsed":442050,"internal_node_id":"0.0-2.0-12.0"},{"group":"dihedral group of order 12","room_assignment":["blue","red","pink","purple","grey","yellow","olive","cyan","ivory","green","brown","orange"],"door_color_assignment":["white","black"],"door_generator_assignment":[0,1],"goal":0,"start":2,"action_noise":0.15,"location_history":"[2,3,4,5,0]","action_history":"[0,0,0,0]","door_history":"[0,0,0,0]","location_rts":"[3888,821,6949,407]","trial_type":"two-door-navigation","trial_index":15,"time_elapsed":461686,"internal_node_id":"0.0-2.0-13.0"},{"group":"dihedral group of order 12","room_assignment":["blue","red","pink","purple","grey","yellow","olive","cyan","ivory","green","brown","orange"],"door_color_assignment":["white","black"],"door_generator_assignment":[0,1],"goal":9,"start":0,"action_noise":0.15,"location_history":"[0,1,2,3,4,10,9]","action_history":"[0,0,0,1,1,1]","door_history":"[0,0,0,1,1,1]","location_rts":"[1665,328,164,508,278,1266]","trial_type":"two-door-navigation","trial_index":16,"time_elapsed":475538,"internal_node_id":"0.0-2.0-14.0"},{"group":"dihedral group of order 12","room_assignment":["blue","red","pink","purple","grey","yellow","olive","cyan","ivory","green","brown","orange"],"door_color_assignment":["white","black"],"door_generator_assignment":[0,1],"goal":8,"start":9,"action_noise":0.15,"location_history":"[9,8]","action_history":"[0]","door_history":"[0]","location_rts":"[942]","trial_type":"two-door-navigation","trial_index":17,"time_elapsed":481002,"internal_node_id":"0.0-2.0-15.0"},{"group":"dihedral group of order 12","room_assignment":["blue","red","pink","purple","grey","yellow","olive","cyan","ivory","green","brown","orange"],"door_color_assignment":["white","black"],"door_generator_assignment":[0,1],"goal":6,"start":8,"action_noise":0.15,"location_history":"[8,7,6]","action_history":"[0,0]","door_history":"[0,0]","location_rts":"[517,402]","trial_type":"two-door-navigation","trial_index":18,"time_elapsed":487459,"internal_node_id":"0.0-2.0-16.0"},{"group":"dihedral group of order 12","room_assignment":["blue","red","pink","purple","grey","yellow","olive","cyan","ivory","green","brown","orange"],"door_color_assignment":["white","black"],"door_generator_assignment":[0,1],"goal":1,"start":6,"action_noise":0.15,"location_history":"[6,11,5,11,10,9,8,7,1]","action_history":"[0,1,1,0,0,0,0,1]","door_history":"[0,1,1,0,0,0,0,1]","location_rts":"[414,1411,9004,1175,298,300,339,465]","trial_type":"two-door-navigation","trial_index":19,"time_elapsed":512499,"internal_node_id":"0.0-2.0-17.0"},{"group":"dihedral group of order 12","room_assignment":["blue","red","pink","purple","grey","yellow","olive","cyan","ivory","green","brown","orange"],"door_color_assignment":["white","black"],"door_generator_assignment":[0,1],"goal":4,"start":1,"action_noise":0.15,"location_history":"[1,2,8,7,1,2,8,7,1,7,6,0,6,0,1,2,3,9,3,9,8,7,6,11,10,9,8,2,3,4]","action_history":"[0,0,0,0,0,1,1,1,1,0,0,1,1,0,0,0,0,0,1,0,0,1,0,0,0,0,1,0,0]","door_history":"[0,0,0,0,0,1,1,1,1,0,0,1,1,0,0,0,0,0,1,0,0,1,0,0,0,0,1,0,0]","location_rts":"[1365,305,362,353,418,469,575,519,599,962,412,1162,844,778,612,429,435,623,1378,1750,591,1192,1002,401,464,932,1165,1326,581]","trial_type":"two-door-navigation","trial_index":20,"time_elapsed":567668,"internal_node_id":"0.0-2.0-18.0"},{"group":"dihedral group of order 12","room_assignment":["blue","red","pink","purple","grey","yellow","olive","cyan","ivory","green","brown","orange"],"door_color_assignment":["white","black"],"door_generator_assignment":[0,1],"goal":11,"start":4,"action_noise":0.15,"location_history":"[4,10,4,5,11]","action_history":"[0,0,0,1]","door_history":"[0,0,0,1]","location_rts":"[6093,7046,582,715]","trial_type":"two-door-navigation","trial_index":21,"time_elapsed":589678,"internal_node_id":"0.0-2.0-19.0"},{"group":"dihedral group of order 12","room_assignment":["blue","red","pink","purple","grey","yellow","olive","cyan","ivory","green","brown","orange"],"door_color_assignment":["white","black"],"door_generator_assignment":[0,1],"goal":3,"start":11,"action_noise":0.15,"location_history":"[11,10,9,8,2,8,7,6,11,10,4,5,0,6,11,10,4,10,9,8,2,8,7,1,7,1,7,6,0,6,0,1,2,8,7,1,7,1,7,6,11,5,0,6,11,10,9,8,2,3]","action_history":"[0,0,0,1,1,0,0,1,1,1,0,0,1,0,0,1,1,0,0,1,1,0,0,0,1,0,0,1,0,1,0,0,1,0,0,1,1,0,0,0,1,0,1,0,0,0,0,1,0]","door_history":"[0,0,0,1,1,0,0,1,1,1,0,0,1,0,0,1,1,0,0,1,1,0,0,0,1,0,0,1,0,1,0,0,1,0,0,1,1,0,0,0,1,0,1,0,0,0,0,1,0]","location_rts":"[5173,396,288,624,368,47220,330,448,492,239,563,343,316,828,367,523,556,693,365,998,524,819,383,618,398,390,469,1486,466,537,1385,333,1583,328,588,1125,1392,377,376,1659,1309,570,888,894,789,490,492,463,382]","trial_type":"two-door-navigation","trial_index":22,"time_elapsed":726572,"internal_node_id":"0.0-2.0-20.0"},{"group":"dihedral group of order 12","room_assignment":["blue","red","pink","purple","grey","yellow","olive","cyan","ivory","green","brown","orange"],"door_color_assignment":["white","black"],"door_generator_assignment":[0,1],"goal":5,"start":3,"action_noise":0.15,"location_history":"[3,4,5]","action_history":"[0,0]","door_history":"[0,0]","location_rts":"[1198,293]","trial_type":"two-door-navigation","trial_index":23,"time_elapsed":733602,"internal_node_id":"0.0-2.0-21.0"},{"group":"dihedral group of order 12","room_assignment":["blue","red","pink","purple","grey","yellow","olive","cyan","ivory","green","brown","orange"],"door_color_assignment":["white","black"],"door_generator_assignment":[0,1],"goal":7,"start":5,"action_noise":0.15,"location_history":"[5,0,1,2,3,4,10,4,10,4,10,9,3,4,5,0,1,7]","action_history":"[0,0,0,0,1,1,0,0,1,1,0,0,0,0,0,0,1]","door_history":"[0,0,0,0,1,1,0,0,1,1,0,0,0,0,0,0,1]","location_rts":"[925,406,196,315,517,361,386,357,420,443,389,320,325,261,232,309,748]","trial_type":"two-door-navigation","trial_index":24,"time_elapsed":761298,"internal_node_id":"0.0-2.0-22.0"},{"group":"dihedral group of order 12","room_assignment":["blue","red","pink","purple","grey","yellow","olive","cyan","ivory","green","brown","orange"],"door_color_assignment":["white","black"],"door_generator_assignment":[0,1],"goal":3,"start":7,"action_noise":0.15,"location_history":"[7,6,11,10,4,5,11,5,11,10,4,5,0,6,11,10,9,8,7,1,2,3]","action_history":"[0,0,0,1,0,1,0,1,0,0,0,0,1,0,0,0,0,0,1,0,0]","door_history":"[0,0,0,1,0,1,0,1,0,0,0,0,1,0,0,0,0,0,1,0,0]","location_rts":"[1418,560,471,396,517,1192,443,438,580,511,356,810,1060,394,408,330,375,363,1097,688,404]","trial_type":"two-door-navigation","trial_index":25,"time_elapsed":799174,"internal_node_id":"0.0-2.0-23.0"},{"group":"dihedral group of order 12","room_assignment":["blue","red","pink","purple","grey","yellow","olive","cyan","ivory","green","brown","orange"],"door_color_assignment":["white","black"],"door_generator_assignment":[0,1],"goal":4,"start":3,"action_noise":0.15,"location_history":"[3,4]","action_history":"[0]","door_history":"[0]","location_rts":"[1915]","trial_type":"two-door-navigation","trial_index":26,"time_elapsed":805613,"internal_node_id":"0.0-2.0-24.0"},{"group":"dihedral group of order 12","room_assignment":["blue","red","pink","purple","grey","yellow","olive","cyan","ivory","green","brown","orange"],"door_color_assignment":["white","black"],"door_generator_assignment":[0,1],"goal":8,"start":4,"action_noise":0.15,"location_history":"[4,5,0,1,2,3,9,3,4,5,11,10,9,3,4,5,0,1,2,8]","action_history":"[0,0,0,0,0,1,1,0,0,1,0,0,1,0,0,0,0,0,1]","door_history":"[0,0,0,0,0,1,1,0,0,1,0,0,1,0,0,0,0,0,1]","location_rts":"[768,534,336,274,69,222,303,90,390,471,366,389,1335,658,525,4415,203,19556,853]","trial_type":"two-door-navigation","trial_index":27,"time_elapsed":860278,"internal_node_id":"0.0-2.0-25.0"},{"group":"dihedral group of order 12","room_assignment":["blue","red","pink","purple","grey","yellow","olive","cyan","ivory","green","brown","orange"],"door_color_assignment":["white","black"],"door_generator_assignment":[0,1],"goal":6,"start":8,"action_noise":0.15,"location_history":"[8,2,8,7,1,7,6]","action_history":"[1,0,0,1,1,0]","door_history":"[1,0,0,1,1,0]","location_rts":"[2466,488,384,350,905,675]","trial_type":"two-door-navigation","trial_index":28,"time_elapsed":875157,"internal_node_id":"0.0-2.0-26.0"},{"group":"dihedral group of order 12","room_assignment":["blue","red","pink","purple","grey","yellow","olive","cyan","ivory","green","brown","orange"],"door_color_assignment":["white","black"],"door_generator_assignment":[0,1],"goal":1,"start":6,"action_noise":0.15,"location_history":"[6,11,10,4,5,0,6,11,10,4,5,0,1]","action_history":"[0,0,0,0,0,1,0,0,1,0,0,1]","door_history":"[0,0,0,0,0,1,0,0,1,0,0,1]","location_rts":"[1457,328,388,361,403,454,381,372,786,438,526,859]","trial_type":"two-door-navigation","trial_index":29,"time_elapsed":897627,"internal_node_id":"0.0-2.0-27.0"},{"group":"dihedral group of order 12","room_assignment":["blue","red","pink","purple","grey","yellow","olive","cyan","ivory","green","brown","orange"],"door_color_assignment":["white","black"],"door_generator_assignment":[0,1],"goal":5,"start":1,"action_noise":0.15,"location_history":"[1,2,3,4,10,9,3,4,10,9,8,2,3,4,10,9,8,7,1,2,8,2,8,7,1,7,6,11,10,4,10,9,8,7,6,11,5]","action_history":"[0,0,0,1,0,0,0,1,0,0,1,0,0,1,0,0,0,1,1,0,0,1,1,0,0,0,0,0,1,1,0,0,0,0,0,0]","door_history":"[0,0,0,1,0,0,0,1,0,0,1,0,0,1,0,0,0,1,1,0,0,1,1,0,0,0,0,0,1,1,0,0,0,0,0,0]","location_rts":"[1755,443,286,275,875,197,331,332,408,405,430,447,316,441,389,310,353,584,479,933,429,868,961,932,965,604,593,512,392,515,691,335,530,369,359,413]","trial_type":"two-door-navigation","trial_index":30,"time_elapsed":957360,"internal_node_id":"0.0-2.0-28.0"},{"group":"dihedral group of order 12","room_assignment":["blue","red","pink","purple","grey","yellow","olive","cyan","ivory","green","brown","orange"],"door_color_assignment":["white","black"],"door_generator_assignment":[0,1],"goal":9,"start":5,"action_noise":0.15,"location_history":"[5,0,6,0,1,2,3,9]","action_history":"[0,1,1,0,0,0,0]","door_history":"[0,1,1,0,0,0,0]","location_rts":"[740,984,1303,780,249,317,310]","trial_type":"two-door-navigation","trial_index":31,"time_elapsed":972949,"internal_node_id":"0.0-2.0-29.0"},{"group":"dihedral group of order 12","room_assignment":["blue","red","pink","purple","grey","yellow","olive","cyan","ivory","green","brown","orange"],"door_color_assignment":["white","black"],"door_generator_assignment":[0,1],"goal":10,"start":9,"action_noise":0.15,"location_history":"[9,8,2,8,2,3,9,3,4,5,0,1,2,3,4,10]","action_history":"[0,0,1,0,0,0,1,0,0,0,1,0,0,0,1]","door_history":"[0,0,1,0,0,0,1,0,0,0,1,0,0,0,1]","location_rts":"[1110,411,316,462,342,331,330,360,421,429,401,544,504,392,372]","trial_type":"two-door-navigation","trial_index":32,"time_elapsed":998445,"internal_node_id":"0.0-2.0-30.0"},{"group":"dihedral group of order 12","room_assignment":["blue","red","pink","purple","grey","yellow","olive","cyan","ivory","green","brown","orange"],"door_color_assignment":["white","black"],"door_generator_assignment":[0,1],"goal":0,"start":10,"action_noise":0.15,"location_history":"[10,4,5,11,10,9,3,4,5,11,5,0]","action_history":"[0,0,1,0,0,1,0,0,1,1,0]","door_history":"[0,0,1,0,0,1,0,0,1,1,0]","location_rts":"[1259,284,138,318,184,373,371,323,1050,317,1253]","trial_type":"two-door-navigation","trial_index":33,"time_elapsed":1019257,"internal_node_id":"0.0-2.0-31.0"},{"group":"dihedral group of order 12","room_assignment":["blue","red","pink","purple","grey","yellow","olive","cyan","ivory","green","brown","orange"],"door_color_assignment":["white","black"],"door_generator_assignment":[0,1],"goal":7,"start":0,"action_noise":0.15,"location_history":"[0,1,2,3,4,5,11,5,0,1,2,8,2,3,9,3,9,3,9,8,7]","action_history":"[0,0,0,0,0,1,1,0,0,0,1,0,0,0,0,1,0,0,0,0]","door_history":"[0,0,0,0,0,1,1,0,0,0,1,0,0,0,0,1,0,0,0,0]","location_rts":"[1004,1706,4338,190,127,160,361,26,212,56,72,159,305,259,201,583,407,401,187,230]","trial_type":"two-door-navigation","trial_index":34,"time_elapsed":1054074,"internal_node_id":"0.0-2.0-32.0"},{"group":"dihedral group of order 12","room_assignment":["blue","red","pink","purple","grey","yellow","olive","cyan","ivory","green","brown","orange"],"door_color_assignment":["white","black"],"door_generator_assignment":[0,1],"goal":11,"start":7,"action_noise":0.15,"location_history":"[7,6,11]","action_history":"[0,0]","door_history":"[0,0]","location_rts":"[2557,145]","trial_type":"two-door-navigation","trial_index":35,"time_elapsed":1062313,"internal_node_id":"0.0-2.0-33.0"},{"group":"dihedral group of order 12","room_assignment":["blue","red","pink","purple","grey","yellow","olive","cyan","ivory","green","brown","orange"],"door_color_assignment":["white","black"],"door_generator_assignment":[0,1],"goal":2,"start":11,"action_noise":0.15,"location_history":"[11,5,0,6,11,10,9,8,7,1,7,6,11,5,0,6,11,10,9,3,9,8,7,6,11,5,11,10,9,3,4,5,0,1,2]","action_history":"[0,0,0,1,0,0,0,0,1,1,0,0,1,0,1,0,0,0,1,0,0,0,0,0,1,0,0,0,0,0,0,0,0,0]","door_history":"[0,0,0,1,0,0,0,0,1,1,0,0,1,0,1,0,0,0,1,0,0,0,0,0,1,0,0,0,0,0,0,0,0,0]","location_rts":"[1353,1143,215,318,2804,270,214,291,501,68,205,169,211,205,296,2,175,918,890,194,338,178,155,305,530,430,379,168,321,175,224,269,318,311]","trial_type":"two-door-navigation","trial_index":36,"time_elapsed":1115343,"internal_node_id":"0.0-2.0-34.0"},{"view_history":"[{\"page_index\":0,\"viewing_time\":2993}]","rt":2995,"trial_type":"instructions","trial_index":37,"time_elapsed":1119339,"internal_node_id":"0.0-3.0"},{"view_history":"[{\"page_index\":0,\"viewing_time\":3600},{\"page_index\":1,\"viewing_time\":3898}]","rt":7499,"trial_type":"instructions","trial_index":38,"time_elapsed":1127839,"internal_node_id":"0.0-4.0"},{"group":"dihedral group of order 12","fractal_assignment":["../images/red_prp.png","../images/grn_red.png","../images/org_blu.png","../images/cyn_red.png","../images/pnk_blu.png","../images/grn_blu.png","../images/gry_blk.png","../images/ylw_slt.png","../images/wht_red.png","../images/grn_prp.png","../images/blu_wht.png","../images/ylw_pnk.png"],"mutagen_generator_assignment":[0,1],"goal":7,"start":3,"action_noise":0.15,"location_history":"[3,4,10,4,10,4,5,0,6,0,1,2,3,4,5,0,6,11,10,9,8,2,3,9,3,4,5,0,6,0,6,0,6,0,6,11,10,9,8,7]","action_history":"[0,0,1,1,0,0,0,1,0,0,0,0,0,0,0,1,0,0,1,0,1,0,0,1,0,0,0,0,1,1,1,0,1,1,0,0,1,0,1]","mutagen_history":"[0,0,1,1,0,0,0,1,0,0,0,0,0,0,0,1,0,0,1,0,1,0,0,1,0,0,0,0,1,1,1,0,1,1,0,0,1,0,1]","location_rts":"[6233,547,322,249,270,386,267,975,473,419,437,423,341,610,799,315,454,455,321,495,417,388,465,406,586,557,526,325,303,432,345,601,376,505,1644,260,365,283,352]","trial_type":"fractal-mutation","trial_index":39,"time_elapsed":1205177,"internal_node_id":"0.0-5.0-0.0"},{"group":"dihedral group of order 12","fractal_assignment":["../images/red_prp.png","../images/grn_red.png","../images/org_blu.png","../images/cyn_red.png","../images/pnk_blu.png","../images/grn_blu.png","../images/gry_blk.png","../images/ylw_slt.png","../images/wht_red.png","../images/grn_prp.png","../images/blu_wht.png","../images/ylw_pnk.png"],"mutagen_generator_assignment":[0,1],"goal":5,"start":7,"action_noise":0.15,"location_history":"[7,1,2,3,9,3,4,5]","action_history":"[1,1,0,1,1,0,0]","mutagen_history":"[1,1,0,1,1,0,0]","location_rts":"[768,427,395,405,879,592,1148]","trial_type":"fractal-mutation","trial_index":40,"time_elapsed":1222225,"internal_node_id":"0.0-5.0-1.0"},{"group":"dihedral group of order 12","fractal_assignment":["../images/red_prp.png","../images/grn_red.png","../images/org_blu.png","../images/cyn_red.png","../images/pnk_blu.png","../images/grn_blu.png","../images/gry_blk.png","../images/ylw_slt.png","../images/wht_red.png","../images/grn_prp.png","../images/blu_wht.png","../images/ylw_pnk.png"],"mutagen_generator_assignment":[0,1],"goal":0,"start":5,"action_noise":0.15,"location_history":"[5,0]","action_history":"[0]","mutagen_history":"[0]","location_rts":"[742]","trial_type":"fractal-mutation","trial_index":41,"time_elapsed":1227514,"internal_node_id":"0.0-5.0-2.0"},{"group":"dihedral group of order 12","fractal_assignment":["../images/red_prp.png","../images/grn_red.png","../images/org_blu.png","../images/cyn_red.png","../images/pnk_blu.png","../images/grn_blu.png","../images/gry_blk.png","../images/ylw_slt.png","../images/wht_red.png","../images/grn_prp.png","../images/blu_wht.png","../images/ylw_pnk.png"],"mutagen_generator_assignment":[0,1],"goal":2,"start":0,"action_noise":0.15,"location_history":"[0,6,11,10,4,5,0,1,2]","action_history":"[1,0,0,1,0,0,0,0]","mutagen_history":"[1,0,0,1,0,0,0,0]","location_rts":"[1227,350,420,306,732,435,523,474]","trial_type":"fractal-mutation","trial_index":42,"time_elapsed":1245326,"internal_node_id":"0.0-5.0-3.0"},{"group":"dihedral group of order 12","fractal_assignment":["../images/red_prp.png","../images/grn_red.png","../images/org_blu.png","../images/cyn_red.png","../images/pnk_blu.png","../images/grn_blu.png","../images/gry_blk.png","../images/ylw_slt.png","../images/wht_red.png","../images/grn_prp.png","../images/blu_wht.png","../images/ylw_pnk.png"],"mutagen_generator_assignment":[0,1],"goal":10,"start":2,"action_noise":0.15,"location_history":"[2,3,9,3,9,8,7,1,2,8,7,6,0,6,11,10]","action_history":"[0,1,1,1,0,0,1,1,1,0,0,1,1,0,0]","mutagen_history":"[0,1,1,1,0,0,1,1,1,0,0,1,1,0,0]","location_rts":"[267,616,466,541,529,441,309,366,31,645,549,413,426,440,405]","trial_type":"fractal-mutation","trial_index":43,"time_elapsed":1274747,"internal_node_id":"0.0-5.0-4.0"},{"group":"dihedral group of order 12","fractal_assignment":["../images/red_prp.png","../images/grn_red.png","../images/org_blu.png","../images/cyn_red.png","../images/pnk_blu.png","../images/grn_blu.png","../images/gry_blk.png","../images/ylw_slt.png","../images/wht_red.png","../images/grn_prp.png","../images/blu_wht.png","../images/ylw_pnk.png"],"mutagen_generator_assignment":[0,1],"goal":8,"start":10,"action_noise":0.15,"location_history":"[10,9,8]","action_history":"[0,0]","mutagen_history":"[0,0]","location_rts":"[694,331]","trial_type":"fractal-mutation","trial_index":44,"time_elapsed":1281376,"internal_node_id":"0.0-5.0-5.0"},{"group":"dihedral group of order 12","fractal_assignment":["../images/red_prp.png","../images/grn_red.png","../images/org_blu.png","../images/cyn_red.png","../images/pnk_blu.png","../images/grn_blu.png","../images/gry_blk.png","../images/ylw_slt.png","../images/wht_red.png","../images/grn_prp.png","../images/blu_wht.png","../images/ylw_pnk.png"],"mutagen_generator_assignment":[0,1],"goal":11,"start":8,"action_noise":0.15,"location_history":"[8,2,3,4,5,11]","action_history":"[1,0,0,0,1]","mutagen_history":"[1,0,0,0,1]","location_rts":"[1159,389,389,372,416]","trial_type":"fractal-mutation","trial_index":45,"time_elapsed":1293862,"internal_node_id":"0.0-5.0-6.0"},{"group":"dihedral group of order 12","fractal_assignment":["../images/red_prp.png","../images/grn_red.png","../images/org_blu.png","../images/cyn_red.png","../images/pnk_blu.png","../images/grn_blu.png","../images/gry_blk.png","../images/ylw_slt.png","../images/wht_red.png","../images/grn_prp.png","../images/blu_wht.png","../images/ylw_pnk.png"],"mutagen_generator_assignment":[0,1],"goal":6,"start":11,"action_noise":0.15,"location_history":"[11,10,4,5,0,1,2,3,9,3,4,5,11,10,4,10,4,5,11,5,0,6]","action_history":"[0,1,0,0,1,0,1,1,1,0,0,1,0,0,1,1,0,0,1,0,1]","mutagen_history":"[0,1,0,0,1,0,1,1,1,0,0,1,0,0,1,1,0,0,1,0,1]","location_rts":"[310,523,461,388,289,411,435,396,358,652,589,645,509,518,443,400,484,598,369,266,496]","trial_type":"fractal-mutation","trial_index":46,"time_elapsed":1333952,"internal_node_id":"0.0-5.0-7.0"},{"group":"dihedral group of order 12","fractal_assignment":["../images/red_prp.png","../images/grn_red.png","../images/org_blu.png","../images/cyn_red.png","../images/pnk_blu.png","../images/grn_blu.png","../images/gry_blk.png","../images/ylw_slt.png","../images/wht_red.png","../images/grn_prp.png","../images/blu_wht.png","../images/ylw_pnk.png"],"mutagen_generator_assignment":[0,1],"goal":4,"start":6,"action_noise":0.15,"location_history":"[6,0,1,7,1,7,1,2,8,7,1,7,6,11,10,4]","action_history":"[1,0,1,1,1,1,0,1,0,1,1,0,0,1,1]","mutagen_history":"[1,0,1,1,1,1,0,1,0,1,1,0,0,1,1]","location_rts":"[1890,430,360,459,443,465,378,353,419,423,404,486,507,421,480]","trial_type":"fractal-mutation","trial_index":47,"time_elapsed":1364851,"internal_node_id":"0.0-5.0-8.0"},{"group":"dihedral group of order 12","fractal_assignment":["../images/red_prp.png","../images/grn_red.png","../images/org_blu.png","../images/cyn_red.png","../images/pnk_blu.png","../images/grn_blu.png","../images/gry_blk.png","../images/ylw_slt.png","../images/wht_red.png","../images/grn_prp.png","../images/blu_wht.png","../images/ylw_pnk.png"],"mutagen_generator_assignment":[0,1],"goal":1,"start":4,"action_noise":0.15,"location_history":"[4,5,11,10,4,10,4,10,9,8,2,3,4,10,4,5,0,1]","action_history":"[0,1,0,1,1,1,0,0,0,1,0,0,1,1,0,0,1]","mutagen_history":"[0,1,0,1,1,1,0,0,0,1,0,0,1,1,0,0,1]","location_rts":"[263,462,484,270,90,352,377,406,488,345,744,350,418,347,239,458,363]","trial_type":"fractal-mutation","trial_index":48,"time_elapsed":1396531,"internal_node_id":"0.0-5.0-9.0"},{"group":"dihedral group of order 12","fractal_assignment":["../images/red_prp.png","../images/grn_red.png","../images/org_blu.png","../images/cyn_red.png","../images/pnk_blu.png","../images/grn_blu.png","../images/gry_blk.png","../images/ylw_slt.png","../images/wht_red.png","../images/grn_prp.png","../images/blu_wht.png","../images/ylw_pnk.png"],"mutagen_generator_assignment":[0,1],"goal":9,"start":1,"action_noise":0.15,"location_history":"[1,2,3,4,5,0,6,0,1,2,3,9]","action_history":"[0,1,0,0,1,0,0,0,1,1,0]","mutagen_history":"[0,1,0,0,1,0,0,0,1,1,0]","location_rts":"[401,501,496,2356,108,308,242,327,359,1380,256]","trial_type":"fractal-mutation","trial_index":49,"time_elapsed":1420364,"internal_node_id":"0.0-5.0-10.0"},{"group":"dihedral group of order 12","fractal_assignment":["../images/red_prp.png","../images/grn_red.png","../images/org_blu.png","../images/cyn_red.png","../images/pnk_blu.png","../images/grn_blu.png","../images/gry_blk.png","../images/ylw_slt.png","../images/wht_red.png","../images/grn_prp.png","../images/blu_wht.png","../images/ylw_pnk.png"],"mutagen_generator_assignment":[0,1],"goal":10,"start":9,"action_noise":0.15,"location_history":"[9,8,7,6,0,6,11,10]","action_history":"[0,0,0,1,1,0,0]","mutagen_history":"[0,0,0,1,1,0,0]","location_rts":"[2551,306,942,131,327,281,880]","trial_type":"fractal-mutation","trial_index":50,"time_elapsed":1437652,"internal_node_id":"0.0-5.0-11.0"},{"group":"dihedral group of order 12","fractal_assignment":["../images/red_prp.png","../images/grn_red.png","../images/org_blu.png","../images/cyn_red.png","../images/pnk_blu.png","../images/grn_blu.png","../images/gry_blk.png","../images/ylw_slt.png","../images/wht_red.png","../images/grn_prp.png","../images/blu_wht.png","../images/ylw_pnk.png"],"mutagen_generator_assignment":[0,1],"goal":2,"start":10,"action_noise":0.15,"location_history":"[10,9,8,7,6,0,1,2]","action_history":"[1,0,0,0,0,1,0]","mutagen_history":"[1,0,0,0,0,1,0]","location_rts":"[1265,347,439,269,233,264,240]","trial_type":"fractal-mutation","trial_index":51,"time_elapsed":1453090,"internal_node_id":"0.0-5.0-12.0"},{"group":"dihedral group of order 12","fractal_assignment":["../images/red_prp.png","../images/grn_red.png","../images/org_blu.png","../images/cyn_red.png","../images/pnk_blu.png","../images/grn_blu.png","../images/gry_blk.png","../images/ylw_slt.png","../images/wht_red.png","../images/grn_prp.png","../images/blu_wht.png","../images/ylw_pnk.png"],"mutagen_generator_assignment":[0,1],"goal":0,"start":2,"action_noise":0.15,"location_history":"[2,3,9,8,2,8,2,3,4,10,9,3,4,5,11,5,0]","action_history":"[0,1,0,1,1,1,1,0,1,0,1,0,0,1,1,0]","mutagen_history":"[0,1,0,1,1,1,1,0,1,0,1,0,0,1,1,0]","location_rts":"[622,1145,339,306,437,406,536,466,577,389,697,629,796,415,732,575]","trial_type":"fractal-mutation","trial_index":52,"time_elapsed":1486503,"internal_node_id":"0.0-5.0-13.0"},{"group":"dihedral group of order 12","fractal_assignment":["../images/red_prp.png","../images/grn_red.png","../images/org_blu.png","../images/cyn_red.png","../images/pnk_blu.png","../images/grn_blu.png","../images/gry_blk.png","../images/ylw_slt.png","../images/wht_red.png","../images/grn_prp.png","../images/blu_wht.png","../images/ylw_pnk.png"],"mutagen_generator_assignment":[0,1],"goal":9,"start":0,"action_noise":0.15,"location_history":"[0,1,7,1,2,3,4,10,4,5,0,1,7,1,2,8,7,1,2,3,4,10,9]","action_history":"[0,1,1,0,0,0,1,1,0,0,0,1,1,0,1,0,1,0,0,0,0,0]","mutagen_history":"[0,1,1,0,0,0,1,1,0,0,0,1,1,0,1,0,1,0,0,0,0,0]","location_rts":"[509,343,230,252,537,293,371,257,188,358,422,327,399,304,389,329,964,298,447,310,403,384]","trial_type":"fractal-mutation","trial_index":53,"time_elapsed":1526213,"internal_node_id":"0.0-5.0-14.0"},{"group":"dihedral group of order 12","fractal_assignment":["../images/red_prp.png","../images/grn_red.png","../images/org_blu.png","../images/cyn_red.png","../images/pnk_blu.png","../images/grn_blu.png","../images/gry_blk.png","../images/ylw_slt.png","../images/wht_red.png","../images/grn_prp.png","../images/blu_wht.png","../images/ylw_pnk.png"],"mutagen_generator_assignment":[0,1],"goal":8,"start":9,"action_noise":0.15,"location_history":"[9,3,4,5,0,1,2,3,4,10,9,8]","action_history":"[1,0,0,0,0,0,0,0,1,0,0]","mutagen_history":"[1,0,0,0,0,0,0,0,1,0,0]","location_rts":"[1574,286,546,444,354,495,548,455,747,377,453]","trial_type":"fractal-mutation","trial_index":54,"time_elapsed":1549280,"internal_node_id":"0.0-5.0-15.0"},{"group":"dihedral group of order 12","fractal_assignment":["../images/red_prp.png","../images/grn_red.png","../images/org_blu.png","../images/cyn_red.png","../images/pnk_blu.png","../images/grn_blu.png","../images/gry_blk.png","../images/ylw_slt.png","../images/wht_red.png","../images/grn_prp.png","../images/blu_wht.png","../images/ylw_pnk.png"],"mutagen_generator_assignment":[0,1],"goal":6,"start":8,"action_noise":0.15,"location_history":"[8,7,1,7,6]","action_history":"[0,1,1,0]","mutagen_history":"[0,1,1,0]","location_rts":"[410,395,627,250]","trial_type":"fractal-mutation","trial_index":55,"time_elapsed":1559570,"internal_node_id":"0.0-5.0-16.0"},{"group":"dihedral group of order 12","fractal_assignment":["../images/red_prp.png","../images/grn_red.png","../images/org_blu.png","../images/cyn_red.png","../images/pnk_blu.png","../images/grn_blu.png","../images/gry_blk.png","../images/ylw_slt.png","../images/wht_red.png","../images/grn_prp.png","../images/blu_wht.png","../images/ylw_pnk.png"],"mutagen_generator_assignment":[0,1],"goal":1,"start":6,"action_noise":0.15,"location_history":"[6,11,5,11,5,0,1]","action_history":"[0,1,1,1,0,0]","mutagen_history":"[0,1,1,1,0,0]","location_rts":"[525,255,368,299,221,207]","trial_type":"fractal-mutation","trial_index":56,"time_elapsed":1572508,"internal_node_id":"0.0-5.0-17.0"},{"group":"dihedral group of order 12","fractal_assignment":["../images/red_prp.png","../images/grn_red.png","../images/org_blu.png","../images/cyn_red.png","../images/pnk_blu.png","../images/grn_blu.png","../images/gry_blk.png","../images/ylw_slt.png","../images/wht_red.png","../images/grn_prp.png","../images/blu_wht.png","../images/ylw_pnk.png"],"mutagen_generator_assignment":[0,1],"goal":4,"start":1,"action_noise":0.15,"location_history":"[1,7,1,2,8,7,1,7,6,0,6,11,10,4]","action_history":"[1,1,0,0,0,1,1,0,0,1,0,0,1]","mutagen_history":"[1,1,0,0,0,1,1,0,0,1,0,0,1]","location_rts":"[976,399,267,270,184,269,151,247,246,287,262,424,312]","trial_type":"fractal-mutation","trial_index":57,"time_elapsed":1597107,"internal_node_id":"0.0-5.0-18.0"},{"group":"dihedral group of order 12","fractal_assignment":["../images/red_prp.png","../images/grn_red.png","../images/org_blu.png","../images/cyn_red.png","../images/pnk_blu.png","../images/grn_blu.png","../images/gry_blk.png","../images/ylw_slt.png","../images/wht_red.png","../images/grn_prp.png","../images/blu_wht.png","../images/ylw_pnk.png"],"mutagen_generator_assignment":[0,1],"goal":11,"start":4,"action_noise":0.15,"location_history":"[4,5,11]","action_history":"[0,1]","mutagen_history":"[0,1]","location_rts":"[1690,374]","trial_type":"fractal-mutation","trial_index":58,"time_elapsed":1605024,"internal_node_id":"0.0-5.0-19.0"},{"group":"dihedral group of order 12","fractal_assignment":["../images/red_prp.png","../images/grn_red.png","../images/org_blu.png","../images/cyn_red.png","../images/pnk_blu.png","../images/grn_blu.png","../images/gry_blk.png","../images/ylw_slt.png","../images/wht_red.png","../images/grn_prp.png","../images/blu_wht.png","../images/ylw_pnk.png"],"mutagen_generator_assignment":[0,1],"goal":3,"start":11,"action_noise":0.15,"location_history":"[11,5,0,6,11,10,4,5,0,6,11,10,4,5,11,5,11,5,0,6,11,10,9,3]","action_history":"[1,0,1,0,0,0,1,0,1,0,0,1,0,0,1,0,0,0,0,0,0,0,1]","mutagen_history":"[1,0,1,0,0,0,1,0,1,0,0,1,0,0,1,0,0,0,0,0,0,0,1]","location_rts":"[870,300,332,295,412,423,312,306,571,1310,443,305,232,397,1642,460,409,281,377,467,790,649,303]","trial_type":"fractal-mutation","trial_index":59,"time_elapsed":1649079,"internal_node_id":"0.0-5.0-20.0"},{"group":"dihedral group of order 12","fractal_assignment":["../images/red_prp.png","../images/grn_red.png","../images/org_blu.png","../images/cyn_red.png","../images/pnk_blu.png","../images/grn_blu.png","../images/gry_blk.png","../images/ylw_slt.png","../images/wht_red.png","../images/grn_prp.png","../images/blu_wht.png","../images/ylw_pnk.png"],"mutagen_generator_assignment":[0,1],"goal":5,"start":3,"action_noise":0.15,"location_history":"[3,4,5]","action_history":"[0,1]","mutagen_history":"[0,1]","location_rts":"[714,326]","trial_type":"fractal-mutation","trial_index":60,"time_elapsed":1655991,"internal_node_id":"0.0-5.0-21.0"},{"group":"dihedral group of order 12","fractal_assignment":["../images/red_prp.png","../images/grn_red.png","../images/org_blu.png","../images/cyn_red.png","../images/pnk_blu.png","../images/grn_blu.png","../images/gry_blk.png","../images/ylw_slt.png","../images/wht_red.png","../images/grn_prp.png","../images/blu_wht.png","../images/ylw_pnk.png"],"mutagen_generator_assignment":[0,1],"goal":7,"start":5,"action_noise":0.15,"location_history":"[5,0,6,11,10,9,3,9,3,4,5,11,10,9,3,4,5,0,6,11,10,9,8,7]","action_history":"[0,1,1,0,0,1,1,0,0,0,1,0,0,1,0,0,0,1,0,0,0,0,1]","mutagen_history":"[0,1,1,0,0,1,1,0,0,0,1,0,0,1,0,0,0,1,0,0,0,0,1]","location_rts":"[869,265,305,321,245,436,1030,25,381,593,1053,275,349,488,352,268,1032,581,368,681,411,653,983]","trial_type":"fractal-mutation","trial_index":61,"time_elapsed":1700325,"internal_node_id":"0.0-5.0-22.0"},{"group":"dihedral group of order 12","fractal_assignment":["../images/red_prp.png","../images/grn_red.png","../images/org_blu.png","../images/cyn_red.png","../images/pnk_blu.png","../images/grn_blu.png","../images/gry_blk.png","../images/ylw_slt.png","../images/wht_red.png","../images/grn_prp.png","../images/blu_wht.png","../images/ylw_pnk.png"],"mutagen_generator_assignment":[0,1],"goal":3,"start":7,"action_noise":0.15,"location_history":"[7,1,2,8,2,8,7,1,7,6,0,1,7,6,11,5,0,1,2,3]","action_history":"[1,0,1,1,1,0,0,1,0,1,0,1,0,0,1,0,0,1,0]","mutagen_history":"[1,0,1,1,1,0,0,1,0,1,0,1,0,0,1,0,0,1,0]","location_rts":"[1263,653,4045,1354,1609,242,273,365,272,283,225,474,214,375,269,367,498,363,313]","trial_type":"fractal-mutation","trial_index":62,"time_elapsed":1741687,"internal_node_id":"0.0-5.0-23.0"},{"group":"dihedral group of order 12","fractal_assignment":["../images/red_prp.png","../images/grn_red.png","../images/org_blu.png","../images/cyn_red.png","../images/pnk_blu.png","../images/grn_blu.png","../images/gry_blk.png","../images/ylw_slt.png","../images/wht_red.png","../images/grn_prp.png","../images/blu_wht.png","../images/ylw_pnk.png"],"mutagen_generator_assignment":[0,1],"goal":4,"start":3,"action_noise":0.15,"location_history":"[3,4]","action_history":"[0]","mutagen_history":"[0]","location_rts":"[651]","trial_type":"fractal-mutation","trial_index":63,"time_elapsed":1746947,"internal_node_id":"0.0-5.0-24.0"},{"group":"dihedral group of order 12","fractal_assignment":["../images/red_prp.png","../images/grn_red.png","../images/org_blu.png","../images/cyn_red.png","../images/pnk_blu.png","../images/grn_blu.png","../images/gry_blk.png","../images/ylw_slt.png","../images/wht_red.png","../images/grn_prp.png","../images/blu_wht.png","../images/ylw_pnk.png"],"mutagen_generator_assignment":[0,1],"goal":8,"start":4,"action_noise":0.15,"location_history":"[4,5,0,1,2,8]","action_history":"[0,1,0,0,1]","mutagen_history":"[0,1,0,0,1]","location_rts":"[1002,504,232,389,300]","trial_type":"fractal-mutation","trial_index":64,"time_elapsed":1759264,"internal_node_id":"0.0-5.0-25.0"},{"group":"dihedral group of order 12","fractal_assignment":["../images/red_prp.png","../images/grn_red.png","../images/org_blu.png","../images/cyn_red.png","../images/pnk_blu.png","../images/grn_blu.png","../images/gry_blk.png","../images/ylw_slt.png","../images/wht_red.png","../images/grn_prp.png","../images/blu_wht.png","../images/ylw_pnk.png"],"mutagen_generator_assignment":[0,1],"goal":6,"start":8,"action_noise":0.15,"location_history":"[8,7,1,2,3,4,5,0,6]","action_history":"[0,1,0,0,1,0,0,1]","mutagen_history":"[0,1,0,0,1,0,0,1]","location_rts":"[1176,368,304,322,339,335,369,315]","trial_type":"fractal-mutation","trial_index":65,"time_elapsed":1776250,"internal_node_id":"0.0-5.0-26.0"},{"group":"dihedral group of order 12","fractal_assignment":["../images/red_prp.png","../images/grn_red.png","../images/org_blu.png","../images/cyn_red.png","../images/pnk_blu.png","../images/grn_blu.png","../images/gry_blk.png","../images/ylw_slt.png","../images/wht_red.png","../images/grn_prp.png","../images/blu_wht.png","../images/ylw_pnk.png"],"mutagen_generator_assignment":[0,1],"goal":1,"start":6,"action_noise":0.15,"location_history":"[6,0,6,0,6,0,1]","action_history":"[1,1,0,1,0,0]","mutagen_history":"[1,1,0,1,0,0]","location_rts":"[813,374,252,388,277,293]","trial_type":"fractal-mutation","trial_index":66,"time_elapsed":1789743,"internal_node_id":"0.0-5.0-27.0"},{"group":"dihedral group of order 12","fractal_assignment":["../images/red_prp.png","../images/grn_red.png","../images/org_blu.png","../images/cyn_red.png","../images/pnk_blu.png","../images/grn_blu.png","../images/gry_blk.png","../images/ylw_slt.png","../images/wht_red.png","../images/grn_prp.png","../images/blu_wht.png","../images/ylw_pnk.png"],"mutagen_generator_assignment":[0,1],"goal":5,"start":1,"action_noise":0.15,"location_history":"[1,2,8,2,8,7,6,0,6,0,6,0,1,2,8,7,1,7,6,0,1,7,6,0,1,2,8,2,3,9,8,2,8,2,3,4,5]","action_history":"[0,1,1,1,0,0,0,1,1,1,1,0,0,1,0,0,1,0,1,0,1,0,1,0,0,1,0,0,1,0,1,1,0,0,1,0]","mutagen_history":"[0,1,1,1,0,0,0,1,1,1,1,0,0,1,0,0,1,0,1,0,1,0,1,0,0,1,0,0,1,0,1,1,0,0,1,0]","location_rts":"[581,328,1095,396,376,298,364,344,519,311,344,803,640,386,294,350,426,366,680,505,396,395,1443,272,307,1063,374,584,795,457,348,420,372,676,1511,409]","trial_type":"fractal-mutation","trial_index":67,"time_elapsed":1858813,"internal_node_id":"0.0-5.0-28.0"},{"group":"dihedral group of order 12","fractal_assignment":["../images/red_prp.png","../images/grn_red.png","../images/org_blu.png","../images/cyn_red.png","../images/pnk_blu.png","../images/grn_blu.png","../images/gry_blk.png","../images/ylw_slt.png","../images/wht_red.png","../images/grn_prp.png","../images/blu_wht.png","../images/ylw_pnk.png"],"mutagen_generator_assignment":[0,1],"goal":9,"start":5,"action_noise":0.15,"location_history":"[5,0,6,0,1,2,8,7,1,2,3,9]","action_history":"[0,1,1,0,0,1,0,1,1,0,1]","mutagen_history":"[0,1,1,0,0,1,0,1,1,0,1]","location_rts":"[735,432,343,271,275,256,281,287,271,307,498]","trial_type":"fractal-mutation","trial_index":68,"time_elapsed":1879988,"internal_node_id":"0.0-5.0-29.0"},{"group":"dihedral group of order 12","fractal_assignment":["../images/red_prp.png","../images/grn_red.png","../images/org_blu.png","../images/cyn_red.png","../images/pnk_blu.png","../images/grn_blu.png","../images/gry_blk.png","../images/ylw_slt.png","../images/wht_red.png","../images/grn_prp.png","../images/blu_wht.png","../images/ylw_pnk.png"],"mutagen_generator_assignment":[0,1],"goal":10,"start":9,"action_noise":0.15,"location_history":"[9,8,2,8,7,6,11,5,11,10]","action_history":"[0,1,1,0,0,0,1,1,0]","mutagen_history":"[0,1,1,0,0,0,1,1,0]","location_rts":"[289,306,279,335,453,255,279,254,256]","trial_type":"fractal-mutation","trial_index":69,"time_elapsed":1897337,"internal_node_id":"0.0-5.0-30.0"},{"group":"dihedral group of order 12","fractal_assignment":["../images/red_prp.png","../images/grn_red.png","../images/org_blu.png","../images/cyn_red.png","../images/pnk_blu.png","../images/grn_blu.png","../images/gry_blk.png","../images/ylw_slt.png","../images/wht_red.png","../images/grn_prp.png","../images/blu_wht.png","../images/ylw_pnk.png"],"mutagen_generator_assignment":[0,1],"goal":0,"start":10,"action_noise":0.15,"location_history":"[10,4,10,4,5,11,10,4,5,0]","action_history":"[0,1,1,0,1,0,1,0,0]","mutagen_history":"[0,1,1,0,1,0,1,0,0]","location_rts":"[536,307,346,402,333,310,340,325,377]","trial_type":"fractal-mutation","trial_index":70,"time_elapsed":1915368,"internal_node_id":"0.0-5.0-31.0"},{"group":"dihedral group of order 12","fractal_assignment":["../images/red_prp.png","../images/grn_red.png","../images/org_blu.png","../images/cyn_red.png","../images/pnk_blu.png","../images/grn_blu.png","../images/gry_blk.png","../images/ylw_slt.png","../images/wht_red.png","../images/grn_prp.png","../images/blu_wht.png","../images/ylw_pnk.png"],"mutagen_generator_assignment":[0,1],"goal":7,"start":0,"action_noise":0.15,"location_history":"[0,1,7]","action_history":"[0,1]","mutagen_history":"[0,1]","location_rts":"[409,449]","trial_type":"fractal-mutation","trial_index":71,"time_elapsed":1922177,"internal_node_id":"0.0-5.0-32.0"},{"group":"dihedral group of order 12","fractal_assignment":["../images/red_prp.png","../images/grn_red.png","../images/org_blu.png","../images/cyn_red.png","../images/pnk_blu.png","../images/grn_blu.png","../images/gry_blk.png","../images/ylw_slt.png","../images/wht_red.png","../images/grn_prp.png","../images/blu_wht.png","../images/ylw_pnk.png"],"mutagen_generator_assignment":[0,1],"goal":11,"start":7,"action_noise":0.15,"location_history":"[7,1,2,3,9,3,4,5,11]","action_history":"[1,0,0,1,1,0,0,1]","mutagen_history":"[1,0,0,1,1,0,0,1]","location_rts":"[728,295,258,287,427,349,344,678]","trial_type":"fractal-mutation","trial_index":72,"time_elapsed":1939170,"internal_node_id":"0.0-5.0-33.0"},{"group":"dihedral group of order 12","fractal_assignment":["../images/red_prp.png","../images/grn_red.png","../images/org_blu.png","../images/cyn_red.png","../images/pnk_blu.png","../images/grn_blu.png","../images/gry_blk.png","../images/ylw_slt.png","../images/wht_red.png","../images/grn_prp.png","../images/blu_wht.png","../images/ylw_pnk.png"],"mutagen_generator_assignment":[0,1],"goal":2,"start":11,"action_noise":0.15,"location_history":"[11,10,9,8,2]","action_history":"[0,1,0,1]","mutagen_history":"[0,1,0,1]","location_rts":"[652,331,252,341]","trial_type":"fractal-mutation","trial_index":73,"time_elapsed":1949174,"internal_node_id":"0.0-5.0-34.0"},{"view_history":"[{\"page_index\":0,\"viewing_time\":3503}]","rt":3510,"trial_type":"instructions","trial_index":74,"time_elapsed":1953684,"internal_node_id":"0.0-6.0"},{"rt":68823,"responses":"{\"Q0\":\"To see if we could figure out a pattern through picking which door to go through next.\"}","trial_type":"survey-text","trial_index":75,"time_elapsed":2023519,"internal_node_id":"0.0-7.0-0.0"},{"rt":217633,"responses":"{\"Q0\":\"how we are able to learn different patterns \"}","trial_type":"survey-text","trial_index":76,"time_elapsed":2242167,"internal_node_id":"0.0-7.0-1.0"},{"rt":12253,"responses":"{\"Q0\":\"3\"}","trial_type":"survey-likert","trial_index":77,"time_elapsed":2255430,"internal_node_id":"0.0-7.0-2.0"},{"rt":84379,"responses":"{\"Q0\":\"When you would pick the second door it would usually only go from one color to another and back again to the first color. When you chose the gamma rays it would usually go from one pattern to the next and then back to the first pattern again.\"}","trial_type":"survey-text","trial_index":78,"time_elapsed":2340826,"internal_node_id":"0.0-7.0-3.0"},{"rt":19378,"responses":"{\"Q0\":\"No\"}","trial_type":"survey-multi-choice","trial_index":79,"time_elapsed":2361244,"internal_node_id":"0.0-7.0-4.0"},{"rt":15789,"responses":"{\"Q0\":\"During session 2\"}","trial_type":"survey-multi-choice","trial_index":80,"time_elapsed":2378049,"internal_node_id":"0.0-7.0-5.0"},{"rt":97785,"responses":"{\"Q0\":\"does it have something to do with memory?\"}","trial_type":"survey-text","trial_index":81,"time_elapsed":2476839,"internal_node_id":"0.0-7.0-6.0"},{"rt":8949,"responses":"{\"Q0\":\"3\"}","trial_type":"survey-likert","trial_index":82,"time_elapsed":2486794,"internal_node_id":"0.0-7.0-7.0"},{"rt":12037,"responses":"{\"Q0\":\"Same structure\"}","trial_type":"survey-multi-choice","trial_index":83,"time_elapsed":2499840,"internal_node_id":"0.0-7.0-8.0"},{"rt":19053,"responses":"{\"Q0\":\"black door = acid, white door = ray\",\"Q1\":\"Moderately confident\"}","trial_type":"survey-multi-choice","trial_index":84,"time_elapsed":2519906,"internal_node_id":"0.0-7.0-9.0"},{"rt":13301,"responses":"{\"Q0\":\"45-55\",\"Q1\":\"Associates or other two-year degree\",\"Q2\":\"Female\",\"Q3\":\"White\"}","trial_type":"survey-multi-choice","trial_index":85,"time_elapsed":2534245,"internal_node_id":"0.0-8.0"},{"rt":3924,"responses":"{\"Q0\":\"\"}","trial_type":"survey-text","trial_index":86,"time_elapsed":2539178,"internal_node_id":"0.0-9.0"}]