[{"view_history":"[{\"page_index\":0,\"viewing_time\":2082},{\"page_index\":1,\"viewing_time\":1339}]","rt":3422,"trial_type":"instructions","trial_index":0,"time_elapsed":3422,"internal_node_id":"0.0-0.0"},{"view_history":"[{\"page_index\":0,\"viewing_time\":1094},{\"page_index\":1,\"viewing_time\":6372}]","rt":7466,"trial_type":"instructions","trial_index":1,"time_elapsed":11889,"internal_node_id":"0.0-1.0"},{"group":"dihedral group of order 12","room_assignment":["brown","grey","orange","olive","cyan","green","ivory","purple","yellow","red","blue","pink"],"door_color_assignment":["white","black"],"door_generator_assignment":[0,1],"goal":7,"start":3,"action_noise":0.15,"location_history":"[3,9,8,7]","action_history":"[1,1,1]","door_history":"[1,1,1]","location_rts":"[647,74,91]","trial_type":"two-door-navigation","trial_index":2,"time_elapsed":19364,"internal_node_id":"0.0-2.0-0.0"},{"group":"dihedral group of order 12","room_assignment":["brown","grey","orange","olive","cyan","green","ivory","purple","yellow","red","blue","pink"],"door_color_assignment":["white","black"],"door_generator_assignment":[0,1],"goal":5,"start":7,"action_noise":0.15,"location_history":"[7,1,2,8,2,8,2,8,2,3,9,3,9,3,9,3,4,10,9,3,9,8,7,1,7,1,7,1,7,1,7,1,7,6,11,5]","action_history":"[1,1,1,1,1,1,1,1,1,1,1,1,1,1,1,1,1,1,1,1,1,1,1,1,1,1,1,1,1,1,1,1,1,1,1]","door_history":"[1,1,1,1,1,1,1,1,1,1,1,1,1,1,1,1,1,1,1,1,1,1,1,1,1,1,1,1,1,1,1,1,1,1,1]","location_rts":"[452,196,112,42,186,202,73,159,220,29,3,188,393,41,153,353,71,157,212,216,36,47,1051,104,318,131,374,99,319,57,155,357,241,77,9]","trial_type":"two-door-navigation","trial_index":3,"time_elapsed":67136,"internal_node_id":"0.0-2.0-1.0"},{"group":"dihedral group of order 12","room_assignment":["brown","grey","orange","olive","cyan","green","ivory","purple","yellow","red","blue","pink"],"door_color_assignment":["white","black"],"door_generator_assignment":[0,1],"goal":0,"start":5,"action_noise":0.15,"location_history":"[5,11,10,4,5,11,5,11,5,11,5,11,5,11,5,11,10,9,3,9,3,9,3,9,3,9,3,4,10,9,3,9,3,9,3,9,3,9,3,9,3,9,3,9,3,9,3,9,3,9,3,9,3,9,3,9,3,9,3,9,3,4,10,4,5,11,5,11,5,11,5,11,5,11,5,11,10,4,10,4,5,11,5,11,5,11,5,11,5,11,10,4,10,4,5,0]","action_history":"[1,1,1,1,1,1,1,1,1,1,1,1,1,1,1,1,1,1,1,1,1,1,1,1,1,1,1,1,1,1,1,1,1,1,1,1,1,1,1,1,1,1,1,1,1,1,1,1,1,1,1,1,1,1,1,1,1,1,1,1,1,1,1,1,1,1,1,1,1,1,1,1,1,1,1,1,1,1,1,1,1,1,1,1,1,1,1,1,1,1,1,1,1,1,1]","door_history":"[1,1,1,1,1,1,1,1,1,1,1,1,1,1,1,1,1,1,1,1,1,1,1,1,1,1,1,1,1,1,1,1,1,1,1,1,1,1,1,1,1,1,1,1,1,1,1,1,1,1,1,1,1,1,1,1,1,1,1,1,1,1,1,1,1,1,1,1,1,1,1,1,1,1,1,1,1,1,1,1,1,1,1,1,1,1,1,1,1,1,1,1,1,1,1]","location_rts":"[182,238,60,2173,122,290,107,207,1697,688,333,511,23871,235,89,303,1137,287,1985,46,244,89,4,931,263,2026,335,401,137,2,227,156,250,255,233,372,312,332,99,197,179,193,250,68,197,151,563,172,11761,837850,170,19,136,136,362,111,265,138,315,73,394,216,179,319,292,981,472,172,387,956,144,1758,429,1006,1031,112,145,199,992,2089,1196,450,702,290,72,169,215,173,114,1421,164,982,215,800,839]","trial_type":"two-door-navigation","trial_index":4,"time_elapsed":1086768,"internal_node_id":"0.0-2.0-2.0"},{"group":"dihedral group of order 12","room_assignment":["brown","grey","orange","olive","cyan","green","ivory","purple","yellow","red","blue","pink"],"door_color_assignment":["white","black"],"door_generator_assignment":[0,1],"goal":2,"start":0,"action_noise":0.15,"location_history":"[0,1,7,1,7,1,7,6,0,6,0,6,0,6,0,6,0,6,0,6,0,6,0,6,0,1,7,6,11,10,4,5,0,1,2]","action_history":"[1,1,1,1,1,1,1,1,1,1,1,1,1,1,1,1,1,1,1,1,1,1,1,1,1,1,0,0,0,0,0,0,0,0]","door_history":"[1,1,1,1,1,1,1,1,1,1,1,1,1,1,1,1,1,1,1,1,1,1,1,1,1,1,0,0,0,0,0,0,0,0]","location_rts":"[634,177,217,901,747,41,34,41,109,567,394,13,180,287,1300,47,73,1022,49,233,101,85,235,336,242,11,790,221,224,246,202,336,209,219]","trial_type":"two-door-navigation","trial_index":5,"time_elapsed":1137147,"internal_node_id":"0.0-2.0-3.0"},{"group":"dihedral group of order 12","room_assignment":["brown","grey","orange","olive","cyan","green","ivory","purple","yellow","red","blue","pink"],"door_color_assignment":["white","black"],"door_generator_assignment":[0,1],"goal":10,"start":2,"action_noise":0.15,"location_history":"[2,3,9,3,4,5,11,5,11,5,11,10]","action_history":"[0,1,0,1,0,1,0,0,1,1,1]","door_history":"[0,1,0,1,0,1,0,0,1,1,1]","location_rts":"[88,248,5,135,15,41,138,129,212,107,97]","trial_type":"two-door-navigation","trial_index":6,"time_elapsed":1153485,"internal_node_id":"0.0-2.0-4.0"},{"group":"dihedral group of order 12","room_assignment":["brown","grey","orange","olive","cyan","green","ivory","purple","yellow","red","blue","pink"],"door_color_assignment":["white","black"],"door_generator_assignment":[0,1],"goal":8,"start":10,"action_noise":0.15,"location_history":"[10,4,5,0,1,2,3,4,10,4,10,9,8]","action_history":"[1,0,0,0,0,0,0,0,1,1,0,0]","door_history":"[1,0,0,0,0,0,0,0,1,1,0,0]","location_rts":"[252,70,1962,867,3566,327,190,160,1209,122,48,93]","trial_type":"two-door-navigation","trial_index":7,"time_elapsed":1178578,"internal_node_id":"0.0-2.0-5.0"},{"group":"dihedral group of order 12","room_assignment":["brown","grey","orange","olive","cyan","green","ivory","purple","yellow","red","blue","pink"],"door_color_assignment":["white","black"],"door_generator_assignment":[0,1],"goal":11,"start":8,"action_noise":0.15,"location_history":"[8,2,8,2,8,2,8,2,8,2,8,2,8,2,3,4,10,4,10,4,10,9,3,4,10,4,10,9,3,9,3,9,3,9,3,4,10,4,10,4,5,11]","action_history":"[1,1,1,1,1,1,1,1,1,1,1,1,1,1,1,1,1,1,1,1,1,1,1,1,1,1,1,1,1,1,1,1,1,1,1,1,1,1,1,1,1]","door_history":"[1,1,1,1,1,1,1,1,1,1,1,1,1,1,1,1,1,1,1,1,1,1,1,1,1,1,1,1,1,1,1,1,1,1,1,1,1,1,1,1,1]","location_rts":"[480,9,200,302,489,232,17,72,99,496,231,47,208,2379,48,1211,562,74,453,103,1814,21,60,121,260,672,451,583,970,237,401,180,631,194,52,41,264,219,272,147,40]","trial_type":"two-door-navigation","trial_index":8,"time_elapsed":1241227,"internal_node_id":"0.0-2.0-6.0"},{"group":"dihedral group of order 12","room_assignment":["brown","grey","orange","olive","cyan","green","ivory","purple","yellow","red","blue","pink"],"door_color_assignment":["white","black"],"door_generator_assignment":[0,1],"goal":6,"start":11,"action_noise":0.15,"location_history":"[11,5,11,10,9,8,2,8,2,3,9,3,4,5,11,5,0,6]","action_history":"[1,1,0,0,0,1,0,1,0,1,1,0,0,1,0,1,1]","door_history":"[1,1,0,0,0,1,0,1,0,1,1,0,0,1,0,1,1]","location_rts":"[294,291,288,2,3944,101,240,5,144,320,64,209,207,340,1,122,255]","trial_type":"two-door-navigation","trial_index":9,"time_elapsed":1269515,"internal_node_id":"0.0-2.0-7.0"},{"group":"dihedral group of order 12","room_assignment":["brown","grey","orange","olive","cyan","green","ivory","purple","yellow","red","blue","pink"],"door_color_assignment":["white","black"],"door_generator_assignment":[0,1],"goal":4,"start":6,"action_noise":0.15,"location_history":"[6,11,5,11,10,9,8,7,6,11,10,9,3,9,3,9,8,7,1,7,6,0,6,0,6,11,5,11,5,11,5,11,5,11,5,11,10,4]","action_history":"[0,1,1,0,0,0,0,0,0,0,0,0,1,1,1,0,0,0,0,0,1,0,1,1,1,1,1,1,1,1,1,1,1,1,1,1,1]","door_history":"[0,1,1,0,0,0,0,0,0,0,0,0,1,1,1,0,0,0,0,0,1,0,1,1,1,1,1,1,1,1,1,1,1,1,1,1,1]","location_rts":"[943,236,392,227,173,104,208,9,72,178,1344,238,296,97,247,212,368,150,86,236,110,204,87,132,161,47,265,168,80,151,142,386,264,879,276,421,425]","trial_type":"two-door-navigation","trial_index":10,"time_elapsed":1322453,"internal_node_id":"0.0-2.0-8.0"},{"group":"dihedral group of order 12","room_assignment":["brown","grey","orange","olive","cyan","green","ivory","purple","yellow","red","blue","pink"],"door_color_assignment":["white","black"],"door_generator_assignment":[0,1],"goal":1,"start":4,"action_noise":0.15,"location_history":"[4,10,4,10,4,10,4,5,11,10,4,10,4,10,4,10,4,10,4,5,11,10,4,10,4,5,11,5,11,5,11,10,4,10,4,10,4,10,9,8,2,8,7,6,11,5,0,1]","action_history":"[1,1,1,1,1,1,1,1,1,1,1,1,1,1,1,1,1,1,1,1,1,1,1,1,1,1,1,1,1,1,1,1,1,1,1,1,1,1,1,1,0,0,0,0,0,0,0]","door_history":"[1,1,1,1,1,1,1,1,1,1,1,1,1,1,1,1,1,1,1,1,1,1,1,1,1,1,1,1,1,1,1,1,1,1,1,1,1,1,1,1,0,0,0,0,0,0,0]","location_rts":"[467,504,1827,7261,43,1379,3971,568,2711,279,2307,1755,242,1063,348,11425,203,322,107,303,182,69,210,130,284,406,316,20,409,499,24,196,309,136,1530,130,211,592,251,666,321,166,635,241,388,679,441]","trial_type":"two-door-navigation","trial_index":11,"time_elapsed":1422508,"internal_node_id":"0.0-2.0-9.0"},{"group":"dihedral group of order 12","room_assignment":["brown","grey","orange","olive","cyan","green","ivory","purple","yellow","red","blue","pink"],"door_color_assignment":["white","black"],"door_generator_assignment":[0,1],"goal":9,"start":1,"action_noise":0.15,"location_history":"[1,2,3,4,5,11,10,9]","action_history":"[0,0,0,0,0,0,0]","door_history":"[0,0,0,0,0,0,0]","location_rts":"[446,98,117,754,133,278,34]","trial_type":"two-door-navigation","trial_index":12,"time_elapsed":1435389,"internal_node_id":"0.0-2.0-10.0"},{"group":"dihedral group of order 12","room_assignment":["brown","grey","orange","olive","cyan","green","ivory","purple","yellow","red","blue","pink"],"door_color_assignment":["white","black"],"door_generator_assignment":[0,1],"goal":10,"start":9,"action_noise":0.15,"location_history":"[9,8,7,6,11,10]","action_history":"[0,0,0,0,0]","door_history":"[0,0,0,0,0]","location_rts":"[25,246,173,167,151]","trial_type":"two-door-navigation","trial_index":13,"time_elapsed":1445021,"internal_node_id":"0.0-2.0-11.0"},{"group":"dihedral group of order 12","room_assignment":["brown","grey","orange","olive","cyan","green","ivory","purple","yellow","red","blue","pink"],"door_color_assignment":["white","black"],"door_generator_assignment":[0,1],"goal":2,"start":10,"action_noise":0.15,"location_history":"[10,9,8,2]","action_history":"[0,0,0]","door_history":"[0,0,0]","location_rts":"[32,41,305]","trial_type":"two-door-navigation","trial_index":14,"time_elapsed":1452110,"internal_node_id":"0.0-2.0-12.0"},{"group":"dihedral group of order 12","room_assignment":["brown","grey","orange","olive","cyan","green","ivory","purple","yellow","red","blue","pink"],"door_color_assignment":["white","black"],"door_generator_assignment":[0,1],"goal":0,"start":2,"action_noise":0.15,"location_history":"[2,3,4,5,11,5,0]","action_history":"[0,0,0,0,0,0]","door_history":"[0,0,0,0,0,0]","location_rts":"[248,387,140,188,1073,2324]","trial_type":"two-door-navigation","trial_index":15,"time_elapsed":1466411,"internal_node_id":"0.0-2.0-13.0"},{"group":"dihedral group of order 12","room_assignment":["brown","grey","orange","olive","cyan","green","ivory","purple","yellow","red","blue","pink"],"door_color_assignment":["white","black"],"door_generator_assignment":[0,1],"goal":9,"start":0,"action_noise":0.15,"location_history":"[0,6,0,1,2,8,7,1,2,3,4,5,0,1,7,1,7,1,7,1,7,1,7,1,7,1,7,1,7,1,7,1,2,8,2,8,2,8,2,8,2,8,2,8,2,8,7,1,7,1,7,1,7,6,0,6,0,6,0,6,0,6,0,6,0,6,0,1,7,1,7,1,2,8,2,8,2,3,9]","action_history":"[0,0,0,0,0,0,0,0,0,0,0,0,0,1,1,1,1,1,1,1,1,1,1,1,1,1,1,1,1,1,1,1,1,1,1,1,1,1,1,1,1,1,1,1,1,1,1,1,1,1,1,1,1,1,1,1,1,1,1,1,1,1,1,1,1,1,1,1,1,1,1,1,1,1,1,1,1,1]","door_history":"[0,0,0,0,0,0,0,0,0,0,0,0,0,1,1,1,1,1,1,1,1,1,1,1,1,1,1,1,1,1,1,1,1,1,1,1,1,1,1,1,1,1,1,1,1,1,1,1,1,1,1,1,1,1,1,1,1,1,1,1,1,1,1,1,1,1,1,1,1,1,1,1,1,1,1,1,1,1]","location_rts":"[160,149,168,645,274,167,678,999,22,61,189,162,2,297,27,36,79,285,335,95,27,373,282,223,80,812,254,607,218,71,59,327,164,88,317,80,402,122,454,298,816,6,409,16,577,2036,205,275,309,1,324,358,3,791,254,154,464,748,605,138,8,319,478,363,371,300,1307,41,12,11668,1602,361,76,173,75,693,407,382]","trial_type":"two-door-navigation","trial_index":16,"time_elapsed":1590610,"internal_node_id":"0.0-2.0-14.0"},{"group":"dihedral group of order 12","room_assignment":["brown","grey","orange","olive","cyan","green","ivory","purple","yellow","red","blue","pink"],"door_color_assignment":["white","black"],"door_generator_assignment":[0,1],"goal":8,"start":9,"action_noise":0.15,"location_history":"[9,8]","action_history":"[1]","door_history":"[1]","location_rts":"[177]","trial_type":"two-door-navigation","trial_index":17,"time_elapsed":1595356,"internal_node_id":"0.0-2.0-15.0"},{"group":"dihedral group of order 12","room_assignment":["brown","grey","orange","olive","cyan","green","ivory","purple","yellow","red","blue","pink"],"door_color_assignment":["white","black"],"door_generator_assignment":[0,1],"goal":6,"start":8,"action_noise":0.15,"location_history":"[8,2,8,2,3,9,3,9,3,9,3,9,3,9,3,9,8,2,8,7,6]","action_history":"[1,1,1,1,1,1,1,1,1,1,1,1,1,1,1,1,1,1,1,1]","door_history":"[1,1,1,1,1,1,1,1,1,1,1,1,1,1,1,1,1,1,1,1]","location_rts":"[48243,752,479,22,10510,1791,312,168,154,2207,23,804,1038,196,236,175,91,269,278,316]","trial_type":"two-door-navigation","trial_index":18,"time_elapsed":1688273,"internal_node_id":"0.0-2.0-16.0"},{"group":"dihedral group of order 12","room_assignment":["brown","grey","orange","olive","cyan","green","ivory","purple","yellow","red","blue","pink"],"door_color_assignment":["white","black"],"door_generator_assignment":[0,1],"goal":1,"start":6,"action_noise":0.15,"location_history":"[6,0,6,0,6,0,6,0,6,0,6,0,6,0,6,0,1]","action_history":"[1,1,1,1,1,1,1,1,1,1,1,1,1,1,1,0]","door_history":"[1,1,1,1,1,1,1,1,1,1,1,1,1,1,1,0]","location_rts":"[221,108,81,12,8,442,150,64,77,274,44,39,72,468,206,877]","trial_type":"two-door-navigation","trial_index":19,"time_elapsed":1712031,"internal_node_id":"0.0-2.0-17.0"},{"group":"dihedral group of order 12","room_assignment":["brown","grey","orange","olive","cyan","green","ivory","purple","yellow","red","blue","pink"],"door_color_assignment":["white","black"],"door_generator_assignment":[0,1],"goal":4,"start":1,"action_noise":0.15,"location_history":"[1,2,8,7,1,7,1,7,1,2,8,2,8,7,1,7,1,2,8,2,3,9,8,2,3,4]","action_history":"[0,0,0,1,1,1,1,1,1,1,1,1,1,1,1,1,1,1,1,1,1,1,1,1,0]","door_history":"[0,0,0,1,1,1,1,1,1,1,1,1,1,1,1,1,1,1,1,1,1,1,1,1,0]","location_rts":"[240,45,142,142,67,287,320,117,34,177,234,296,295,72,52,186,213,90,491,498,156,2806,70,1977,823]","trial_type":"two-door-navigation","trial_index":20,"time_elapsed":1752038,"internal_node_id":"0.0-2.0-18.0"},{"group":"dihedral group of order 12","room_assignment":["brown","grey","orange","olive","cyan","green","ivory","purple","yellow","red","blue","pink"],"door_color_assignment":["white","black"],"door_generator_assignment":[0,1],"goal":11,"start":4,"action_noise":0.15,"location_history":"[4,5,11]","action_history":"[0,1]","door_history":"[0,1]","location_rts":"[41,276]","trial_type":"two-door-navigation","trial_index":21,"time_elapsed":1757944,"internal_node_id":"0.0-2.0-19.0"},{"group":"dihedral group of order 12","room_assignment":["brown","grey","orange","olive","cyan","green","ivory","purple","yellow","red","blue","pink"],"door_color_assignment":["white","black"],"door_generator_assignment":[0,1],"goal":3,"start":11,"action_noise":0.15,"location_history":"[11,10,4,5,0,1,2,8,2,8,7,1,2,3]","action_history":"[0,1,0,0,0,0,1,1,1,0,1,0,0]","door_history":"[0,1,0,0,0,0,1,1,1,0,1,0,0]","location_rts":"[8,10,979,259,183,473,136,34,139,458,12,242,572]","trial_type":"two-door-navigation","trial_index":22,"time_elapsed":1778650,"internal_node_id":"0.0-2.0-20.0"},{"group":"dihedral group of order 12","room_assignment":["brown","grey","orange","olive","cyan","green","ivory","purple","yellow","red","blue","pink"],"door_color_assignment":["white","black"],"door_generator_assignment":[0,1],"goal":5,"start":3,"action_noise":0.15,"location_history":"[3,4,10,9,3,9,8,7,1,7,1,2,3,9,8,2,3,4,5]","action_history":"[0,1,1,0,0,0,0,1,1,1,0,0,1,1,1,0,0,0]","door_history":"[0,1,1,0,0,0,0,1,1,1,0,0,1,1,1,0,0,0]","location_rts":"[653,93,214,145,66,60,80,225,255,608,164,312,233,116,116,601,111,170]","trial_type":"two-door-navigation","trial_index":23,"time_elapsed":1805275,"internal_node_id":"0.0-2.0-21.0"},{"group":"dihedral group of order 12","room_assignment":["brown","grey","orange","olive","cyan","green","ivory","purple","yellow","red","blue","pink"],"door_color_assignment":["white","black"],"door_generator_assignment":[0,1],"goal":7,"start":5,"action_noise":0.15,"location_history":"[5,0,1,2,3,4,5,0,1,2,8,2,3,4,5,0,1,2,3,4,5,11,5,11,5,0,6,0,6,0,6,0,6,0,6,0,6,0,6,0,6,0,1,7]","action_history":"[0,0,0,0,0,0,0,0,0,0,0,0,0,0,0,0,0,0,0,0,1,1,1,1,1,1,1,1,1,1,1,1,1,1,1,1,1,1,1,1,1,1,1]","door_history":"[0,0,0,0,0,0,0,0,0,0,0,0,0,0,0,0,0,0,0,0,1,1,1,1,1,1,1,1,1,1,1,1,1,1,1,1,1,1,1,1,1,1,1]","location_rts":"[370,226,144,1853,880,89,410,2295,228,311,863,266,293,450,1257,5577,445,821,2953,434,236,2052,521,314,1990,798,791,261,6314,465,863,280,4260,769,197,186,269,146,1594,3356,256,15,60]","trial_type":"two-door-navigation","trial_index":24,"time_elapsed":1900716,"internal_node_id":"0.0-2.0-22.0"},{"group":"dihedral group of order 12","room_assignment":["brown","grey","orange","olive","cyan","green","ivory","purple","yellow","red","blue","pink"],"door_color_assignment":["white","black"],"door_generator_assignment":[0,1],"goal":3,"start":7,"action_noise":0.15,"location_history":"[7,1,7,1,7,1,7,1,7,6,11,5,11,5,11,5,0,6,11,10,9,8,7,6,11,10,9,3]","action_history":"[1,1,1,1,1,1,1,1,1,1,1,1,1,1,1,0,1,0,0,0,0,0,0,0,0,0,0]","door_history":"[1,1,1,1,1,1,1,1,1,1,1,1,1,1,1,0,1,0,0,0,0,0,0,0,0,0,0]","location_rts":"[37,2428,2661,370,1929,249,319,217,867,2159,609,383,199,1189,212,254,878,2121,533,52,1429,117,45,30,415,106,26]","trial_type":"two-door-navigation","trial_index":25,"time_elapsed":1952813,"internal_node_id":"0.0-2.0-23.0"},{"group":"dihedral group of order 12","room_assignment":["brown","grey","orange","olive","cyan","green","ivory","purple","yellow","red","blue","pink"],"door_color_assignment":["white","black"],"door_generator_assignment":[0,1],"goal":4,"start":3,"action_noise":0.15,"location_history":"[3,9,8,7,6,11,10,4]","action_history":"[0,0,0,0,0,0,0]","door_history":"[0,0,0,0,0,0,0]","location_rts":"[98,992,215,207,219,337,9]","trial_type":"two-door-navigation","trial_index":26,"time_elapsed":1965892,"internal_node_id":"0.0-2.0-24.0"},{"group":"dihedral group of order 12","room_assignment":["brown","grey","orange","olive","cyan","green","ivory","purple","yellow","red","blue","pink"],"door_color_assignment":["white","black"],"door_generator_assignment":[0,1],"goal":8,"start":4,"action_noise":0.15,"location_history":"[4,5,0,1,2,3,4,5,0,1,2,3,4,5,0,1,2,3,4,5,11,5,0,1,2,3,4,5,0,1,2,3,4,5,0,1,2,3,4,5,0,1,2,8]","action_history":"[0,0,0,0,0,0,0,0,0,0,0,0,0,0,0,0,0,0,0,0,0,0,0,0,0,0,0,0,0,0,0,0,0,0,0,0,0,0,0,0,0,0,0]","door_history":"[0,0,0,0,0,0,0,0,0,0,0,0,0,0,0,0,0,0,0,0,0,0,0,0,0,0,0,0,0,0,0,0,0,0,0,0,0,0,0,0,0,0,0]","location_rts":"[458,172,36,862,195,24,349,393,133,339,1026,191,278,365,1546,13,39,51,31,140,453,1550,276,151,816,1079,213,199,349,44,154,807,376,175,83,518,648,191,3797,125,570,1334,365]","trial_type":"two-door-navigation","trial_index":27,"time_elapsed":2036415,"internal_node_id":"0.0-2.0-25.0"},{"group":"dihedral group of order 12","room_assignment":["brown","grey","orange","olive","cyan","green","ivory","purple","yellow","red","blue","pink"],"door_color_assignment":["white","black"],"door_generator_assignment":[0,1],"goal":6,"start":8,"action_noise":0.15,"location_history":"[8,7,6]","action_history":"[0,0]","door_history":"[0,0]","location_rts":"[37,172]","trial_type":"two-door-navigation","trial_index":28,"time_elapsed":2042274,"internal_node_id":"0.0-2.0-26.0"},{"group":"dihedral group of order 12","room_assignment":["brown","grey","orange","olive","cyan","green","ivory","purple","yellow","red","blue","pink"],"door_color_assignment":["white","black"],"door_generator_assignment":[0,1],"goal":1,"start":6,"action_noise":0.15,"location_history":"[6,11,10,9,8,7,6,0,6,11,10,4,5,0,1]","action_history":"[0,0,0,0,0,0,0,0,0,0,0,0,0,0]","door_history":"[0,0,0,0,0,0,0,0,0,0,0,0,0,0]","location_rts":"[229,249,8,1032,309,654,78,422,36,482,42,437,462,246]","trial_type":"two-door-navigation","trial_index":29,"time_elapsed":2065407,"internal_node_id":"0.0-2.0-27.0"},{"group":"dihedral group of order 12","room_assignment":["brown","grey","orange","olive","cyan","green","ivory","purple","yellow","red","blue","pink"],"door_color_assignment":["white","black"],"door_generator_assignment":[0,1],"goal":5,"start":1,"action_noise":0.15,"location_history":"[1,7,6,11,10,9,8,7,6,0,1,7,6,0,1,2,3,4,5]","action_history":"[0,0,0,0,0,0,0,0,0,0,0,0,0,0,0,0,0,0]","door_history":"[0,0,0,0,0,0,0,0,0,0,0,0,0,0,0,0,0,0]","location_rts":"[6,397,195,197,173,318,152,447,78,166,165,263,24,21,108,462,1196,300]","trial_type":"two-door-navigation","trial_index":30,"time_elapsed":2092723,"internal_node_id":"0.0-2.0-28.0"},{"group":"dihedral group of order 12","room_assignment":["brown","grey","orange","olive","cyan","green","ivory","purple","yellow","red","blue","pink"],"door_color_assignment":["white","black"],"door_generator_assignment":[0,1],"goal":9,"start":5,"action_noise":0.15,"location_history":"[5,0,6,0,6,0,6,0,6,0,6,0,6,0,6,0,6,0,1,7,1,7,1,7,1,7,1,2,3,4,10,9]","action_history":"[0,1,1,1,1,1,1,1,1,1,1,1,1,1,1,1,1,1,1,1,1,1,1,1,1,1,1,1,1,0,0]","door_history":"[0,1,1,1,1,1,1,1,1,1,1,1,1,1,1,1,1,1,1,1,1,1,1,1,1,1,1,1,1,0,0]","location_rts":"[244,8244,123,73,77,424,191,38,39,461,29,513,18,123,197,104,347,109,220,136,36,973,544,233,656,257,15,293,1536,678,373]","trial_type":"two-door-navigation","trial_index":31,"time_elapsed":2146632,"internal_node_id":"0.0-2.0-29.0"},{"group":"dihedral group of order 12","room_assignment":["brown","grey","orange","olive","cyan","green","ivory","purple","yellow","red","blue","pink"],"door_color_assignment":["white","black"],"door_generator_assignment":[0,1],"goal":10,"start":9,"action_noise":0.15,"location_history":"[9,8,2,8,2,8,7,1,7,1,7,1,2,8,2,8,2,8,2,8,2,8,2,3,4,5,0,1,2,3,4,5,0,6,11,5,0,1,2,3,4,5,0,1,2,3,9,8,2,3,4,5,0,1,2,3,4,5,11,10]","action_history":"[0,1,1,1,1,1,1,1,1,1,1,1,1,1,1,1,1,1,1,1,1,1,0,0,0,0,0,0,0,0,0,0,0,0,0,0,0,0,0,0,0,0,0,0,0,0,0,0,0,0,0,0,0,0,0,0,0,0,0]","door_history":"[0,1,1,1,1,1,1,1,1,1,1,1,1,1,1,1,1,1,1,1,1,1,0,0,0,0,0,0,0,0,0,0,0,0,0,0,0,0,0,0,0,0,0,0,0,0,0,0,0,0,0,0,0,0,0,0,0,0,0]","location_rts":"[375,11913,205,265,620,163,59,410,46,330,190,242,75,369,109,54,640,204,195,153,165,32,735,451,259,198,497,240,6,375,182,504,182,120,200,225,223,176,340,293,649,2,267,234,608,109,169,220,120,26,269,148,238,81,92,280,202,261,508]","trial_type":"two-door-navigation","trial_index":32,"time_elapsed":2239633,"internal_node_id":"0.0-2.0-30.0"},{"group":"dihedral group of order 12","room_assignment":["brown","grey","orange","olive","cyan","green","ivory","purple","yellow","red","blue","pink"],"door_color_assignment":["white","black"],"door_generator_assignment":[0,1],"goal":0,"start":10,"action_noise":0.15,"location_history":"[10,9,8,7,6,11,10,4,5,0]","action_history":"[0,0,0,0,0,0,0,0,0]","door_history":"[0,0,0,0,0,0,0,0,0]","location_rts":"[345,335,117,77,188,420,405,276,206]","trial_type":"two-door-navigation","trial_index":33,"time_elapsed":2255150,"internal_node_id":"0.0-2.0-31.0"},{"group":"dihedral group of order 12","room_assignment":["brown","grey","orange","olive","cyan","green","ivory","purple","yellow","red","blue","pink"],"door_color_assignment":["white","black"],"door_generator_assignment":[0,1],"goal":7,"start":0,"action_noise":0.15,"location_history":"[0,1,2,8,7]","action_history":"[0,0,0,0]","door_history":"[0,0,0,0]","location_rts":"[475,32,172,312]","trial_type":"two-door-navigation","trial_index":34,"time_elapsed":2263911,"internal_node_id":"0.0-2.0-32.0"},{"group":"dihedral group of order 12","room_assignment":["brown","grey","orange","olive","cyan","green","ivory","purple","yellow","red","blue","pink"],"door_color_assignment":["white","black"],"door_generator_assignment":[0,1],"goal":11,"start":7,"action_noise":0.15,"location_history":"[7,6,0,1,2,3,4,5,0,1,2,8,2,3,4,5,0,1,7,6,11]","action_history":"[0,0,0,0,0,0,0,0,0,0,0,0,0,0,0,0,0,0,0,0]","door_history":"[0,0,0,0,0,0,0,0,0,0,0,0,0,0,0,0,0,0,0,0]","location_rts":"[85,19,218,56,482,45,20,692,972,350,108,459,255,215,56,369,2,342,155,509]","trial_type":"two-door-navigation","trial_index":35,"time_elapsed":2294144,"internal_node_id":"0.0-2.0-33.0"},{"group":"dihedral group of order 12","room_assignment":["brown","grey","orange","olive","cyan","green","ivory","purple","yellow","red","blue","pink"],"door_color_assignment":["white","black"],"door_generator_assignment":[0,1],"goal":2,"start":11,"action_noise":0.15,"location_history":"[11,10,4,5,11,5,0,6,0,6,0,6,11,10,9,8,7,6,11,5,0,1,2]","action_history":"[0,1,0,1,1,1,1,1,1,1,0,0,0,0,0,0,0,0,0,0,0,1]","door_history":"[0,1,0,1,1,1,1,1,1,1,0,0,0,0,0,0,0,0,0,0,0,1]","location_rts":"[384,327,68,213,232,265,270,25,4,529,243,104,86,1716,199,358,463,159,190,516,4707,605]","trial_type":"two-door-navigation","trial_index":36,"time_elapsed":2332658,"internal_node_id":"0.0-2.0-34.0"},{"view_history":"[{\"page_index\":0,\"viewing_time\":3193}]","rt":3193,"trial_type":"instructions","trial_index":37,"time_elapsed":2336856,"internal_node_id":"0.0-3.0"},{"view_history":"[{\"page_index\":0,\"viewing_time\":1874},{\"page_index\":1,\"viewing_time\":1910}]","rt":3785,"trial_type":"instructions","trial_index":38,"time_elapsed":2341642,"internal_node_id":"0.0-4.0"},{"group":"dicyclic group of order 12","fractal_assignment":["../images/grn_blu.png","../images/wht_red.png","../images/org_blu.png","../images/grn_prp.png","../images/gry_blk.png","../images/pnk_blu.png","../images/ylw_pnk.png","../images/grn_red.png","../images/cyn_red.png","../images/ylw_slt.png","../images/red_prp.png","../images/blu_wht.png"],"mutagen_generator_assignment":[1,0],"goal":7,"start":3,"action_noise":0.15,"location_history":"[3,7]","action_history":"[1]","mutagen_history":"[0]","location_rts":"[1467]","trial_type":"fractal-mutation","trial_index":39,"time_elapsed":2347697,"internal_node_id":"0.0-5.0-0.0"},{"group":"dicyclic group of order 12","fractal_assignment":["../images/grn_blu.png","../images/wht_red.png","../images/org_blu.png","../images/grn_prp.png","../images/gry_blk.png","../images/pnk_blu.png","../images/ylw_pnk.png","../images/grn_red.png","../images/cyn_red.png","../images/ylw_slt.png","../images/red_prp.png","../images/blu_wht.png"],"mutagen_generator_assignment":[1,0],"goal":5,"start":7,"action_noise":0.15,"location_history":"[7,11,3,7,11,3,0,1,5]","action_history":"[1,1,1,1,1,0,0,0]","mutagen_history":"[0,0,0,0,0,1,1,1]","location_rts":"[47,161,87,32,85,34,95,94]","trial_type":"fractal-mutation","trial_index":40,"time_elapsed":2360579,"internal_node_id":"0.0-5.0-1.0"},{"group":"dicyclic group of order 12","fractal_assignment":["../images/grn_blu.png","../images/wht_red.png","../images/org_blu.png","../images/grn_prp.png","../images/gry_blk.png","../images/pnk_blu.png","../images/ylw_pnk.png","../images/grn_red.png","../images/cyn_red.png","../images/ylw_slt.png","../images/red_prp.png","../images/blu_wht.png"],"mutagen_generator_assignment":[1,0],"goal":0,"start":5,"action_noise":0.15,"location_history":"[5,9,6,11,4,8,5,9,1,2,6,11,3,7,8,0]","action_history":"[1,0,0,0,1,0,1,1,0,1,1,1,1,0,1]","mutagen_history":"[0,1,1,1,0,1,0,0,1,0,0,0,0,1,0]","location_rts":"[24,39,153,21,101,96,178,485,17,172,11,110,107,64,78]","trial_type":"fractal-mutation","trial_index":41,"time_elapsed":2382373,"internal_node_id":"0.0-5.0-2.0"},{"group":"dicyclic group of order 12","fractal_assignment":["../images/grn_blu.png","../images/wht_red.png","../images/org_blu.png","../images/grn_prp.png","../images/gry_blk.png","../images/pnk_blu.png","../images/ylw_pnk.png","../images/grn_red.png","../images/cyn_red.png","../images/ylw_slt.png","../images/red_prp.png","../images/blu_wht.png"],"mutagen_generator_assignment":[1,0],"goal":2,"start":0,"action_noise":0.15,"location_history":"[0,1,5,9,1,5,9,1,5,9,6,11,3,0,4,8,0,4,8,0,1,5,9,6,11,3,7,11,4,9,1,5,10,7,8,0,1,2]","action_history":"[1,1,0,1,0,1,1,1,0,1,0,1,0,1,1,1,1,1,1,0,1,1,0,0,1,1,0,0,0,1,1,0,1,0,1,0,0]","mutagen_history":"[0,0,1,0,1,0,0,0,1,0,1,0,1,0,0,0,0,0,0,1,0,0,1,1,0,0,1,1,1,0,0,1,0,1,0,1,1]","location_rts":"[33,3,112,405,183,76,228,11395,112,175,117,14,22,117,28,110,94,84,20,97,110,106,140,11,63,110,163,18,45,28,36,186,131,27,174,8,173]","trial_type":"fractal-mutation","trial_index":42,"time_elapsed":2441927,"internal_node_id":"0.0-5.0-3.0"},{"group":"dicyclic group of order 12","fractal_assignment":["../images/grn_blu.png","../images/wht_red.png","../images/org_blu.png","../images/grn_prp.png","../images/gry_blk.png","../images/pnk_blu.png","../images/ylw_pnk.png","../images/grn_red.png","../images/cyn_red.png","../images/ylw_slt.png","../images/red_prp.png","../images/blu_wht.png"],"mutagen_generator_assignment":[1,0],"goal":10,"start":2,"action_noise":0.15,"location_history":"[2,6,10]","action_history":"[1,1]","mutagen_history":"[0,0]","location_rts":"[227,199]","trial_type":"fractal-mutation","trial_index":43,"time_elapsed":2448017,"internal_node_id":"0.0-5.0-4.0"},{"group":"dicyclic group of order 12","fractal_assignment":["../images/grn_blu.png","../images/wht_red.png","../images/org_blu.png","../images/grn_prp.png","../images/gry_blk.png","../images/pnk_blu.png","../images/ylw_pnk.png","../images/grn_red.png","../images/cyn_red.png","../images/ylw_slt.png","../images/red_prp.png","../images/blu_wht.png"],"mutagen_generator_assignment":[1,0],"goal":8,"start":10,"action_noise":0.15,"location_history":"[10,7,11,4,8]","action_history":"[0,1,0,1]","mutagen_history":"[1,0,1,0]","location_rts":"[467,402,106,1408]","trial_type":"fractal-mutation","trial_index":44,"time_elapsed":2458382,"internal_node_id":"0.0-5.0-5.0"},{"group":"dicyclic group of order 12","fractal_assignment":["../images/grn_blu.png","../images/wht_red.png","../images/org_blu.png","../images/grn_prp.png","../images/gry_blk.png","../images/pnk_blu.png","../images/ylw_pnk.png","../images/grn_red.png","../images/cyn_red.png","../images/ylw_slt.png","../images/red_prp.png","../images/blu_wht.png"],"mutagen_generator_assignment":[1,0],"goal":11,"start":8,"action_noise":0.15,"location_history":"[8,5,9,1,5,10,7,8,0,1,2,6,11]","action_history":"[0,1,1,1,1,0,0,1,0,1,0,0]","mutagen_history":"[1,0,0,0,0,1,1,0,1,0,1,1]","location_rts":"[272,217,69,240,112,45,16,183,221,582,213,177]","trial_type":"fractal-mutation","trial_index":45,"time_elapsed":2477641,"internal_node_id":"0.0-5.0-6.0"},{"group":"dicyclic group of order 12","fractal_assignment":["../images/grn_blu.png","../images/wht_red.png","../images/org_blu.png","../images/grn_prp.png","../images/gry_blk.png","../images/pnk_blu.png","../images/ylw_pnk.png","../images/grn_red.png","../images/cyn_red.png","../images/ylw_slt.png","../images/red_prp.png","../images/blu_wht.png"],"mutagen_generator_assignment":[1,0],"goal":6,"start":11,"action_noise":0.15,"location_history":"[11,4,9,1,2,3,0,1,2,6]","action_history":"[0,1,1,0,0,0,1,0,1]","mutagen_history":"[1,0,0,1,1,1,0,1,0]","location_rts":"[47,297,306,183,29,225,73,156,410]","trial_type":"fractal-mutation","trial_index":46,"time_elapsed":2492955,"internal_node_id":"0.0-5.0-7.0"},{"group":"dicyclic group of order 12","fractal_assignment":["../images/grn_blu.png","../images/wht_red.png","../images/org_blu.png","../images/grn_prp.png","../images/gry_blk.png","../images/pnk_blu.png","../images/ylw_pnk.png","../images/grn_red.png","../images/cyn_red.png","../images/ylw_slt.png","../images/red_prp.png","../images/blu_wht.png"],"mutagen_generator_assignment":[1,0],"goal":4,"start":6,"action_noise":0.15,"location_history":"[6,11,4]","action_history":"[0,0]","mutagen_history":"[1,1]","location_rts":"[4,149]","trial_type":"fractal-mutation","trial_index":47,"time_elapsed":2498881,"internal_node_id":"0.0-5.0-8.0"},{"group":"dicyclic group of order 12","fractal_assignment":["../images/grn_blu.png","../images/wht_red.png","../images/org_blu.png","../images/grn_prp.png","../images/gry_blk.png","../images/pnk_blu.png","../images/ylw_pnk.png","../images/grn_red.png","../images/cyn_red.png","../images/ylw_slt.png","../images/red_prp.png","../images/blu_wht.png"],"mutagen_generator_assignment":[1,0],"goal":1,"start":4,"action_noise":0.15,"location_history":"[4,8,0,4,8,0,4,9,6,10,2,3,0,4,8,5,10,2,3,7,8,0,4,9,6,11,4,9,6,11,4,9,1]","action_history":"[1,1,1,1,1,1,0,0,1,1,0,0,1,1,0,1,1,1,1,1,0,1,0,1,0,0,0,0,0,0,0,0]","mutagen_history":"[0,0,0,0,0,0,1,1,0,0,1,1,0,0,1,0,0,0,0,0,1,0,1,0,1,1,1,1,1,1,1,1]","location_rts":"[243,171,77,179,195,285,4,177,33,112,69,46,403,454,171,1951,816,156,3882,1818,372,563,101,547,25,1,90,332,565,995,3427,3731]","trial_type":"fractal-mutation","trial_index":48,"time_elapsed":2559910,"internal_node_id":"0.0-5.0-9.0"},{"group":"dicyclic group of order 12","fractal_assignment":["../images/grn_blu.png","../images/wht_red.png","../images/org_blu.png","../images/grn_prp.png","../images/gry_blk.png","../images/pnk_blu.png","../images/ylw_pnk.png","../images/grn_red.png","../images/cyn_red.png","../images/ylw_slt.png","../images/red_prp.png","../images/blu_wht.png"],"mutagen_generator_assignment":[1,0],"goal":9,"start":1,"action_noise":0.15,"location_history":"[1,2,3,0,4,9]","action_history":"[0,0,0,0,0]","mutagen_history":"[1,1,1,1,1]","location_rts":"[60,185,81,84,151]","trial_type":"fractal-mutation","trial_index":49,"time_elapsed":2569615,"internal_node_id":"0.0-5.0-10.0"},{"group":"dicyclic group of order 12","fractal_assignment":["../images/grn_blu.png","../images/wht_red.png","../images/org_blu.png","../images/grn_prp.png","../images/gry_blk.png","../images/pnk_blu.png","../images/ylw_pnk.png","../images/grn_red.png","../images/cyn_red.png","../images/ylw_slt.png","../images/red_prp.png","../images/blu_wht.png"],"mutagen_generator_assignment":[1,0],"goal":10,"start":9,"action_noise":0.15,"location_history":"[9,6,11,4,9,6,11,4,8,0,4,8,5,10]","action_history":"[0,0,0,0,1,0,0,0,1,1,1,1,1]","mutagen_history":"[1,1,1,1,0,1,1,1,0,0,0,0,0]","location_rts":"[54,44,46,29,60,80,105,154,34,49,4,63,111]","trial_type":"fractal-mutation","trial_index":50,"time_elapsed":2588396,"internal_node_id":"0.0-5.0-11.0"},{"group":"dicyclic group of order 12","fractal_assignment":["../images/grn_blu.png","../images/wht_red.png","../images/org_blu.png","../images/grn_prp.png","../images/gry_blk.png","../images/pnk_blu.png","../images/ylw_pnk.png","../images/grn_red.png","../images/cyn_red.png","../images/ylw_slt.png","../images/red_prp.png","../images/blu_wht.png"],"mutagen_generator_assignment":[1,0],"goal":2,"start":10,"action_noise":0.15,"location_history":"[10,2]","action_history":"[1]","mutagen_history":"[0]","location_rts":"[83]","trial_type":"fractal-mutation","trial_index":51,"time_elapsed":2593056,"internal_node_id":"0.0-5.0-12.0"},{"group":"dicyclic group of order 12","fractal_assignment":["../images/grn_blu.png","../images/wht_red.png","../images/org_blu.png","../images/grn_prp.png","../images/gry_blk.png","../images/pnk_blu.png","../images/ylw_pnk.png","../images/grn_red.png","../images/cyn_red.png","../images/ylw_slt.png","../images/red_prp.png","../images/blu_wht.png"],"mutagen_generator_assignment":[1,0],"goal":0,"start":2,"action_noise":0.15,"location_history":"[2,6,10,2,3,7,8,5,10,2,3,0]","action_history":"[1,1,1,0,1,0,0,0,1,0,0]","mutagen_history":"[0,0,0,1,0,1,1,1,0,1,1]","location_rts":"[30,59,78,141,121,150,189,412,217,97,113]","trial_type":"fractal-mutation","trial_index":52,"time_elapsed":2610332,"internal_node_id":"0.0-5.0-13.0"},{"group":"dicyclic group of order 12","fractal_assignment":["../images/grn_blu.png","../images/wht_red.png","../images/org_blu.png","../images/grn_prp.png","../images/gry_blk.png","../images/pnk_blu.png","../images/ylw_pnk.png","../images/grn_red.png","../images/cyn_red.png","../images/ylw_slt.png","../images/red_prp.png","../images/blu_wht.png"],"mutagen_generator_assignment":[1,0],"goal":9,"start":0,"action_noise":0.15,"location_history":"[0,4,8,5,9]","action_history":"[1,1,0,1]","mutagen_history":"[0,0,1,0]","location_rts":"[63,70,105,16]","trial_type":"fractal-mutation","trial_index":53,"time_elapsed":2618456,"internal_node_id":"0.0-5.0-14.0"},{"group":"dicyclic group of order 12","fractal_assignment":["../images/grn_blu.png","../images/wht_red.png","../images/org_blu.png","../images/grn_prp.png","../images/gry_blk.png","../images/pnk_blu.png","../images/ylw_pnk.png","../images/grn_red.png","../images/cyn_red.png","../images/ylw_slt.png","../images/red_prp.png","../images/blu_wht.png"],"mutagen_generator_assignment":[1,0],"goal":8,"start":9,"action_noise":0.15,"location_history":"[9,6,10,2,3,0,1,5,9,6,11,4,9,1,5,10,2,3,0,1,5,10,2,6,11,3,0,4,9,1,2,6,10,2,3,7,8]","action_history":"[0,1,1,0,0,0,1,1,0,0,0,0,1,1,0,0,0,0,1,1,0,0,1,0,1,0,1,0,1,1,1,1,0,0,1,0]","mutagen_history":"[1,0,0,1,1,1,0,0,1,1,1,1,0,0,1,1,1,1,0,0,1,1,0,1,0,1,0,1,0,0,0,0,1,1,0,1]","location_rts":"[73,33,0,19,45,51,5,106,42,88,211,219,9,153,82,45,160,61,326,83,11,406,145,65,288,5,112,4,9,81,124,140,2,82,20,197]","trial_type":"fractal-mutation","trial_index":54,"time_elapsed":2665565,"internal_node_id":"0.0-5.0-15.0"},{"group":"dicyclic group of order 12","fractal_assignment":["../images/grn_blu.png","../images/wht_red.png","../images/org_blu.png","../images/grn_prp.png","../images/gry_blk.png","../images/pnk_blu.png","../images/ylw_pnk.png","../images/grn_red.png","../images/cyn_red.png","../images/ylw_slt.png","../images/red_prp.png","../images/blu_wht.png"],"mutagen_generator_assignment":[1,0],"goal":6,"start":8,"action_noise":0.15,"location_history":"[8,5,10,7,11,3,0,1,2,3,0,4,9,6]","action_history":"[0,0,0,1,1,0,0,0,0,0,1,1,1]","mutagen_history":"[1,1,1,0,0,1,1,1,1,1,0,0,0]","location_rts":"[151,153,46,66,51,56,178,27,76,84,73,175,11]","trial_type":"fractal-mutation","trial_index":55,"time_elapsed":2684737,"internal_node_id":"0.0-5.0-16.0"},{"group":"dicyclic group of order 12","fractal_assignment":["../images/grn_blu.png","../images/wht_red.png","../images/org_blu.png","../images/grn_prp.png","../images/gry_blk.png","../images/pnk_blu.png","../images/ylw_pnk.png","../images/grn_red.png","../images/cyn_red.png","../images/ylw_slt.png","../images/red_prp.png","../images/blu_wht.png"],"mutagen_generator_assignment":[1,0],"goal":1,"start":6,"action_noise":0.15,"location_history":"[6,11,3,7,11,4,9,6,11,4,8,0,4,8,5,9,1]","action_history":"[0,1,1,1,0,0,0,1,0,1,1,1,1,0,0,0]","mutagen_history":"[1,0,0,0,1,1,1,0,1,0,0,0,0,1,1,1]","location_rts":"[104,85,80,68,131,92,62,149,8,111,13,69,102,19,71,23]","trial_type":"fractal-mutation","trial_index":56,"time_elapsed":2707265,"internal_node_id":"0.0-5.0-17.0"},{"group":"dicyclic group of order 12","fractal_assignment":["../images/grn_blu.png","../images/wht_red.png","../images/org_blu.png","../images/grn_prp.png","../images/gry_blk.png","../images/pnk_blu.png","../images/ylw_pnk.png","../images/grn_red.png","../images/cyn_red.png","../images/ylw_slt.png","../images/red_prp.png","../images/blu_wht.png"],"mutagen_generator_assignment":[1,0],"goal":4,"start":1,"action_noise":0.15,"location_history":"[1,2,3,7,8,5,9,6,10,2,3,7,8,0,4]","action_history":"[0,0,1,0,0,0,0,0,1,0,1,1,1,1]","mutagen_history":"[1,1,0,1,1,1,1,1,0,1,0,0,0,0]","location_rts":"[45,148,181,17,141,25,165,74,125,208,95,32,186,48]","trial_type":"fractal-mutation","trial_index":57,"time_elapsed":2727899,"internal_node_id":"0.0-5.0-18.0"},{"group":"dicyclic group of order 12","fractal_assignment":["../images/grn_blu.png","../images/wht_red.png","../images/org_blu.png","../images/grn_prp.png","../images/gry_blk.png","../images/pnk_blu.png","../images/ylw_pnk.png","../images/grn_red.png","../images/cyn_red.png","../images/ylw_slt.png","../images/red_prp.png","../images/blu_wht.png"],"mutagen_generator_assignment":[1,0],"goal":11,"start":4,"action_noise":0.15,"location_history":"[4,9,6,10,2,6,11]","action_history":"[0,0,0,0,0,0]","mutagen_history":"[1,1,1,1,1,1]","location_rts":"[7,117,35,141,40,224]","trial_type":"fractal-mutation","trial_index":58,"time_elapsed":2738759,"internal_node_id":"0.0-5.0-19.0"},{"group":"dicyclic group of order 12","fractal_assignment":["../images/grn_blu.png","../images/wht_red.png","../images/org_blu.png","../images/grn_prp.png","../images/gry_blk.png","../images/pnk_blu.png","../images/ylw_pnk.png","../images/grn_red.png","../images/cyn_red.png","../images/ylw_slt.png","../images/red_prp.png","../images/blu_wht.png"],"mutagen_generator_assignment":[1,0],"goal":3,"start":11,"action_noise":0.15,"location_history":"[11,4,8,0,1,2,3]","action_history":"[0,1,0,0,0,0]","mutagen_history":"[1,0,1,1,1,1]","location_rts":"[97,57,135,4,45,28]","trial_type":"fractal-mutation","trial_index":59,"time_elapsed":2749368,"internal_node_id":"0.0-5.0-20.0"},{"group":"dicyclic group of order 12","fractal_assignment":["../images/grn_blu.png","../images/wht_red.png","../images/org_blu.png","../images/grn_prp.png","../images/gry_blk.png","../images/pnk_blu.png","../images/ylw_pnk.png","../images/grn_red.png","../images/cyn_red.png","../images/ylw_slt.png","../images/red_prp.png","../images/blu_wht.png"],"mutagen_generator_assignment":[1,0],"goal":5,"start":3,"action_noise":0.15,"location_history":"[3,0,4,9,6,10,7,11,3,7,8,0,1,2,6,11,4,9,6,11,4,9,1,2,3,7,11,3,0,1,5]","action_history":"[0,1,0,0,1,0,1,1,1,0,1,0,0,0,0,0,0,0,0,0,0,1,0,0,1,1,1,1,0,1]","mutagen_history":"[1,0,1,1,0,1,0,0,0,1,0,1,1,1,1,1,1,1,1,1,1,0,1,1,0,0,0,0,1,0]","location_rts":"[138,44,122,136,111,46,47,50,164,237,105,62,87,20,36,156,134,75,138,143,68,121,46,203,73,118,55,18,103,33]","trial_type":"fractal-mutation","trial_index":60,"time_elapsed":2789261,"internal_node_id":"0.0-5.0-21.0"},{"group":"dicyclic group of order 12","fractal_assignment":["../images/grn_blu.png","../images/wht_red.png","../images/org_blu.png","../images/grn_prp.png","../images/gry_blk.png","../images/pnk_blu.png","../images/ylw_pnk.png","../images/grn_red.png","../images/cyn_red.png","../images/ylw_slt.png","../images/red_prp.png","../images/blu_wht.png"],"mutagen_generator_assignment":[1,0],"goal":7,"start":5,"action_noise":0.15,"location_history":"[5,9,6,11,4,9,6,11,3,7]","action_history":"[1,0,0,0,0,0,0,1,1]","mutagen_history":"[0,1,1,1,1,1,1,0,0]","location_rts":"[62,230,190,72,113,143,1,150,31]","trial_type":"fractal-mutation","trial_index":61,"time_elapsed":2803800,"internal_node_id":"0.0-5.0-22.0"},{"group":"dicyclic group of order 12","fractal_assignment":["../images/grn_blu.png","../images/wht_red.png","../images/org_blu.png","../images/grn_prp.png","../images/gry_blk.png","../images/pnk_blu.png","../images/ylw_pnk.png","../images/grn_red.png","../images/cyn_red.png","../images/ylw_slt.png","../images/red_prp.png","../images/blu_wht.png"],"mutagen_generator_assignment":[1,0],"goal":3,"start":7,"action_noise":0.15,"location_history":"[7,11,3]","action_history":"[1,0]","mutagen_history":"[0,1]","location_rts":"[112,98]","trial_type":"fractal-mutation","trial_index":62,"time_elapsed":2809719,"internal_node_id":"0.0-5.0-23.0"},{"group":"dicyclic group of order 12","fractal_assignment":["../images/grn_blu.png","../images/wht_red.png","../images/org_blu.png","../images/grn_prp.png","../images/gry_blk.png","../images/pnk_blu.png","../images/ylw_pnk.png","../images/grn_red.png","../images/cyn_red.png","../images/ylw_slt.png","../images/red_prp.png","../images/blu_wht.png"],"mutagen_generator_assignment":[1,0],"goal":4,"start":3,"action_noise":0.15,"location_history":"[3,7,8,0,4]","action_history":"[0,0,1,1]","mutagen_history":"[1,1,0,0]","location_rts":"[208,193,2,24]","trial_type":"fractal-mutation","trial_index":63,"time_elapsed":2818103,"internal_node_id":"0.0-5.0-24.0"},{"group":"dicyclic group of order 12","fractal_assignment":["../images/grn_blu.png","../images/wht_red.png","../images/org_blu.png","../images/grn_prp.png","../images/gry_blk.png","../images/pnk_blu.png","../images/ylw_pnk.png","../images/grn_red.png","../images/cyn_red.png","../images/ylw_slt.png","../images/red_prp.png","../images/blu_wht.png"],"mutagen_generator_assignment":[1,0],"goal":8,"start":4,"action_noise":0.15,"location_history":"[4,9,6,10,7,11,4,9,6,10,7,8]","action_history":"[0,0,1,0,0,0,0,0,1,0,0]","mutagen_history":"[1,1,0,1,1,1,1,1,0,1,1]","location_rts":"[1336,104,77,180,28,10,25,7,45,33,62]","trial_type":"fractal-mutation","trial_index":64,"time_elapsed":2835874,"internal_node_id":"0.0-5.0-25.0"},{"group":"dicyclic group of order 12","fractal_assignment":["../images/grn_blu.png","../images/wht_red.png","../images/org_blu.png","../images/grn_prp.png","../images/gry_blk.png","../images/pnk_blu.png","../images/ylw_pnk.png","../images/grn_red.png","../images/cyn_red.png","../images/ylw_slt.png","../images/red_prp.png","../images/blu_wht.png"],"mutagen_generator_assignment":[1,0],"goal":6,"start":8,"action_noise":0.15,"location_history":"[8,0,1,5,9,6]","action_history":"[0,0,1,1,0]","mutagen_history":"[1,1,0,0,1]","location_rts":"[230,160,204,40,183]","trial_type":"fractal-mutation","trial_index":65,"time_elapsed":2845783,"internal_node_id":"0.0-5.0-26.0"},{"group":"dicyclic group of order 12","fractal_assignment":["../images/grn_blu.png","../images/wht_red.png","../images/org_blu.png","../images/grn_prp.png","../images/gry_blk.png","../images/pnk_blu.png","../images/ylw_pnk.png","../images/grn_red.png","../images/cyn_red.png","../images/ylw_slt.png","../images/red_prp.png","../images/blu_wht.png"],"mutagen_generator_assignment":[1,0],"goal":1,"start":6,"action_noise":0.15,"location_history":"[6,10,7,8,5,9,6,11,3,0,1]","action_history":"[1,0,0,0,1,0,0,1,0,0]","mutagen_history":"[0,1,1,1,0,1,1,0,1,1]","location_rts":"[159,184,55,233,153,194,227,30,158,11]","trial_type":"fractal-mutation","trial_index":66,"time_elapsed":2861884,"internal_node_id":"0.0-5.0-27.0"},{"group":"dicyclic group of order 12","fractal_assignment":["../images/grn_blu.png","../images/wht_red.png","../images/org_blu.png","../images/grn_prp.png","../images/gry_blk.png","../images/pnk_blu.png","../images/ylw_pnk.png","../images/grn_red.png","../images/cyn_red.png","../images/ylw_slt.png","../images/red_prp.png","../images/blu_wht.png"],"mutagen_generator_assignment":[1,0],"goal":5,"start":1,"action_noise":0.15,"location_history":"[1,2,3,0,4,8,5]","action_history":"[0,0,0,1,1,0]","mutagen_history":"[1,1,1,0,0,1]","location_rts":"[27,68,16,63,171,75]","trial_type":"fractal-mutation","trial_index":67,"time_elapsed":2872515,"internal_node_id":"0.0-5.0-28.0"},{"group":"dicyclic group of order 12","fractal_assignment":["../images/grn_blu.png","../images/wht_red.png","../images/org_blu.png","../images/grn_prp.png","../images/gry_blk.png","../images/pnk_blu.png","../images/ylw_pnk.png","../images/grn_red.png","../images/cyn_red.png","../images/ylw_slt.png","../images/red_prp.png","../images/blu_wht.png"],"mutagen_generator_assignment":[1,0],"goal":9,"start":5,"action_noise":0.15,"location_history":"[5,10,7,11,3,7,11,3,7,11,4,8,5,9]","action_history":"[0,1,1,0,1,1,1,1,1,0,1,0,1]","mutagen_history":"[1,0,0,1,0,0,0,0,0,1,0,1,0]","location_rts":"[123,2,112,48,69,150,157,136,142,21,49,5,61]","trial_type":"fractal-mutation","trial_index":68,"time_elapsed":2891473,"internal_node_id":"0.0-5.0-29.0"},{"group":"dicyclic group of order 12","fractal_assignment":["../images/grn_blu.png","../images/wht_red.png","../images/org_blu.png","../images/grn_prp.png","../images/gry_blk.png","../images/pnk_blu.png","../images/ylw_pnk.png","../images/grn_red.png","../images/cyn_red.png","../images/ylw_slt.png","../images/red_prp.png","../images/blu_wht.png"],"mutagen_generator_assignment":[1,0],"goal":10,"start":9,"action_noise":0.15,"location_history":"[9,6,10]","action_history":"[0,1]","mutagen_history":"[1,0]","location_rts":"[14,77]","trial_type":"fractal-mutation","trial_index":69,"time_elapsed":2897292,"internal_node_id":"0.0-5.0-30.0"},{"group":"dicyclic group of order 12","fractal_assignment":["../images/grn_blu.png","../images/wht_red.png","../images/org_blu.png","../images/grn_prp.png","../images/gry_blk.png","../images/pnk_blu.png","../images/ylw_pnk.png","../images/grn_red.png","../images/cyn_red.png","../images/ylw_slt.png","../images/red_prp.png","../images/blu_wht.png"],"mutagen_generator_assignment":[1,0],"goal":0,"start":10,"action_noise":0.15,"location_history":"[10,2,6,10,7,11,3,7,8,0]","action_history":"[1,0,1,0,1,1,0,1,1]","mutagen_history":"[0,1,0,1,0,0,1,0,0]","location_rts":"[119,27,17,8,0,262,174,240,1084]","trial_type":"fractal-mutation","trial_index":70,"time_elapsed":2912689,"internal_node_id":"0.0-5.0-31.0"},{"group":"dicyclic group of order 12","fractal_assignment":["../images/grn_blu.png","../images/wht_red.png","../images/org_blu.png","../images/grn_prp.png","../images/gry_blk.png","../images/pnk_blu.png","../images/ylw_pnk.png","../images/grn_red.png","../images/cyn_red.png","../images/ylw_slt.png","../images/red_prp.png","../images/blu_wht.png"],"mutagen_generator_assignment":[1,0],"goal":7,"start":0,"action_noise":0.15,"location_history":"[0,4,9,6,10,2,6,10,2,6,10,7]","action_history":"[1,0,0,1,1,1,1,1,1,1,1]","mutagen_history":"[0,1,1,0,0,0,0,0,0,0,0]","location_rts":"[394,108,182,12,152,127,96,88,188,316,2253]","trial_type":"fractal-mutation","trial_index":71,"time_elapsed":2932266,"internal_node_id":"0.0-5.0-32.0"},{"group":"dicyclic group of order 12","fractal_assignment":["../images/grn_blu.png","../images/wht_red.png","../images/org_blu.png","../images/grn_prp.png","../images/gry_blk.png","../images/pnk_blu.png","../images/ylw_pnk.png","../images/grn_red.png","../images/cyn_red.png","../images/ylw_slt.png","../images/red_prp.png","../images/blu_wht.png"],"mutagen_generator_assignment":[1,0],"goal":11,"start":7,"action_noise":0.15,"location_history":"[7,11]","action_history":"[1]","mutagen_history":"[0]","location_rts":"[317]","trial_type":"fractal-mutation","trial_index":72,"time_elapsed":2937173,"internal_node_id":"0.0-5.0-33.0"},{"group":"dicyclic group of order 12","fractal_assignment":["../images/grn_blu.png","../images/wht_red.png","../images/org_blu.png","../images/grn_prp.png","../images/gry_blk.png","../images/pnk_blu.png","../images/ylw_pnk.png","../images/grn_red.png","../images/cyn_red.png","../images/ylw_slt.png","../images/red_prp.png","../images/blu_wht.png"],"mutagen_generator_assignment":[1,0],"goal":2,"start":11,"action_noise":0.15,"location_history":"[11,4,9,6,10,2]","action_history":"[0,0,1,0,1]","mutagen_history":"[1,1,0,1,0]","location_rts":"[291,313,151,367,136]","trial_type":"fractal-mutation","trial_index":73,"time_elapsed":2947562,"internal_node_id":"0.0-5.0-34.0"},{"view_history":"[{\"page_index\":0,\"viewing_time\":6090}]","rt":6090,"trial_type":"instructions","trial_index":74,"time_elapsed":2954656,"internal_node_id":"0.0-6.0"},{"rt":5359,"responses":"{\"Q0\":\"not sure\"}","trial_type":"survey-text","trial_index":75,"time_elapsed":2961021,"internal_node_id":"0.0-7.0-0.0"},{"rt":5289,"responses":"{\"Q0\":\"not sure\"}","trial_type":"survey-text","trial_index":76,"time_elapsed":2967316,"internal_node_id":"0.0-7.0-1.0"},{"rt":4284,"responses":"{\"Q0\":\"2\"}","trial_type":"survey-likert","trial_index":77,"time_elapsed":2972602,"internal_node_id":"0.0-7.0-2.0"},{"rt":14178,"responses":"{\"Q0\":\"not applicable\"}","trial_type":"survey-text","trial_index":78,"time_elapsed":2987783,"internal_node_id":"0.0-7.0-3.0"},{"rt":4880,"responses":"{\"Q0\":\"No\"}","trial_type":"survey-multi-choice","trial_index":79,"time_elapsed":2993667,"internal_node_id":"0.0-7.0-4.0"},{"rt":2630,"responses":"{\"Q0\":\"Did not notice\"}","trial_type":"survey-multi-choice","trial_index":80,"time_elapsed":2997300,"internal_node_id":"0.0-7.0-5.0"},{"rt":1020,"responses":"{\"Q0\":\"\"}","trial_type":"survey-text","trial_index":81,"time_elapsed":2999329,"internal_node_id":"0.0-7.0-6.0"},{"rt":2026,"responses":"{\"Q0\":\"0\"}","trial_type":"survey-likert","trial_index":82,"time_elapsed":3002360,"internal_node_id":"0.0-7.0-7.0"},{"rt":2200,"responses":"{\"Q0\":\"Same structure\"}","trial_type":"survey-multi-choice","trial_index":83,"time_elapsed":3005565,"internal_node_id":"0.0-7.0-8.0"},{"rt":4757,"responses":"{\"Q0\":\"black door = acid, white door = ray\",\"Q1\":\"Slightly confident\"}","trial_type":"survey-multi-choice","trial_index":84,"time_elapsed":3011328,"internal_node_id":"0.0-7.0-9.0"},{"rt":6723,"responses":"{\"Q0\":\"25-35\",\"Q1\":\"Master's degree\",\"Q2\":\"Male\",\"Q3\":\"Black or African American\"}","trial_type":"survey-multi-choice","trial_index":85,"time_elapsed":3019058,"internal_node_id":"0.0-8.0"},{"rt":1352,"responses":"{\"Q0\":\"\"}","trial_type":"survey-text","trial_index":86,"time_elapsed":3021411,"internal_node_id":"0.0-9.0"}]