[{"view_history":"[{\"page_index\":0,\"viewing_time\":2593},{\"page_index\":1,\"viewing_time\":16362}]","rt":18956,"trial_type":"instructions","trial_index":0,"time_elapsed":18957,"internal_node_id":"0.0-0.0"},{"view_history":"[{\"page_index\":0,\"viewing_time\":3837},{\"page_index\":1,\"viewing_time\":139943}]","rt":143780,"trial_type":"instructions","trial_index":1,"time_elapsed":163739,"internal_node_id":"0.0-1.0"},{"group":"dihedral group of order 12","room_assignment":["green","ivory","pink","grey","red","brown","blue","olive","orange","purple","yellow","cyan"],"door_color_assignment":["white","black"],"door_generator_assignment":[1,0],"goal":7,"start":3,"action_noise":0.15,"location_history":"[3,9,8,2,8,2,8,2,3,4,5,11,10,9,3,9,3,9,3,4,5,0,6,0,1,2,3,9,8,7]","action_history":"[1,0,0,1,0,1,1,0,0,0,1,1,0,1,0,1,1,1,0,0,0,1,1,0,0,0,1,1,0]","door_history":"[0,1,1,0,1,0,0,1,1,1,0,0,1,0,1,0,0,0,1,1,1,0,0,1,1,1,0,0,1]","location_rts":"[22010,341,53,37,107,540,5,173,118,15,298,106,59,186,303,57,25,2374,319,3,6,66,122,27,45,105,16,77,51]","trial_type":"two-door-navigation","trial_index":2,"time_elapsed":224087,"internal_node_id":"0.0-2.0-0.0"},{"group":"dihedral group of order 12","room_assignment":["green","ivory","pink","grey","red","brown","blue","olive","orange","purple","yellow","cyan"],"door_color_assignment":["white","black"],"door_generator_assignment":[1,0],"goal":5,"start":7,"action_noise":0.15,"location_history":"[7,1,7,1,2,3,9,8,7,1,7,1,7,1,2,3,4,10,4,10,9,3,9,8,7,6,11,10,4,10,9,8,2,8,7,6,0,6,11,5]","action_history":"[0,1,1,1,0,1,0,0,1,0,1,1,1,0,0,0,1,1,1,0,1,1,0,0,0,0,0,1,1,0,0,1,1,0,0,1,1,0,1]","door_history":"[1,0,0,0,1,0,1,1,0,1,0,0,0,1,1,1,0,0,0,1,0,0,1,1,1,1,1,0,0,1,1,0,0,1,1,0,0,1,0]","location_rts":"[202,219,85,115,96,139,922,76,79,63,111,110,142,136,91,84,64,79,282,18,3113,46,167,102,193,138,192,140,2067,980,240,101,1741,189,139,1476,122,178,1479]","trial_type":"two-door-navigation","trial_index":3,"time_elapsed":282773,"internal_node_id":"0.0-2.0-1.0"},{"group":"dihedral group of order 12","room_assignment":["green","ivory","pink","grey","red","brown","blue","olive","orange","purple","yellow","cyan"],"door_color_assignment":["white","black"],"door_generator_assignment":[1,0],"goal":0,"start":5,"action_noise":0.15,"location_history":"[5,0]","action_history":"[0]","door_history":"[1]","location_rts":"[90]","trial_type":"two-door-navigation","trial_index":4,"time_elapsed":287370,"internal_node_id":"0.0-2.0-2.0"},{"group":"dihedral group of order 12","room_assignment":["green","ivory","pink","grey","red","brown","blue","olive","orange","purple","yellow","cyan"],"door_color_assignment":["white","black"],"door_generator_assignment":[1,0],"goal":2,"start":0,"action_noise":0.15,"location_history":"[0,1,7,6,11,10,9,3,9,3,9,8,7,6,11,5,0,1,7,1,2]","action_history":"[0,1,1,0,0,0,1,1,1,1,0,0,0,1,1,0,0,1,1,0]","door_history":"[1,0,0,1,1,1,0,0,0,0,1,1,1,0,0,1,1,0,0,1]","location_rts":"[178,104,106,84,88,69,127,114,293,116,30,83,108,1251,67,35,203,46,99,189]","trial_type":"two-door-navigation","trial_index":5,"time_elapsed":314368,"internal_node_id":"0.0-2.0-3.0"},{"group":"dihedral group of order 12","room_assignment":["green","ivory","pink","grey","red","brown","blue","olive","orange","purple","yellow","cyan"],"door_color_assignment":["white","black"],"door_generator_assignment":[1,0],"goal":10,"start":2,"action_noise":0.15,"location_history":"[2,8,2,8,7,6,0,1,2,3,4,10]","action_history":"[0,1,1,0,0,1,0,0,1,0,1]","door_history":"[1,0,0,1,1,0,1,1,0,1,0]","location_rts":"[104,30,122,137,183,181,25,151,140,171,365]","trial_type":"two-door-navigation","trial_index":6,"time_elapsed":330543,"internal_node_id":"0.0-2.0-4.0"},{"group":"dihedral group of order 12","room_assignment":["green","ivory","pink","grey","red","brown","blue","olive","orange","purple","yellow","cyan"],"door_color_assignment":["white","black"],"door_generator_assignment":[1,0],"goal":8,"start":10,"action_noise":0.15,"location_history":"[10,4,5,11,5,11,10,9,3,4,5,0,6,0,1,2,8]","action_history":"[1,0,0,1,1,0,0,1,1,0,0,1,1,0,0,1]","door_history":"[0,1,1,0,0,1,1,0,0,1,1,0,0,1,1,0]","location_rts":"[3166,835,91,172,130,58,162,188,145,112,158,40,129,18,119,168]","trial_type":"two-door-navigation","trial_index":7,"time_elapsed":355837,"internal_node_id":"0.0-2.0-5.0"},{"group":"dihedral group of order 12","room_assignment":["green","ivory","pink","grey","red","brown","blue","olive","orange","purple","yellow","cyan"],"door_color_assignment":["white","black"],"door_generator_assignment":[1,0],"goal":11,"start":8,"action_noise":0.15,"location_history":"[8,7,6,11]","action_history":"[0,0,0]","door_history":"[1,1,1]","location_rts":"[217,59,11]","trial_type":"two-door-navigation","trial_index":8,"time_elapsed":362641,"internal_node_id":"0.0-2.0-6.0"},{"group":"dihedral group of order 12","room_assignment":["green","ivory","pink","grey","red","brown","blue","olive","orange","purple","yellow","cyan"],"door_color_assignment":["white","black"],"door_generator_assignment":[1,0],"goal":6,"start":11,"action_noise":0.15,"location_history":"[11,5,0,1,2,3,4,10,4,10,9,8,2,3,4,10,9,8,2,8,7,6]","action_history":"[1,1,0,0,0,0,0,1,1,0,0,1,0,0,1,0,0,1,0,0,0]","door_history":"[0,0,1,1,1,1,1,0,0,1,1,0,1,1,0,1,1,0,1,1,1]","location_rts":"[131,131,71,103,103,84,8559,191,122,84,103,48935,52,103,180,61,77,56,402,114,428]","trial_type":"two-door-navigation","trial_index":9,"time_elapsed":447356,"internal_node_id":"0.0-2.0-7.0"},{"group":"dihedral group of order 12","room_assignment":["green","ivory","pink","grey","red","brown","blue","olive","orange","purple","yellow","cyan"],"door_color_assignment":["white","black"],"door_generator_assignment":[1,0],"goal":4,"start":6,"action_noise":0.15,"location_history":"[6,11,5,11,10,9,8,7,6,0,6,11,10,4]","action_history":"[0,1,1,0,0,1,0,0,1,1,0,0,1]","door_history":"[1,0,0,1,1,0,1,1,0,0,1,1,0]","location_rts":"[250,94,57,176,52,611,131,47,26,58,174,107,341]","trial_type":"two-door-navigation","trial_index":10,"time_elapsed":466055,"internal_node_id":"0.0-2.0-8.0"},{"group":"dihedral group of order 12","room_assignment":["green","ivory","pink","grey","red","brown","blue","olive","orange","purple","yellow","cyan"],"door_color_assignment":["white","black"],"door_generator_assignment":[1,0],"goal":1,"start":4,"action_noise":0.15,"location_history":"[4,5,11,5,11,10,4,5,11,5,11,10,9,8,2,3,4,10,9,8,7,6,0,1]","action_history":"[0,0,1,1,0,0,0,1,1,1,0,0,0,0,0,0,1,0,0,0,0,1,0]","door_history":"[1,1,0,0,1,1,1,0,0,0,1,1,1,1,1,1,0,1,1,1,1,0,1]","location_rts":"[156,342,288,94,89,87,51,60,17,38,162,4,29,40,55,35,169,89,45,90,168,129,84]","trial_type":"two-door-navigation","trial_index":11,"time_elapsed":495017,"internal_node_id":"0.0-2.0-9.0"},{"group":"dihedral group of order 12","room_assignment":["green","ivory","pink","grey","red","brown","blue","olive","orange","purple","yellow","cyan"],"door_color_assignment":["white","black"],"door_generator_assignment":[1,0],"goal":9,"start":1,"action_noise":0.15,"location_history":"[1,2,3,4,5,0,6,11,10,9]","action_history":"[1,0,0,0,0,1,0,0,0]","door_history":"[0,1,1,1,1,0,1,1,1]","location_rts":"[803,134,89,58,46,139,5,31,41]","trial_type":"two-door-navigation","trial_index":12,"time_elapsed":508926,"internal_node_id":"0.0-2.0-10.0"},{"group":"dihedral group of order 12","room_assignment":["green","ivory","pink","grey","red","brown","blue","olive","orange","purple","yellow","cyan"],"door_color_assignment":["white","black"],"door_generator_assignment":[1,0],"goal":10,"start":9,"action_noise":0.15,"location_history":"[9,3,4,10]","action_history":"[0,0,1]","door_history":"[1,1,0]","location_rts":"[37,17,171]","trial_type":"two-door-navigation","trial_index":13,"time_elapsed":515672,"internal_node_id":"0.0-2.0-11.0"},{"group":"dihedral group of order 12","room_assignment":["green","ivory","pink","grey","red","brown","blue","olive","orange","purple","yellow","cyan"],"door_color_assignment":["white","black"],"door_generator_assignment":[1,0],"goal":2,"start":10,"action_noise":0.15,"location_history":"[10,9,8,7,6,11,5,0,1,2]","action_history":"[0,1,0,0,0,1,0,0,0]","door_history":"[1,0,1,1,1,0,1,1,1]","location_rts":"[69,381,31,95,87,58,144,65,72]","trial_type":"two-door-navigation","trial_index":14,"time_elapsed":529226,"internal_node_id":"0.0-2.0-12.0"},{"group":"dihedral group of order 12","room_assignment":["green","ivory","pink","grey","red","brown","blue","olive","orange","purple","yellow","cyan"],"door_color_assignment":["white","black"],"door_generator_assignment":[1,0],"goal":0,"start":2,"action_noise":0.15,"location_history":"[2,8,2,3,9,8,7,6,11,10,4,10,9,8,7,1,2,3,4,5,11,5,0]","action_history":"[0,1,0,0,0,0,0,0,0,1,0,0,0,0,1,0,0,0,0,1,0,0]","door_history":"[1,0,1,1,1,1,1,1,1,0,1,1,1,1,0,1,1,1,1,0,1,1]","location_rts":"[83,97,117,178,74,15,168,17,81,162,211,127,94,53,177,142,120,48,39,128,9,68]","trial_type":"two-door-navigation","trial_index":15,"time_elapsed":557079,"internal_node_id":"0.0-2.0-13.0"},{"group":"dihedral group of order 12","room_assignment":["green","ivory","pink","grey","red","brown","blue","olive","orange","purple","yellow","cyan"],"door_color_assignment":["white","black"],"door_generator_assignment":[1,0],"goal":9,"start":0,"action_noise":0.15,"location_history":"[0,1,2,3,4,5,0,1,2,3,4,10,9]","action_history":"[1,0,0,0,0,1,0,0,0,0,1,0]","door_history":"[0,1,1,1,1,0,1,1,1,1,0,1]","location_rts":"[178,125,72,22,41,141,110,141,60,71,157,9]","trial_type":"two-door-navigation","trial_index":16,"time_elapsed":573771,"internal_node_id":"0.0-2.0-14.0"},{"group":"dihedral group of order 12","room_assignment":["green","ivory","pink","grey","red","brown","blue","olive","orange","purple","yellow","cyan"],"door_color_assignment":["white","black"],"door_generator_assignment":[1,0],"goal":8,"start":9,"action_noise":0.15,"location_history":"[9,3,4,10,9,8]","action_history":"[1,0,1,0,0]","door_history":"[0,1,0,1,1]","location_rts":"[178,124,1961,187,85]","trial_type":"two-door-navigation","trial_index":17,"time_elapsed":584833,"internal_node_id":"0.0-2.0-15.0"},{"group":"dihedral group of order 12","room_assignment":["green","ivory","pink","grey","red","brown","blue","olive","orange","purple","yellow","cyan"],"door_color_assignment":["white","black"],"door_generator_assignment":[1,0],"goal":6,"start":8,"action_noise":0.15,"location_history":"[8,7,6]","action_history":"[1,0]","door_history":"[0,1]","location_rts":"[98,35]","trial_type":"two-door-navigation","trial_index":18,"time_elapsed":590479,"internal_node_id":"0.0-2.0-16.0"},{"group":"dihedral group of order 12","room_assignment":["green","ivory","pink","grey","red","brown","blue","olive","orange","purple","yellow","cyan"],"door_color_assignment":["white","black"],"door_generator_assignment":[1,0],"goal":1,"start":6,"action_noise":0.15,"location_history":"[6,0,1]","action_history":"[1,0]","door_history":"[0,1]","location_rts":"[175,99]","trial_type":"two-door-navigation","trial_index":19,"time_elapsed":596266,"internal_node_id":"0.0-2.0-17.0"},{"group":"dihedral group of order 12","room_assignment":["green","ivory","pink","grey","red","brown","blue","olive","orange","purple","yellow","cyan"],"door_color_assignment":["white","black"],"door_generator_assignment":[1,0],"goal":4,"start":1,"action_noise":0.15,"location_history":"[1,2,3,4]","action_history":"[1,0,0]","door_history":"[0,1,1]","location_rts":"[4,66,104]","trial_type":"two-door-navigation","trial_index":20,"time_elapsed":602957,"internal_node_id":"0.0-2.0-18.0"},{"group":"dihedral group of order 12","room_assignment":["green","ivory","pink","grey","red","brown","blue","olive","orange","purple","yellow","cyan"],"door_color_assignment":["white","black"],"door_generator_assignment":[1,0],"goal":11,"start":4,"action_noise":0.15,"location_history":"[4,5,11]","action_history":"[0,1]","door_history":"[1,0]","location_rts":"[87,138]","trial_type":"two-door-navigation","trial_index":21,"time_elapsed":608696,"internal_node_id":"0.0-2.0-19.0"},{"group":"dihedral group of order 12","room_assignment":["green","ivory","pink","grey","red","brown","blue","olive","orange","purple","yellow","cyan"],"door_color_assignment":["white","black"],"door_generator_assignment":[1,0],"goal":3,"start":11,"action_noise":0.15,"location_history":"[11,5,0,1,2,8,2,3]","action_history":"[1,0,0,0,1,0,0]","door_history":"[0,1,1,1,0,1,1]","location_rts":"[669,8,33,29,109,172,91]","trial_type":"two-door-navigation","trial_index":22,"time_elapsed":620348,"internal_node_id":"0.0-2.0-20.0"},{"group":"dihedral group of order 12","room_assignment":["green","ivory","pink","grey","red","brown","blue","olive","orange","purple","yellow","cyan"],"door_color_assignment":["white","black"],"door_generator_assignment":[1,0],"goal":5,"start":3,"action_noise":0.15,"location_history":"[3,9,8,2,8,7,6,0,1,2,8,7,6,11,10,4,5]","action_history":"[1,0,1,1,0,0,1,0,0,1,0,0,1,0,1,0]","door_history":"[0,1,0,0,1,1,0,1,1,0,1,1,0,1,0,1]","location_rts":"[612,71,326,74,79,75,102,619,85,237,245,115,844,13214,93,6]","trial_type":"two-door-navigation","trial_index":23,"time_elapsed":656745,"internal_node_id":"0.0-2.0-21.0"},{"group":"dihedral group of order 12","room_assignment":["green","ivory","pink","grey","red","brown","blue","olive","orange","purple","yellow","cyan"],"door_color_assignment":["white","black"],"door_generator_assignment":[1,0],"goal":7,"start":5,"action_noise":0.15,"location_history":"[5,11,10,9,8,2,8,7]","action_history":"[1,0,0,0,1,1,0]","door_history":"[0,1,1,1,0,0,1]","location_rts":"[442,84,58,79,46,79,109]","trial_type":"two-door-navigation","trial_index":24,"time_elapsed":668179,"internal_node_id":"0.0-2.0-22.0"},{"group":"dihedral group of order 12","room_assignment":["green","ivory","pink","grey","red","brown","blue","olive","orange","purple","yellow","cyan"],"door_color_assignment":["white","black"],"door_generator_assignment":[1,0],"goal":3,"start":7,"action_noise":0.15,"location_history":"[7,1,2,8,7,6,11,5,11,5,0,6,0,6,11,10,9,3]","action_history":"[1,0,0,0,0,1,0,0,1,0,0,0,1,0,0,0,1]","door_history":"[0,1,1,1,1,0,1,1,0,1,1,1,0,1,1,1,0]","location_rts":"[1027,16,75,88,38,850,16,1,9,59,137,63,86,113,167,37,5]","trial_type":"two-door-navigation","trial_index":25,"time_elapsed":691559,"internal_node_id":"0.0-2.0-23.0"},{"group":"dihedral group of order 12","room_assignment":["green","ivory","pink","grey","red","brown","blue","olive","orange","purple","yellow","cyan"],"door_color_assignment":["white","black"],"door_generator_assignment":[1,0],"goal":4,"start":3,"action_noise":0.15,"location_history":"[3,4]","action_history":"[0]","door_history":"[1]","location_rts":"[9]","trial_type":"two-door-navigation","trial_index":26,"time_elapsed":696076,"internal_node_id":"0.0-2.0-24.0"},{"group":"dihedral group of order 12","room_assignment":["green","ivory","pink","grey","red","brown","blue","olive","orange","purple","yellow","cyan"],"door_color_assignment":["white","black"],"door_generator_assignment":[1,0],"goal":8,"start":4,"action_noise":0.15,"location_history":"[4,10,9,8]","action_history":"[1,0,0]","door_history":"[0,1,1]","location_rts":"[59,102,24]","trial_type":"two-door-navigation","trial_index":27,"time_elapsed":702784,"internal_node_id":"0.0-2.0-25.0"},{"group":"dihedral group of order 12","room_assignment":["green","ivory","pink","grey","red","brown","blue","olive","orange","purple","yellow","cyan"],"door_color_assignment":["white","black"],"door_generator_assignment":[1,0],"goal":6,"start":8,"action_noise":0.15,"location_history":"[8,7,1,7,6]","action_history":"[0,1,0,0]","door_history":"[1,0,1,1]","location_rts":"[114,37,141,67]","trial_type":"two-door-navigation","trial_index":28,"time_elapsed":710665,"internal_node_id":"0.0-2.0-26.0"},{"group":"dihedral group of order 12","room_assignment":["green","ivory","pink","grey","red","brown","blue","olive","orange","purple","yellow","cyan"],"door_color_assignment":["white","black"],"door_generator_assignment":[1,0],"goal":1,"start":6,"action_noise":0.15,"location_history":"[6,11,5,0,1]","action_history":"[0,1,0,0]","door_history":"[1,0,1,1]","location_rts":"[36401,253,37,68]","trial_type":"two-door-navigation","trial_index":29,"time_elapsed":754949,"internal_node_id":"0.0-2.0-27.0"},{"group":"dihedral group of order 12","room_assignment":["green","ivory","pink","grey","red","brown","blue","olive","orange","purple","yellow","cyan"],"door_color_assignment":["white","black"],"door_generator_assignment":[1,0],"goal":5,"start":1,"action_noise":0.15,"location_history":"[1,7,6,11,10,4,5]","action_history":"[1,0,0,0,1,0]","door_history":"[0,1,1,1,0,1]","location_rts":"[104,146,44,67,11,33]","trial_type":"two-door-navigation","trial_index":30,"time_elapsed":764892,"internal_node_id":"0.0-2.0-28.0"},{"group":"dihedral group of order 12","room_assignment":["green","ivory","pink","grey","red","brown","blue","olive","orange","purple","yellow","cyan"],"door_color_assignment":["white","black"],"door_generator_assignment":[1,0],"goal":9,"start":5,"action_noise":0.15,"location_history":"[5,0,6,11,10,9]","action_history":"[0,1,0,0,0]","door_history":"[1,0,1,1,1]","location_rts":"[21,973,44,135,88]","trial_type":"two-door-navigation","trial_index":31,"time_elapsed":774686,"internal_node_id":"0.0-2.0-29.0"},{"group":"dihedral group of order 12","room_assignment":["green","ivory","pink","grey","red","brown","blue","olive","orange","purple","yellow","cyan"],"door_color_assignment":["white","black"],"door_generator_assignment":[1,0],"goal":10,"start":9,"action_noise":0.15,"location_history":"[9,8,2,3,4,5,11,5,0,1,2,8,7,6,11,5,0,1,2,3,4,10]","action_history":"[0,1,0,0,0,1,0,0,0,0,1,0,0,0,1,0,0,1,0,0,1]","door_history":"[1,0,1,1,1,0,1,1,1,1,0,1,1,1,0,1,1,0,1,1,0]","location_rts":"[69,2091,126,134,98,25,113,71,67,46,57,303,70,54,61,132,107,5,69,49,251]","trial_type":"two-door-navigation","trial_index":32,"time_elapsed":803312,"internal_node_id":"0.0-2.0-30.0"},{"group":"dihedral group of order 12","room_assignment":["green","ivory","pink","grey","red","brown","blue","olive","orange","purple","yellow","cyan"],"door_color_assignment":["white","black"],"door_generator_assignment":[1,0],"goal":0,"start":10,"action_noise":0.15,"location_history":"[10,9,8,7,6,11,5,0]","action_history":"[0,1,0,0,0,1,0]","door_history":"[1,0,1,1,1,0,1]","location_rts":"[127,22,113,26,96,7,146]","trial_type":"two-door-navigation","trial_index":33,"time_elapsed":814397,"internal_node_id":"0.0-2.0-31.0"},{"group":"dihedral group of order 12","room_assignment":["green","ivory","pink","grey","red","brown","blue","olive","orange","purple","yellow","cyan"],"door_color_assignment":["white","black"],"door_generator_assignment":[1,0],"goal":7,"start":0,"action_noise":0.15,"location_history":"[0,6,11,10,9,8,7]","action_history":"[1,0,0,1,0,0]","door_history":"[0,1,1,0,1,1]","location_rts":"[37,95,57,33,27,64]","trial_type":"two-door-navigation","trial_index":34,"time_elapsed":824245,"internal_node_id":"0.0-2.0-32.0"},{"group":"dihedral group of order 12","room_assignment":["green","ivory","pink","grey","red","brown","blue","olive","orange","purple","yellow","cyan"],"door_color_assignment":["white","black"],"door_generator_assignment":[1,0],"goal":11,"start":7,"action_noise":0.15,"location_history":"[7,1,7,6,0,6,0,1,2,3,9,3,4,5,11]","action_history":"[1,0,0,1,0,1,1,0,0,1,1,0,0,1]","door_history":"[0,1,1,0,1,0,0,1,1,0,0,1,1,0]","location_rts":"[638,143,92,143,134,51,10,165,26,97,11,56,45,146]","trial_type":"two-door-navigation","trial_index":35,"time_elapsed":843589,"internal_node_id":"0.0-2.0-33.0"},{"group":"dihedral group of order 12","room_assignment":["green","ivory","pink","grey","red","brown","blue","olive","orange","purple","yellow","cyan"],"door_color_assignment":["white","black"],"door_generator_assignment":[1,0],"goal":2,"start":11,"action_noise":0.15,"location_history":"[11,5,11,5,0,6,11,10,4,10,9,8,2]","action_history":"[1,0,0,0,1,0,0,1,1,0,0,1]","door_history":"[0,1,1,1,0,1,1,0,0,1,1,0]","location_rts":"[976,33,87,35,69,149,45,142,118,99,146,73]","trial_type":"two-door-navigation","trial_index":36,"time_elapsed":861128,"internal_node_id":"0.0-2.0-34.0"},{"view_history":"[{\"page_index\":0,\"viewing_time\":1135}]","rt":1135,"trial_type":"instructions","trial_index":37,"time_elapsed":863263,"internal_node_id":"0.0-3.0"},{"view_history":"[{\"page_index\":0,\"viewing_time\":839},{\"page_index\":1,\"viewing_time\":2502}]","rt":3342,"trial_type":"instructions","trial_index":38,"time_elapsed":867607,"internal_node_id":"0.0-4.0"},{"group":"dicyclic group of order 12","fractal_assignment":["../images/ylw_pnk.png","../images/grn_red.png","../images/cyn_red.png","../images/grn_blu.png","../images/ylw_slt.png","../images/pnk_blu.png","../images/blu_wht.png","../images/gry_blk.png","../images/org_blu.png","../images/grn_prp.png","../images/wht_red.png","../images/red_prp.png"],"mutagen_generator_assignment":[0,1],"goal":7,"start":3,"action_noise":0.15,"location_history":"[3,7]","action_history":"[1]","mutagen_history":"[1]","location_rts":"[563]","trial_type":"fractal-mutation","trial_index":39,"time_elapsed":872714,"internal_node_id":"0.0-5.0-0.0"},{"group":"dicyclic group of order 12","fractal_assignment":["../images/ylw_pnk.png","../images/grn_red.png","../images/cyn_red.png","../images/grn_blu.png","../images/ylw_slt.png","../images/pnk_blu.png","../images/blu_wht.png","../images/gry_blk.png","../images/org_blu.png","../images/grn_prp.png","../images/wht_red.png","../images/red_prp.png"],"mutagen_generator_assignment":[0,1],"goal":5,"start":7,"action_noise":0.15,"location_history":"[7,11,4,8,0,4,8,0,1,5]","action_history":"[0,0,1,1,1,1,1,0,1]","mutagen_history":"[0,0,1,1,1,1,1,0,1]","location_rts":"[126,250,104,96,264,39,75,85,347]","trial_type":"fractal-mutation","trial_index":40,"time_elapsed":886909,"internal_node_id":"0.0-5.0-1.0"},{"group":"dicyclic group of order 12","fractal_assignment":["../images/ylw_pnk.png","../images/grn_red.png","../images/cyn_red.png","../images/grn_blu.png","../images/ylw_slt.png","../images/pnk_blu.png","../images/blu_wht.png","../images/gry_blk.png","../images/org_blu.png","../images/grn_prp.png","../images/wht_red.png","../images/red_prp.png"],"mutagen_generator_assignment":[0,1],"goal":0,"start":5,"action_noise":0.15,"location_history":"[5,10,7,11,4,9,6,11,4,8,5,9,1,5,9,1,5,10,2,6,11,3,7,11,3,7,11,3,7,11,4,9,6,10,7,11,3,7,11,3,0]","action_history":"[0,0,1,0,0,0,0,1,1,0,1,1,1,0,1,1,0,1,1,1,1,0,1,1,1,1,1,1,1,0,0,0,0,0,1,1,1,1,1,1]","mutagen_history":"[0,0,1,0,0,0,0,1,1,0,1,1,1,0,1,1,0,1,1,1,1,0,1,1,1,1,1,1,1,0,0,0,0,0,1,1,1,1,1,1]","location_rts":"[279,82,10,66,202,270,205,173,183,201,163,175,219,339,338,166,239,193,290,120,54,86,18,90,60,114,67,52,93,99,42,11,118,171,299,49,340,108,503,540]","trial_type":"fractal-mutation","trial_index":41,"time_elapsed":938433,"internal_node_id":"0.0-5.0-2.0"},{"group":"dicyclic group of order 12","fractal_assignment":["../images/ylw_pnk.png","../images/grn_red.png","../images/cyn_red.png","../images/grn_blu.png","../images/ylw_slt.png","../images/pnk_blu.png","../images/blu_wht.png","../images/gry_blk.png","../images/org_blu.png","../images/grn_prp.png","../images/wht_red.png","../images/red_prp.png"],"mutagen_generator_assignment":[0,1],"goal":2,"start":0,"action_noise":0.15,"location_history":"[0,4,8,5,9,1,5,9,6,11,4,8,5,9,6,10,2]","action_history":"[1,1,0,1,1,0,1,0,1,0,1,0,1,0,1,1]","mutagen_history":"[1,1,0,1,1,0,1,0,1,0,1,0,1,0,1,1]","location_rts":"[158,56,15,254,241,61,186,69,25,38,420,180,58,317,149,29]","trial_type":"fractal-mutation","trial_index":42,"time_elapsed":960638,"internal_node_id":"0.0-5.0-3.0"},{"group":"dicyclic group of order 12","fractal_assignment":["../images/ylw_pnk.png","../images/grn_red.png","../images/cyn_red.png","../images/grn_blu.png","../images/ylw_slt.png","../images/pnk_blu.png","../images/blu_wht.png","../images/gry_blk.png","../images/org_blu.png","../images/grn_prp.png","../images/wht_red.png","../images/red_prp.png"],"mutagen_generator_assignment":[0,1],"goal":10,"start":2,"action_noise":0.15,"location_history":"[2,6,10]","action_history":"[1,1]","mutagen_history":"[1,1]","location_rts":"[90,22]","trial_type":"fractal-mutation","trial_index":43,"time_elapsed":966318,"internal_node_id":"0.0-5.0-4.0"},{"group":"dicyclic group of order 12","fractal_assignment":["../images/ylw_pnk.png","../images/grn_red.png","../images/cyn_red.png","../images/grn_blu.png","../images/ylw_slt.png","../images/pnk_blu.png","../images/blu_wht.png","../images/gry_blk.png","../images/org_blu.png","../images/grn_prp.png","../images/wht_red.png","../images/red_prp.png"],"mutagen_generator_assignment":[0,1],"goal":8,"start":10,"action_noise":0.15,"location_history":"[10,2,6,10,7,8]","action_history":"[1,1,1,1,0]","mutagen_history":"[1,1,1,1,0]","location_rts":"[105,14,75,21,62]","trial_type":"fractal-mutation","trial_index":44,"time_elapsed":975254,"internal_node_id":"0.0-5.0-5.0"},{"group":"dicyclic group of order 12","fractal_assignment":["../images/ylw_pnk.png","../images/grn_red.png","../images/cyn_red.png","../images/grn_blu.png","../images/ylw_slt.png","../images/pnk_blu.png","../images/blu_wht.png","../images/gry_blk.png","../images/org_blu.png","../images/grn_prp.png","../images/wht_red.png","../images/red_prp.png"],"mutagen_generator_assignment":[0,1],"goal":11,"start":8,"action_noise":0.15,"location_history":"[8,0,4,8,5,9,1,2,3,7,11]","action_history":"[1,1,1,0,1,1,0,0,0,1]","mutagen_history":"[1,1,1,0,1,1,0,0,0,1]","location_rts":"[401,3216,24,205,135,73,100,218,239,4]","trial_type":"fractal-mutation","trial_index":45,"time_elapsed":993646,"internal_node_id":"0.0-5.0-6.0"},{"group":"dicyclic group of order 12","fractal_assignment":["../images/ylw_pnk.png","../images/grn_red.png","../images/cyn_red.png","../images/grn_blu.png","../images/ylw_slt.png","../images/pnk_blu.png","../images/blu_wht.png","../images/gry_blk.png","../images/org_blu.png","../images/grn_prp.png","../images/wht_red.png","../images/red_prp.png"],"mutagen_generator_assignment":[0,1],"goal":6,"start":11,"action_noise":0.15,"location_history":"[11,4,8,0,1,2,3,0,4,8,0,4,8,0,4,8,0,1,5,10,2,6]","action_history":"[0,1,1,0,1,0,0,1,1,1,1,1,1,0,0,1,1,1,1,0,0]","mutagen_history":"[0,1,1,0,1,0,0,1,1,1,1,1,1,0,0,1,1,1,1,0,0]","location_rts":"[180,102,71,6,73,394,246,130,192,2833,203,478,169,62,129,98,93,226,8,181,29]","trial_type":"fractal-mutation","trial_index":46,"time_elapsed":1024644,"internal_node_id":"0.0-5.0-7.0"},{"group":"dicyclic group of order 12","fractal_assignment":["../images/ylw_pnk.png","../images/grn_red.png","../images/cyn_red.png","../images/grn_blu.png","../images/ylw_slt.png","../images/pnk_blu.png","../images/blu_wht.png","../images/gry_blk.png","../images/org_blu.png","../images/grn_prp.png","../images/wht_red.png","../images/red_prp.png"],"mutagen_generator_assignment":[0,1],"goal":4,"start":6,"action_noise":0.15,"location_history":"[6,11,3,7,11,4]","action_history":"[0,1,0,1,0]","mutagen_history":"[0,1,0,1,0]","location_rts":"[88,297,20,130,8]","trial_type":"fractal-mutation","trial_index":47,"time_elapsed":1033826,"internal_node_id":"0.0-5.0-8.0"},{"group":"dicyclic group of order 12","fractal_assignment":["../images/ylw_pnk.png","../images/grn_red.png","../images/cyn_red.png","../images/grn_blu.png","../images/ylw_slt.png","../images/pnk_blu.png","../images/blu_wht.png","../images/gry_blk.png","../images/org_blu.png","../images/grn_prp.png","../images/wht_red.png","../images/red_prp.png"],"mutagen_generator_assignment":[0,1],"goal":1,"start":4,"action_noise":0.15,"location_history":"[4,9,1]","action_history":"[1,1]","mutagen_history":"[1,1]","location_rts":"[204,97]","trial_type":"fractal-mutation","trial_index":48,"time_elapsed":1039704,"internal_node_id":"0.0-5.0-9.0"},{"group":"dicyclic group of order 12","fractal_assignment":["../images/ylw_pnk.png","../images/grn_red.png","../images/cyn_red.png","../images/grn_blu.png","../images/ylw_slt.png","../images/pnk_blu.png","../images/blu_wht.png","../images/gry_blk.png","../images/org_blu.png","../images/grn_prp.png","../images/wht_red.png","../images/red_prp.png"],"mutagen_generator_assignment":[0,1],"goal":9,"start":1,"action_noise":0.15,"location_history":"[1,5,9]","action_history":"[1,1]","mutagen_history":"[1,1]","location_rts":"[111,130]","trial_type":"fractal-mutation","trial_index":49,"time_elapsed":1045518,"internal_node_id":"0.0-5.0-10.0"},{"group":"dicyclic group of order 12","fractal_assignment":["../images/ylw_pnk.png","../images/grn_red.png","../images/cyn_red.png","../images/grn_blu.png","../images/ylw_slt.png","../images/pnk_blu.png","../images/blu_wht.png","../images/gry_blk.png","../images/org_blu.png","../images/grn_prp.png","../images/wht_red.png","../images/red_prp.png"],"mutagen_generator_assignment":[0,1],"goal":10,"start":9,"action_noise":0.15,"location_history":"[9,6,10]","action_history":"[0,0]","mutagen_history":"[0,0]","location_rts":"[65,60]","trial_type":"fractal-mutation","trial_index":50,"time_elapsed":1051193,"internal_node_id":"0.0-5.0-11.0"},{"group":"dicyclic group of order 12","fractal_assignment":["../images/ylw_pnk.png","../images/grn_red.png","../images/cyn_red.png","../images/grn_blu.png","../images/ylw_slt.png","../images/pnk_blu.png","../images/blu_wht.png","../images/gry_blk.png","../images/org_blu.png","../images/grn_prp.png","../images/wht_red.png","../images/red_prp.png"],"mutagen_generator_assignment":[0,1],"goal":2,"start":10,"action_noise":0.15,"location_history":"[10,7,8,5,9,1,5,9,6,11,4,8,0,1,5,10,2]","action_history":"[0,0,0,1,1,0,1,0,0,1,1,1,0,1,0,1]","mutagen_history":"[0,0,0,1,1,0,1,0,0,1,1,1,0,1,0,1]","location_rts":"[351,214,132,10,34,44,306,54,119,184,141,100,150,207,108,225]","trial_type":"fractal-mutation","trial_index":51,"time_elapsed":1073530,"internal_node_id":"0.0-5.0-12.0"},{"group":"dicyclic group of order 12","fractal_assignment":["../images/ylw_pnk.png","../images/grn_red.png","../images/cyn_red.png","../images/grn_blu.png","../images/ylw_slt.png","../images/pnk_blu.png","../images/blu_wht.png","../images/gry_blk.png","../images/org_blu.png","../images/grn_prp.png","../images/wht_red.png","../images/red_prp.png"],"mutagen_generator_assignment":[0,1],"goal":0,"start":2,"action_noise":0.15,"location_history":"[2,3,0]","action_history":"[0,0]","mutagen_history":"[0,0]","location_rts":"[80,95]","trial_type":"fractal-mutation","trial_index":52,"time_elapsed":1079259,"internal_node_id":"0.0-5.0-13.0"},{"group":"dicyclic group of order 12","fractal_assignment":["../images/ylw_pnk.png","../images/grn_red.png","../images/cyn_red.png","../images/grn_blu.png","../images/ylw_slt.png","../images/pnk_blu.png","../images/blu_wht.png","../images/gry_blk.png","../images/org_blu.png","../images/grn_prp.png","../images/wht_red.png","../images/red_prp.png"],"mutagen_generator_assignment":[0,1],"goal":9,"start":0,"action_noise":0.15,"location_history":"[0,1,2,6,10,2,6,11,4,8,0,1,5,10,7,8,5,9]","action_history":"[0,0,1,1,1,1,1,0,1,1,0,1,0,0,0,0,1]","mutagen_history":"[0,0,1,1,1,1,1,0,1,1,0,1,0,0,0,0,1]","location_rts":"[80,272,37,139,126,213,40,191,193,203,200,25,81,145,92,377,81]","trial_type":"fractal-mutation","trial_index":53,"time_elapsed":1102731,"internal_node_id":"0.0-5.0-14.0"},{"group":"dicyclic group of order 12","fractal_assignment":["../images/ylw_pnk.png","../images/grn_red.png","../images/cyn_red.png","../images/grn_blu.png","../images/ylw_slt.png","../images/pnk_blu.png","../images/blu_wht.png","../images/gry_blk.png","../images/org_blu.png","../images/grn_prp.png","../images/wht_red.png","../images/red_prp.png"],"mutagen_generator_assignment":[0,1],"goal":8,"start":9,"action_noise":0.15,"location_history":"[9,6,11,3,0,1,5,9,6,10,2,3,0,4,8]","action_history":"[0,0,1,0,0,1,1,0,0,1,0,1,1,0]","mutagen_history":"[0,0,1,0,0,1,1,0,0,1,0,1,1,0]","location_rts":"[355,145,197,36,116,205,105,143,221,89,58,49,130,166]","trial_type":"fractal-mutation","trial_index":54,"time_elapsed":1122631,"internal_node_id":"0.0-5.0-15.0"},{"group":"dicyclic group of order 12","fractal_assignment":["../images/ylw_pnk.png","../images/grn_red.png","../images/cyn_red.png","../images/grn_blu.png","../images/ylw_slt.png","../images/pnk_blu.png","../images/blu_wht.png","../images/gry_blk.png","../images/org_blu.png","../images/grn_prp.png","../images/wht_red.png","../images/red_prp.png"],"mutagen_generator_assignment":[0,1],"goal":6,"start":8,"action_noise":0.15,"location_history":"[8,5,9,1,5,10,2,3,7,8,5,10,7,8,0,4,9,6]","action_history":"[0,1,1,1,0,1,0,1,0,0,0,0,0,1,1,0,0]","mutagen_history":"[0,1,1,1,0,1,0,1,0,0,0,0,0,1,1,0,0]","location_rts":"[218,102,57,45,202,326,155,1770,216,362,309,47,202,615,323,979,213]","trial_type":"fractal-mutation","trial_index":55,"time_elapsed":1149720,"internal_node_id":"0.0-5.0-16.0"},{"group":"dicyclic group of order 12","fractal_assignment":["../images/ylw_pnk.png","../images/grn_red.png","../images/cyn_red.png","../images/grn_blu.png","../images/ylw_slt.png","../images/pnk_blu.png","../images/blu_wht.png","../images/gry_blk.png","../images/org_blu.png","../images/grn_prp.png","../images/wht_red.png","../images/red_prp.png"],"mutagen_generator_assignment":[0,1],"goal":1,"start":6,"action_noise":0.15,"location_history":"[6,10,2,6,11,3,0,4,8,0,1]","action_history":"[1,1,1,0,0,1,1,1,1,1]","mutagen_history":"[1,1,1,0,0,1,1,1,1,1]","location_rts":"[17,123,427,178,131,34,2,222,15,44]","trial_type":"fractal-mutation","trial_index":56,"time_elapsed":1164720,"internal_node_id":"0.0-5.0-17.0"},{"group":"dicyclic group of order 12","fractal_assignment":["../images/ylw_pnk.png","../images/grn_red.png","../images/cyn_red.png","../images/grn_blu.png","../images/ylw_slt.png","../images/pnk_blu.png","../images/blu_wht.png","../images/gry_blk.png","../images/org_blu.png","../images/grn_prp.png","../images/wht_red.png","../images/red_prp.png"],"mutagen_generator_assignment":[0,1],"goal":4,"start":1,"action_noise":0.15,"location_history":"[1,2,6,10,2,3,7,11,3,7,11,3,0,4]","action_history":"[0,1,1,1,0,1,1,1,1,1,1,0,1]","mutagen_history":"[0,1,1,1,0,1,1,1,1,1,1,0,1]","location_rts":"[175,115,41,2,195,128,126,60,174,33,85,52,41]","trial_type":"fractal-mutation","trial_index":57,"time_elapsed":1182822,"internal_node_id":"0.0-5.0-18.0"},{"group":"dicyclic group of order 12","fractal_assignment":["../images/ylw_pnk.png","../images/grn_red.png","../images/cyn_red.png","../images/grn_blu.png","../images/ylw_slt.png","../images/pnk_blu.png","../images/blu_wht.png","../images/gry_blk.png","../images/org_blu.png","../images/grn_prp.png","../images/wht_red.png","../images/red_prp.png"],"mutagen_generator_assignment":[0,1],"goal":11,"start":4,"action_noise":0.15,"location_history":"[4,9,1,5,10,2,6,11]","action_history":"[0,1,1,0,1,1,0]","mutagen_history":"[0,1,1,0,1,1,0]","location_rts":"[150,48,376,244,8,78,84]","trial_type":"fractal-mutation","trial_index":58,"time_elapsed":1194504,"internal_node_id":"0.0-5.0-19.0"},{"group":"dicyclic group of order 12","fractal_assignment":["../images/ylw_pnk.png","../images/grn_red.png","../images/cyn_red.png","../images/grn_blu.png","../images/ylw_slt.png","../images/pnk_blu.png","../images/blu_wht.png","../images/gry_blk.png","../images/org_blu.png","../images/grn_prp.png","../images/wht_red.png","../images/red_prp.png"],"mutagen_generator_assignment":[0,1],"goal":3,"start":11,"action_noise":0.15,"location_history":"[11,4,8,0,4,9,1,5,10,7,11,3]","action_history":"[0,1,1,1,0,0,1,0,0,1,1]","mutagen_history":"[0,1,1,1,0,0,1,0,0,1,1]","location_rts":"[169,53,221,43,13,59,120,167,143,270,155]","trial_type":"fractal-mutation","trial_index":59,"time_elapsed":1210741,"internal_node_id":"0.0-5.0-20.0"},{"group":"dicyclic group of order 12","fractal_assignment":["../images/ylw_pnk.png","../images/grn_red.png","../images/cyn_red.png","../images/grn_blu.png","../images/ylw_slt.png","../images/pnk_blu.png","../images/blu_wht.png","../images/gry_blk.png","../images/org_blu.png","../images/grn_prp.png","../images/wht_red.png","../images/red_prp.png"],"mutagen_generator_assignment":[0,1],"goal":5,"start":3,"action_noise":0.15,"location_history":"[3,0,1,5]","action_history":"[0,0,1]","mutagen_history":"[0,0,1]","location_rts":"[12,280,136]","trial_type":"fractal-mutation","trial_index":60,"time_elapsed":1217748,"internal_node_id":"0.0-5.0-21.0"},{"group":"dicyclic group of order 12","fractal_assignment":["../images/ylw_pnk.png","../images/grn_red.png","../images/cyn_red.png","../images/grn_blu.png","../images/ylw_slt.png","../images/pnk_blu.png","../images/blu_wht.png","../images/gry_blk.png","../images/org_blu.png","../images/grn_prp.png","../images/wht_red.png","../images/red_prp.png"],"mutagen_generator_assignment":[0,1],"goal":7,"start":5,"action_noise":0.15,"location_history":"[5,9,6,11,4,8,0,4,9,1,5,10,7]","action_history":"[1,0,0,0,1,1,1,0,1,1,0,1]","mutagen_history":"[1,0,0,0,1,1,1,0,1,1,0,1]","location_rts":"[60,133,171,45,144,28,76,91,69,177,191,270]","trial_type":"fractal-mutation","trial_index":61,"time_elapsed":1235036,"internal_node_id":"0.0-5.0-22.0"},{"group":"dicyclic group of order 12","fractal_assignment":["../images/ylw_pnk.png","../images/grn_red.png","../images/cyn_red.png","../images/grn_blu.png","../images/ylw_slt.png","../images/pnk_blu.png","../images/blu_wht.png","../images/gry_blk.png","../images/org_blu.png","../images/grn_prp.png","../images/wht_red.png","../images/red_prp.png"],"mutagen_generator_assignment":[0,1],"goal":3,"start":7,"action_noise":0.15,"location_history":"[7,8,0,1,2,6,11,4,8,5,9,6,10,2,6,10,2,3]","action_history":"[0,1,1,0,1,0,0,1,0,1,0,1,1,1,1,1,1]","mutagen_history":"[0,1,1,0,1,0,0,1,0,1,0,1,1,1,1,1,1]","location_rts":"[168,100,129,103,80,182,175,18,213,119,173,156,283,1,8,164,11]","trial_type":"fractal-mutation","trial_index":62,"time_elapsed":1258117,"internal_node_id":"0.0-5.0-23.0"},{"group":"dicyclic group of order 12","fractal_assignment":["../images/ylw_pnk.png","../images/grn_red.png","../images/cyn_red.png","../images/grn_blu.png","../images/ylw_slt.png","../images/pnk_blu.png","../images/blu_wht.png","../images/gry_blk.png","../images/org_blu.png","../images/grn_prp.png","../images/wht_red.png","../images/red_prp.png"],"mutagen_generator_assignment":[0,1],"goal":4,"start":3,"action_noise":0.15,"location_history":"[3,0,4]","action_history":"[1,1]","mutagen_history":"[1,1]","location_rts":"[120,89]","trial_type":"fractal-mutation","trial_index":63,"time_elapsed":1263901,"internal_node_id":"0.0-5.0-24.0"},{"group":"dicyclic group of order 12","fractal_assignment":["../images/ylw_pnk.png","../images/grn_red.png","../images/cyn_red.png","../images/grn_blu.png","../images/ylw_slt.png","../images/pnk_blu.png","../images/blu_wht.png","../images/gry_blk.png","../images/org_blu.png","../images/grn_prp.png","../images/wht_red.png","../images/red_prp.png"],"mutagen_generator_assignment":[0,1],"goal":8,"start":4,"action_noise":0.15,"location_history":"[4,8]","action_history":"[1]","mutagen_history":"[1]","location_rts":"[92]","trial_type":"fractal-mutation","trial_index":64,"time_elapsed":1268526,"internal_node_id":"0.0-5.0-25.0"},{"group":"dicyclic group of order 12","fractal_assignment":["../images/ylw_pnk.png","../images/grn_red.png","../images/cyn_red.png","../images/grn_blu.png","../images/ylw_slt.png","../images/pnk_blu.png","../images/blu_wht.png","../images/gry_blk.png","../images/org_blu.png","../images/grn_prp.png","../images/wht_red.png","../images/red_prp.png"],"mutagen_generator_assignment":[0,1],"goal":6,"start":8,"action_noise":0.15,"location_history":"[8,0,4,8,5,10,7,8,5,9,6]","action_history":"[1,1,1,0,0,1,1,0,1,1]","mutagen_history":"[1,1,1,0,0,1,1,0,1,1]","location_rts":"[214,86,135,153,70,135,44,51,112,270]","trial_type":"fractal-mutation","trial_index":65,"time_elapsed":1283605,"internal_node_id":"0.0-5.0-26.0"},{"group":"dicyclic group of order 12","fractal_assignment":["../images/ylw_pnk.png","../images/grn_red.png","../images/cyn_red.png","../images/grn_blu.png","../images/ylw_slt.png","../images/pnk_blu.png","../images/blu_wht.png","../images/gry_blk.png","../images/org_blu.png","../images/grn_prp.png","../images/wht_red.png","../images/red_prp.png"],"mutagen_generator_assignment":[0,1],"goal":1,"start":6,"action_noise":0.15,"location_history":"[6,10,7,11,3,7,8,5,9,6,11,3,0,1]","action_history":"[0,0,1,1,0,0,1,1,0,0,0,0,1]","mutagen_history":"[0,0,1,1,0,0,1,1,0,0,0,0,1]","location_rts":"[9,83,78,238,63,124,74,98,34,18,290,27,3]","trial_type":"fractal-mutation","trial_index":66,"time_elapsed":1301580,"internal_node_id":"0.0-5.0-27.0"},{"group":"dicyclic group of order 12","fractal_assignment":["../images/ylw_pnk.png","../images/grn_red.png","../images/cyn_red.png","../images/grn_blu.png","../images/ylw_slt.png","../images/pnk_blu.png","../images/blu_wht.png","../images/gry_blk.png","../images/org_blu.png","../images/grn_prp.png","../images/wht_red.png","../images/red_prp.png"],"mutagen_generator_assignment":[0,1],"goal":5,"start":1,"action_noise":0.15,"location_history":"[1,5]","action_history":"[1]","mutagen_history":"[1]","location_rts":"[274]","trial_type":"fractal-mutation","trial_index":67,"time_elapsed":1306391,"internal_node_id":"0.0-5.0-28.0"},{"group":"dicyclic group of order 12","fractal_assignment":["../images/ylw_pnk.png","../images/grn_red.png","../images/cyn_red.png","../images/grn_blu.png","../images/ylw_slt.png","../images/pnk_blu.png","../images/blu_wht.png","../images/gry_blk.png","../images/org_blu.png","../images/grn_prp.png","../images/wht_red.png","../images/red_prp.png"],"mutagen_generator_assignment":[0,1],"goal":9,"start":5,"action_noise":0.15,"location_history":"[5,10,7,11,4,9]","action_history":"[0,0,1,0,0]","mutagen_history":"[0,0,1,0,0]","location_rts":"[126,55,35,29,208]","trial_type":"fractal-mutation","trial_index":68,"time_elapsed":1315475,"internal_node_id":"0.0-5.0-29.0"},{"group":"dicyclic group of order 12","fractal_assignment":["../images/ylw_pnk.png","../images/grn_red.png","../images/cyn_red.png","../images/grn_blu.png","../images/ylw_slt.png","../images/pnk_blu.png","../images/blu_wht.png","../images/gry_blk.png","../images/org_blu.png","../images/grn_prp.png","../images/wht_red.png","../images/red_prp.png"],"mutagen_generator_assignment":[0,1],"goal":10,"start":9,"action_noise":0.15,"location_history":"[9,6,10]","action_history":"[0,1]","mutagen_history":"[0,1]","location_rts":"[161,68]","trial_type":"fractal-mutation","trial_index":69,"time_elapsed":1321265,"internal_node_id":"0.0-5.0-30.0"},{"group":"dicyclic group of order 12","fractal_assignment":["../images/ylw_pnk.png","../images/grn_red.png","../images/cyn_red.png","../images/grn_blu.png","../images/ylw_slt.png","../images/pnk_blu.png","../images/blu_wht.png","../images/gry_blk.png","../images/org_blu.png","../images/grn_prp.png","../images/wht_red.png","../images/red_prp.png"],"mutagen_generator_assignment":[0,1],"goal":0,"start":10,"action_noise":0.15,"location_history":"[10,7,11,4,9,6,11,4,8,0]","action_history":"[0,1,0,0,0,0,0,1,1]","mutagen_history":"[0,1,0,0,0,0,0,1,1]","location_rts":"[147,115,82,82,6,30,194,103,134]","trial_type":"fractal-mutation","trial_index":70,"time_elapsed":1334915,"internal_node_id":"0.0-5.0-31.0"},{"group":"dicyclic group of order 12","fractal_assignment":["../images/ylw_pnk.png","../images/grn_red.png","../images/cyn_red.png","../images/grn_blu.png","../images/ylw_slt.png","../images/pnk_blu.png","../images/blu_wht.png","../images/gry_blk.png","../images/org_blu.png","../images/grn_prp.png","../images/wht_red.png","../images/red_prp.png"],"mutagen_generator_assignment":[0,1],"goal":7,"start":0,"action_noise":0.15,"location_history":"[0,4,9,1,2,3,7]","action_history":"[0,0,1,0,0,1]","mutagen_history":"[0,0,1,0,0,1]","location_rts":"[205,124,281,76,135,178]","trial_type":"fractal-mutation","trial_index":71,"time_elapsed":1345572,"internal_node_id":"0.0-5.0-32.0"},{"group":"dicyclic group of order 12","fractal_assignment":["../images/ylw_pnk.png","../images/grn_red.png","../images/cyn_red.png","../images/grn_blu.png","../images/ylw_slt.png","../images/pnk_blu.png","../images/blu_wht.png","../images/gry_blk.png","../images/org_blu.png","../images/grn_prp.png","../images/wht_red.png","../images/red_prp.png"],"mutagen_generator_assignment":[0,1],"goal":11,"start":7,"action_noise":0.15,"location_history":"[7,8,0,1,2,6,10,2,6,10,2,3,0,1,5,9,1,2,3,0,1,5,9,6,11]","action_history":"[0,1,1,0,1,1,0,1,1,1,0,0,1,1,1,1,0,1,0,0,1,1,0,0]","mutagen_history":"[0,1,1,0,1,1,0,1,1,1,0,0,1,1,1,1,0,1,0,0,1,1,0,0]","location_rts":"[304,63,191,134,37,218,145,101,166,126,20,154,126,86,141,2970,259,135,144,80,102,19,232,72]","trial_type":"fractal-mutation","trial_index":72,"time_elapsed":1379773,"internal_node_id":"0.0-5.0-33.0"},{"group":"dicyclic group of order 12","fractal_assignment":["../images/ylw_pnk.png","../images/grn_red.png","../images/cyn_red.png","../images/grn_blu.png","../images/ylw_slt.png","../images/pnk_blu.png","../images/blu_wht.png","../images/gry_blk.png","../images/org_blu.png","../images/grn_prp.png","../images/wht_red.png","../images/red_prp.png"],"mutagen_generator_assignment":[0,1],"goal":2,"start":11,"action_noise":0.15,"location_history":"[11,4,9,1,5,10,2]","action_history":"[0,1,1,1,0,1]","mutagen_history":"[0,1,1,1,0,1]","location_rts":"[37,172,100,10,213,69]","trial_type":"fractal-mutation","trial_index":73,"time_elapsed":1390059,"internal_node_id":"0.0-5.0-34.0"},{"view_history":"[{\"page_index\":0,\"viewing_time\":2578}]","rt":2578,"trial_type":"instructions","trial_index":74,"time_elapsed":1393637,"internal_node_id":"0.0-6.0"},{"rt":5929,"responses":"{\"Q0\":\"meaning of life\"}","trial_type":"survey-text","trial_index":75,"time_elapsed":1400571,"internal_node_id":"0.0-7.0-0.0"},{"rt":6704,"responses":"{\"Q0\":\"meaning of life\"}","trial_type":"survey-text","trial_index":76,"time_elapsed":1408278,"internal_node_id":"0.0-7.0-1.0"},{"rt":3667,"responses":"{\"Q0\":\"3\"}","trial_type":"survey-likert","trial_index":77,"time_elapsed":1412947,"internal_node_id":"0.0-7.0-2.0"},{"rt":5705,"responses":"{\"Q0\":\"meaning of life\"}","trial_type":"survey-text","trial_index":78,"time_elapsed":1419653,"internal_node_id":"0.0-7.0-3.0"},{"rt":3986,"responses":"{\"Q0\":\"Yes\"}","trial_type":"survey-multi-choice","trial_index":79,"time_elapsed":1424649,"internal_node_id":"0.0-7.0-4.0"},{"rt":4013,"responses":"{\"Q0\":\"Between sessions 2 and 3\"}","trial_type":"survey-multi-choice","trial_index":80,"time_elapsed":1429671,"internal_node_id":"0.0-7.0-5.0"},{"rt":2319,"responses":"{\"Q0\":\"\"}","trial_type":"survey-text","trial_index":81,"time_elapsed":1432992,"internal_node_id":"0.0-7.0-6.0"},{"rt":2221,"responses":"{\"Q0\":\"2\"}","trial_type":"survey-likert","trial_index":82,"time_elapsed":1436214,"internal_node_id":"0.0-7.0-7.0"},{"rt":2547,"responses":"{\"Q0\":\"Different structure\"}","trial_type":"survey-multi-choice","trial_index":83,"time_elapsed":1439765,"internal_node_id":"0.0-7.0-8.0"},{"rt":4353,"responses":"{\"Q0\":\"black door = acid, white door = ray\",\"Q1\":\"Slightly confident\"}","trial_type":"survey-multi-choice","trial_index":84,"time_elapsed":1445125,"internal_node_id":"0.0-7.0-9.0"},{"rt":5329,"responses":"{\"Q0\":\"<25\",\"Q1\":\"Some college\",\"Q2\":\"Male\",\"Q3\":\"Asian\"}","trial_type":"survey-multi-choice","trial_index":85,"time_elapsed":1451466,"internal_node_id":"0.0-8.0"},{"rt":5759,"responses":"{\"Q0\":\"good hit\"}","trial_type":"survey-text","trial_index":86,"time_elapsed":1458234,"internal_node_id":"0.0-9.0"}]