[{"view_history":"[{\"page_index\":0,\"viewing_time\":8869},{\"page_index\":1,\"viewing_time\":11784}]","rt":20654,"trial_type":"instructions","trial_index":0,"time_elapsed":20655,"internal_node_id":"0.0-0.0"},{"view_history":"[{\"page_index\":0,\"viewing_time\":1588},{\"page_index\":1,\"viewing_time\":146222}]","rt":147811,"trial_type":"instructions","trial_index":1,"time_elapsed":169468,"internal_node_id":"0.0-1.0"},{"group":"dicyclic group of order 12","room_assignment":["blue","ivory","pink","purple","brown","red","cyan","grey","green","orange","olive","yellow"],"door_color_assignment":["white","black"],"door_generator_assignment":[0,1],"goal":7,"start":3,"action_noise":0.15,"location_history":"[3,7]","action_history":"[0]","door_history":"[0]","location_rts":"[68839]","trial_type":"two-door-navigation","trial_index":2,"time_elapsed":242824,"internal_node_id":"0.0-2.0-0.0"},{"group":"dicyclic group of order 12","room_assignment":["blue","ivory","pink","purple","brown","red","cyan","grey","green","orange","olive","yellow"],"door_color_assignment":["white","black"],"door_generator_assignment":[0,1],"goal":5,"start":7,"action_noise":0.15,"location_history":"[7,8,5]","action_history":"[0,0]","door_history":"[0,0]","location_rts":"[1773,5402]","trial_type":"two-door-navigation","trial_index":3,"time_elapsed":255532,"internal_node_id":"0.0-2.0-1.0"},{"group":"dicyclic group of order 12","room_assignment":["blue","ivory","pink","purple","brown","red","cyan","grey","green","orange","olive","yellow"],"door_color_assignment":["white","black"],"door_generator_assignment":[0,1],"goal":0,"start":5,"action_noise":0.15,"location_history":"[5,10,7,11,4,9,6,11,3,7,8,5,9,1,2,3,0]","action_history":"[0,0,1,0,0,0,0,1,1,0,1,1,1,0,0,0]","door_history":"[0,0,1,0,0,0,0,1,1,0,1,1,1,0,0,0]","location_rts":"[49156,7095,7025,4417,9648,7372,3960,6451,4717,24412,3309,3544,4639,4164,3737,6273]","trial_type":"two-door-navigation","trial_index":4,"time_elapsed":425364,"internal_node_id":"0.0-2.0-2.0"},{"group":"dicyclic group of order 12","room_assignment":["blue","ivory","pink","purple","brown","red","cyan","grey","green","orange","olive","yellow"],"door_color_assignment":["white","black"],"door_generator_assignment":[0,1],"goal":2,"start":0,"action_noise":0.15,"location_history":"[0,1,2]","action_history":"[0,0]","door_history":"[0,0]","location_rts":"[26795,8229]","trial_type":"two-door-navigation","trial_index":5,"time_elapsed":465956,"internal_node_id":"0.0-2.0-3.0"},{"group":"dicyclic group of order 12","room_assignment":["blue","ivory","pink","purple","brown","red","cyan","grey","green","orange","olive","yellow"],"door_color_assignment":["white","black"],"door_generator_assignment":[0,1],"goal":10,"start":2,"action_noise":0.15,"location_history":"[2,6,10]","action_history":"[1,1]","door_history":"[1,1]","location_rts":"[17810,4275]","trial_type":"two-door-navigation","trial_index":6,"time_elapsed":493567,"internal_node_id":"0.0-2.0-4.0"},{"group":"dicyclic group of order 12","room_assignment":["blue","ivory","pink","purple","brown","red","cyan","grey","green","orange","olive","yellow"],"door_color_assignment":["white","black"],"door_generator_assignment":[0,1],"goal":8,"start":10,"action_noise":0.15,"location_history":"[10,2,6,10,7,8]","action_history":"[1,1,1,0,0]","door_history":"[1,1,1,0,0]","location_rts":"[3973,4258,10698,3290,1051]","trial_type":"two-door-navigation","trial_index":7,"time_elapsed":525519,"internal_node_id":"0.0-2.0-5.0"},{"group":"dicyclic group of order 12","room_assignment":["blue","ivory","pink","purple","brown","red","cyan","grey","green","orange","olive","yellow"],"door_color_assignment":["white","black"],"door_generator_assignment":[0,1],"goal":11,"start":8,"action_noise":0.15,"location_history":"[8,5,10,7,11]","action_history":"[0,1,0,1]","door_history":"[0,1,0,1]","location_rts":"[3671,9106,3335,1175]","trial_type":"two-door-navigation","trial_index":8,"time_elapsed":550416,"internal_node_id":"0.0-2.0-6.0"},{"group":"dicyclic group of order 12","room_assignment":["blue","ivory","pink","purple","brown","red","cyan","grey","green","orange","olive","yellow"],"door_color_assignment":["white","black"],"door_generator_assignment":[0,1],"goal":6,"start":11,"action_noise":0.15,"location_history":"[11,4,8,0,4,9,6]","action_history":"[0,1,1,1,0,0]","door_history":"[0,1,1,1,0,0]","location_rts":"[31984,1984,8176,21855,8246,1898]","trial_type":"two-door-navigation","trial_index":9,"time_elapsed":634216,"internal_node_id":"0.0-2.0-7.0"},{"group":"dicyclic group of order 12","room_assignment":["blue","ivory","pink","purple","brown","red","cyan","grey","green","orange","olive","yellow"],"door_color_assignment":["white","black"],"door_generator_assignment":[0,1],"goal":4,"start":6,"action_noise":0.15,"location_history":"[6,10,7,11,4]","action_history":"[0,0,1,0]","door_history":"[0,0,1,0]","location_rts":"[24627,13976,3299,1682]","trial_type":"two-door-navigation","trial_index":10,"time_elapsed":685436,"internal_node_id":"0.0-2.0-8.0"},{"group":"dicyclic group of order 12","room_assignment":["blue","ivory","pink","purple","brown","red","cyan","grey","green","orange","olive","yellow"],"door_color_assignment":["white","black"],"door_generator_assignment":[0,1],"goal":1,"start":4,"action_noise":0.15,"location_history":"[4,9,1]","action_history":"[0,1]","door_history":"[0,1]","location_rts":"[54061,6153]","trial_type":"two-door-navigation","trial_index":11,"time_elapsed":751202,"internal_node_id":"0.0-2.0-9.0"},{"group":"dicyclic group of order 12","room_assignment":["blue","ivory","pink","purple","brown","red","cyan","grey","green","orange","olive","yellow"],"door_color_assignment":["white","black"],"door_generator_assignment":[0,1],"goal":9,"start":1,"action_noise":0.15,"location_history":"[1,5,9]","action_history":"[1,1]","door_history":"[1,1]","location_rts":"[14105,4531]","trial_type":"two-door-navigation","trial_index":12,"time_elapsed":775435,"internal_node_id":"0.0-2.0-10.0"},{"group":"dicyclic group of order 12","room_assignment":["blue","ivory","pink","purple","brown","red","cyan","grey","green","orange","olive","yellow"],"door_color_assignment":["white","black"],"door_generator_assignment":[0,1],"goal":10,"start":9,"action_noise":0.15,"location_history":"[9,1,5,10]","action_history":"[0,1,0]","door_history":"[0,1,0]","location_rts":"[30513,37636,1761]","trial_type":"two-door-navigation","trial_index":13,"time_elapsed":851903,"internal_node_id":"0.0-2.0-11.0"},{"group":"dicyclic group of order 12","room_assignment":["blue","ivory","pink","purple","brown","red","cyan","grey","green","orange","olive","yellow"],"door_color_assignment":["white","black"],"door_generator_assignment":[0,1],"goal":2,"start":10,"action_noise":0.15,"location_history":"[10,2]","action_history":"[1]","door_history":"[1]","location_rts":"[12953]","trial_type":"two-door-navigation","trial_index":14,"time_elapsed":869378,"internal_node_id":"0.0-2.0-12.0"},{"group":"dicyclic group of order 12","room_assignment":["blue","ivory","pink","purple","brown","red","cyan","grey","green","orange","olive","yellow"],"door_color_assignment":["white","black"],"door_generator_assignment":[0,1],"goal":0,"start":2,"action_noise":0.15,"location_history":"[2,6,10,7,8,5,9,6,10,7,8,5,10,2,6,10,7,8,0]","action_history":"[1,0,0,0,1,1,1,0,0,0,0,0,0,1,1,0,0,1]","door_history":"[1,0,0,0,1,1,1,0,0,0,0,0,0,1,1,0,0,1]","location_rts":"[60593,2653,12120,4696,515,2640,8228,217109,7852,479,2389,3814,567,8528,2723,1780,1308,1221]","trial_type":"two-door-navigation","trial_index":15,"time_elapsed":1230496,"internal_node_id":"0.0-2.0-13.0"},{"group":"dicyclic group of order 12","room_assignment":["blue","ivory","pink","purple","brown","red","cyan","grey","green","orange","olive","yellow"],"door_color_assignment":["white","black"],"door_generator_assignment":[0,1],"goal":9,"start":0,"action_noise":0.15,"location_history":"[0,4,9]","action_history":"[1,0]","door_history":"[1,0]","location_rts":"[6186,1468]","trial_type":"two-door-navigation","trial_index":16,"time_elapsed":1243745,"internal_node_id":"0.0-2.0-14.0"},{"group":"dicyclic group of order 12","room_assignment":["blue","ivory","pink","purple","brown","red","cyan","grey","green","orange","olive","yellow"],"door_color_assignment":["white","black"],"door_generator_assignment":[0,1],"goal":8,"start":9,"action_noise":0.15,"location_history":"[9,1,5,10,7,8]","action_history":"[1,1,0,0,0]","door_history":"[1,1,0,0,0]","location_rts":"[9253,865,10103,1228,875]","trial_type":"two-door-navigation","trial_index":17,"time_elapsed":1274644,"internal_node_id":"0.0-2.0-15.0"},{"group":"dicyclic group of order 12","room_assignment":["blue","ivory","pink","purple","brown","red","cyan","grey","green","orange","olive","yellow"],"door_color_assignment":["white","black"],"door_generator_assignment":[0,1],"goal":6,"start":8,"action_noise":0.15,"location_history":"[8,5,10,2,6]","action_history":"[0,0,1,1]","door_history":"[0,0,1,1]","location_rts":"[14724,5572,4044,1406]","trial_type":"two-door-navigation","trial_index":18,"time_elapsed":1307943,"internal_node_id":"0.0-2.0-16.0"},{"group":"dicyclic group of order 12","room_assignment":["blue","ivory","pink","purple","brown","red","cyan","grey","green","orange","olive","yellow"],"door_color_assignment":["white","black"],"door_generator_assignment":[0,1],"goal":1,"start":6,"action_noise":0.15,"location_history":"[6,10,7,8,0,1]","action_history":"[1,0,0,1,0]","door_history":"[1,0,0,1,0]","location_rts":"[28418,778,1441,1046,1161]","trial_type":"two-door-navigation","trial_index":19,"time_elapsed":1349426,"internal_node_id":"0.0-2.0-17.0"},{"group":"dicyclic group of order 12","room_assignment":["blue","ivory","pink","purple","brown","red","cyan","grey","green","orange","olive","yellow"],"door_color_assignment":["white","black"],"door_generator_assignment":[0,1],"goal":4,"start":1,"action_noise":0.15,"location_history":"[1,5,9,1,2,3,0,1,2,3,7,8,5,10,7,8,0,4]","action_history":"[1,1,0,0,0,1,1,0,0,1,0,1,0,0,0,1,1]","door_history":"[1,1,0,0,0,1,1,0,0,1,0,1,0,0,0,1,1]","location_rts":"[16991,11937,7569,3555,6978,2851,2846,9894,7444,3551,4432,767,7011,378,1833,4843,2179]","trial_type":"two-door-navigation","trial_index":20,"time_elapsed":1465357,"internal_node_id":"0.0-2.0-18.0"},{"group":"dicyclic group of order 12","room_assignment":["blue","ivory","pink","purple","brown","red","cyan","grey","green","orange","olive","yellow"],"door_color_assignment":["white","black"],"door_generator_assignment":[0,1],"goal":11,"start":4,"action_noise":0.15,"location_history":"[4,9,6,10,7,11]","action_history":"[0,0,0,0,1]","door_history":"[0,0,0,0,1]","location_rts":"[37100,1627,3028,2551,5238]","trial_type":"two-door-navigation","trial_index":21,"time_elapsed":1523525,"internal_node_id":"0.0-2.0-19.0"},{"group":"dicyclic group of order 12","room_assignment":["blue","ivory","pink","purple","brown","red","cyan","grey","green","orange","olive","yellow"],"door_color_assignment":["white","black"],"door_generator_assignment":[0,1],"goal":3,"start":11,"action_noise":0.15,"location_history":"[11,4,9,1,5,9,1,2,3]","action_history":"[1,1,0,1,0,1,0,0]","door_history":"[1,1,0,1,0,1,0,0]","location_rts":"[5846,56301,4620,2228,1516,3678,2128,1237]","trial_type":"two-door-navigation","trial_index":22,"time_elapsed":1612905,"internal_node_id":"0.0-2.0-20.0"},{"group":"dicyclic group of order 12","room_assignment":["blue","ivory","pink","purple","brown","red","cyan","grey","green","orange","olive","yellow"],"door_color_assignment":["white","black"],"door_generator_assignment":[0,1],"goal":5,"start":3,"action_noise":0.15,"location_history":"[3,7,8,5]","action_history":"[1,0,0]","door_history":"[1,0,0]","location_rts":"[48308,9389,431]","trial_type":"two-door-navigation","trial_index":23,"time_elapsed":1677585,"internal_node_id":"0.0-2.0-21.0"},{"group":"dicyclic group of order 12","room_assignment":["blue","ivory","pink","purple","brown","red","cyan","grey","green","orange","olive","yellow"],"door_color_assignment":["white","black"],"door_generator_assignment":[0,1],"goal":7,"start":5,"action_noise":0.15,"location_history":"[5,10,7]","action_history":"[0,0]","door_history":"[0,0]","location_rts":"[6072,398]","trial_type":"two-door-navigation","trial_index":24,"time_elapsed":1689586,"internal_node_id":"0.0-2.0-22.0"},{"group":"dicyclic group of order 12","room_assignment":["blue","ivory","pink","purple","brown","red","cyan","grey","green","orange","olive","yellow"],"door_color_assignment":["white","black"],"door_generator_assignment":[0,1],"goal":3,"start":7,"action_noise":0.15,"location_history":"[7,8,5,10,2,3]","action_history":"[1,0,0,1,0]","door_history":"[1,0,0,1,0]","location_rts":"[4430,210646,7531,1106,1124]","trial_type":"two-door-navigation","trial_index":25,"time_elapsed":1923013,"internal_node_id":"0.0-2.0-23.0"},{"group":"dicyclic group of order 12","room_assignment":["blue","ivory","pink","purple","brown","red","cyan","grey","green","orange","olive","yellow"],"door_color_assignment":["white","black"],"door_generator_assignment":[0,1],"goal":4,"start":3,"action_noise":0.15,"location_history":"[3,7,11,4]","action_history":"[1,1,0]","door_history":"[1,1,0]","location_rts":"[21389,6321,989]","trial_type":"two-door-navigation","trial_index":26,"time_elapsed":1958317,"internal_node_id":"0.0-2.0-24.0"},{"group":"dicyclic group of order 12","room_assignment":["blue","ivory","pink","purple","brown","red","cyan","grey","green","orange","olive","yellow"],"door_color_assignment":["white","black"],"door_generator_assignment":[0,1],"goal":8,"start":4,"action_noise":0.15,"location_history":"[4,8]","action_history":"[1]","door_history":"[1]","location_rts":"[12035]","trial_type":"two-door-navigation","trial_index":27,"time_elapsed":1974867,"internal_node_id":"0.0-2.0-25.0"},{"group":"dicyclic group of order 12","room_assignment":["blue","ivory","pink","purple","brown","red","cyan","grey","green","orange","olive","yellow"],"door_color_assignment":["white","black"],"door_generator_assignment":[0,1],"goal":6,"start":8,"action_noise":0.15,"location_history":"[8,0,1,2,6]","action_history":"[1,0,0,1]","door_history":"[1,0,0,1]","location_rts":"[29729,2258,6528,1063]","trial_type":"two-door-navigation","trial_index":28,"time_elapsed":2022025,"internal_node_id":"0.0-2.0-26.0"},{"group":"dicyclic group of order 12","room_assignment":["blue","ivory","pink","purple","brown","red","cyan","grey","green","orange","olive","yellow"],"door_color_assignment":["white","black"],"door_generator_assignment":[0,1],"goal":1,"start":6,"action_noise":0.15,"location_history":"[6,10,7,8,0,1]","action_history":"[1,0,0,1,0]","door_history":"[1,0,0,1,0]","location_rts":"[7306,11149,4843,446,643]","trial_type":"two-door-navigation","trial_index":29,"time_elapsed":2055099,"internal_node_id":"0.0-2.0-27.0"},{"group":"dicyclic group of order 12","room_assignment":["blue","ivory","pink","purple","brown","red","cyan","grey","green","orange","olive","yellow"],"door_color_assignment":["white","black"],"door_generator_assignment":[0,1],"goal":5,"start":1,"action_noise":0.15,"location_history":"[1,5]","action_history":"[1]","door_history":"[1]","location_rts":"[13294]","trial_type":"two-door-navigation","trial_index":30,"time_elapsed":2072911,"internal_node_id":"0.0-2.0-28.0"},{"group":"dicyclic group of order 12","room_assignment":["blue","ivory","pink","purple","brown","red","cyan","grey","green","orange","olive","yellow"],"door_color_assignment":["white","black"],"door_generator_assignment":[0,1],"goal":9,"start":5,"action_noise":0.15,"location_history":"[5,9]","action_history":"[1]","door_history":"[1]","location_rts":"[16403]","trial_type":"two-door-navigation","trial_index":31,"time_elapsed":2093832,"internal_node_id":"0.0-2.0-29.0"},{"group":"dicyclic group of order 12","room_assignment":["blue","ivory","pink","purple","brown","red","cyan","grey","green","orange","olive","yellow"],"door_color_assignment":["white","black"],"door_generator_assignment":[0,1],"goal":10,"start":9,"action_noise":0.15,"location_history":"[9,6,11,3,7,8,0,1,5,9,6,10]","action_history":"[0,1,0,1,0,1,0,1,0,1,1]","door_history":"[0,1,0,1,0,1,0,1,0,1,1]","location_rts":"[8310,16663,3903,3419,2194,6631,2576,8829,6584,17387,45822]","trial_type":"two-door-navigation","trial_index":32,"time_elapsed":2230883,"internal_node_id":"0.0-2.0-30.0"},{"group":"dicyclic group of order 12","room_assignment":["blue","ivory","pink","purple","brown","red","cyan","grey","green","orange","olive","yellow"],"door_color_assignment":["white","black"],"door_generator_assignment":[0,1],"goal":0,"start":10,"action_noise":0.15,"location_history":"[10,7,8,0]","action_history":"[0,0,1]","door_history":"[0,0,1]","location_rts":"[44835,3047,2670]","trial_type":"two-door-navigation","trial_index":33,"time_elapsed":2287970,"internal_node_id":"0.0-2.0-31.0"},{"group":"dicyclic group of order 12","room_assignment":["blue","ivory","pink","purple","brown","red","cyan","grey","green","orange","olive","yellow"],"door_color_assignment":["white","black"],"door_generator_assignment":[0,1],"goal":7,"start":0,"action_noise":0.15,"location_history":"[0,1,2,3,7]","action_history":"[1,1,0,1]","door_history":"[1,1,0,1]","location_rts":"[5706,2628,10912,905]","trial_type":"two-door-navigation","trial_index":34,"time_elapsed":2315724,"internal_node_id":"0.0-2.0-32.0"},{"group":"dicyclic group of order 12","room_assignment":["blue","ivory","pink","purple","brown","red","cyan","grey","green","orange","olive","yellow"],"door_color_assignment":["white","black"],"door_generator_assignment":[0,1],"goal":11,"start":7,"action_noise":0.15,"location_history":"[7,11]","action_history":"[1]","door_history":"[1]","location_rts":"[46818]","trial_type":"two-door-navigation","trial_index":35,"time_elapsed":2367121,"internal_node_id":"0.0-2.0-33.0"},{"group":"dicyclic group of order 12","room_assignment":["blue","ivory","pink","purple","brown","red","cyan","grey","green","orange","olive","yellow"],"door_color_assignment":["white","black"],"door_generator_assignment":[0,1],"goal":2,"start":11,"action_noise":0.15,"location_history":"[11,4,8,0,1,2]","action_history":"[0,1,1,0,0]","door_history":"[0,1,1,0,0]","location_rts":"[4067,2614,1648,607,1731]","trial_type":"two-door-navigation","trial_index":36,"time_elapsed":2386369,"internal_node_id":"0.0-2.0-34.0"},{"view_history":"[{\"page_index\":0,\"viewing_time\":3505}]","rt":3506,"trial_type":"instructions","trial_index":37,"time_elapsed":2390875,"internal_node_id":"0.0-3.0"},{"view_history":"[{\"page_index\":0,\"viewing_time\":1710},{\"page_index\":1,\"viewing_time\":3465}]","rt":5176,"trial_type":"instructions","trial_index":38,"time_elapsed":2397051,"internal_node_id":"0.0-4.0"},{"group":"dicyclic group of order 12","fractal_assignment":["../images/org_blu.png","../images/blu_wht.png","../images/gry_blk.png","../images/ylw_slt.png","../images/grn_red.png","../images/wht_red.png","../images/grn_blu.png","../images/red_prp.png","../images/pnk_blu.png","../images/cyn_red.png","../images/ylw_pnk.png","../images/grn_prp.png"],"mutagen_generator_assignment":[0,1],"goal":7,"start":3,"action_noise":0.15,"location_history":"[3,7]","action_history":"[1]","mutagen_history":"[1]","location_rts":"[3823]","trial_type":"fractal-mutation","trial_index":39,"time_elapsed":2405480,"internal_node_id":"0.0-5.0-0.0"},{"group":"dicyclic group of order 12","fractal_assignment":["../images/org_blu.png","../images/blu_wht.png","../images/gry_blk.png","../images/ylw_slt.png","../images/grn_red.png","../images/wht_red.png","../images/grn_blu.png","../images/red_prp.png","../images/pnk_blu.png","../images/cyn_red.png","../images/ylw_pnk.png","../images/grn_prp.png"],"mutagen_generator_assignment":[0,1],"goal":5,"start":7,"action_noise":0.15,"location_history":"[7,11,4,9,6,11,3,0,4,9,6,11,3,0,1,2,3,0,4,9,6,11,4,8,5]","action_history":"[1,0,0,0,1,1,0,1,0,1,1,1,0,0,0,0,0,0,0,0,0,0,1,0]","mutagen_history":"[1,0,0,0,1,1,0,1,0,1,1,1,0,0,0,0,0,0,0,0,0,0,1,0]","location_rts":"[834,401,354,397,455,475,465,562,525,396,638,885,431,306,933,548,793,1082,488,1501,112,552,508,812]","trial_type":"fractal-mutation","trial_index":40,"time_elapsed":2448181,"internal_node_id":"0.0-5.0-1.0"},{"group":"dicyclic group of order 12","fractal_assignment":["../images/org_blu.png","../images/blu_wht.png","../images/gry_blk.png","../images/ylw_slt.png","../images/grn_red.png","../images/wht_red.png","../images/grn_blu.png","../images/red_prp.png","../images/pnk_blu.png","../images/cyn_red.png","../images/ylw_pnk.png","../images/grn_prp.png"],"mutagen_generator_assignment":[0,1],"goal":0,"start":5,"action_noise":0.15,"location_history":"[5,9,6,10,7,11,3,0]","action_history":"[1,1,0,0,1,1,1]","mutagen_history":"[1,1,0,0,1,1,1]","location_rts":"[509,536,515,585,327,1442,494]","trial_type":"fractal-mutation","trial_index":41,"time_elapsed":2463266,"internal_node_id":"0.0-5.0-2.0"},{"group":"dicyclic group of order 12","fractal_assignment":["../images/org_blu.png","../images/blu_wht.png","../images/gry_blk.png","../images/ylw_slt.png","../images/grn_red.png","../images/wht_red.png","../images/grn_blu.png","../images/red_prp.png","../images/pnk_blu.png","../images/cyn_red.png","../images/ylw_pnk.png","../images/grn_prp.png"],"mutagen_generator_assignment":[0,1],"goal":2,"start":0,"action_noise":0.15,"location_history":"[0,1,2]","action_history":"[0,0]","mutagen_history":"[0,0]","location_rts":"[1344,472]","trial_type":"fractal-mutation","trial_index":42,"time_elapsed":2470629,"internal_node_id":"0.0-5.0-3.0"},{"group":"dicyclic group of order 12","fractal_assignment":["../images/org_blu.png","../images/blu_wht.png","../images/gry_blk.png","../images/ylw_slt.png","../images/grn_red.png","../images/wht_red.png","../images/grn_blu.png","../images/red_prp.png","../images/pnk_blu.png","../images/cyn_red.png","../images/ylw_pnk.png","../images/grn_prp.png"],"mutagen_generator_assignment":[0,1],"goal":10,"start":2,"action_noise":0.15,"location_history":"[2,3,0,4,9,1,2,3,0,4,8,0,1,2,3,7,8,5,9,1,2,6,10]","action_history":"[0,0,0,0,1,0,0,0,1,0,1,0,0,0,1,0,0,0,1,0,1,0]","mutagen_history":"[0,0,0,0,1,0,0,0,1,0,1,0,0,0,1,0,0,0,1,0,1,0]","location_rts":"[1839,284,404,492,393,347,575,428,565,623,509,377,731,2185,769,1255,3143,650,580,651,462,723]","trial_type":"fractal-mutation","trial_index":43,"time_elapsed":2514905,"internal_node_id":"0.0-5.0-4.0"},{"group":"dicyclic group of order 12","fractal_assignment":["../images/org_blu.png","../images/blu_wht.png","../images/gry_blk.png","../images/ylw_slt.png","../images/grn_red.png","../images/wht_red.png","../images/grn_blu.png","../images/red_prp.png","../images/pnk_blu.png","../images/cyn_red.png","../images/ylw_pnk.png","../images/grn_prp.png"],"mutagen_generator_assignment":[0,1],"goal":8,"start":10,"action_noise":0.15,"location_history":"[10,2,6,11,3,7,8]","action_history":"[1,1,0,1,1,0]","mutagen_history":"[1,1,0,1,1,0]","location_rts":"[10562,776,344,441,519,413]","trial_type":"fractal-mutation","trial_index":44,"time_elapsed":2537702,"internal_node_id":"0.0-5.0-5.0"},{"group":"dicyclic group of order 12","fractal_assignment":["../images/org_blu.png","../images/blu_wht.png","../images/gry_blk.png","../images/ylw_slt.png","../images/grn_red.png","../images/wht_red.png","../images/grn_blu.png","../images/red_prp.png","../images/pnk_blu.png","../images/cyn_red.png","../images/ylw_pnk.png","../images/grn_prp.png"],"mutagen_generator_assignment":[0,1],"goal":11,"start":8,"action_noise":0.15,"location_history":"[8,5,10,2,3,7,8,5,10,7,8,0,1,2,6,11]","action_history":"[0,0,0,1,1,1,0,0,0,0,1,0,0,1,0]","mutagen_history":"[0,0,0,1,1,1,0,0,0,0,1,0,0,1,0]","location_rts":"[1673,333,358,546,833,573,802,328,305,440,853,540,586,753,489]","trial_type":"fractal-mutation","trial_index":45,"time_elapsed":2566202,"internal_node_id":"0.0-5.0-6.0"},{"group":"dicyclic group of order 12","fractal_assignment":["../images/org_blu.png","../images/blu_wht.png","../images/gry_blk.png","../images/ylw_slt.png","../images/grn_red.png","../images/wht_red.png","../images/grn_blu.png","../images/red_prp.png","../images/pnk_blu.png","../images/cyn_red.png","../images/ylw_pnk.png","../images/grn_prp.png"],"mutagen_generator_assignment":[0,1],"goal":6,"start":11,"action_noise":0.15,"location_history":"[11,3,0,1,2,3,0,4,9,1,2,6]","action_history":"[1,0,0,1,1,0,1,0,1,0,1]","mutagen_history":"[1,0,0,1,1,0,1,0,1,0,1]","location_rts":"[5667,306,437,116,331,320,342,282,322,361,304]","trial_type":"fractal-mutation","trial_index":46,"time_elapsed":2589942,"internal_node_id":"0.0-5.0-7.0"},{"group":"dicyclic group of order 12","fractal_assignment":["../images/org_blu.png","../images/blu_wht.png","../images/gry_blk.png","../images/ylw_slt.png","../images/grn_red.png","../images/wht_red.png","../images/grn_blu.png","../images/red_prp.png","../images/pnk_blu.png","../images/cyn_red.png","../images/ylw_pnk.png","../images/grn_prp.png"],"mutagen_generator_assignment":[0,1],"goal":4,"start":6,"action_noise":0.15,"location_history":"[6,10,7,11,4]","action_history":"[1,0,1,1]","mutagen_history":"[1,0,1,1]","location_rts":"[563,716,11168,911]","trial_type":"fractal-mutation","trial_index":47,"time_elapsed":2610907,"internal_node_id":"0.0-5.0-8.0"},{"group":"dicyclic group of order 12","fractal_assignment":["../images/org_blu.png","../images/blu_wht.png","../images/gry_blk.png","../images/ylw_slt.png","../images/grn_red.png","../images/wht_red.png","../images/grn_blu.png","../images/red_prp.png","../images/pnk_blu.png","../images/cyn_red.png","../images/ylw_pnk.png","../images/grn_prp.png"],"mutagen_generator_assignment":[0,1],"goal":1,"start":4,"action_noise":0.15,"location_history":"[4,8,5,10,7,8,0,4,9,1]","action_history":"[1,0,0,0,0,1,0,0,1]","mutagen_history":"[1,0,0,0,0,1,0,0,1]","location_rts":"[5462,676,409,515,4024,832,336,396,1810]","trial_type":"fractal-mutation","trial_index":48,"time_elapsed":2638264,"internal_node_id":"0.0-5.0-9.0"},{"group":"dicyclic group of order 12","fractal_assignment":["../images/org_blu.png","../images/blu_wht.png","../images/gry_blk.png","../images/ylw_slt.png","../images/grn_red.png","../images/wht_red.png","../images/grn_blu.png","../images/red_prp.png","../images/pnk_blu.png","../images/cyn_red.png","../images/ylw_pnk.png","../images/grn_prp.png"],"mutagen_generator_assignment":[0,1],"goal":9,"start":1,"action_noise":0.15,"location_history":"[1,5,10,2,6,10,7,8,0,4,8,0,1,5,10,2,6,10,7,8,0,4,9]","action_history":"[1,0,0,1,1,0,1,1,1,1,1,0,1,0,1,1,1,0,0,1,1,0]","mutagen_history":"[1,0,0,1,1,0,1,1,1,1,1,0,1,0,1,1,1,0,0,1,1,0]","location_rts":"[1714,391,365,320,486,440,1901,405,575,627,609,568,403,368,453,772,2016,389,577,327,482,393]","trial_type":"fractal-mutation","trial_index":49,"time_elapsed":2679159,"internal_node_id":"0.0-5.0-10.0"},{"group":"dicyclic group of order 12","fractal_assignment":["../images/org_blu.png","../images/blu_wht.png","../images/gry_blk.png","../images/ylw_slt.png","../images/grn_red.png","../images/wht_red.png","../images/grn_blu.png","../images/red_prp.png","../images/pnk_blu.png","../images/cyn_red.png","../images/ylw_pnk.png","../images/grn_prp.png"],"mutagen_generator_assignment":[0,1],"goal":10,"start":9,"action_noise":0.15,"location_history":"[9,1,2,6,10]","action_history":"[1,0,1,1]","mutagen_history":"[1,0,1,1]","location_rts":"[622,341,489,496]","trial_type":"fractal-mutation","trial_index":50,"time_elapsed":2688709,"internal_node_id":"0.0-5.0-11.0"},{"group":"dicyclic group of order 12","fractal_assignment":["../images/org_blu.png","../images/blu_wht.png","../images/gry_blk.png","../images/ylw_slt.png","../images/grn_red.png","../images/wht_red.png","../images/grn_blu.png","../images/red_prp.png","../images/pnk_blu.png","../images/cyn_red.png","../images/ylw_pnk.png","../images/grn_prp.png"],"mutagen_generator_assignment":[0,1],"goal":2,"start":10,"action_noise":0.15,"location_history":"[10,7,8,5,10,2]","action_history":"[0,0,0,0,1]","mutagen_history":"[0,0,0,0,1]","location_rts":"[5953,381,561,468,359]","trial_type":"fractal-mutation","trial_index":51,"time_elapsed":2705104,"internal_node_id":"0.0-5.0-12.0"},{"group":"dicyclic group of order 12","fractal_assignment":["../images/org_blu.png","../images/blu_wht.png","../images/gry_blk.png","../images/ylw_slt.png","../images/grn_red.png","../images/wht_red.png","../images/grn_blu.png","../images/red_prp.png","../images/pnk_blu.png","../images/cyn_red.png","../images/ylw_pnk.png","../images/grn_prp.png"],"mutagen_generator_assignment":[0,1],"goal":0,"start":2,"action_noise":0.15,"location_history":"[2,6,10,2,3,0]","action_history":"[1,1,1,0,0]","mutagen_history":"[1,1,1,0,0]","location_rts":"[1324,458,476,650,350]","trial_type":"fractal-mutation","trial_index":52,"time_elapsed":2717056,"internal_node_id":"0.0-5.0-13.0"},{"group":"dicyclic group of order 12","fractal_assignment":["../images/org_blu.png","../images/blu_wht.png","../images/gry_blk.png","../images/ylw_slt.png","../images/grn_red.png","../images/wht_red.png","../images/grn_blu.png","../images/red_prp.png","../images/pnk_blu.png","../images/cyn_red.png","../images/ylw_pnk.png","../images/grn_prp.png"],"mutagen_generator_assignment":[0,1],"goal":9,"start":0,"action_noise":0.15,"location_history":"[0,4,9]","action_history":"[1,0]","mutagen_history":"[1,0]","location_rts":"[518,583]","trial_type":"fractal-mutation","trial_index":53,"time_elapsed":2723710,"internal_node_id":"0.0-5.0-14.0"},{"group":"dicyclic group of order 12","fractal_assignment":["../images/org_blu.png","../images/blu_wht.png","../images/gry_blk.png","../images/ylw_slt.png","../images/grn_red.png","../images/wht_red.png","../images/grn_blu.png","../images/red_prp.png","../images/pnk_blu.png","../images/cyn_red.png","../images/ylw_pnk.png","../images/grn_prp.png"],"mutagen_generator_assignment":[0,1],"goal":8,"start":9,"action_noise":0.15,"location_history":"[9,1,5,9,6,11,4,9,6,11,3,7,11,4,8]","action_history":"[1,1,1,0,0,0,0,0,0,1,0,0,0,1]","mutagen_history":"[1,1,1,0,0,0,0,0,0,1,0,0,0,1]","location_rts":"[782,1003,569,707,507,1552,1156,379,605,401,397,427,410,572]","trial_type":"fractal-mutation","trial_index":54,"time_elapsed":2751111,"internal_node_id":"0.0-5.0-15.0"},{"group":"dicyclic group of order 12","fractal_assignment":["../images/org_blu.png","../images/blu_wht.png","../images/gry_blk.png","../images/ylw_slt.png","../images/grn_red.png","../images/wht_red.png","../images/grn_blu.png","../images/red_prp.png","../images/pnk_blu.png","../images/cyn_red.png","../images/ylw_pnk.png","../images/grn_prp.png"],"mutagen_generator_assignment":[0,1],"goal":6,"start":8,"action_noise":0.15,"location_history":"[8,0,1,5,10,2,6]","action_history":"[1,0,0,1,0,1]","mutagen_history":"[1,0,0,1,0,1]","location_rts":"[423,425,1512,416,390,415]","trial_type":"fractal-mutation","trial_index":55,"time_elapsed":2764417,"internal_node_id":"0.0-5.0-16.0"},{"group":"dicyclic group of order 12","fractal_assignment":["../images/org_blu.png","../images/blu_wht.png","../images/gry_blk.png","../images/ylw_slt.png","../images/grn_red.png","../images/wht_red.png","../images/grn_blu.png","../images/red_prp.png","../images/pnk_blu.png","../images/cyn_red.png","../images/ylw_pnk.png","../images/grn_prp.png"],"mutagen_generator_assignment":[0,1],"goal":1,"start":6,"action_noise":0.15,"location_history":"[6,11,3,7,8,5,10,7,11,3,0,1]","action_history":"[0,1,1,1,0,0,0,1,1,0,0]","mutagen_history":"[0,1,1,1,0,0,0,1,1,0,0]","location_rts":"[873,496,1039,575,547,495,370,353,667,393,435]","trial_type":"fractal-mutation","trial_index":56,"time_elapsed":2785573,"internal_node_id":"0.0-5.0-17.0"},{"group":"dicyclic group of order 12","fractal_assignment":["../images/org_blu.png","../images/blu_wht.png","../images/gry_blk.png","../images/ylw_slt.png","../images/grn_red.png","../images/wht_red.png","../images/grn_blu.png","../images/red_prp.png","../images/pnk_blu.png","../images/cyn_red.png","../images/ylw_pnk.png","../images/grn_prp.png"],"mutagen_generator_assignment":[0,1],"goal":4,"start":1,"action_noise":0.15,"location_history":"[1,5,10,7,11,4]","action_history":"[1,0,0,1,0]","mutagen_history":"[1,0,0,1,0]","location_rts":"[411,284,373,258,316]","trial_type":"fractal-mutation","trial_index":57,"time_elapsed":2795857,"internal_node_id":"0.0-5.0-18.0"},{"group":"dicyclic group of order 12","fractal_assignment":["../images/org_blu.png","../images/blu_wht.png","../images/gry_blk.png","../images/ylw_slt.png","../images/grn_red.png","../images/wht_red.png","../images/grn_blu.png","../images/red_prp.png","../images/pnk_blu.png","../images/cyn_red.png","../images/ylw_pnk.png","../images/grn_prp.png"],"mutagen_generator_assignment":[0,1],"goal":11,"start":4,"action_noise":0.15,"location_history":"[4,8,5,10,7,8,5,10,2,3,0,1,2,6,10,2,3,0,1,2,6,10,2,3,7,11]","action_history":"[0,0,0,0,0,0,0,1,0,0,0,0,1,0,0,0,0,0,0,1,1,1,0,1,1]","mutagen_history":"[0,0,0,0,0,0,0,1,0,0,0,0,1,0,0,0,0,0,0,1,1,1,0,1,1]","location_rts":"[472,346,117,348,673,849,130,701,550,301,315,339,411,644,303,288,433,364,399,424,313,926,420,304,1217]","trial_type":"fractal-mutation","trial_index":58,"time_elapsed":2836670,"internal_node_id":"0.0-5.0-19.0"},{"group":"dicyclic group of order 12","fractal_assignment":["../images/org_blu.png","../images/blu_wht.png","../images/gry_blk.png","../images/ylw_slt.png","../images/grn_red.png","../images/wht_red.png","../images/grn_blu.png","../images/red_prp.png","../images/pnk_blu.png","../images/cyn_red.png","../images/ylw_pnk.png","../images/grn_prp.png"],"mutagen_generator_assignment":[0,1],"goal":3,"start":11,"action_noise":0.15,"location_history":"[11,3]","action_history":"[1]","mutagen_history":"[1]","location_rts":"[1522]","trial_type":"fractal-mutation","trial_index":59,"time_elapsed":2842717,"internal_node_id":"0.0-5.0-20.0"},{"group":"dicyclic group of order 12","fractal_assignment":["../images/org_blu.png","../images/blu_wht.png","../images/gry_blk.png","../images/ylw_slt.png","../images/grn_red.png","../images/wht_red.png","../images/grn_blu.png","../images/red_prp.png","../images/pnk_blu.png","../images/cyn_red.png","../images/ylw_pnk.png","../images/grn_prp.png"],"mutagen_generator_assignment":[0,1],"goal":5,"start":3,"action_noise":0.15,"location_history":"[3,7,8,5]","action_history":"[0,0,0]","mutagen_history":"[0,0,0]","location_rts":"[4182,341,412]","trial_type":"fractal-mutation","trial_index":60,"time_elapsed":2854226,"internal_node_id":"0.0-5.0-21.0"},{"group":"dicyclic group of order 12","fractal_assignment":["../images/org_blu.png","../images/blu_wht.png","../images/gry_blk.png","../images/ylw_slt.png","../images/grn_red.png","../images/wht_red.png","../images/grn_blu.png","../images/red_prp.png","../images/pnk_blu.png","../images/cyn_red.png","../images/ylw_pnk.png","../images/grn_prp.png"],"mutagen_generator_assignment":[0,1],"goal":7,"start":5,"action_noise":0.15,"location_history":"[5,9,1,5,9,1,5,9,6,10,7]","action_history":"[1,1,0,1,1,1,0,0,1,0]","mutagen_history":"[1,1,0,1,1,1,0,0,1,0]","location_rts":"[1597,677,457,312,979,786,281,341,330,388]","trial_type":"fractal-mutation","trial_index":61,"time_elapsed":2874197,"internal_node_id":"0.0-5.0-22.0"},{"group":"dicyclic group of order 12","fractal_assignment":["../images/org_blu.png","../images/blu_wht.png","../images/gry_blk.png","../images/ylw_slt.png","../images/grn_red.png","../images/wht_red.png","../images/grn_blu.png","../images/red_prp.png","../images/pnk_blu.png","../images/cyn_red.png","../images/ylw_pnk.png","../images/grn_prp.png"],"mutagen_generator_assignment":[0,1],"goal":3,"start":7,"action_noise":0.15,"location_history":"[7,11,4,9,1,2,3]","action_history":"[1,0,1,1,0,0]","mutagen_history":"[1,0,1,1,0,0]","location_rts":"[1325,818,353,581,453,350]","trial_type":"fractal-mutation","trial_index":62,"time_elapsed":2887844,"internal_node_id":"0.0-5.0-23.0"},{"group":"dicyclic group of order 12","fractal_assignment":["../images/org_blu.png","../images/blu_wht.png","../images/gry_blk.png","../images/ylw_slt.png","../images/grn_red.png","../images/wht_red.png","../images/grn_blu.png","../images/red_prp.png","../images/pnk_blu.png","../images/cyn_red.png","../images/ylw_pnk.png","../images/grn_prp.png"],"mutagen_generator_assignment":[0,1],"goal":4,"start":3,"action_noise":0.15,"location_history":"[3,7,8,5,10,7,8,0,1,2,3,0,1,5,10,2,3,7,8,0,4]","action_history":"[1,0,1,0,0,1,1,0,0,0,0,0,1,1,1,0,1,0,1,1]","mutagen_history":"[1,0,1,0,0,1,1,0,0,0,0,0,1,1,1,0,1,0,1,1]","location_rts":"[452,517,482,386,437,650,611,690,473,400,400,576,856,412,518,381,321,1065,870,686]","trial_type":"fractal-mutation","trial_index":63,"time_elapsed":2923183,"internal_node_id":"0.0-5.0-24.0"},{"group":"dicyclic group of order 12","fractal_assignment":["../images/org_blu.png","../images/blu_wht.png","../images/gry_blk.png","../images/ylw_slt.png","../images/grn_red.png","../images/wht_red.png","../images/grn_blu.png","../images/red_prp.png","../images/pnk_blu.png","../images/cyn_red.png","../images/ylw_pnk.png","../images/grn_prp.png"],"mutagen_generator_assignment":[0,1],"goal":8,"start":4,"action_noise":0.15,"location_history":"[4,8]","action_history":"[1]","mutagen_history":"[1]","location_rts":"[2621]","trial_type":"fractal-mutation","trial_index":64,"time_elapsed":2930350,"internal_node_id":"0.0-5.0-25.0"},{"group":"dicyclic group of order 12","fractal_assignment":["../images/org_blu.png","../images/blu_wht.png","../images/gry_blk.png","../images/ylw_slt.png","../images/grn_red.png","../images/wht_red.png","../images/grn_blu.png","../images/red_prp.png","../images/pnk_blu.png","../images/cyn_red.png","../images/ylw_pnk.png","../images/grn_prp.png"],"mutagen_generator_assignment":[0,1],"goal":6,"start":8,"action_noise":0.15,"location_history":"[8,5,10,7,11,3,0,1,5,10,7,11,4,9,1,2,3,7,11,3,0,1,2,6]","action_history":"[0,0,0,1,1,0,0,1,0,0,1,0,1,1,0,0,1,1,0,0,0,0,1]","mutagen_history":"[0,0,0,1,1,0,0,1,0,0,1,0,1,1,0,0,1,1,0,0,0,0,1]","location_rts":"[1442,460,437,673,895,285,444,409,363,470,382,975,870,582,373,611,1184,654,726,356,687,415,464]","trial_type":"fractal-mutation","trial_index":65,"time_elapsed":2971921,"internal_node_id":"0.0-5.0-26.0"},{"group":"dicyclic group of order 12","fractal_assignment":["../images/org_blu.png","../images/blu_wht.png","../images/gry_blk.png","../images/ylw_slt.png","../images/grn_red.png","../images/wht_red.png","../images/grn_blu.png","../images/red_prp.png","../images/pnk_blu.png","../images/cyn_red.png","../images/ylw_pnk.png","../images/grn_prp.png"],"mutagen_generator_assignment":[0,1],"goal":1,"start":6,"action_noise":0.15,"location_history":"[6,10,2,3,0,1]","action_history":"[1,1,0,0,0]","mutagen_history":"[1,1,0,0,0]","location_rts":"[2205,430,301,311,311]","trial_type":"fractal-mutation","trial_index":66,"time_elapsed":2984097,"internal_node_id":"0.0-5.0-27.0"},{"group":"dicyclic group of order 12","fractal_assignment":["../images/org_blu.png","../images/blu_wht.png","../images/gry_blk.png","../images/ylw_slt.png","../images/grn_red.png","../images/wht_red.png","../images/grn_blu.png","../images/red_prp.png","../images/pnk_blu.png","../images/cyn_red.png","../images/ylw_pnk.png","../images/grn_prp.png"],"mutagen_generator_assignment":[0,1],"goal":5,"start":1,"action_noise":0.15,"location_history":"[1,5]","action_history":"[1]","mutagen_history":"[1]","location_rts":"[1301]","trial_type":"fractal-mutation","trial_index":67,"time_elapsed":2989937,"internal_node_id":"0.0-5.0-28.0"},{"group":"dicyclic group of order 12","fractal_assignment":["../images/org_blu.png","../images/blu_wht.png","../images/gry_blk.png","../images/ylw_slt.png","../images/grn_red.png","../images/wht_red.png","../images/grn_blu.png","../images/red_prp.png","../images/pnk_blu.png","../images/cyn_red.png","../images/ylw_pnk.png","../images/grn_prp.png"],"mutagen_generator_assignment":[0,1],"goal":9,"start":5,"action_noise":0.15,"location_history":"[5,9]","action_history":"[1]","mutagen_history":"[1]","location_rts":"[663]","trial_type":"fractal-mutation","trial_index":68,"time_elapsed":2995130,"internal_node_id":"0.0-5.0-29.0"},{"group":"dicyclic group of order 12","fractal_assignment":["../images/org_blu.png","../images/blu_wht.png","../images/gry_blk.png","../images/ylw_slt.png","../images/grn_red.png","../images/wht_red.png","../images/grn_blu.png","../images/red_prp.png","../images/pnk_blu.png","../images/cyn_red.png","../images/ylw_pnk.png","../images/grn_prp.png"],"mutagen_generator_assignment":[0,1],"goal":10,"start":9,"action_noise":0.15,"location_history":"[9,6,11,4,8,5,9,6,11,4,8,0,1,2,6,11,4,8,0,4,9,1,2,6,11,4,9,6,10]","action_history":"[0,0,0,1,0,1,0,0,0,1,1,0,0,0,0,0,1,1,1,0,1,0,1,0,0,0,0,1]","mutagen_history":"[0,0,0,1,0,1,0,0,0,1,1,0,0,0,0,0,1,1,1,0,1,0,1,0,0,0,0,1]","location_rts":"[1116,447,394,728,405,794,378,338,523,569,359,367,370,446,519,587,1284,307,495,585,352,820,697,793,613,912,785,2788]","trial_type":"fractal-mutation","trial_index":69,"time_elapsed":3046364,"internal_node_id":"0.0-5.0-30.0"},{"group":"dicyclic group of order 12","fractal_assignment":["../images/org_blu.png","../images/blu_wht.png","../images/gry_blk.png","../images/ylw_slt.png","../images/grn_red.png","../images/wht_red.png","../images/grn_blu.png","../images/red_prp.png","../images/pnk_blu.png","../images/cyn_red.png","../images/ylw_pnk.png","../images/grn_prp.png"],"mutagen_generator_assignment":[0,1],"goal":0,"start":10,"action_noise":0.15,"location_history":"[10,2,6,11,4,9,1,5,10,2,3,7,11,4,8,0]","action_history":"[1,1,0,0,0,1,1,0,1,0,0,1,0,0,1]","mutagen_history":"[1,1,0,0,0,1,1,0,1,0,0,1,0,0,1]","location_rts":"[1470,475,455,339,525,368,776,604,686,427,517,682,677,3324,383]","trial_type":"fractal-mutation","trial_index":70,"time_elapsed":3076921,"internal_node_id":"0.0-5.0-31.0"},{"group":"dicyclic group of order 12","fractal_assignment":["../images/org_blu.png","../images/blu_wht.png","../images/gry_blk.png","../images/ylw_slt.png","../images/grn_red.png","../images/wht_red.png","../images/grn_blu.png","../images/red_prp.png","../images/pnk_blu.png","../images/cyn_red.png","../images/ylw_pnk.png","../images/grn_prp.png"],"mutagen_generator_assignment":[0,1],"goal":7,"start":0,"action_noise":0.15,"location_history":"[0,4,8,5,9,1,5,9,1,5,10,7]","action_history":"[1,1,0,1,1,0,0,1,1,0,0]","mutagen_history":"[1,1,0,1,1,0,0,1,1,0,0]","location_rts":"[1275,3416,1420,982,1084,307,487,846,292,307,607]","trial_type":"fractal-mutation","trial_index":71,"time_elapsed":3102938,"internal_node_id":"0.0-5.0-32.0"},{"group":"dicyclic group of order 12","fractal_assignment":["../images/org_blu.png","../images/blu_wht.png","../images/gry_blk.png","../images/ylw_slt.png","../images/grn_red.png","../images/wht_red.png","../images/grn_blu.png","../images/red_prp.png","../images/pnk_blu.png","../images/cyn_red.png","../images/ylw_pnk.png","../images/grn_prp.png"],"mutagen_generator_assignment":[0,1],"goal":11,"start":7,"action_noise":0.15,"location_history":"[7,11]","action_history":"[1]","mutagen_history":"[1]","location_rts":"[1159]","trial_type":"fractal-mutation","trial_index":72,"time_elapsed":3108656,"internal_node_id":"0.0-5.0-33.0"},{"group":"dicyclic group of order 12","fractal_assignment":["../images/org_blu.png","../images/blu_wht.png","../images/gry_blk.png","../images/ylw_slt.png","../images/grn_red.png","../images/wht_red.png","../images/grn_blu.png","../images/red_prp.png","../images/pnk_blu.png","../images/cyn_red.png","../images/ylw_pnk.png","../images/grn_prp.png"],"mutagen_generator_assignment":[0,1],"goal":2,"start":11,"action_noise":0.15,"location_history":"[11,3,0,4,9,6,10,2]","action_history":"[1,0,1,0,0,0,1]","mutagen_history":"[1,0,1,0,0,0,1]","location_rts":"[4588,1066,1731,466,837,761,285]","trial_type":"fractal-mutation","trial_index":73,"time_elapsed":3129211,"internal_node_id":"0.0-5.0-34.0"},{"view_history":"[{\"page_index\":0,\"viewing_time\":4325}]","rt":4325,"trial_type":"instructions","trial_index":74,"time_elapsed":3134538,"internal_node_id":"0.0-6.0"},{"rt":34877,"responses":"{\"Q0\":\"If people could memorize paths even though it got messed up sometimes\"}","trial_type":"survey-text","trial_index":75,"time_elapsed":3170420,"internal_node_id":"0.0-7.0-0.0"},{"rt":5960,"responses":"{\"Q0\":\"I don't know at all\"}","trial_type":"survey-text","trial_index":76,"time_elapsed":3177386,"internal_node_id":"0.0-7.0-1.0"},{"rt":11473,"responses":"{\"Q0\":\"1\"}","trial_type":"survey-likert","trial_index":77,"time_elapsed":3189864,"internal_node_id":"0.0-7.0-2.0"},{"rt":18261,"responses":"{\"Q0\":\"just the two options black/white doors and a/g\"}","trial_type":"survey-text","trial_index":78,"time_elapsed":3209131,"internal_node_id":"0.0-7.0-3.0"},{"rt":79507,"responses":"{\"Q0\":\"No\"}","trial_type":"survey-multi-choice","trial_index":79,"time_elapsed":3289643,"internal_node_id":"0.0-7.0-4.0"},{"rt":5447,"responses":"{\"Q0\":\"Did not notice\"}","trial_type":"survey-multi-choice","trial_index":80,"time_elapsed":3296094,"internal_node_id":"0.0-7.0-5.0"},{"rt":1981,"responses":"{\"Q0\":\"\"}","trial_type":"survey-text","trial_index":81,"time_elapsed":3299078,"internal_node_id":"0.0-7.0-6.0"},{"rt":3815,"responses":"{\"Q0\":\"0\"}","trial_type":"survey-likert","trial_index":82,"time_elapsed":3303895,"internal_node_id":"0.0-7.0-7.0"},{"rt":5543,"responses":"{\"Q0\":\"Different structure\"}","trial_type":"survey-multi-choice","trial_index":83,"time_elapsed":3310441,"internal_node_id":"0.0-7.0-8.0"},{"rt":17700,"responses":"{\"Q0\":\"white door = acid, black door = ray\",\"Q1\":\"Not at all confident\"}","trial_type":"survey-multi-choice","trial_index":84,"time_elapsed":3329149,"internal_node_id":"0.0-7.0-9.0"},{"rt":7406,"responses":"{\"Q0\":\"<25\",\"Q1\":\"Bachelor's degree\",\"Q2\":\"Female\",\"Q3\":\"Hispanic\"}","trial_type":"survey-multi-choice","trial_index":85,"time_elapsed":3337568,"internal_node_id":"0.0-8.0"},{"rt":1393,"responses":"{\"Q0\":\"\"}","trial_type":"survey-text","trial_index":86,"time_elapsed":3339963,"internal_node_id":"0.0-9.0"}]