[{"view_history":"[{\"page_index\":0,\"viewing_time\":1676},{\"page_index\":1,\"viewing_time\":7583}]","rt":9260,"trial_type":"instructions","trial_index":0,"time_elapsed":9261,"internal_node_id":"0.0-0.0"},{"view_history":"[{\"page_index\":0,\"viewing_time\":3355},{\"page_index\":1,\"viewing_time\":12813}]","rt":16168,"trial_type":"instructions","trial_index":1,"time_elapsed":26435,"internal_node_id":"0.0-1.0"},{"group":"dicyclic group of order 12","room_assignment":["red","grey","blue","ivory","orange","cyan","brown","yellow","olive","green","purple","pink"],"door_color_assignment":["white","black"],"door_generator_assignment":[0,1],"goal":7,"start":3,"action_noise":0.15,"location_history":"[3,0,1,2,3,7]","action_history":"[0,0,0,1,1]","door_history":"[0,0,0,1,1]","location_rts":"[4264,1095,1279,708,556]","trial_type":"two-door-navigation","trial_index":2,"time_elapsed":43174,"internal_node_id":"0.0-2.0-0.0"},{"group":"dicyclic group of order 12","room_assignment":["red","grey","blue","ivory","orange","cyan","brown","yellow","olive","green","purple","pink"],"door_color_assignment":["white","black"],"door_generator_assignment":[0,1],"goal":5,"start":7,"action_noise":0.15,"location_history":"[7,11,4,8,0,4,8,5]","action_history":"[1,1,1,1,1,1,0]","door_history":"[1,1,1,1,1,1,0]","location_rts":"[1193,378,357,344,392,427,536]","trial_type":"two-door-navigation","trial_index":3,"time_elapsed":57755,"internal_node_id":"0.0-2.0-1.0"},{"group":"dicyclic group of order 12","room_assignment":["red","grey","blue","ivory","orange","cyan","brown","yellow","olive","green","purple","pink"],"door_color_assignment":["white","black"],"door_generator_assignment":[0,1],"goal":0,"start":5,"action_noise":0.15,"location_history":"[5,10,7,8,0]","action_history":"[1,0,0,0]","door_history":"[1,0,0,0]","location_rts":"[2126,637,295,328]","trial_type":"two-door-navigation","trial_index":4,"time_elapsed":68942,"internal_node_id":"0.0-2.0-2.0"},{"group":"dicyclic group of order 12","room_assignment":["red","grey","blue","ivory","orange","cyan","brown","yellow","olive","green","purple","pink"],"door_color_assignment":["white","black"],"door_generator_assignment":[0,1],"goal":2,"start":0,"action_noise":0.15,"location_history":"[0,4,8,0,1,5,10,7,8,0,4,8,0,4,8,5,9,6,11,4,8,0,1,5,10,7,11,3,0,1,2]","action_history":"[1,1,1,0,0,0,0,0,1,1,0,1,1,1,0,0,0,0,0,1,1,1,1,0,0,1,1,0,0,0]","door_history":"[1,1,1,0,0,0,0,0,1,1,0,1,1,1,0,0,0,0,0,1,1,1,1,0,0,1,1,0,0,0]","location_rts":"[2074,399,382,1354,403,357,372,356,547,1399,338,1006,388,250,385,366,354,347,324,563,335,330,429,254,332,392,393,163,346,185]","trial_type":"two-door-navigation","trial_index":5,"time_elapsed":119731,"internal_node_id":"0.0-2.0-3.0"},{"group":"dicyclic group of order 12","room_assignment":["red","grey","blue","ivory","orange","cyan","brown","yellow","olive","green","purple","pink"],"door_color_assignment":["white","black"],"door_generator_assignment":[0,1],"goal":10,"start":2,"action_noise":0.15,"location_history":"[2,6,10]","action_history":"[1,1]","door_history":"[1,1]","location_rts":"[870,145]","trial_type":"two-door-navigation","trial_index":6,"time_elapsed":126382,"internal_node_id":"0.0-2.0-4.0"},{"group":"dicyclic group of order 12","room_assignment":["red","grey","blue","ivory","orange","cyan","brown","yellow","olive","green","purple","pink"],"door_color_assignment":["white","black"],"door_generator_assignment":[0,1],"goal":8,"start":10,"action_noise":0.15,"location_history":"[10,7,8]","action_history":"[0,0]","door_history":"[0,0]","location_rts":"[1799,289]","trial_type":"two-door-navigation","trial_index":7,"time_elapsed":134109,"internal_node_id":"0.0-2.0-5.0"},{"group":"dicyclic group of order 12","room_assignment":["red","grey","blue","ivory","orange","cyan","brown","yellow","olive","green","purple","pink"],"door_color_assignment":["white","black"],"door_generator_assignment":[0,1],"goal":11,"start":8,"action_noise":0.15,"location_history":"[8,5,10,7,11]","action_history":"[0,0,0,0]","door_history":"[0,0,0,0]","location_rts":"[1518,335,405,416]","trial_type":"two-door-navigation","trial_index":8,"time_elapsed":144546,"internal_node_id":"0.0-2.0-6.0"},{"group":"dicyclic group of order 12","room_assignment":["red","grey","blue","ivory","orange","cyan","brown","yellow","olive","green","purple","pink"],"door_color_assignment":["white","black"],"door_generator_assignment":[0,1],"goal":6,"start":11,"action_noise":0.15,"location_history":"[11,3,7,11,3,7,8,0,4,8,5,9,1,5,9,1,2,6]","action_history":"[1,1,1,1,1,0,0,1,1,0,0,1,1,1,1,0,1]","door_history":"[1,1,1,1,1,0,0,1,1,0,0,1,1,1,1,0,1]","location_rts":"[2358,420,563,390,383,775,379,733,961,344,431,314,237,350,247,286,466]","trial_type":"two-door-navigation","trial_index":9,"time_elapsed":175897,"internal_node_id":"0.0-2.0-7.0"},{"group":"dicyclic group of order 12","room_assignment":["red","grey","blue","ivory","orange","cyan","brown","yellow","olive","green","purple","pink"],"door_color_assignment":["white","black"],"door_generator_assignment":[0,1],"goal":4,"start":6,"action_noise":0.15,"location_history":"[6,11,3,7,11,3,7,11,4]","action_history":"[0,1,1,1,1,1,0,0]","door_history":"[0,1,1,1,1,1,0,0]","location_rts":"[2371,796,313,256,314,603,173,270]","trial_type":"two-door-navigation","trial_index":10,"time_elapsed":193077,"internal_node_id":"0.0-2.0-8.0"},{"group":"dicyclic group of order 12","room_assignment":["red","grey","blue","ivory","orange","cyan","brown","yellow","olive","green","purple","pink"],"door_color_assignment":["white","black"],"door_generator_assignment":[0,1],"goal":1,"start":4,"action_noise":0.15,"location_history":"[4,9,1]","action_history":"[0,1]","door_history":"[0,1]","location_rts":"[569,811]","trial_type":"two-door-navigation","trial_index":11,"time_elapsed":200084,"internal_node_id":"0.0-2.0-9.0"},{"group":"dicyclic group of order 12","room_assignment":["red","grey","blue","ivory","orange","cyan","brown","yellow","olive","green","purple","pink"],"door_color_assignment":["white","black"],"door_generator_assignment":[0,1],"goal":9,"start":1,"action_noise":0.15,"location_history":"[1,2,6,10,7,8,5,10,7,11,3,7,11,3,0,1,5,9]","action_history":"[1,1,1,0,0,0,0,0,1,1,1,1,1,0,0,1,1]","door_history":"[1,1,1,0,0,0,0,0,1,1,1,1,1,0,0,1,1]","location_rts":"[449,1806,438,459,360,326,367,1074,317,375,338,312,381,345,590,283,231]","trial_type":"two-door-navigation","trial_index":12,"time_elapsed":230167,"internal_node_id":"0.0-2.0-10.0"},{"group":"dicyclic group of order 12","room_assignment":["red","grey","blue","ivory","orange","cyan","brown","yellow","olive","green","purple","pink"],"door_color_assignment":["white","black"],"door_generator_assignment":[0,1],"goal":10,"start":9,"action_noise":0.15,"location_history":"[9,6,11,3,0,4,8,0,4,8,5,10]","action_history":"[0,0,0,0,0,1,1,1,1,0,0]","door_history":"[0,0,0,0,0,1,1,1,1,0,0]","location_rts":"[2285,283,296,246,186,300,216,268,181,249,183]","trial_type":"two-door-navigation","trial_index":13,"time_elapsed":250180,"internal_node_id":"0.0-2.0-11.0"},{"group":"dicyclic group of order 12","room_assignment":["red","grey","blue","ivory","orange","cyan","brown","yellow","olive","green","purple","pink"],"door_color_assignment":["white","black"],"door_generator_assignment":[0,1],"goal":2,"start":10,"action_noise":0.15,"location_history":"[10,2]","action_history":"[1]","door_history":"[1]","location_rts":"[664]","trial_type":"two-door-navigation","trial_index":14,"time_elapsed":255426,"internal_node_id":"0.0-2.0-12.0"},{"group":"dicyclic group of order 12","room_assignment":["red","grey","blue","ivory","orange","cyan","brown","yellow","olive","green","purple","pink"],"door_color_assignment":["white","black"],"door_generator_assignment":[0,1],"goal":0,"start":2,"action_noise":0.15,"location_history":"[2,3,0]","action_history":"[0,0]","door_history":"[0,0]","location_rts":"[862,89]","trial_type":"two-door-navigation","trial_index":15,"time_elapsed":262013,"internal_node_id":"0.0-2.0-13.0"},{"group":"dicyclic group of order 12","room_assignment":["red","grey","blue","ivory","orange","cyan","brown","yellow","olive","green","purple","pink"],"door_color_assignment":["white","black"],"door_generator_assignment":[0,1],"goal":9,"start":0,"action_noise":0.15,"location_history":"[0,4,9]","action_history":"[0,0]","door_history":"[0,0]","location_rts":"[728,114]","trial_type":"two-door-navigation","trial_index":16,"time_elapsed":268504,"internal_node_id":"0.0-2.0-14.0"},{"group":"dicyclic group of order 12","room_assignment":["red","grey","blue","ivory","orange","cyan","brown","yellow","olive","green","purple","pink"],"door_color_assignment":["white","black"],"door_generator_assignment":[0,1],"goal":8,"start":9,"action_noise":0.15,"location_history":"[9,6,11,4,8]","action_history":"[0,0,0,0]","door_history":"[0,0,0,0]","location_rts":"[2177,320,349,557]","trial_type":"two-door-navigation","trial_index":17,"time_elapsed":279687,"internal_node_id":"0.0-2.0-15.0"},{"group":"dicyclic group of order 12","room_assignment":["red","grey","blue","ivory","orange","cyan","brown","yellow","olive","green","purple","pink"],"door_color_assignment":["white","black"],"door_generator_assignment":[0,1],"goal":6,"start":8,"action_noise":0.15,"location_history":"[8,0,4,8,0,1,5,9,6]","action_history":"[0,1,1,1,0,1,1,1]","door_history":"[0,1,1,1,0,1,1,1]","location_rts":"[1496,220,223,392,178,978,239,220]","trial_type":"two-door-navigation","trial_index":18,"time_elapsed":295697,"internal_node_id":"0.0-2.0-16.0"},{"group":"dicyclic group of order 12","room_assignment":["red","grey","blue","ivory","orange","cyan","brown","yellow","olive","green","purple","pink"],"door_color_assignment":["white","black"],"door_generator_assignment":[0,1],"goal":1,"start":6,"action_noise":0.15,"location_history":"[6,11,4,8,0,1]","action_history":"[1,1,1,1,0]","door_history":"[1,1,1,1,0]","location_rts":"[1116,115,183,187,482]","trial_type":"two-door-navigation","trial_index":19,"time_elapsed":306647,"internal_node_id":"0.0-2.0-17.0"},{"group":"dicyclic group of order 12","room_assignment":["red","grey","blue","ivory","orange","cyan","brown","yellow","olive","green","purple","pink"],"door_color_assignment":["white","black"],"door_generator_assignment":[0,1],"goal":4,"start":1,"action_noise":0.15,"location_history":"[1,5,9,1,2,3,0,1,2,3,0,1,5,9,1,5,9,6,11,4]","action_history":"[1,1,1,1,0,0,0,0,0,0,0,1,1,1,1,1,0,0,0]","door_history":"[1,1,1,1,0,0,0,0,0,0,0,1,1,1,1,1,0,0,0]","location_rts":"[526,117,243,194,183,176,152,163,274,435,679,295,148,183,116,335,234,143,126]","trial_type":"two-door-navigation","trial_index":20,"time_elapsed":335240,"internal_node_id":"0.0-2.0-18.0"},{"group":"dicyclic group of order 12","room_assignment":["red","grey","blue","ivory","orange","cyan","brown","yellow","olive","green","purple","pink"],"door_color_assignment":["white","black"],"door_generator_assignment":[0,1],"goal":11,"start":4,"action_noise":0.15,"location_history":"[4,8,0,1,2,3,0,1,2,6,10,2,3,0,1,5,9,6,10,7,8,0,1,2,6,10,7,8,5,9,6,11]","action_history":"[1,1,0,0,0,0,0,0,1,1,1,0,0,0,1,1,0,0,0,0,1,0,0,1,1,0,0,0,1,0,0]","door_history":"[1,1,0,0,0,0,0,0,1,1,1,0,0,0,1,1,0,0,0,0,1,0,0,1,1,0,0,0,1,0,0]","location_rts":"[429,190,609,132,161,289,152,270,186,99,158,108,265,100,59,501,447,172,184,193,222,440,82,140,1158,375,124,65,191,669,77]","trial_type":"two-door-navigation","trial_index":21,"time_elapsed":380182,"internal_node_id":"0.0-2.0-19.0"},{"group":"dicyclic group of order 12","room_assignment":["red","grey","blue","ivory","orange","cyan","brown","yellow","olive","green","purple","pink"],"door_color_assignment":["white","black"],"door_generator_assignment":[0,1],"goal":3,"start":11,"action_noise":0.15,"location_history":"[11,3]","action_history":"[1]","door_history":"[1]","location_rts":"[694]","trial_type":"two-door-navigation","trial_index":22,"time_elapsed":385463,"internal_node_id":"0.0-2.0-20.0"},{"group":"dicyclic group of order 12","room_assignment":["red","grey","blue","ivory","orange","cyan","brown","yellow","olive","green","purple","pink"],"door_color_assignment":["white","black"],"door_generator_assignment":[0,1],"goal":5,"start":3,"action_noise":0.15,"location_history":"[3,0,4,9,6,10,7,8,5]","action_history":"[1,1,1,1,1,1,0,0]","door_history":"[1,1,1,1,1,1,0,0]","location_rts":"[1684,85,159,228,262,224,136,80]","trial_type":"two-door-navigation","trial_index":23,"time_elapsed":400413,"internal_node_id":"0.0-2.0-21.0"},{"group":"dicyclic group of order 12","room_assignment":["red","grey","blue","ivory","orange","cyan","brown","yellow","olive","green","purple","pink"],"door_color_assignment":["white","black"],"door_generator_assignment":[0,1],"goal":7,"start":5,"action_noise":0.15,"location_history":"[5,9,1,5,9,1,5,9,6,10,7]","action_history":"[0,1,1,1,1,1,1,0,0,0]","door_history":"[0,1,1,1,1,1,1,0,0,0]","location_rts":"[316,526,70,280,155,153,115,41,81,159]","trial_type":"two-door-navigation","trial_index":24,"time_elapsed":416503,"internal_node_id":"0.0-2.0-22.0"},{"group":"dicyclic group of order 12","room_assignment":["red","grey","blue","ivory","orange","cyan","brown","yellow","olive","green","purple","pink"],"door_color_assignment":["white","black"],"door_generator_assignment":[0,1],"goal":3,"start":7,"action_noise":0.15,"location_history":"[7,11,3]","action_history":"[1,1]","door_history":"[1,1]","location_rts":"[417,533]","trial_type":"two-door-navigation","trial_index":25,"time_elapsed":423099,"internal_node_id":"0.0-2.0-23.0"},{"group":"dicyclic group of order 12","room_assignment":["red","grey","blue","ivory","orange","cyan","brown","yellow","olive","green","purple","pink"],"door_color_assignment":["white","black"],"door_generator_assignment":[0,1],"goal":4,"start":3,"action_noise":0.15,"location_history":"[3,7,8,5,10,7,8,0,4]","action_history":"[1,0,0,0,0,0,1,1]","door_history":"[1,0,0,0,0,0,1,1]","location_rts":"[643,768,79,141,184,243,120,161]","trial_type":"two-door-navigation","trial_index":26,"time_elapsed":437500,"internal_node_id":"0.0-2.0-24.0"},{"group":"dicyclic group of order 12","room_assignment":["red","grey","blue","ivory","orange","cyan","brown","yellow","olive","green","purple","pink"],"door_color_assignment":["white","black"],"door_generator_assignment":[0,1],"goal":8,"start":4,"action_noise":0.15,"location_history":"[4,8]","action_history":"[1]","door_history":"[1]","location_rts":"[515]","trial_type":"two-door-navigation","trial_index":27,"time_elapsed":442607,"internal_node_id":"0.0-2.0-25.0"},{"group":"dicyclic group of order 12","room_assignment":["red","grey","blue","ivory","orange","cyan","brown","yellow","olive","green","purple","pink"],"door_color_assignment":["white","black"],"door_generator_assignment":[0,1],"goal":6,"start":8,"action_noise":0.15,"location_history":"[8,0,4,9,6]","action_history":"[1,1,1,0]","door_history":"[1,1,1,0]","location_rts":"[2762,1547,354,1147]","trial_type":"two-door-navigation","trial_index":28,"time_elapsed":456163,"internal_node_id":"0.0-2.0-26.0"},{"group":"dicyclic group of order 12","room_assignment":["red","grey","blue","ivory","orange","cyan","brown","yellow","olive","green","purple","pink"],"door_color_assignment":["white","black"],"door_generator_assignment":[0,1],"goal":1,"start":6,"action_noise":0.15,"location_history":"[6,11,3,7,11,3,0,1]","action_history":"[0,1,1,1,1,0,0]","door_history":"[0,1,1,1,1,0,0]","location_rts":"[607,1678,107,205,139,477,203]","trial_type":"two-door-navigation","trial_index":29,"time_elapsed":470615,"internal_node_id":"0.0-2.0-27.0"},{"group":"dicyclic group of order 12","room_assignment":["red","grey","blue","ivory","orange","cyan","brown","yellow","olive","green","purple","pink"],"door_color_assignment":["white","black"],"door_generator_assignment":[0,1],"goal":5,"start":1,"action_noise":0.15,"location_history":"[1,2,3,0,1,2,6,10,2,6,10,7,11,3,7,8,5]","action_history":"[0,0,0,0,1,1,1,1,1,1,0,1,1,1,0,0]","door_history":"[0,0,0,0,1,1,1,1,1,1,0,1,1,1,0,0]","location_rts":"[3033,331,659,801,763,155,187,222,72,161,228,592,104,143,258,175]","trial_type":"two-door-navigation","trial_index":30,"time_elapsed":499105,"internal_node_id":"0.0-2.0-28.0"},{"group":"dicyclic group of order 12","room_assignment":["red","grey","blue","ivory","orange","cyan","brown","yellow","olive","green","purple","pink"],"door_color_assignment":["white","black"],"door_generator_assignment":[0,1],"goal":9,"start":5,"action_noise":0.15,"location_history":"[5,10,7,11,3,7,8,5,10,7,8,0,4,9]","action_history":"[1,0,0,1,1,1,0,0,0,0,1,1,1]","door_history":"[1,0,0,1,1,1,0,0,0,0,1,1,1]","location_rts":"[379,1291,124,132,146,129,239,90,60,114,164,127,220]","trial_type":"two-door-navigation","trial_index":31,"time_elapsed":519738,"internal_node_id":"0.0-2.0-29.0"},{"group":"dicyclic group of order 12","room_assignment":["red","grey","blue","ivory","orange","cyan","brown","yellow","olive","green","purple","pink"],"door_color_assignment":["white","black"],"door_generator_assignment":[0,1],"goal":10,"start":9,"action_noise":0.15,"location_history":"[9,1,2,3,0,4,8,0,1,5,10]","action_history":"[1,0,0,0,1,1,1,1,0,0]","door_history":"[1,0,0,0,1,1,1,1,0,0]","location_rts":"[528,137,234,418,308,279,189,193,109,208]","trial_type":"two-door-navigation","trial_index":32,"time_elapsed":536511,"internal_node_id":"0.0-2.0-30.0"},{"group":"dicyclic group of order 12","room_assignment":["red","grey","blue","ivory","orange","cyan","brown","yellow","olive","green","purple","pink"],"door_color_assignment":["white","black"],"door_generator_assignment":[0,1],"goal":0,"start":10,"action_noise":0.15,"location_history":"[10,7,11,3,0]","action_history":"[1,1,0,0]","door_history":"[1,1,0,0]","location_rts":"[504,7,214,346]","trial_type":"two-door-navigation","trial_index":33,"time_elapsed":545367,"internal_node_id":"0.0-2.0-31.0"},{"group":"dicyclic group of order 12","room_assignment":["red","grey","blue","ivory","orange","cyan","brown","yellow","olive","green","purple","pink"],"door_color_assignment":["white","black"],"door_generator_assignment":[0,1],"goal":7,"start":0,"action_noise":0.15,"location_history":"[0,1,2,6,11,3,0,1,2,6,11,4,9,6,10,7]","action_history":"[0,0,1,1,1,0,0,1,1,0,0,0,0,1,1]","door_history":"[0,0,1,1,1,0,0,1,1,0,0,0,0,1,1]","location_rts":"[338,19,158,229,472,180,220,190,271,118,60,78,148,6,130]","trial_type":"two-door-navigation","trial_index":34,"time_elapsed":567527,"internal_node_id":"0.0-2.0-32.0"},{"group":"dicyclic group of order 12","room_assignment":["red","grey","blue","ivory","orange","cyan","brown","yellow","olive","green","purple","pink"],"door_color_assignment":["white","black"],"door_generator_assignment":[0,1],"goal":11,"start":7,"action_noise":0.15,"location_history":"[7,8,5,9,1,2,3,7,11]","action_history":"[0,0,0,1,1,1,1,1]","door_history":"[0,0,0,1,1,1,1,1]","location_rts":"[1018,28,196,262,194,235,234,211]","trial_type":"two-door-navigation","trial_index":35,"time_elapsed":581955,"internal_node_id":"0.0-2.0-33.0"},{"group":"dicyclic group of order 12","room_assignment":["red","grey","blue","ivory","orange","cyan","brown","yellow","olive","green","purple","pink"],"door_color_assignment":["white","black"],"door_generator_assignment":[0,1],"goal":2,"start":11,"action_noise":0.15,"location_history":"[11,3,7,11,4,8,0,4,9,1,5,9,1,2]","action_history":"[1,0,0,0,1,1,1,0,0,1,1,1,0]","door_history":"[1,0,0,0,1,1,1,0,0,1,1,1,0]","location_rts":"[926,295,170,88,192,160,117,72,91,1646,86,93,482]","trial_type":"two-door-navigation","trial_index":36,"time_elapsed":603807,"internal_node_id":"0.0-2.0-34.0"},{"view_history":"[{\"page_index\":0,\"viewing_time\":4072}]","rt":4073,"trial_type":"instructions","trial_index":37,"time_elapsed":608884,"internal_node_id":"0.0-3.0"},{"view_history":"[{\"page_index\":0,\"viewing_time\":2303},{\"page_index\":1,\"viewing_time\":7156}]","rt":9461,"trial_type":"instructions","trial_index":38,"time_elapsed":619348,"internal_node_id":"0.0-4.0"},{"group":"dicyclic group of order 12","fractal_assignment":["../images/ylw_pnk.png","../images/org_blu.png","../images/wht_red.png","../images/pnk_blu.png","../images/gry_blk.png","../images/cyn_red.png","../images/red_prp.png","../images/grn_red.png","../images/grn_prp.png","../images/ylw_slt.png","../images/grn_blu.png","../images/blu_wht.png"],"mutagen_generator_assignment":[1,0],"goal":7,"start":3,"action_noise":0.15,"location_history":"[3,0,4,8,0,1,2,6,11,4,8,0,1,2,3,7]","action_history":"[0,1,0,1,0,1,0,0,0,1,1,1,0,0,1]","mutagen_history":"[1,0,1,0,1,0,1,1,1,0,0,0,1,1,0]","location_rts":"[9959,710,847,535,949,1027,383,239,450,269,452,991,931,347,192]","trial_type":"fractal-mutation","trial_index":39,"time_elapsed":661956,"internal_node_id":"0.0-5.0-0.0"},{"group":"dicyclic group of order 12","fractal_assignment":["../images/ylw_pnk.png","../images/org_blu.png","../images/wht_red.png","../images/pnk_blu.png","../images/gry_blk.png","../images/cyn_red.png","../images/red_prp.png","../images/grn_red.png","../images/grn_prp.png","../images/ylw_slt.png","../images/grn_blu.png","../images/blu_wht.png"],"mutagen_generator_assignment":[1,0],"goal":5,"start":7,"action_noise":0.15,"location_history":"[7,8,5]","action_history":"[0,0]","mutagen_history":"[1,1]","location_rts":"[2843,1107]","trial_type":"fractal-mutation","trial_index":40,"time_elapsed":672283,"internal_node_id":"0.0-5.0-1.0"},{"group":"dicyclic group of order 12","fractal_assignment":["../images/ylw_pnk.png","../images/org_blu.png","../images/wht_red.png","../images/pnk_blu.png","../images/gry_blk.png","../images/cyn_red.png","../images/red_prp.png","../images/grn_red.png","../images/grn_prp.png","../images/ylw_slt.png","../images/grn_blu.png","../images/blu_wht.png"],"mutagen_generator_assignment":[1,0],"goal":0,"start":5,"action_noise":0.15,"location_history":"[5,10,7,8,5,10,7,11,3,7,8,5,10,2,6,10,7,8,0]","action_history":"[1,1,0,0,0,0,1,1,1,1,0,1,1,1,1,0,1,1]","mutagen_history":"[0,0,1,1,1,1,0,0,0,0,1,0,0,0,0,1,0,0]","location_rts":"[1658,744,768,329,501,786,305,238,246,767,579,263,428,654,484,420,201,94]","trial_type":"fractal-mutation","trial_index":41,"time_elapsed":709477,"internal_node_id":"0.0-5.0-2.0"},{"group":"dicyclic group of order 12","fractal_assignment":["../images/ylw_pnk.png","../images/org_blu.png","../images/wht_red.png","../images/pnk_blu.png","../images/gry_blk.png","../images/cyn_red.png","../images/red_prp.png","../images/grn_red.png","../images/grn_prp.png","../images/ylw_slt.png","../images/grn_blu.png","../images/blu_wht.png"],"mutagen_generator_assignment":[1,0],"goal":2,"start":0,"action_noise":0.15,"location_history":"[0,1,2]","action_history":"[0,0]","mutagen_history":"[1,1]","location_rts":"[1046,302]","trial_type":"fractal-mutation","trial_index":42,"time_elapsed":717327,"internal_node_id":"0.0-5.0-3.0"},{"group":"dicyclic group of order 12","fractal_assignment":["../images/ylw_pnk.png","../images/org_blu.png","../images/wht_red.png","../images/pnk_blu.png","../images/gry_blk.png","../images/cyn_red.png","../images/red_prp.png","../images/grn_red.png","../images/grn_prp.png","../images/ylw_slt.png","../images/grn_blu.png","../images/blu_wht.png"],"mutagen_generator_assignment":[1,0],"goal":10,"start":2,"action_noise":0.15,"location_history":"[2,3,7,11,3,0,1,5,9,1,2,6,10]","action_history":"[0,1,1,1,1,1,1,1,1,0,1,1]","mutagen_history":"[1,0,0,0,0,0,0,0,0,1,0,0]","location_rts":"[659,46,516,359,394,306,534,574,687,1810,1219,1649]","trial_type":"fractal-mutation","trial_index":43,"time_elapsed":745276,"internal_node_id":"0.0-5.0-4.0"},{"group":"dicyclic group of order 12","fractal_assignment":["../images/ylw_pnk.png","../images/org_blu.png","../images/wht_red.png","../images/pnk_blu.png","../images/gry_blk.png","../images/cyn_red.png","../images/red_prp.png","../images/grn_red.png","../images/grn_prp.png","../images/ylw_slt.png","../images/grn_blu.png","../images/blu_wht.png"],"mutagen_generator_assignment":[1,0],"goal":8,"start":10,"action_noise":0.15,"location_history":"[10,2,6,10,2,3,0,4,8]","action_history":"[0,1,1,1,0,1,1,1]","mutagen_history":"[1,0,0,0,1,0,0,0]","location_rts":"[4668,811,381,987,194,640,329,389]","trial_type":"fractal-mutation","trial_index":44,"time_elapsed":767764,"internal_node_id":"0.0-5.0-5.0"},{"group":"dicyclic group of order 12","fractal_assignment":["../images/ylw_pnk.png","../images/org_blu.png","../images/wht_red.png","../images/pnk_blu.png","../images/gry_blk.png","../images/cyn_red.png","../images/red_prp.png","../images/grn_red.png","../images/grn_prp.png","../images/ylw_slt.png","../images/grn_blu.png","../images/blu_wht.png"],"mutagen_generator_assignment":[1,0],"goal":11,"start":8,"action_noise":0.15,"location_history":"[8,5,10,7,8,5,9,1,5,10,7,11]","action_history":"[0,0,0,0,0,1,1,1,1,0,1]","mutagen_history":"[1,1,1,1,1,0,0,0,0,1,0]","location_rts":"[359,353,382,585,785,740,1378,714,380,539,257]","trial_type":"fractal-mutation","trial_index":45,"time_elapsed":793003,"internal_node_id":"0.0-5.0-6.0"},{"group":"dicyclic group of order 12","fractal_assignment":["../images/ylw_pnk.png","../images/org_blu.png","../images/wht_red.png","../images/pnk_blu.png","../images/gry_blk.png","../images/cyn_red.png","../images/red_prp.png","../images/grn_red.png","../images/grn_prp.png","../images/ylw_slt.png","../images/grn_blu.png","../images/blu_wht.png"],"mutagen_generator_assignment":[1,0],"goal":6,"start":11,"action_noise":0.15,"location_history":"[11,4,9,1,5,10,2,6]","action_history":"[0,1,1,1,0,1,1]","mutagen_history":"[1,0,0,0,1,0,0]","location_rts":"[420,0,131,582,507,459,431]","trial_type":"fractal-mutation","trial_index":46,"time_elapsed":808352,"internal_node_id":"0.0-5.0-7.0"},{"group":"dicyclic group of order 12","fractal_assignment":["../images/ylw_pnk.png","../images/org_blu.png","../images/wht_red.png","../images/pnk_blu.png","../images/gry_blk.png","../images/cyn_red.png","../images/red_prp.png","../images/grn_red.png","../images/grn_prp.png","../images/ylw_slt.png","../images/grn_blu.png","../images/blu_wht.png"],"mutagen_generator_assignment":[1,0],"goal":4,"start":6,"action_noise":0.15,"location_history":"[6,10,2,6,10,2,3,0,1,2,6,11,3,7,8,0,1,2,6,10,7,8,0,1,2,6,11,4]","action_history":"[1,1,1,1,1,0,0,0,0,1,0,1,1,0,1,0,1,1,1,0,0,1,0,0,0,0,0]","mutagen_history":"[0,0,0,0,0,1,1,1,1,0,1,0,0,1,0,1,0,0,0,1,1,0,1,1,1,1,1]","location_rts":"[313,227,280,368,332,125,321,446,394,484,511,644,749,770,530,702,436,393,474,481,799,757,864,260,395,619,703]","trial_type":"fractal-mutation","trial_index":47,"time_elapsed":862985,"internal_node_id":"0.0-5.0-8.0"},{"group":"dicyclic group of order 12","fractal_assignment":["../images/ylw_pnk.png","../images/org_blu.png","../images/wht_red.png","../images/pnk_blu.png","../images/gry_blk.png","../images/cyn_red.png","../images/red_prp.png","../images/grn_red.png","../images/grn_prp.png","../images/ylw_slt.png","../images/grn_blu.png","../images/blu_wht.png"],"mutagen_generator_assignment":[1,0],"goal":1,"start":4,"action_noise":0.15,"location_history":"[4,8,5,9,6,10,2,3,7,11,3,7,11,4,9,6,11,3,0,4,8,0,1]","action_history":"[1,0,1,1,1,1,0,1,0,1,1,1,0,1,0,1,0,0,1,1,1,1]","mutagen_history":"[0,1,0,0,0,0,1,0,1,0,0,0,1,0,1,0,1,1,0,0,0,0]","location_rts":"[551,1687,1028,332,528,436,234,584,731,202,246,466,106,68,1542,197,314,104,973,290,485,944]","trial_type":"fractal-mutation","trial_index":48,"time_elapsed":908246,"internal_node_id":"0.0-5.0-9.0"},{"group":"dicyclic group of order 12","fractal_assignment":["../images/ylw_pnk.png","../images/org_blu.png","../images/wht_red.png","../images/pnk_blu.png","../images/gry_blk.png","../images/cyn_red.png","../images/red_prp.png","../images/grn_red.png","../images/grn_prp.png","../images/ylw_slt.png","../images/grn_blu.png","../images/blu_wht.png"],"mutagen_generator_assignment":[1,0],"goal":9,"start":1,"action_noise":0.15,"location_history":"[1,2,6,10,2,6,11,4,8,5,9]","action_history":"[0,1,1,0,1,1,1,1,0,1]","mutagen_history":"[1,0,0,1,0,0,0,0,1,0]","location_rts":"[306,204,191,83,173,147,217,292,19,437]","trial_type":"fractal-mutation","trial_index":49,"time_elapsed":927338,"internal_node_id":"0.0-5.0-10.0"},{"group":"dicyclic group of order 12","fractal_assignment":["../images/ylw_pnk.png","../images/org_blu.png","../images/wht_red.png","../images/pnk_blu.png","../images/gry_blk.png","../images/cyn_red.png","../images/red_prp.png","../images/grn_red.png","../images/grn_prp.png","../images/ylw_slt.png","../images/grn_blu.png","../images/blu_wht.png"],"mutagen_generator_assignment":[1,0],"goal":10,"start":9,"action_noise":0.15,"location_history":"[9,6,10]","action_history":"[0,1]","mutagen_history":"[1,0]","location_rts":"[356,748]","trial_type":"fractal-mutation","trial_index":50,"time_elapsed":934674,"internal_node_id":"0.0-5.0-11.0"},{"group":"dicyclic group of order 12","fractal_assignment":["../images/ylw_pnk.png","../images/org_blu.png","../images/wht_red.png","../images/pnk_blu.png","../images/gry_blk.png","../images/cyn_red.png","../images/red_prp.png","../images/grn_red.png","../images/grn_prp.png","../images/ylw_slt.png","../images/grn_blu.png","../images/blu_wht.png"],"mutagen_generator_assignment":[1,0],"goal":2,"start":10,"action_noise":0.15,"location_history":"[10,7,8,5,10,2]","action_history":"[0,0,0,0,1]","mutagen_history":"[1,1,1,1,0]","location_rts":"[1308,704,413,397,249]","trial_type":"fractal-mutation","trial_index":51,"time_elapsed":948338,"internal_node_id":"0.0-5.0-12.0"},{"group":"dicyclic group of order 12","fractal_assignment":["../images/ylw_pnk.png","../images/org_blu.png","../images/wht_red.png","../images/pnk_blu.png","../images/gry_blk.png","../images/cyn_red.png","../images/red_prp.png","../images/grn_red.png","../images/grn_prp.png","../images/ylw_slt.png","../images/grn_blu.png","../images/blu_wht.png"],"mutagen_generator_assignment":[1,0],"goal":0,"start":2,"action_noise":0.15,"location_history":"[2,3,7,11,4,8,0]","action_history":"[0,1,1,0,1,1]","mutagen_history":"[1,0,0,1,0,0]","location_rts":"[1440,320,329,4,592,465]","trial_type":"fractal-mutation","trial_index":52,"time_elapsed":963055,"internal_node_id":"0.0-5.0-13.0"},{"group":"dicyclic group of order 12","fractal_assignment":["../images/ylw_pnk.png","../images/org_blu.png","../images/wht_red.png","../images/pnk_blu.png","../images/gry_blk.png","../images/cyn_red.png","../images/red_prp.png","../images/grn_red.png","../images/grn_prp.png","../images/ylw_slt.png","../images/grn_blu.png","../images/blu_wht.png"],"mutagen_generator_assignment":[1,0],"goal":9,"start":0,"action_noise":0.15,"location_history":"[0,1,5,9]","action_history":"[0,1,1]","mutagen_history":"[1,0,0]","location_rts":"[564,229,160]","trial_type":"fractal-mutation","trial_index":53,"time_elapsed":971520,"internal_node_id":"0.0-5.0-14.0"},{"group":"dicyclic group of order 12","fractal_assignment":["../images/ylw_pnk.png","../images/org_blu.png","../images/wht_red.png","../images/pnk_blu.png","../images/gry_blk.png","../images/cyn_red.png","../images/red_prp.png","../images/grn_red.png","../images/grn_prp.png","../images/ylw_slt.png","../images/grn_blu.png","../images/blu_wht.png"],"mutagen_generator_assignment":[1,0],"goal":8,"start":9,"action_noise":0.15,"location_history":"[9,1,5,10,2,6,10,2,6,10,7,8]","action_history":"[0,1,0,1,1,1,1,0,1,0,0]","mutagen_history":"[1,0,1,0,0,0,0,1,0,1,1]","location_rts":"[1886,447,1057,253,221,475,200,219,271,197,0]","trial_type":"fractal-mutation","trial_index":54,"time_elapsed":995304,"internal_node_id":"0.0-5.0-15.0"},{"group":"dicyclic group of order 12","fractal_assignment":["../images/ylw_pnk.png","../images/org_blu.png","../images/wht_red.png","../images/pnk_blu.png","../images/gry_blk.png","../images/cyn_red.png","../images/red_prp.png","../images/grn_red.png","../images/grn_prp.png","../images/ylw_slt.png","../images/grn_blu.png","../images/blu_wht.png"],"mutagen_generator_assignment":[1,0],"goal":6,"start":8,"action_noise":0.15,"location_history":"[8,0,1,5,10,7,11,3,0,1,2,6]","action_history":"[1,0,1,0,0,1,1,0,0,0,1]","mutagen_history":"[0,1,0,1,1,0,0,1,1,1,0]","location_rts":"[770,196,68,58,472,82,224,698,2321,1277,479]","trial_type":"fractal-mutation","trial_index":55,"time_elapsed":1020709,"internal_node_id":"0.0-5.0-16.0"},{"group":"dicyclic group of order 12","fractal_assignment":["../images/ylw_pnk.png","../images/org_blu.png","../images/wht_red.png","../images/pnk_blu.png","../images/gry_blk.png","../images/cyn_red.png","../images/red_prp.png","../images/grn_red.png","../images/grn_prp.png","../images/ylw_slt.png","../images/grn_blu.png","../images/blu_wht.png"],"mutagen_generator_assignment":[1,0],"goal":1,"start":6,"action_noise":0.15,"location_history":"[6,11,3,7,11,3,0,4,8,0,4,9,1]","action_history":"[0,1,1,1,1,0,0,1,1,1,0,1]","mutagen_history":"[1,0,0,0,0,1,1,0,0,0,1,0]","location_rts":"[5374,363,318,234,385,61,878,785,393,389,148,196]","trial_type":"fractal-mutation","trial_index":56,"time_elapsed":1049904,"internal_node_id":"0.0-5.0-17.0"},{"group":"dicyclic group of order 12","fractal_assignment":["../images/ylw_pnk.png","../images/org_blu.png","../images/wht_red.png","../images/pnk_blu.png","../images/gry_blk.png","../images/cyn_red.png","../images/red_prp.png","../images/grn_red.png","../images/grn_prp.png","../images/ylw_slt.png","../images/grn_blu.png","../images/blu_wht.png"],"mutagen_generator_assignment":[1,0],"goal":4,"start":1,"action_noise":0.15,"location_history":"[1,5,9,1,2,3,0,4]","action_history":"[1,1,1,1,0,0,1]","mutagen_history":"[0,0,0,0,1,1,0]","location_rts":"[606,338,299,299,1049,873,236]","trial_type":"fractal-mutation","trial_index":57,"time_elapsed":1066556,"internal_node_id":"0.0-5.0-18.0"},{"group":"dicyclic group of order 12","fractal_assignment":["../images/ylw_pnk.png","../images/org_blu.png","../images/wht_red.png","../images/pnk_blu.png","../images/gry_blk.png","../images/cyn_red.png","../images/red_prp.png","../images/grn_red.png","../images/grn_prp.png","../images/ylw_slt.png","../images/grn_blu.png","../images/blu_wht.png"],"mutagen_generator_assignment":[1,0],"goal":11,"start":4,"action_noise":0.15,"location_history":"[4,9,1,5,10,2,6,10,2,6,10,2,3,0,4,8,5,9,1,5,10,2,6,11]","action_history":"[0,1,1,0,1,1,1,1,1,1,1,0,0,1,1,0,1,1,1,0,1,1,0]","mutagen_history":"[1,0,0,1,0,0,0,0,0,0,0,1,1,0,0,1,0,0,0,1,0,0,1]","location_rts":"[1156,975,903,715,1283,286,375,429,723,626,511,247,487,382,270,44,143,1661,332,649,719,426,740]","trial_type":"fractal-mutation","trial_index":58,"time_elapsed":1114919,"internal_node_id":"0.0-5.0-19.0"},{"group":"dicyclic group of order 12","fractal_assignment":["../images/ylw_pnk.png","../images/org_blu.png","../images/wht_red.png","../images/pnk_blu.png","../images/gry_blk.png","../images/cyn_red.png","../images/red_prp.png","../images/grn_red.png","../images/grn_prp.png","../images/ylw_slt.png","../images/grn_blu.png","../images/blu_wht.png"],"mutagen_generator_assignment":[1,0],"goal":3,"start":11,"action_noise":0.15,"location_history":"[11,3]","action_history":"[1]","mutagen_history":"[0]","location_rts":"[353]","trial_type":"fractal-mutation","trial_index":59,"time_elapsed":1120037,"internal_node_id":"0.0-5.0-20.0"},{"group":"dicyclic group of order 12","fractal_assignment":["../images/ylw_pnk.png","../images/org_blu.png","../images/wht_red.png","../images/pnk_blu.png","../images/gry_blk.png","../images/cyn_red.png","../images/red_prp.png","../images/grn_red.png","../images/grn_prp.png","../images/ylw_slt.png","../images/grn_blu.png","../images/blu_wht.png"],"mutagen_generator_assignment":[1,0],"goal":5,"start":3,"action_noise":0.15,"location_history":"[3,0,4,9,1,5]","action_history":"[0,1,1,0,1]","mutagen_history":"[1,0,0,1,0]","location_rts":"[887,68,272,689,242]","trial_type":"fractal-mutation","trial_index":60,"time_elapsed":1132470,"internal_node_id":"0.0-5.0-21.0"},{"group":"dicyclic group of order 12","fractal_assignment":["../images/ylw_pnk.png","../images/org_blu.png","../images/wht_red.png","../images/pnk_blu.png","../images/gry_blk.png","../images/cyn_red.png","../images/red_prp.png","../images/grn_red.png","../images/grn_prp.png","../images/ylw_slt.png","../images/grn_blu.png","../images/blu_wht.png"],"mutagen_generator_assignment":[1,0],"goal":7,"start":5,"action_noise":0.15,"location_history":"[5,9,1,2,6,11,4,8,5,9,1,2,3,7]","action_history":"[1,1,0,1,0,0,1,0,1,1,0,0,1]","mutagen_history":"[0,0,1,0,1,1,0,1,0,0,1,1,0]","location_rts":"[1270,449,242,424,137,453,62,577,251,252,461,309,182]","trial_type":"fractal-mutation","trial_index":61,"time_elapsed":1158711,"internal_node_id":"0.0-5.0-22.0"},{"group":"dicyclic group of order 12","fractal_assignment":["../images/ylw_pnk.png","../images/org_blu.png","../images/wht_red.png","../images/pnk_blu.png","../images/gry_blk.png","../images/cyn_red.png","../images/red_prp.png","../images/grn_red.png","../images/grn_prp.png","../images/ylw_slt.png","../images/grn_blu.png","../images/blu_wht.png"],"mutagen_generator_assignment":[1,0],"goal":3,"start":7,"action_noise":0.15,"location_history":"[7,8,0,4,9,1,5,9,6,11,4,9,1,5,10,7,11,3]","action_history":"[0,1,0,0,1,1,1,0,1,0,0,1,1,1,0,1,1]","mutagen_history":"[1,0,1,1,0,0,0,1,0,1,1,0,0,0,1,0,0]","location_rts":"[345,224,225,62,399,336,355,344,225,68,141,66,805,217,242,349,1577]","trial_type":"fractal-mutation","trial_index":62,"time_elapsed":1191478,"internal_node_id":"0.0-5.0-23.0"},{"group":"dicyclic group of order 12","fractal_assignment":["../images/ylw_pnk.png","../images/org_blu.png","../images/wht_red.png","../images/pnk_blu.png","../images/gry_blk.png","../images/cyn_red.png","../images/red_prp.png","../images/grn_red.png","../images/grn_prp.png","../images/ylw_slt.png","../images/grn_blu.png","../images/blu_wht.png"],"mutagen_generator_assignment":[1,0],"goal":4,"start":3,"action_noise":0.15,"location_history":"[3,0,4]","action_history":"[1,0]","mutagen_history":"[0,1]","location_rts":"[306,282]","trial_type":"fractal-mutation","trial_index":63,"time_elapsed":1198256,"internal_node_id":"0.0-5.0-24.0"},{"group":"dicyclic group of order 12","fractal_assignment":["../images/ylw_pnk.png","../images/org_blu.png","../images/wht_red.png","../images/pnk_blu.png","../images/gry_blk.png","../images/cyn_red.png","../images/red_prp.png","../images/grn_red.png","../images/grn_prp.png","../images/ylw_slt.png","../images/grn_blu.png","../images/blu_wht.png"],"mutagen_generator_assignment":[1,0],"goal":8,"start":4,"action_noise":0.15,"location_history":"[4,9,1,2,6,10,7,8]","action_history":"[0,1,1,1,1,0,1]","mutagen_history":"[1,0,0,0,0,1,0]","location_rts":"[1816,614,536,253,511,83,442]","trial_type":"fractal-mutation","trial_index":64,"time_elapsed":1215378,"internal_node_id":"0.0-5.0-25.0"},{"group":"dicyclic group of order 12","fractal_assignment":["../images/ylw_pnk.png","../images/org_blu.png","../images/wht_red.png","../images/pnk_blu.png","../images/gry_blk.png","../images/cyn_red.png","../images/red_prp.png","../images/grn_red.png","../images/grn_prp.png","../images/ylw_slt.png","../images/grn_blu.png","../images/blu_wht.png"],"mutagen_generator_assignment":[1,0],"goal":6,"start":8,"action_noise":0.15,"location_history":"[8,5,9,1,5,10,2,6]","action_history":"[0,1,1,1,0,1,1]","mutagen_history":"[1,0,0,0,1,0,0]","location_rts":"[3707,686,431,481,109,886,336]","trial_type":"fractal-mutation","trial_index":65,"time_elapsed":1234918,"internal_node_id":"0.0-5.0-26.0"},{"group":"dicyclic group of order 12","fractal_assignment":["../images/ylw_pnk.png","../images/org_blu.png","../images/wht_red.png","../images/pnk_blu.png","../images/gry_blk.png","../images/cyn_red.png","../images/red_prp.png","../images/grn_red.png","../images/grn_prp.png","../images/ylw_slt.png","../images/grn_blu.png","../images/blu_wht.png"],"mutagen_generator_assignment":[1,0],"goal":1,"start":6,"action_noise":0.15,"location_history":"[6,10,7,8,5,9,1]","action_history":"[1,0,0,0,0,1]","mutagen_history":"[0,1,1,1,1,0]","location_rts":"[2623,0,173,291,376,213]","trial_type":"fractal-mutation","trial_index":66,"time_elapsed":1250380,"internal_node_id":"0.0-5.0-27.0"},{"group":"dicyclic group of order 12","fractal_assignment":["../images/ylw_pnk.png","../images/org_blu.png","../images/wht_red.png","../images/pnk_blu.png","../images/gry_blk.png","../images/cyn_red.png","../images/red_prp.png","../images/grn_red.png","../images/grn_prp.png","../images/ylw_slt.png","../images/grn_blu.png","../images/blu_wht.png"],"mutagen_generator_assignment":[1,0],"goal":5,"start":1,"action_noise":0.15,"location_history":"[1,2,3,7,11,3,0,4,8,0,4,9,6,10,2,3,7,8,0,4,9,1,2,6,10,2,3,7,11,4,9,6,10,2,3,7,11,4,8,0,4,8,5]","action_history":"[0,0,1,1,1,1,1,0,1,1,0,0,1,1,1,1,0,1,1,0,1,1,1,1,1,0,1,1,0,0,0,1,1,0,1,0,0,1,1,1,1,0]","mutagen_history":"[1,1,0,0,0,0,0,1,0,0,1,1,0,0,0,0,1,0,0,1,0,0,0,0,0,1,0,0,1,1,1,0,0,1,0,1,1,0,0,0,0,1]","location_rts":"[279,429,393,393,424,651,332,748,989,288,112,439,726,396,340,1169,718,2431,918,82,81,898,105,400,573,1017,334,392,1069,940,302,435,332,226,70,110,232,16,399,355,139,73]","trial_type":"fractal-mutation","trial_index":67,"time_elapsed":1331226,"internal_node_id":"0.0-5.0-28.0"},{"group":"dicyclic group of order 12","fractal_assignment":["../images/ylw_pnk.png","../images/org_blu.png","../images/wht_red.png","../images/pnk_blu.png","../images/gry_blk.png","../images/cyn_red.png","../images/red_prp.png","../images/grn_red.png","../images/grn_prp.png","../images/ylw_slt.png","../images/grn_blu.png","../images/blu_wht.png"],"mutagen_generator_assignment":[1,0],"goal":9,"start":5,"action_noise":0.15,"location_history":"[5,10,7,8,5,9]","action_history":"[1,0,0,0,1]","mutagen_history":"[0,1,1,1,0]","location_rts":"[5035,1736,934,960,291]","trial_type":"fractal-mutation","trial_index":68,"time_elapsed":1350667,"internal_node_id":"0.0-5.0-29.0"},{"group":"dicyclic group of order 12","fractal_assignment":["../images/ylw_pnk.png","../images/org_blu.png","../images/wht_red.png","../images/pnk_blu.png","../images/gry_blk.png","../images/cyn_red.png","../images/red_prp.png","../images/grn_red.png","../images/grn_prp.png","../images/ylw_slt.png","../images/grn_blu.png","../images/blu_wht.png"],"mutagen_generator_assignment":[1,0],"goal":10,"start":9,"action_noise":0.15,"location_history":"[9,6,10]","action_history":"[0,1]","mutagen_history":"[1,0]","location_rts":"[1175,95]","trial_type":"fractal-mutation","trial_index":69,"time_elapsed":1358204,"internal_node_id":"0.0-5.0-30.0"},{"group":"dicyclic group of order 12","fractal_assignment":["../images/ylw_pnk.png","../images/org_blu.png","../images/wht_red.png","../images/pnk_blu.png","../images/gry_blk.png","../images/cyn_red.png","../images/red_prp.png","../images/grn_red.png","../images/grn_prp.png","../images/ylw_slt.png","../images/grn_blu.png","../images/blu_wht.png"],"mutagen_generator_assignment":[1,0],"goal":0,"start":10,"action_noise":0.15,"location_history":"[10,7,11,3,0]","action_history":"[0,1,1,0]","mutagen_history":"[1,0,0,1]","location_rts":"[1283,144,454,82]","trial_type":"fractal-mutation","trial_index":70,"time_elapsed":1369175,"internal_node_id":"0.0-5.0-31.0"},{"group":"dicyclic group of order 12","fractal_assignment":["../images/ylw_pnk.png","../images/org_blu.png","../images/wht_red.png","../images/pnk_blu.png","../images/gry_blk.png","../images/cyn_red.png","../images/red_prp.png","../images/grn_red.png","../images/grn_prp.png","../images/ylw_slt.png","../images/grn_blu.png","../images/blu_wht.png"],"mutagen_generator_assignment":[1,0],"goal":7,"start":0,"action_noise":0.15,"location_history":"[0,4,8,5,10,7]","action_history":"[1,0,0,0,0]","mutagen_history":"[0,1,1,1,1]","location_rts":"[2071,288,712,304,400]","trial_type":"fractal-mutation","trial_index":71,"time_elapsed":1383629,"internal_node_id":"0.0-5.0-32.0"},{"group":"dicyclic group of order 12","fractal_assignment":["../images/ylw_pnk.png","../images/org_blu.png","../images/wht_red.png","../images/pnk_blu.png","../images/gry_blk.png","../images/cyn_red.png","../images/red_prp.png","../images/grn_red.png","../images/grn_prp.png","../images/ylw_slt.png","../images/grn_blu.png","../images/blu_wht.png"],"mutagen_generator_assignment":[1,0],"goal":11,"start":7,"action_noise":0.15,"location_history":"[7,11]","action_history":"[1]","mutagen_history":"[0]","location_rts":"[1269]","trial_type":"fractal-mutation","trial_index":72,"time_elapsed":1389662,"internal_node_id":"0.0-5.0-33.0"},{"group":"dicyclic group of order 12","fractal_assignment":["../images/ylw_pnk.png","../images/org_blu.png","../images/wht_red.png","../images/pnk_blu.png","../images/gry_blk.png","../images/cyn_red.png","../images/red_prp.png","../images/grn_red.png","../images/grn_prp.png","../images/ylw_slt.png","../images/grn_blu.png","../images/blu_wht.png"],"mutagen_generator_assignment":[1,0],"goal":2,"start":11,"action_noise":0.15,"location_history":"[11,4,9,6,10,2]","action_history":"[0,0,0,1,1]","mutagen_history":"[1,1,1,0,0]","location_rts":"[1042,491,426,447,539]","trial_type":"fractal-mutation","trial_index":73,"time_elapsed":1402892,"internal_node_id":"0.0-5.0-34.0"},{"view_history":"[{\"page_index\":0,\"viewing_time\":4264}]","rt":4265,"trial_type":"instructions","trial_index":74,"time_elapsed":1408161,"internal_node_id":"0.0-6.0"},{"rt":28578,"responses":"{\"Q0\":\"patterns/ memory\"}","trial_type":"survey-text","trial_index":75,"time_elapsed":1437757,"internal_node_id":"0.0-7.0-0.0"},{"rt":19248,"responses":"{\"Q0\":\"how the acid/gamma rays changed the shape\"}","trial_type":"survey-text","trial_index":76,"time_elapsed":1458013,"internal_node_id":"0.0-7.0-1.0"},{"rt":9607,"responses":"{\"Q0\":\"2\"}","trial_type":"survey-likert","trial_index":77,"time_elapsed":1468634,"internal_node_id":"0.0-7.0-2.0"},{"rt":54196,"responses":"{\"Q0\":\"making one choice would lead to the same choice in most cases. Also, doing the same thing causes the patterns to repeat themselves\"}","trial_type":"survey-text","trial_index":78,"time_elapsed":1523838,"internal_node_id":"0.0-7.0-3.0"},{"rt":7191,"responses":"{\"Q0\":\"No\"}","trial_type":"survey-multi-choice","trial_index":79,"time_elapsed":1532047,"internal_node_id":"0.0-7.0-4.0"},{"rt":6483,"responses":"{\"Q0\":\"Did not notice\"}","trial_type":"survey-multi-choice","trial_index":80,"time_elapsed":1539542,"internal_node_id":"0.0-7.0-5.0"},{"rt":5485,"responses":"{\"Q0\":\"\"}","trial_type":"survey-text","trial_index":81,"time_elapsed":1546034,"internal_node_id":"0.0-7.0-6.0"},{"rt":10542,"responses":"{\"Q0\":\"1\"}","trial_type":"survey-likert","trial_index":82,"time_elapsed":1557584,"internal_node_id":"0.0-7.0-7.0"},{"rt":11406,"responses":"{\"Q0\":\"Different structure\"}","trial_type":"survey-multi-choice","trial_index":83,"time_elapsed":1570000,"internal_node_id":"0.0-7.0-8.0"},{"rt":34547,"responses":"{\"Q0\":\"black door = acid, white door = ray\",\"Q1\":\"Slightly confident\"}","trial_type":"survey-multi-choice","trial_index":84,"time_elapsed":1605568,"internal_node_id":"0.0-7.0-9.0"},{"rt":13798,"responses":"{\"Q0\":\"35-45\",\"Q1\":\"Some college\",\"Q2\":\"Male\",\"Q3\":\"White\"}","trial_type":"survey-multi-choice","trial_index":85,"time_elapsed":1620401,"internal_node_id":"0.0-8.0"},{"rt":21323,"responses":"{\"Q0\":\"it was interesting. I wish I did better.\"}","trial_type":"survey-text","trial_index":86,"time_elapsed":1642733,"internal_node_id":"0.0-9.0"}]