[{"view_history":"[{\"page_index\":0,\"viewing_time\":5151},{\"page_index\":1,\"viewing_time\":10303}]","rt":15454,"trial_type":"instructions","trial_index":0,"time_elapsed":15455,"internal_node_id":"0.0-0.0"},{"view_history":"[{\"page_index\":0,\"viewing_time\":303829},{\"page_index\":1,\"viewing_time\":25783}]","rt":329612,"trial_type":"instructions","trial_index":1,"time_elapsed":346068,"internal_node_id":"0.0-1.0"},{"group":"dicyclic group of order 12","room_assignment":["ivory","grey","green","olive","purple","pink","orange","red","cyan","yellow","brown","blue"],"door_color_assignment":["white","black"],"door_generator_assignment":[0,1],"goal":7,"start":3,"action_noise":0.15,"location_history":"[3,7]","action_history":"[0]","door_history":"[0]","location_rts":"[20628]","trial_type":"two-door-navigation","trial_index":2,"time_elapsed":371222,"internal_node_id":"0.0-2.0-0.0"},{"group":"dicyclic group of order 12","room_assignment":["ivory","grey","green","olive","purple","pink","orange","red","cyan","yellow","brown","blue"],"door_color_assignment":["white","black"],"door_generator_assignment":[0,1],"goal":5,"start":7,"action_noise":0.15,"location_history":"[7,8,5]","action_history":"[0,0]","door_history":"[0,0]","location_rts":"[33026,378]","trial_type":"two-door-navigation","trial_index":3,"time_elapsed":410171,"internal_node_id":"0.0-2.0-1.0"},{"group":"dicyclic group of order 12","room_assignment":["ivory","grey","green","olive","purple","pink","orange","red","cyan","yellow","brown","blue"],"door_color_assignment":["white","black"],"door_generator_assignment":[0,1],"goal":0,"start":5,"action_noise":0.15,"location_history":"[5,10,2,6,11,4,9,6,11,3,0]","action_history":"[0,0,1,0,0,1,0,0,1,0]","door_history":"[0,0,1,0,0,1,0,0,1,0]","location_rts":"[6764,1274,1523,2819,883,9171,6043,2395,1179,2411]","trial_type":"two-door-navigation","trial_index":4,"time_elapsed":458344,"internal_node_id":"0.0-2.0-2.0"},{"group":"dicyclic group of order 12","room_assignment":["ivory","grey","green","olive","purple","pink","orange","red","cyan","yellow","brown","blue"],"door_color_assignment":["white","black"],"door_generator_assignment":[0,1],"goal":2,"start":0,"action_noise":0.15,"location_history":"[0,4,9,1,5,10,7,8,5,9,1,5,9,6,10,2]","action_history":"[0,0,1,1,0,0,0,0,1,1,1,1,0,1,1]","door_history":"[0,0,1,1,0,0,0,0,1,1,1,1,0,1,1]","location_rts":"[5948,2771,6491,882,1739,362,931,955,2875,3355,2811,3083,516,1571,858]","trial_type":"two-door-navigation","trial_index":5,"time_elapsed":512309,"internal_node_id":"0.0-2.0-3.0"},{"group":"dicyclic group of order 12","room_assignment":["ivory","grey","green","olive","purple","pink","orange","red","cyan","yellow","brown","blue"],"door_color_assignment":["white","black"],"door_generator_assignment":[0,1],"goal":10,"start":2,"action_noise":0.15,"location_history":"[2,6,10]","action_history":"[1,1]","door_history":"[1,1]","location_rts":"[7372,1707]","trial_type":"two-door-navigation","trial_index":6,"time_elapsed":526932,"internal_node_id":"0.0-2.0-4.0"},{"group":"dicyclic group of order 12","room_assignment":["ivory","grey","green","olive","purple","pink","orange","red","cyan","yellow","brown","blue"],"door_color_assignment":["white","black"],"door_generator_assignment":[0,1],"goal":8,"start":10,"action_noise":0.15,"location_history":"[10,7,8]","action_history":"[0,0]","door_history":"[0,0]","location_rts":"[2332,764]","trial_type":"two-door-navigation","trial_index":7,"time_elapsed":535573,"internal_node_id":"0.0-2.0-5.0"},{"group":"dicyclic group of order 12","room_assignment":["ivory","grey","green","olive","purple","pink","orange","red","cyan","yellow","brown","blue"],"door_color_assignment":["white","black"],"door_generator_assignment":[0,1],"goal":11,"start":8,"action_noise":0.15,"location_history":"[8,5,9,6,11]","action_history":"[0,1,0,0]","door_history":"[0,1,0,0]","location_rts":"[3347,1572,4955,907]","trial_type":"two-door-navigation","trial_index":8,"time_elapsed":553938,"internal_node_id":"0.0-2.0-6.0"},{"group":"dicyclic group of order 12","room_assignment":["ivory","grey","green","olive","purple","pink","orange","red","cyan","yellow","brown","blue"],"door_color_assignment":["white","black"],"door_generator_assignment":[0,1],"goal":6,"start":11,"action_noise":0.15,"location_history":"[11,4,9,6]","action_history":"[0,0,0]","door_history":"[0,0,0]","location_rts":"[7933,234,971]","trial_type":"two-door-navigation","trial_index":9,"time_elapsed":569642,"internal_node_id":"0.0-2.0-7.0"},{"group":"dicyclic group of order 12","room_assignment":["ivory","grey","green","olive","purple","pink","orange","red","cyan","yellow","brown","blue"],"door_color_assignment":["white","black"],"door_generator_assignment":[0,1],"goal":4,"start":6,"action_noise":0.15,"location_history":"[6,11,4]","action_history":"[0,0]","door_history":"[0,0]","location_rts":"[6084,314]","trial_type":"two-door-navigation","trial_index":10,"time_elapsed":581585,"internal_node_id":"0.0-2.0-8.0"},{"group":"dicyclic group of order 12","room_assignment":["ivory","grey","green","olive","purple","pink","orange","red","cyan","yellow","brown","blue"],"door_color_assignment":["white","black"],"door_generator_assignment":[0,1],"goal":1,"start":4,"action_noise":0.15,"location_history":"[4,8,0,1]","action_history":"[1,1,1]","door_history":"[1,1,1]","location_rts":"[11100,6556,924]","trial_type":"two-door-navigation","trial_index":11,"time_elapsed":606728,"internal_node_id":"0.0-2.0-9.0"},{"group":"dicyclic group of order 12","room_assignment":["ivory","grey","green","olive","purple","pink","orange","red","cyan","yellow","brown","blue"],"door_color_assignment":["white","black"],"door_generator_assignment":[0,1],"goal":9,"start":1,"action_noise":0.15,"location_history":"[1,2,6,11,4,9]","action_history":"[0,0,0,0,0]","door_history":"[0,0,0,0,0]","location_rts":"[5508,4986,4140,3995,1426]","trial_type":"two-door-navigation","trial_index":12,"time_elapsed":635389,"internal_node_id":"0.0-2.0-10.0"},{"group":"dicyclic group of order 12","room_assignment":["ivory","grey","green","olive","purple","pink","orange","red","cyan","yellow","brown","blue"],"door_color_assignment":["white","black"],"door_generator_assignment":[0,1],"goal":10,"start":9,"action_noise":0.15,"location_history":"[9,6,10]","action_history":"[0,1]","door_history":"[0,1]","location_rts":"[11213,1530]","trial_type":"two-door-navigation","trial_index":13,"time_elapsed":653677,"internal_node_id":"0.0-2.0-11.0"},{"group":"dicyclic group of order 12","room_assignment":["ivory","grey","green","olive","purple","pink","orange","red","cyan","yellow","brown","blue"],"door_color_assignment":["white","black"],"door_generator_assignment":[0,1],"goal":2,"start":10,"action_noise":0.15,"location_history":"[10,7,11,4,9,1,2]","action_history":"[1,0,0,0,1,0]","door_history":"[1,0,0,0,1,0]","location_rts":"[5788,8906,1164,1298,916,508]","trial_type":"two-door-navigation","trial_index":14,"time_elapsed":681884,"internal_node_id":"0.0-2.0-12.0"},{"group":"dicyclic group of order 12","room_assignment":["ivory","grey","green","olive","purple","pink","orange","red","cyan","yellow","brown","blue"],"door_color_assignment":["white","black"],"door_generator_assignment":[0,1],"goal":0,"start":2,"action_noise":0.15,"location_history":"[2,6,10,2,6,10,7,8,0]","action_history":"[1,1,1,1,1,0,0,1]","door_history":"[1,1,1,1,1,0,0,1]","location_rts":"[16027,4490,7843,1163,5739,2132,490,2475]","trial_type":"two-door-navigation","trial_index":15,"time_elapsed":733913,"internal_node_id":"0.0-2.0-13.0"},{"group":"dicyclic group of order 12","room_assignment":["ivory","grey","green","olive","purple","pink","orange","red","cyan","yellow","brown","blue"],"door_color_assignment":["white","black"],"door_generator_assignment":[0,1],"goal":9,"start":0,"action_noise":0.15,"location_history":"[0,4,9]","action_history":"[1,1]","door_history":"[1,1]","location_rts":"[10467,867]","trial_type":"two-door-navigation","trial_index":16,"time_elapsed":750792,"internal_node_id":"0.0-2.0-14.0"},{"group":"dicyclic group of order 12","room_assignment":["ivory","grey","green","olive","purple","pink","orange","red","cyan","yellow","brown","blue"],"door_color_assignment":["white","black"],"door_generator_assignment":[0,1],"goal":8,"start":9,"action_noise":0.15,"location_history":"[9,6,10,7,11,4,8]","action_history":"[0,0,0,1,0,0]","door_history":"[0,0,0,1,0,0]","location_rts":"[10524,859,1475,979,2491,1467]","trial_type":"two-door-navigation","trial_index":17,"time_elapsed":778215,"internal_node_id":"0.0-2.0-15.0"},{"group":"dicyclic group of order 12","room_assignment":["ivory","grey","green","olive","purple","pink","orange","red","cyan","yellow","brown","blue"],"door_color_assignment":["white","black"],"door_generator_assignment":[0,1],"goal":6,"start":8,"action_noise":0.15,"location_history":"[8,5,9,1,5,10,7,8,5,9,1,2,3,0,1,2,3,7,8,5,9,6]","action_history":"[0,0,1,1,0,0,0,1,1,1,0,0,0,0,0,1,1,0,0,0,1]","door_history":"[0,0,1,1,0,0,0,1,1,1,0,0,0,0,0,1,1,0,0,0,1]","location_rts":"[8555,5082,7563,5922,980,589,5314,2131,571,7970,652,362,15946,635,795,394,1045,1914,412,4171,2123]","trial_type":"two-door-navigation","trial_index":18,"time_elapsed":876281,"internal_node_id":"0.0-2.0-16.0"},{"group":"dicyclic group of order 12","room_assignment":["ivory","grey","green","olive","purple","pink","orange","red","cyan","yellow","brown","blue"],"door_color_assignment":["white","black"],"door_generator_assignment":[0,1],"goal":1,"start":6,"action_noise":0.15,"location_history":"[6,10,2,6,10,7,11,3,0,4,8,0,4,8,0,1]","action_history":"[1,1,1,1,0,0,1,0,0,1,1,1,1,1,0]","door_history":"[1,1,1,1,0,0,1,0,0,1,1,1,1,1,0]","location_rts":"[16259,8354,572,771,10164,4851,4803,5667,5228,7259,2899,698,475,716,556]","trial_type":"two-door-navigation","trial_index":19,"time_elapsed":964363,"internal_node_id":"0.0-2.0-17.0"},{"group":"dicyclic group of order 12","room_assignment":["ivory","grey","green","olive","purple","pink","orange","red","cyan","yellow","brown","blue"],"door_color_assignment":["white","black"],"door_generator_assignment":[0,1],"goal":4,"start":1,"action_noise":0.15,"location_history":"[1,5,10,7,11,3,7,11,4]","action_history":"[1,0,0,1,1,1,1,0]","door_history":"[1,0,0,1,1,1,1,0]","location_rts":"[6068,3483,2931,1244,515,7467,3082,1379]","trial_type":"two-door-navigation","trial_index":20,"time_elapsed":1002202,"internal_node_id":"0.0-2.0-18.0"},{"group":"dicyclic group of order 12","room_assignment":["ivory","grey","green","olive","purple","pink","orange","red","cyan","yellow","brown","blue"],"door_color_assignment":["white","black"],"door_generator_assignment":[0,1],"goal":11,"start":4,"action_noise":0.15,"location_history":"[4,8,5,10,2,6,11]","action_history":"[1,0,0,1,1,1]","door_history":"[1,0,0,1,1,1]","location_rts":"[10235,8842,4995,4883,1915,1565]","trial_type":"two-door-navigation","trial_index":21,"time_elapsed":1044263,"internal_node_id":"0.0-2.0-19.0"},{"group":"dicyclic group of order 12","room_assignment":["ivory","grey","green","olive","purple","pink","orange","red","cyan","yellow","brown","blue"],"door_color_assignment":["white","black"],"door_generator_assignment":[0,1],"goal":3,"start":11,"action_noise":0.15,"location_history":"[11,3]","action_history":"[1]","door_history":"[1]","location_rts":"[6172]","trial_type":"two-door-navigation","trial_index":22,"time_elapsed":1054959,"internal_node_id":"0.0-2.0-20.0"},{"group":"dicyclic group of order 12","room_assignment":["ivory","grey","green","olive","purple","pink","orange","red","cyan","yellow","brown","blue"],"door_color_assignment":["white","black"],"door_generator_assignment":[0,1],"goal":5,"start":3,"action_noise":0.15,"location_history":"[3,0,4,8,0,4,8,5]","action_history":"[0,1,1,1,1,1,0]","door_history":"[0,1,1,1,1,1,0]","location_rts":"[6956,6706,421,700,874,771,4404]","trial_type":"two-door-navigation","trial_index":23,"time_elapsed":1086437,"internal_node_id":"0.0-2.0-21.0"},{"group":"dicyclic group of order 12","room_assignment":["ivory","grey","green","olive","purple","pink","orange","red","cyan","yellow","brown","blue"],"door_color_assignment":["white","black"],"door_generator_assignment":[0,1],"goal":7,"start":5,"action_noise":0.15,"location_history":"[5,10,2,6,10,2,3,0,1,2,3,0,1,5,10,2,6,10,2,3,7]","action_history":"[0,1,1,1,1,0,0,0,0,0,0,0,1,0,0,1,1,1,0,0]","door_history":"[0,1,1,1,1,0,0,0,0,0,0,0,1,0,0,1,1,1,0,0]","location_rts":"[6268,826,443,3755,6307,3346,707,3540,459,379,355,7635,2130,1003,1459,963,412,442,403,723]","trial_type":"two-door-navigation","trial_index":24,"time_elapsed":1151913,"internal_node_id":"0.0-2.0-22.0"},{"group":"dicyclic group of order 12","room_assignment":["ivory","grey","green","olive","purple","pink","orange","red","cyan","yellow","brown","blue"],"door_color_assignment":["white","black"],"door_generator_assignment":[0,1],"goal":3,"start":7,"action_noise":0.15,"location_history":"[7,8,0,1,2,3]","action_history":"[1,1,0,0,0]","door_history":"[1,1,0,0,0]","location_rts":"[6004,4714,6036,411,347]","trial_type":"two-door-navigation","trial_index":25,"time_elapsed":1178032,"internal_node_id":"0.0-2.0-23.0"},{"group":"dicyclic group of order 12","room_assignment":["ivory","grey","green","olive","purple","pink","orange","red","cyan","yellow","brown","blue"],"door_color_assignment":["white","black"],"door_generator_assignment":[0,1],"goal":4,"start":3,"action_noise":0.15,"location_history":"[3,7,11,3,7,8,0,4]","action_history":"[1,1,1,1,0,1,1]","door_history":"[1,1,1,1,0,1,1]","location_rts":"[4420,1354,443,3595,363,2963,410]","trial_type":"two-door-navigation","trial_index":26,"time_elapsed":1202230,"internal_node_id":"0.0-2.0-24.0"},{"group":"dicyclic group of order 12","room_assignment":["ivory","grey","green","olive","purple","pink","orange","red","cyan","yellow","brown","blue"],"door_color_assignment":["white","black"],"door_generator_assignment":[0,1],"goal":8,"start":4,"action_noise":0.15,"location_history":"[4,8]","action_history":"[1]","door_history":"[1]","location_rts":"[4421]","trial_type":"two-door-navigation","trial_index":27,"time_elapsed":1211175,"internal_node_id":"0.0-2.0-25.0"},{"group":"dicyclic group of order 12","room_assignment":["ivory","grey","green","olive","purple","pink","orange","red","cyan","yellow","brown","blue"],"door_color_assignment":["white","black"],"door_generator_assignment":[0,1],"goal":6,"start":8,"action_noise":0.15,"location_history":"[8,0,4,9,6]","action_history":"[1,1,0,0]","door_history":"[1,1,0,0]","location_rts":"[15842,6690,1171,404]","trial_type":"two-door-navigation","trial_index":28,"time_elapsed":1242869,"internal_node_id":"0.0-2.0-26.0"},{"group":"dicyclic group of order 12","room_assignment":["ivory","grey","green","olive","purple","pink","orange","red","cyan","yellow","brown","blue"],"door_color_assignment":["white","black"],"door_generator_assignment":[0,1],"goal":1,"start":6,"action_noise":0.15,"location_history":"[6,10,2,6,10,7,8,0,1]","action_history":"[1,1,1,1,0,0,1,0]","door_history":"[1,1,1,1,0,0,1,0]","location_rts":"[6203,6466,1172,1148,259,627,2411,292]","trial_type":"two-door-navigation","trial_index":29,"time_elapsed":1273115,"internal_node_id":"0.0-2.0-27.0"},{"group":"dicyclic group of order 12","room_assignment":["ivory","grey","green","olive","purple","pink","orange","red","cyan","yellow","brown","blue"],"door_color_assignment":["white","black"],"door_generator_assignment":[0,1],"goal":5,"start":1,"action_noise":0.15,"location_history":"[1,5]","action_history":"[1]","door_history":"[1]","location_rts":"[3692]","trial_type":"two-door-navigation","trial_index":30,"time_elapsed":1281328,"internal_node_id":"0.0-2.0-28.0"},{"group":"dicyclic group of order 12","room_assignment":["ivory","grey","green","olive","purple","pink","orange","red","cyan","yellow","brown","blue"],"door_color_assignment":["white","black"],"door_generator_assignment":[0,1],"goal":9,"start":5,"action_noise":0.15,"location_history":"[5,9]","action_history":"[1]","door_history":"[1]","location_rts":"[3318]","trial_type":"two-door-navigation","trial_index":31,"time_elapsed":1289170,"internal_node_id":"0.0-2.0-29.0"},{"group":"dicyclic group of order 12","room_assignment":["ivory","grey","green","olive","purple","pink","orange","red","cyan","yellow","brown","blue"],"door_color_assignment":["white","black"],"door_generator_assignment":[0,1],"goal":10,"start":9,"action_noise":0.15,"location_history":"[9,6,10]","action_history":"[0,1]","door_history":"[0,1]","location_rts":"[8795,3755]","trial_type":"two-door-navigation","trial_index":32,"time_elapsed":1307263,"internal_node_id":"0.0-2.0-30.0"},{"group":"dicyclic group of order 12","room_assignment":["ivory","grey","green","olive","purple","pink","orange","red","cyan","yellow","brown","blue"],"door_color_assignment":["white","black"],"door_generator_assignment":[0,1],"goal":0,"start":10,"action_noise":0.15,"location_history":"[10,7,8,0]","action_history":"[0,0,1]","door_history":"[0,0,1]","location_rts":"[4533,956,5169]","trial_type":"two-door-navigation","trial_index":33,"time_elapsed":1324487,"internal_node_id":"0.0-2.0-31.0"},{"group":"dicyclic group of order 12","room_assignment":["ivory","grey","green","olive","purple","pink","orange","red","cyan","yellow","brown","blue"],"door_color_assignment":["white","black"],"door_generator_assignment":[0,1],"goal":7,"start":0,"action_noise":0.15,"location_history":"[0,1,5,10,2,3,7]","action_history":"[0,0,0,1,0,0]","door_history":"[0,0,0,1,0,0]","location_rts":"[4645,3355,3523,1107,6426,923]","trial_type":"two-door-navigation","trial_index":34,"time_elapsed":1354094,"internal_node_id":"0.0-2.0-32.0"},{"group":"dicyclic group of order 12","room_assignment":["ivory","grey","green","olive","purple","pink","orange","red","cyan","yellow","brown","blue"],"door_color_assignment":["white","black"],"door_generator_assignment":[0,1],"goal":11,"start":7,"action_noise":0.15,"location_history":"[7,11]","action_history":"[1]","door_history":"[1]","location_rts":"[7092]","trial_type":"two-door-navigation","trial_index":35,"time_elapsed":1365710,"internal_node_id":"0.0-2.0-33.0"},{"group":"dicyclic group of order 12","room_assignment":["ivory","grey","green","olive","purple","pink","orange","red","cyan","yellow","brown","blue"],"door_color_assignment":["white","black"],"door_generator_assignment":[0,1],"goal":2,"start":11,"action_noise":0.15,"location_history":"[11,3,7,8,0,1,2]","action_history":"[1,1,0,1,0,0]","door_history":"[1,1,0,1,0,0]","location_rts":"[8587,1074,7531,8699,365,1907]","trial_type":"two-door-navigation","trial_index":36,"time_elapsed":1403499,"internal_node_id":"0.0-2.0-34.0"},{"view_history":"[{\"page_index\":0,\"viewing_time\":4435}]","rt":4435,"trial_type":"instructions","trial_index":37,"time_elapsed":1408935,"internal_node_id":"0.0-3.0"},{"view_history":"[{\"page_index\":0,\"viewing_time\":6391},{\"page_index\":1,\"viewing_time\":60309}]","rt":66700,"trial_type":"instructions","trial_index":38,"time_elapsed":1476636,"internal_node_id":"0.0-4.0"},{"group":"dicyclic group of order 12","fractal_assignment":["../images/ylw_slt.png","../images/grn_prp.png","../images/gry_blk.png","../images/pnk_blu.png","../images/wht_red.png","../images/cyn_red.png","../images/grn_red.png","../images/ylw_pnk.png","../images/org_blu.png","../images/grn_blu.png","../images/red_prp.png","../images/blu_wht.png"],"mutagen_generator_assignment":[0,1],"goal":7,"start":3,"action_noise":0.15,"location_history":"[3,7]","action_history":"[0]","mutagen_history":"[0]","location_rts":"[42004]","trial_type":"fractal-mutation","trial_index":39,"time_elapsed":1523167,"internal_node_id":"0.0-5.0-0.0"},{"group":"dicyclic group of order 12","fractal_assignment":["../images/ylw_slt.png","../images/grn_prp.png","../images/gry_blk.png","../images/pnk_blu.png","../images/wht_red.png","../images/cyn_red.png","../images/grn_red.png","../images/ylw_pnk.png","../images/org_blu.png","../images/grn_blu.png","../images/red_prp.png","../images/blu_wht.png"],"mutagen_generator_assignment":[0,1],"goal":5,"start":7,"action_noise":0.15,"location_history":"[7,8,5]","action_history":"[0,0]","mutagen_history":"[0,0]","location_rts":"[1824,859]","trial_type":"fractal-mutation","trial_index":40,"time_elapsed":1531396,"internal_node_id":"0.0-5.0-1.0"},{"group":"dicyclic group of order 12","fractal_assignment":["../images/ylw_slt.png","../images/grn_prp.png","../images/gry_blk.png","../images/pnk_blu.png","../images/wht_red.png","../images/cyn_red.png","../images/grn_red.png","../images/ylw_pnk.png","../images/org_blu.png","../images/grn_blu.png","../images/red_prp.png","../images/blu_wht.png"],"mutagen_generator_assignment":[0,1],"goal":0,"start":5,"action_noise":0.15,"location_history":"[5,9,1,5,9,6,11,4,8,0]","action_history":"[1,1,1,1,0,0,0,1,1]","mutagen_history":"[1,1,1,1,0,0,0,1,1]","location_rts":"[2012,1490,997,1339,745,1026,1658,547,530]","trial_type":"fractal-mutation","trial_index":41,"time_elapsed":1554897,"internal_node_id":"0.0-5.0-2.0"},{"group":"dicyclic group of order 12","fractal_assignment":["../images/ylw_slt.png","../images/grn_prp.png","../images/gry_blk.png","../images/pnk_blu.png","../images/wht_red.png","../images/cyn_red.png","../images/grn_red.png","../images/ylw_pnk.png","../images/org_blu.png","../images/grn_blu.png","../images/red_prp.png","../images/blu_wht.png"],"mutagen_generator_assignment":[0,1],"goal":2,"start":0,"action_noise":0.15,"location_history":"[0,4,8,0,1,2]","action_history":"[1,1,1,0,0]","mutagen_history":"[1,1,1,0,0]","location_rts":"[2277,1027,796,732,846]","trial_type":"fractal-mutation","trial_index":42,"time_elapsed":1569425,"internal_node_id":"0.0-5.0-3.0"},{"group":"dicyclic group of order 12","fractal_assignment":["../images/ylw_slt.png","../images/grn_prp.png","../images/gry_blk.png","../images/pnk_blu.png","../images/wht_red.png","../images/cyn_red.png","../images/grn_red.png","../images/ylw_pnk.png","../images/org_blu.png","../images/grn_blu.png","../images/red_prp.png","../images/blu_wht.png"],"mutagen_generator_assignment":[0,1],"goal":10,"start":2,"action_noise":0.15,"location_history":"[2,3,0,1,2,3,7,8,5,10]","action_history":"[0,0,0,0,0,1,0,0,0]","mutagen_history":"[0,0,0,0,0,1,0,0,0]","location_rts":"[3213,674,467,827,851,723,747,815,4522]","trial_type":"fractal-mutation","trial_index":43,"time_elapsed":1595095,"internal_node_id":"0.0-5.0-4.0"},{"group":"dicyclic group of order 12","fractal_assignment":["../images/ylw_slt.png","../images/grn_prp.png","../images/gry_blk.png","../images/pnk_blu.png","../images/wht_red.png","../images/cyn_red.png","../images/grn_red.png","../images/ylw_pnk.png","../images/org_blu.png","../images/grn_blu.png","../images/red_prp.png","../images/blu_wht.png"],"mutagen_generator_assignment":[0,1],"goal":8,"start":10,"action_noise":0.15,"location_history":"[10,7,8]","action_history":"[0,0]","mutagen_history":"[0,0]","location_rts":"[2317,1426]","trial_type":"fractal-mutation","trial_index":44,"time_elapsed":1604384,"internal_node_id":"0.0-5.0-5.0"},{"group":"dicyclic group of order 12","fractal_assignment":["../images/ylw_slt.png","../images/grn_prp.png","../images/gry_blk.png","../images/pnk_blu.png","../images/wht_red.png","../images/cyn_red.png","../images/grn_red.png","../images/ylw_pnk.png","../images/org_blu.png","../images/grn_blu.png","../images/red_prp.png","../images/blu_wht.png"],"mutagen_generator_assignment":[0,1],"goal":11,"start":8,"action_noise":0.15,"location_history":"[8,0,4,8,0,4,8,0,4,9,1,2,6,11]","action_history":"[1,1,0,1,1,1,1,0,0,1,1,1,0]","mutagen_history":"[1,1,0,1,1,1,1,0,0,1,1,1,0]","location_rts":"[1843,596,1074,739,484,772,1149,869,665,1017,1050,923,2098]","trial_type":"fractal-mutation","trial_index":45,"time_elapsed":1635109,"internal_node_id":"0.0-5.0-6.0"},{"group":"dicyclic group of order 12","fractal_assignment":["../images/ylw_slt.png","../images/grn_prp.png","../images/gry_blk.png","../images/pnk_blu.png","../images/wht_red.png","../images/cyn_red.png","../images/grn_red.png","../images/ylw_pnk.png","../images/org_blu.png","../images/grn_blu.png","../images/red_prp.png","../images/blu_wht.png"],"mutagen_generator_assignment":[0,1],"goal":6,"start":11,"action_noise":0.15,"location_history":"[11,4,8,0,1,5,10,7,11,4,9,1,2,6]","action_history":"[1,1,1,0,1,0,0,0,0,0,0,0,1]","mutagen_history":"[1,1,1,0,1,0,0,0,0,0,0,0,1]","location_rts":"[2229,1058,539,624,3815,851,569,641,828,778,882,1020,562]","trial_type":"fractal-mutation","trial_index":46,"time_elapsed":1666803,"internal_node_id":"0.0-5.0-7.0"},{"group":"dicyclic group of order 12","fractal_assignment":["../images/ylw_slt.png","../images/grn_prp.png","../images/gry_blk.png","../images/pnk_blu.png","../images/wht_red.png","../images/cyn_red.png","../images/grn_red.png","../images/ylw_pnk.png","../images/org_blu.png","../images/grn_blu.png","../images/red_prp.png","../images/blu_wht.png"],"mutagen_generator_assignment":[0,1],"goal":4,"start":6,"action_noise":0.15,"location_history":"[6,11,4]","action_history":"[0,0]","mutagen_history":"[0,0]","location_rts":"[2325,827]","trial_type":"fractal-mutation","trial_index":47,"time_elapsed":1675500,"internal_node_id":"0.0-5.0-8.0"},{"group":"dicyclic group of order 12","fractal_assignment":["../images/ylw_slt.png","../images/grn_prp.png","../images/gry_blk.png","../images/pnk_blu.png","../images/wht_red.png","../images/cyn_red.png","../images/grn_red.png","../images/ylw_pnk.png","../images/org_blu.png","../images/grn_blu.png","../images/red_prp.png","../images/blu_wht.png"],"mutagen_generator_assignment":[0,1],"goal":1,"start":4,"action_noise":0.15,"location_history":"[4,9,1]","action_history":"[0,1]","mutagen_history":"[0,1]","location_rts":"[2468,970]","trial_type":"fractal-mutation","trial_index":48,"time_elapsed":1684545,"internal_node_id":"0.0-5.0-9.0"},{"group":"dicyclic group of order 12","fractal_assignment":["../images/ylw_slt.png","../images/grn_prp.png","../images/gry_blk.png","../images/pnk_blu.png","../images/wht_red.png","../images/cyn_red.png","../images/grn_red.png","../images/ylw_pnk.png","../images/org_blu.png","../images/grn_blu.png","../images/red_prp.png","../images/blu_wht.png"],"mutagen_generator_assignment":[0,1],"goal":9,"start":1,"action_noise":0.15,"location_history":"[1,2,6,10,2,3,0,1,2,3,7,11,3,7,11,4,9]","action_history":"[0,1,1,1,0,0,0,0,0,1,1,1,1,1,0,0]","mutagen_history":"[0,1,1,1,0,0,0,0,0,1,1,1,1,1,0,0]","location_rts":"[1238,1379,1229,786,700,546,625,786,763,388,531,1387,965,620,315,657]","trial_type":"fractal-mutation","trial_index":49,"time_elapsed":1717978,"internal_node_id":"0.0-5.0-10.0"},{"group":"dicyclic group of order 12","fractal_assignment":["../images/ylw_slt.png","../images/grn_prp.png","../images/gry_blk.png","../images/pnk_blu.png","../images/wht_red.png","../images/cyn_red.png","../images/grn_red.png","../images/ylw_pnk.png","../images/org_blu.png","../images/grn_blu.png","../images/red_prp.png","../images/blu_wht.png"],"mutagen_generator_assignment":[0,1],"goal":10,"start":9,"action_noise":0.15,"location_history":"[9,6,11,4,9,6,10]","action_history":"[0,0,0,0,0,1]","mutagen_history":"[0,0,0,0,0,1]","location_rts":"[5219,1131,610,858,1306,618]","trial_type":"fractal-mutation","trial_index":50,"time_elapsed":1737415,"internal_node_id":"0.0-5.0-11.0"},{"group":"dicyclic group of order 12","fractal_assignment":["../images/ylw_slt.png","../images/grn_prp.png","../images/gry_blk.png","../images/pnk_blu.png","../images/wht_red.png","../images/cyn_red.png","../images/grn_red.png","../images/ylw_pnk.png","../images/org_blu.png","../images/grn_blu.png","../images/red_prp.png","../images/blu_wht.png"],"mutagen_generator_assignment":[0,1],"goal":2,"start":10,"action_noise":0.15,"location_history":"[10,2]","action_history":"[1]","mutagen_history":"[1]","location_rts":"[1493]","trial_type":"fractal-mutation","trial_index":51,"time_elapsed":1743496,"internal_node_id":"0.0-5.0-12.0"},{"group":"dicyclic group of order 12","fractal_assignment":["../images/ylw_slt.png","../images/grn_prp.png","../images/gry_blk.png","../images/pnk_blu.png","../images/wht_red.png","../images/cyn_red.png","../images/grn_red.png","../images/ylw_pnk.png","../images/org_blu.png","../images/grn_blu.png","../images/red_prp.png","../images/blu_wht.png"],"mutagen_generator_assignment":[0,1],"goal":0,"start":2,"action_noise":0.15,"location_history":"[2,6,11,3,7,11,3,0]","action_history":"[1,0,0,1,1,1,0]","mutagen_history":"[1,0,0,1,1,1,0]","location_rts":"[2979,915,729,800,715,405,1324]","trial_type":"fractal-mutation","trial_index":52,"time_elapsed":1762343,"internal_node_id":"0.0-5.0-13.0"},{"group":"dicyclic group of order 12","fractal_assignment":["../images/ylw_slt.png","../images/grn_prp.png","../images/gry_blk.png","../images/pnk_blu.png","../images/wht_red.png","../images/cyn_red.png","../images/grn_red.png","../images/ylw_pnk.png","../images/org_blu.png","../images/grn_blu.png","../images/red_prp.png","../images/blu_wht.png"],"mutagen_generator_assignment":[0,1],"goal":9,"start":0,"action_noise":0.15,"location_history":"[0,1,5,10,7,11,4,9]","action_history":"[0,1,0,0,0,0,0]","mutagen_history":"[0,1,0,0,0,0,0]","location_rts":"[14258,1803,483,1115,593,945,3658]","trial_type":"fractal-mutation","trial_index":53,"time_elapsed":1796036,"internal_node_id":"0.0-5.0-14.0"},{"group":"dicyclic group of order 12","fractal_assignment":["../images/ylw_slt.png","../images/grn_prp.png","../images/gry_blk.png","../images/pnk_blu.png","../images/wht_red.png","../images/cyn_red.png","../images/grn_red.png","../images/ylw_pnk.png","../images/org_blu.png","../images/grn_blu.png","../images/red_prp.png","../images/blu_wht.png"],"mutagen_generator_assignment":[0,1],"goal":8,"start":9,"action_noise":0.15,"location_history":"[9,1,2,6,10,7,8]","action_history":"[0,0,1,1,0,0]","mutagen_history":"[0,0,1,1,0,0]","location_rts":"[26586,802,475,578,1875,578]","trial_type":"fractal-mutation","trial_index":54,"time_elapsed":1836747,"internal_node_id":"0.0-5.0-15.0"},{"group":"dicyclic group of order 12","fractal_assignment":["../images/ylw_slt.png","../images/grn_prp.png","../images/gry_blk.png","../images/pnk_blu.png","../images/wht_red.png","../images/cyn_red.png","../images/grn_red.png","../images/ylw_pnk.png","../images/org_blu.png","../images/grn_blu.png","../images/red_prp.png","../images/blu_wht.png"],"mutagen_generator_assignment":[0,1],"goal":6,"start":8,"action_noise":0.15,"location_history":"[8,0,4,9,1,5,9,6]","action_history":"[1,1,0,1,1,1,0]","mutagen_history":"[1,1,0,1,1,1,0]","location_rts":"[1149,961,1091,1130,547,691,796]","trial_type":"fractal-mutation","trial_index":55,"time_elapsed":1854133,"internal_node_id":"0.0-5.0-16.0"},{"group":"dicyclic group of order 12","fractal_assignment":["../images/ylw_slt.png","../images/grn_prp.png","../images/gry_blk.png","../images/pnk_blu.png","../images/wht_red.png","../images/cyn_red.png","../images/grn_red.png","../images/ylw_pnk.png","../images/org_blu.png","../images/grn_blu.png","../images/red_prp.png","../images/blu_wht.png"],"mutagen_generator_assignment":[0,1],"goal":1,"start":6,"action_noise":0.15,"location_history":"[6,10,7,8,5,10,2,3,7,11,4,9,6,10,7,8,0,1]","action_history":"[1,0,0,0,0,1,0,1,0,0,0,0,0,0,0,1,1]","mutagen_history":"[1,0,0,0,0,1,0,1,0,0,0,0,0,0,0,1,1]","location_rts":"[3753,2084,466,417,883,436,803,755,835,274,441,1017,697,979,619,518,731]","trial_type":"fractal-mutation","trial_index":56,"time_elapsed":1891315,"internal_node_id":"0.0-5.0-17.0"},{"group":"dicyclic group of order 12","fractal_assignment":["../images/ylw_slt.png","../images/grn_prp.png","../images/gry_blk.png","../images/pnk_blu.png","../images/wht_red.png","../images/cyn_red.png","../images/grn_red.png","../images/ylw_pnk.png","../images/org_blu.png","../images/grn_blu.png","../images/red_prp.png","../images/blu_wht.png"],"mutagen_generator_assignment":[0,1],"goal":4,"start":1,"action_noise":0.15,"location_history":"[1,5,9,6,10,2,6,11,4]","action_history":"[1,0,0,1,1,1,0,0]","mutagen_history":"[1,0,0,1,1,1,0,0]","location_rts":"[1629,1451,674,1081,1203,683,692,538]","trial_type":"fractal-mutation","trial_index":57,"time_elapsed":1911290,"internal_node_id":"0.0-5.0-18.0"},{"group":"dicyclic group of order 12","fractal_assignment":["../images/ylw_slt.png","../images/grn_prp.png","../images/gry_blk.png","../images/pnk_blu.png","../images/wht_red.png","../images/cyn_red.png","../images/grn_red.png","../images/ylw_pnk.png","../images/org_blu.png","../images/grn_blu.png","../images/red_prp.png","../images/blu_wht.png"],"mutagen_generator_assignment":[0,1],"goal":11,"start":4,"action_noise":0.15,"location_history":"[4,8,0,4,8,0,4,8,5,10,2,3,0,1,5,9,1,5,10,2,3,7,8,5,9,6,10,2,3,7,8,0,1,5,9,1,5,10,2,6,10,7,11]","action_history":"[1,1,0,0,1,1,0,0,0,1,1,1,0,1,1,1,1,0,1,1,0,0,0,1,0,1,0,0,0,0,1,0,1,1,1,1,0,1,1,1,1,0]","mutagen_history":"[1,1,0,0,1,1,0,0,0,1,1,1,0,1,1,1,1,0,1,1,0,0,0,1,0,1,0,0,0,0,1,0,1,1,1,1,0,1,1,1,1,0]","location_rts":"[2765,498,427,778,571,580,708,404,448,521,1123,659,619,515,555,691,860,220,787,6922,450,395,258,867,715,865,699,122,42,480,399,891,786,403,291,444,851,722,267,187,597,69099]","trial_type":"fractal-mutation","trial_index":58,"time_elapsed":2060148,"internal_node_id":"0.0-5.0-19.0"},{"group":"dicyclic group of order 12","fractal_assignment":["../images/ylw_slt.png","../images/grn_prp.png","../images/gry_blk.png","../images/pnk_blu.png","../images/wht_red.png","../images/cyn_red.png","../images/grn_red.png","../images/ylw_pnk.png","../images/org_blu.png","../images/grn_blu.png","../images/red_prp.png","../images/blu_wht.png"],"mutagen_generator_assignment":[0,1],"goal":3,"start":11,"action_noise":0.15,"location_history":"[11,4,8,5,10,2,6,10,2,3]","action_history":"[0,1,1,0,1,1,1,1,0]","mutagen_history":"[0,1,1,0,1,1,1,1,0]","location_rts":"[3331,459,483,849,889,843,763,348,589]","trial_type":"fractal-mutation","trial_index":59,"time_elapsed":2081838,"internal_node_id":"0.0-5.0-20.0"},{"group":"dicyclic group of order 12","fractal_assignment":["../images/ylw_slt.png","../images/grn_prp.png","../images/gry_blk.png","../images/pnk_blu.png","../images/wht_red.png","../images/cyn_red.png","../images/grn_red.png","../images/ylw_pnk.png","../images/org_blu.png","../images/grn_blu.png","../images/red_prp.png","../images/blu_wht.png"],"mutagen_generator_assignment":[0,1],"goal":5,"start":3,"action_noise":0.15,"location_history":"[3,0,1,2,6,11,4,9,6,10,7,11,3,0,1,2,3,7,11,4,8,5]","action_history":"[0,0,0,1,0,0,1,0,1,0,1,1,0,0,0,0,1,1,0,0,0]","mutagen_history":"[0,0,0,1,0,0,1,0,1,0,1,1,0,0,0,0,1,1,0,0,0]","location_rts":"[2876,395,460,763,1259,546,409,683,5180,506,465,668,1211,490,425,705,13114,395,308,347,427]","trial_type":"fractal-mutation","trial_index":60,"time_elapsed":2139130,"internal_node_id":"0.0-5.0-21.0"},{"group":"dicyclic group of order 12","fractal_assignment":["../images/ylw_slt.png","../images/grn_prp.png","../images/gry_blk.png","../images/pnk_blu.png","../images/wht_red.png","../images/cyn_red.png","../images/grn_red.png","../images/ylw_pnk.png","../images/org_blu.png","../images/grn_blu.png","../images/red_prp.png","../images/blu_wht.png"],"mutagen_generator_assignment":[0,1],"goal":7,"start":5,"action_noise":0.15,"location_history":"[5,9,1,5,10,2,6,11,4,8,0,4,9,1,5,9,6,10,2,3,0,1,2,3,0,4,8,0,4,9,6,11,4,8,5,9,1,5,9,1,5,10,7]","action_history":"[1,1,1,0,1,1,0,0,1,1,1,0,1,0,0,0,1,1,0,0,0,0,0,0,1,0,1,0,0,0,0,0,1,1,1,1,1,1,1,1,0,0]","mutagen_history":"[1,1,1,0,1,1,0,0,1,1,1,0,1,0,0,0,1,1,0,0,0,0,0,0,1,0,1,0,0,0,0,0,1,1,1,1,1,1,1,1,0,0]","location_rts":"[1804,482,427,1868,744,547,1275,498,2426,1059,939,765,666,795,1002,691,818,3219,1218,753,650,921,668,4418,123,1891,778,676,620,649,2162,761,891,668,548,1426,690,804,1067,676,1154,1690]","trial_type":"fractal-mutation","trial_index":61,"time_elapsed":2233307,"internal_node_id":"0.0-5.0-22.0"},{"group":"dicyclic group of order 12","fractal_assignment":["../images/ylw_slt.png","../images/grn_prp.png","../images/gry_blk.png","../images/pnk_blu.png","../images/wht_red.png","../images/cyn_red.png","../images/grn_red.png","../images/ylw_pnk.png","../images/org_blu.png","../images/grn_blu.png","../images/red_prp.png","../images/blu_wht.png"],"mutagen_generator_assignment":[0,1],"goal":3,"start":7,"action_noise":0.15,"location_history":"[7,11,4,9,6,11,3]","action_history":"[1,1,0,0,0,1]","mutagen_history":"[1,1,0,0,0,1]","location_rts":"[3723,1251,1090,1449,854,788]","trial_type":"fractal-mutation","trial_index":62,"time_elapsed":2252359,"internal_node_id":"0.0-5.0-23.0"},{"group":"dicyclic group of order 12","fractal_assignment":["../images/ylw_slt.png","../images/grn_prp.png","../images/gry_blk.png","../images/pnk_blu.png","../images/wht_red.png","../images/cyn_red.png","../images/grn_red.png","../images/ylw_pnk.png","../images/org_blu.png","../images/grn_blu.png","../images/red_prp.png","../images/blu_wht.png"],"mutagen_generator_assignment":[0,1],"goal":4,"start":3,"action_noise":0.15,"location_history":"[3,0,1,2,6,11,4]","action_history":"[0,0,0,1,0,0]","mutagen_history":"[0,0,0,1,0,0]","location_rts":"[5533,747,699,947,1779,562]","trial_type":"fractal-mutation","trial_index":63,"time_elapsed":2272366,"internal_node_id":"0.0-5.0-24.0"},{"group":"dicyclic group of order 12","fractal_assignment":["../images/ylw_slt.png","../images/grn_prp.png","../images/gry_blk.png","../images/pnk_blu.png","../images/wht_red.png","../images/cyn_red.png","../images/grn_red.png","../images/ylw_pnk.png","../images/org_blu.png","../images/grn_blu.png","../images/red_prp.png","../images/blu_wht.png"],"mutagen_generator_assignment":[0,1],"goal":8,"start":4,"action_noise":0.15,"location_history":"[4,9,1,2,3,0,1,5,10,2,3,0,1,5,9,6,11,4,9,1,2,6,11,4,9,1,2,3,0,4,8]","action_history":"[0,1,0,0,0,0,1,0,1,0,0,0,1,1,0,0,0,0,1,1,1,0,0,0,0,0,1,0,1,1]","mutagen_history":"[0,1,0,0,0,0,1,0,1,0,0,0,1,1,0,0,0,0,1,1,1,0,0,0,0,0,1,0,1,1]","location_rts":"[1653,1339,1420,2273,570,698,698,1363,7577,1299,522,555,433,787,627,578,675,722,531,499,618,485,555,835,645,667,1155,1619,2369,1292]","trial_type":"fractal-mutation","trial_index":64,"time_elapsed":2342695,"internal_node_id":"0.0-5.0-25.0"},{"group":"dicyclic group of order 12","fractal_assignment":["../images/ylw_slt.png","../images/grn_prp.png","../images/gry_blk.png","../images/pnk_blu.png","../images/wht_red.png","../images/cyn_red.png","../images/grn_red.png","../images/ylw_pnk.png","../images/org_blu.png","../images/grn_blu.png","../images/red_prp.png","../images/blu_wht.png"],"mutagen_generator_assignment":[0,1],"goal":6,"start":8,"action_noise":0.15,"location_history":"[8,5,10,7,11,4,8,5,10,7,8,5,9,1,2,6]","action_history":"[0,0,1,1,0,0,1,0,0,0,0,1,1,1,0]","mutagen_history":"[0,0,1,1,0,0,1,0,0,0,0,1,1,1,0]","location_rts":"[12181,434,443,4930,475,835,628,756,971,27744,583,3371,1251,939,609]","trial_type":"fractal-mutation","trial_index":65,"time_elapsed":2418226,"internal_node_id":"0.0-5.0-26.0"},{"group":"dicyclic group of order 12","fractal_assignment":["../images/ylw_slt.png","../images/grn_prp.png","../images/gry_blk.png","../images/pnk_blu.png","../images/wht_red.png","../images/cyn_red.png","../images/grn_red.png","../images/ylw_pnk.png","../images/org_blu.png","../images/grn_blu.png","../images/red_prp.png","../images/blu_wht.png"],"mutagen_generator_assignment":[0,1],"goal":1,"start":6,"action_noise":0.15,"location_history":"[6,10,2,6,10,2,3,0,1]","action_history":"[0,0,1,1,1,0,0,0]","mutagen_history":"[0,0,1,1,1,0,0,0]","location_rts":"[3155,923,803,636,876,804,568,625]","trial_type":"fractal-mutation","trial_index":66,"time_elapsed":2438558,"internal_node_id":"0.0-5.0-27.0"},{"group":"dicyclic group of order 12","fractal_assignment":["../images/ylw_slt.png","../images/grn_prp.png","../images/gry_blk.png","../images/pnk_blu.png","../images/wht_red.png","../images/cyn_red.png","../images/grn_red.png","../images/ylw_pnk.png","../images/org_blu.png","../images/grn_blu.png","../images/red_prp.png","../images/blu_wht.png"],"mutagen_generator_assignment":[0,1],"goal":5,"start":1,"action_noise":0.15,"location_history":"[1,2,3,0,1,5]","action_history":"[0,0,0,0,0]","mutagen_history":"[0,0,0,0,0]","location_rts":"[933,379,387,1100,986]","trial_type":"fractal-mutation","trial_index":67,"time_elapsed":2450951,"internal_node_id":"0.0-5.0-28.0"},{"group":"dicyclic group of order 12","fractal_assignment":["../images/ylw_slt.png","../images/grn_prp.png","../images/gry_blk.png","../images/pnk_blu.png","../images/wht_red.png","../images/cyn_red.png","../images/grn_red.png","../images/ylw_pnk.png","../images/org_blu.png","../images/grn_blu.png","../images/red_prp.png","../images/blu_wht.png"],"mutagen_generator_assignment":[0,1],"goal":9,"start":5,"action_noise":0.15,"location_history":"[5,9]","action_history":"[1]","mutagen_history":"[1]","location_rts":"[1883]","trial_type":"fractal-mutation","trial_index":68,"time_elapsed":2457421,"internal_node_id":"0.0-5.0-29.0"},{"group":"dicyclic group of order 12","fractal_assignment":["../images/ylw_slt.png","../images/grn_prp.png","../images/gry_blk.png","../images/pnk_blu.png","../images/wht_red.png","../images/cyn_red.png","../images/grn_red.png","../images/ylw_pnk.png","../images/org_blu.png","../images/grn_blu.png","../images/red_prp.png","../images/blu_wht.png"],"mutagen_generator_assignment":[0,1],"goal":10,"start":9,"action_noise":0.15,"location_history":"[9,1,2,6,11,3,7,11,4,9,6,10]","action_history":"[1,0,0,0,1,1,1,0,0,0,1]","mutagen_history":"[1,0,0,0,1,1,1,0,0,0,1]","location_rts":"[3733,731,474,736,1202,891,1075,676,266,953,793]","trial_type":"fractal-mutation","trial_index":69,"time_elapsed":2484155,"internal_node_id":"0.0-5.0-30.0"},{"group":"dicyclic group of order 12","fractal_assignment":["../images/ylw_slt.png","../images/grn_prp.png","../images/gry_blk.png","../images/pnk_blu.png","../images/wht_red.png","../images/cyn_red.png","../images/grn_red.png","../images/ylw_pnk.png","../images/org_blu.png","../images/grn_blu.png","../images/red_prp.png","../images/blu_wht.png"],"mutagen_generator_assignment":[0,1],"goal":0,"start":10,"action_noise":0.15,"location_history":"[10,7,11,4,8,0]","action_history":"[0,0,0,0,1]","mutagen_history":"[0,0,0,0,1]","location_rts":"[2572,442,643,555,475]","trial_type":"fractal-mutation","trial_index":70,"time_elapsed":2497514,"internal_node_id":"0.0-5.0-31.0"},{"group":"dicyclic group of order 12","fractal_assignment":["../images/ylw_slt.png","../images/grn_prp.png","../images/gry_blk.png","../images/pnk_blu.png","../images/wht_red.png","../images/cyn_red.png","../images/grn_red.png","../images/ylw_pnk.png","../images/org_blu.png","../images/grn_blu.png","../images/red_prp.png","../images/blu_wht.png"],"mutagen_generator_assignment":[0,1],"goal":7,"start":0,"action_noise":0.15,"location_history":"[0,4,8,0,1,2,3,0,4,9,6,10,2,3,0,4,8,0,4,9,1,5,9,6,10,2,6,10,7]","action_history":"[1,1,1,0,0,0,0,1,0,0,1,1,0,0,0,0,1,1,1,1,1,1,0,1,1,0,1,0]","mutagen_history":"[1,1,1,0,0,0,0,1,0,0,1,1,0,0,0,0,1,1,1,1,1,1,0,1,1,0,1,0]","location_rts":"[1740,859,515,722,611,691,610,698,779,513,905,1043,626,402,244,756,499,652,675,596,1162,451,244,313,1195,475,922,873]","trial_type":"fractal-mutation","trial_index":71,"time_elapsed":2550654,"internal_node_id":"0.0-5.0-32.0"},{"group":"dicyclic group of order 12","fractal_assignment":["../images/ylw_slt.png","../images/grn_prp.png","../images/gry_blk.png","../images/pnk_blu.png","../images/wht_red.png","../images/cyn_red.png","../images/grn_red.png","../images/ylw_pnk.png","../images/org_blu.png","../images/grn_blu.png","../images/red_prp.png","../images/blu_wht.png"],"mutagen_generator_assignment":[0,1],"goal":11,"start":7,"action_noise":0.15,"location_history":"[7,11]","action_history":"[1]","mutagen_history":"[1]","location_rts":"[1338]","trial_type":"fractal-mutation","trial_index":72,"time_elapsed":2556579,"internal_node_id":"0.0-5.0-33.0"},{"group":"dicyclic group of order 12","fractal_assignment":["../images/ylw_slt.png","../images/grn_prp.png","../images/gry_blk.png","../images/pnk_blu.png","../images/wht_red.png","../images/cyn_red.png","../images/grn_red.png","../images/ylw_pnk.png","../images/org_blu.png","../images/grn_blu.png","../images/red_prp.png","../images/blu_wht.png"],"mutagen_generator_assignment":[0,1],"goal":2,"start":11,"action_noise":0.15,"location_history":"[11,4,9,6,11,4,8,5,9,6,11,4,9,1,2]","action_history":"[0,0,0,1,0,1,0,1,0,0,0,0,1,1]","mutagen_history":"[0,0,0,1,0,1,0,1,0,0,0,0,1,1]","location_rts":"[1181,379,635,979,763,489,731,550,475,738,633,1490,684,1161]","trial_type":"fractal-mutation","trial_index":73,"time_elapsed":2585738,"internal_node_id":"0.0-5.0-34.0"},{"view_history":"[{\"page_index\":0,\"viewing_time\":7712}]","rt":7712,"trial_type":"instructions","trial_index":74,"time_elapsed":2594553,"internal_node_id":"0.0-6.0"},{"rt":66448,"responses":"{\"Q0\":\"If I remember correctly, it was my ability to learn how to navigate through the haunted house over the course of 3 days. I feel that I improved my awareness of which rooms to enter to get to a certain color.\"}","trial_type":"survey-text","trial_index":75,"time_elapsed":2662004,"internal_node_id":"0.0-7.0-0.0"},{"rt":101699,"responses":"{\"Q0\":\"I think the second experiment was trying to test my ability to learn which combination of acid and gamma rays would take me to the desired petri dish.  I thought I would have improved more than I did and it was still very difficult for me after 3 days.\"}","trial_type":"survey-text","trial_index":76,"time_elapsed":2764704,"internal_node_id":"0.0-7.0-1.0"},{"rt":13133,"responses":"{\"Q0\":\"2\"}","trial_type":"survey-likert","trial_index":77,"time_elapsed":2778841,"internal_node_id":"0.0-7.0-2.0"},{"rt":82132,"responses":"{\"Q0\":\"I only had 2 choices with each experiment.  The haunted house experiment and the organism experiment both required me to reach a certain destination or conclusion in order for me to move on to the next task.\"}","trial_type":"survey-text","trial_index":78,"time_elapsed":2861975,"internal_node_id":"0.0-7.0-3.0"},{"rt":20349,"responses":"{\"Q0\":\"Yes\"}","trial_type":"survey-multi-choice","trial_index":79,"time_elapsed":2883327,"internal_node_id":"0.0-7.0-4.0"},{"rt":20315,"responses":"{\"Q0\":\"During these questions/I wasn't aware until you pointed it out\"}","trial_type":"survey-multi-choice","trial_index":80,"time_elapsed":2904645,"internal_node_id":"0.0-7.0-5.0"},{"rt":33651,"responses":"{\"Q0\":\"To be more specific, I do suspect that there is a correspondence, but I still do not recognize what it is.\"}","trial_type":"survey-text","trial_index":81,"time_elapsed":2939297,"internal_node_id":"0.0-7.0-6.0"},{"rt":14805,"responses":"{\"Q0\":\"1\"}","trial_type":"survey-likert","trial_index":82,"time_elapsed":2955104,"internal_node_id":"0.0-7.0-7.0"},{"rt":7341,"responses":"{\"Q0\":\"Different structure\"}","trial_type":"survey-multi-choice","trial_index":83,"time_elapsed":2963448,"internal_node_id":"0.0-7.0-8.0"},{"rt":29089,"responses":"{\"Q0\":\"white door = acid, black door = ray\",\"Q1\":\"Not at all confident\"}","trial_type":"survey-multi-choice","trial_index":84,"time_elapsed":2993540,"internal_node_id":"0.0-7.0-9.0"},{"rt":10337,"responses":"{\"Q0\":\"35-45\",\"Q1\":\"PhD, JD, MD or similar\",\"Q2\":\"Male\",\"Q3\":\"White\"}","trial_type":"survey-multi-choice","trial_index":85,"time_elapsed":3004884,"internal_node_id":"0.0-8.0"},{"rt":32203,"responses":"{\"Q0\":\"I enjoyed this HIT a lot.  It was very challenging, yet fun to work on.  Thank you for the opportunity.\"}","trial_type":"survey-text","trial_index":86,"time_elapsed":3038090,"internal_node_id":"0.0-9.0"}]