[{"view_history":"[{\"page_index\":0,\"viewing_time\":5908},{\"page_index\":1,\"viewing_time\":9351}]","rt":15261,"trial_type":"instructions","trial_index":0,"time_elapsed":15264,"internal_node_id":"0.0-0.0"},{"view_history":"[{\"page_index\":0,\"viewing_time\":2416},{\"page_index\":1,\"viewing_time\":12214}]","rt":14631,"trial_type":"instructions","trial_index":1,"time_elapsed":30901,"internal_node_id":"0.0-1.0"},{"group":"dihedral group of order 12","room_assignment":["brown","grey","yellow","olive","green","cyan","ivory","orange","red","pink","blue","purple"],"door_color_assignment":["white","black"],"door_generator_assignment":[1,0],"goal":7,"start":3,"action_noise":0.15,"location_history":"[3,4,5,11,10,9,3,9,3,4,5,0,1,7]","action_history":"[0,0,1,0,0,1,0,0,0,0,0,0,1]","door_history":"[1,1,0,1,1,0,1,1,1,1,1,1,0]","location_rts":"[2655,716,1052,618,724,998,478,514,612,851,759,1209,1038]","trial_type":"two-door-navigation","trial_index":2,"time_elapsed":64096,"internal_node_id":"0.0-2.0-0.0"},{"group":"dihedral group of order 12","room_assignment":["brown","grey","yellow","olive","green","cyan","ivory","orange","red","pink","blue","purple"],"door_color_assignment":["white","black"],"door_generator_assignment":[1,0],"goal":5,"start":7,"action_noise":0.15,"location_history":"[7,1,2,3,4,5]","action_history":"[1,1,0,0,1]","door_history":"[0,0,1,1,0]","location_rts":"[31297,1196,918,626,831]","trial_type":"two-door-navigation","trial_index":3,"time_elapsed":108720,"internal_node_id":"0.0-2.0-1.0"},{"group":"dihedral group of order 12","room_assignment":["brown","grey","yellow","olive","green","cyan","ivory","orange","red","pink","blue","purple"],"door_color_assignment":["white","black"],"door_generator_assignment":[1,0],"goal":0,"start":5,"action_noise":0.15,"location_history":"[5,11,5,0]","action_history":"[0,1,0]","door_history":"[1,0,1]","location_rts":"[1507,958,503]","trial_type":"two-door-navigation","trial_index":4,"time_elapsed":118958,"internal_node_id":"0.0-2.0-2.0"},{"group":"dihedral group of order 12","room_assignment":["brown","grey","yellow","olive","green","cyan","ivory","orange","red","pink","blue","purple"],"door_color_assignment":["white","black"],"door_generator_assignment":[1,0],"goal":2,"start":0,"action_noise":0.15,"location_history":"[0,6,11,5,11,10,9,3,4,10,4,5,11,10,9,3,4,5,11,5,0,1,2]","action_history":"[1,0,0,1,0,0,1,0,0,0,0,0,0,0,1,0,0,1,1,0,0,0]","door_history":"[0,1,1,0,1,1,0,1,1,1,1,1,1,1,0,1,1,0,0,1,1,1]","location_rts":"[1792,1081,689,1230,656,409,725,568,558,533,410,588,565,660,899,560,661,1160,2565,953,409,674]","trial_type":"two-door-navigation","trial_index":5,"time_elapsed":167156,"internal_node_id":"0.0-2.0-3.0"},{"group":"dihedral group of order 12","room_assignment":["brown","grey","yellow","olive","green","cyan","ivory","orange","red","pink","blue","purple"],"door_color_assignment":["white","black"],"door_generator_assignment":[1,0],"goal":10,"start":2,"action_noise":0.15,"location_history":"[2,8,7,6,11,10]","action_history":"[1,0,0,0,0]","door_history":"[0,1,1,1,1]","location_rts":"[3571,681,494,927,400]","trial_type":"two-door-navigation","trial_index":6,"time_elapsed":182377,"internal_node_id":"0.0-2.0-4.0"},{"group":"dihedral group of order 12","room_assignment":["brown","grey","yellow","olive","green","cyan","ivory","orange","red","pink","blue","purple"],"door_color_assignment":["white","black"],"door_generator_assignment":[1,0],"goal":8,"start":10,"action_noise":0.15,"location_history":"[10,9,8]","action_history":"[0,0]","door_history":"[1,1]","location_rts":"[2617,808]","trial_type":"two-door-navigation","trial_index":7,"time_elapsed":192074,"internal_node_id":"0.0-2.0-5.0"},{"group":"dihedral group of order 12","room_assignment":["brown","grey","yellow","olive","green","cyan","ivory","orange","red","pink","blue","purple"],"door_color_assignment":["white","black"],"door_generator_assignment":[1,0],"goal":11,"start":8,"action_noise":0.15,"location_history":"[8,2,3,4,5,11]","action_history":"[1,0,0,0,1]","door_history":"[0,1,1,1,0]","location_rts":"[1690,847,499,513,739]","trial_type":"two-door-navigation","trial_index":8,"time_elapsed":205771,"internal_node_id":"0.0-2.0-6.0"},{"group":"dihedral group of order 12","room_assignment":["brown","grey","yellow","olive","green","cyan","ivory","orange","red","pink","blue","purple"],"door_color_assignment":["white","black"],"door_generator_assignment":[1,0],"goal":6,"start":11,"action_noise":0.15,"location_history":"[11,10,4,5,11,5,0,1,7,6]","action_history":"[0,1,0,1,0,0,0,1,0]","door_history":"[1,0,1,0,1,1,1,0,1]","location_rts":"[10723,947,538,730,733,382,654,958,608]","trial_type":"two-door-navigation","trial_index":9,"time_elapsed":239124,"internal_node_id":"0.0-2.0-7.0"},{"group":"dihedral group of order 12","room_assignment":["brown","grey","yellow","olive","green","cyan","ivory","orange","red","pink","blue","purple"],"door_color_assignment":["white","black"],"door_generator_assignment":[1,0],"goal":4,"start":6,"action_noise":0.15,"location_history":"[6,11,10,9,8,7,6,11,5,0,1,2,3,4]","action_history":"[0,0,0,0,0,0,0,1,0,0,0,0,0]","door_history":"[1,1,1,1,1,1,1,0,1,1,1,1,1]","location_rts":"[1359,405,442,492,459,483,664,827,551,799,1231,1470,770]","trial_type":"two-door-navigation","trial_index":10,"time_elapsed":272149,"internal_node_id":"0.0-2.0-8.0"},{"group":"dihedral group of order 12","room_assignment":["brown","grey","yellow","olive","green","cyan","ivory","orange","red","pink","blue","purple"],"door_color_assignment":["white","black"],"door_generator_assignment":[1,0],"goal":1,"start":4,"action_noise":0.15,"location_history":"[4,5,0,6,11,5,0,1]","action_history":"[1,0,1,0,1,0,0]","door_history":"[0,1,0,1,0,1,1]","location_rts":"[1829,771,689,1078,885,581,614]","trial_type":"two-door-navigation","trial_index":11,"time_elapsed":292186,"internal_node_id":"0.0-2.0-9.0"},{"group":"dihedral group of order 12","room_assignment":["brown","grey","yellow","olive","green","cyan","ivory","orange","red","pink","blue","purple"],"door_color_assignment":["white","black"],"door_generator_assignment":[1,0],"goal":9,"start":1,"action_noise":0.15,"location_history":"[1,2,8,7,1,2,3,9]","action_history":"[1,0,0,1,0,0,0]","door_history":"[0,1,1,0,1,1,1]","location_rts":"[1943,467,600,1050,753,513,494]","trial_type":"two-door-navigation","trial_index":12,"time_elapsed":310859,"internal_node_id":"0.0-2.0-10.0"},{"group":"dihedral group of order 12","room_assignment":["brown","grey","yellow","olive","green","cyan","ivory","orange","red","pink","blue","purple"],"door_color_assignment":["white","black"],"door_generator_assignment":[1,0],"goal":10,"start":9,"action_noise":0.15,"location_history":"[9,3,4,5,0,1,7,6,11,10]","action_history":"[1,0,0,0,0,1,0,0,0]","door_history":"[0,1,1,1,1,0,1,1,1]","location_rts":"[1286,417,477,541,596,868,532,1039,431]","trial_type":"two-door-navigation","trial_index":13,"time_elapsed":331403,"internal_node_id":"0.0-2.0-11.0"},{"group":"dihedral group of order 12","room_assignment":["brown","grey","yellow","olive","green","cyan","ivory","orange","red","pink","blue","purple"],"door_color_assignment":["white","black"],"door_generator_assignment":[1,0],"goal":2,"start":10,"action_noise":0.15,"location_history":"[10,4,5,0,1,2]","action_history":"[1,0,0,0,1]","door_history":"[0,1,1,1,0]","location_rts":"[2060,462,487,567,1194]","trial_type":"two-door-navigation","trial_index":14,"time_elapsed":346919,"internal_node_id":"0.0-2.0-12.0"},{"group":"dihedral group of order 12","room_assignment":["brown","grey","yellow","olive","green","cyan","ivory","orange","red","pink","blue","purple"],"door_color_assignment":["white","black"],"door_generator_assignment":[1,0],"goal":0,"start":2,"action_noise":0.15,"location_history":"[2,3,9,8,7,6,11,10,4,5,0]","action_history":"[0,1,0,0,0,0,0,1,0,0]","door_history":"[1,0,1,1,1,1,1,0,1,1]","location_rts":"[1539,1618,522,538,378,426,284,602,571,460]","trial_type":"two-door-navigation","trial_index":15,"time_elapsed":371581,"internal_node_id":"0.0-2.0-13.0"},{"group":"dihedral group of order 12","room_assignment":["brown","grey","yellow","olive","green","cyan","ivory","orange","red","pink","blue","purple"],"door_color_assignment":["white","black"],"door_generator_assignment":[1,0],"goal":9,"start":0,"action_noise":0.15,"location_history":"[0,6,11,5,0,1,2,3,4,10,4,5,11,10,9]","action_history":"[1,0,1,0,0,1,0,0,0,1,0,0,0,0]","door_history":"[0,1,0,1,1,0,1,1,1,0,1,1,1,1]","location_rts":"[2246,939,1135,438,507,635,442,795,455,673,523,396,523,628]","trial_type":"two-door-navigation","trial_index":16,"time_elapsed":405865,"internal_node_id":"0.0-2.0-14.0"},{"group":"dihedral group of order 12","room_assignment":["brown","grey","yellow","olive","green","cyan","ivory","orange","red","pink","blue","purple"],"door_color_assignment":["white","black"],"door_generator_assignment":[1,0],"goal":8,"start":9,"action_noise":0.15,"location_history":"[9,8]","action_history":"[0]","door_history":"[1]","location_rts":"[5453]","trial_type":"two-door-navigation","trial_index":17,"time_elapsed":420281,"internal_node_id":"0.0-2.0-15.0"},{"group":"dihedral group of order 12","room_assignment":["brown","grey","yellow","olive","green","cyan","ivory","orange","red","pink","blue","purple"],"door_color_assignment":["white","black"],"door_generator_assignment":[1,0],"goal":6,"start":8,"action_noise":0.15,"location_history":"[8,2,3,9,3,4,5,11,10,9,3,9,8,7,1,7,1,2,3,4,5,0,6]","action_history":"[1,0,1,0,0,0,1,0,0,1,0,0,0,1,1,0,0,0,0,0,0,0]","door_history":"[0,1,0,1,1,1,0,1,1,0,1,1,1,0,0,1,1,1,1,1,1,1]","location_rts":"[1723,629,561,630,538,393,796,437,385,643,423,597,378,504,1463,372,541,597,692,426,499,469]","trial_type":"two-door-navigation","trial_index":18,"time_elapsed":464608,"internal_node_id":"0.0-2.0-16.0"},{"group":"dihedral group of order 12","room_assignment":["brown","grey","yellow","olive","green","cyan","ivory","orange","red","pink","blue","purple"],"door_color_assignment":["white","black"],"door_generator_assignment":[1,0],"goal":1,"start":6,"action_noise":0.15,"location_history":"[6,11,5,0,1]","action_history":"[0,1,0,0]","door_history":"[1,0,1,1]","location_rts":"[2065,1232,404,581]","trial_type":"two-door-navigation","trial_index":19,"time_elapsed":477391,"internal_node_id":"0.0-2.0-17.0"},{"group":"dihedral group of order 12","room_assignment":["brown","grey","yellow","olive","green","cyan","ivory","orange","red","pink","blue","purple"],"door_color_assignment":["white","black"],"door_generator_assignment":[1,0],"goal":4,"start":1,"action_noise":0.15,"location_history":"[1,2,8,7,6,11,10,9,8,2,3,4]","action_history":"[0,1,0,0,0,0,0,0,0,0,0]","door_history":"[1,0,1,1,1,1,1,1,1,1,1]","location_rts":"[1659,1239,570,495,417,364,396,544,364,288,476]","trial_type":"two-door-navigation","trial_index":20,"time_elapsed":501067,"internal_node_id":"0.0-2.0-18.0"},{"group":"dihedral group of order 12","room_assignment":["brown","grey","yellow","olive","green","cyan","ivory","orange","red","pink","blue","purple"],"door_color_assignment":["white","black"],"door_generator_assignment":[1,0],"goal":11,"start":4,"action_noise":0.15,"location_history":"[4,5,11]","action_history":"[0,0]","door_history":"[1,1]","location_rts":"[8714,754]","trial_type":"two-door-navigation","trial_index":21,"time_elapsed":516288,"internal_node_id":"0.0-2.0-19.0"},{"group":"dihedral group of order 12","room_assignment":["brown","grey","yellow","olive","green","cyan","ivory","orange","red","pink","blue","purple"],"door_color_assignment":["white","black"],"door_generator_assignment":[1,0],"goal":3,"start":11,"action_noise":0.15,"location_history":"[11,5,11,10,4,5,0,1,2,8,7,6,0,1,2,3]","action_history":"[1,1,0,1,0,0,0,0,0,0,0,0,0,0,0]","door_history":"[0,0,1,0,1,1,1,1,1,1,1,1,1,1,1]","location_rts":"[1792,950,363,673,1340,585,456,405,513,382,449,449,690,388,361]","trial_type":"two-door-navigation","trial_index":22,"time_elapsed":547696,"internal_node_id":"0.0-2.0-20.0"},{"group":"dihedral group of order 12","room_assignment":["brown","grey","yellow","olive","green","cyan","ivory","orange","red","pink","blue","purple"],"door_color_assignment":["white","black"],"door_generator_assignment":[1,0],"goal":5,"start":3,"action_noise":0.15,"location_history":"[3,9,8,7,6,11,10,4,5]","action_history":"[1,0,0,0,0,0,1,0]","door_history":"[0,1,1,1,1,1,0,1]","location_rts":"[1419,565,655,477,435,550,1201,439]","trial_type":"two-door-navigation","trial_index":23,"time_elapsed":566496,"internal_node_id":"0.0-2.0-21.0"},{"group":"dihedral group of order 12","room_assignment":["brown","grey","yellow","olive","green","cyan","ivory","orange","red","pink","blue","purple"],"door_color_assignment":["white","black"],"door_generator_assignment":[1,0],"goal":7,"start":5,"action_noise":0.15,"location_history":"[5,11,10,9,8,7]","action_history":"[1,0,0,0,0]","door_history":"[0,1,1,1,1]","location_rts":"[1663,401,316,429,298]","trial_type":"two-door-navigation","trial_index":24,"time_elapsed":579682,"internal_node_id":"0.0-2.0-22.0"},{"group":"dihedral group of order 12","room_assignment":["brown","grey","yellow","olive","green","cyan","ivory","orange","red","pink","blue","purple"],"door_color_assignment":["white","black"],"door_generator_assignment":[1,0],"goal":3,"start":7,"action_noise":0.15,"location_history":"[7,6,11,5,0,6,11,5,0,1,2,3]","action_history":"[0,0,1,0,0,0,0,0,0,0,0]","door_history":"[1,1,0,1,1,1,1,1,1,1,1]","location_rts":"[8475,693,590,405,415,481,517,744,5837,454,677]","trial_type":"two-door-navigation","trial_index":25,"time_elapsed":617495,"internal_node_id":"0.0-2.0-23.0"},{"group":"dihedral group of order 12","room_assignment":["brown","grey","yellow","olive","green","cyan","ivory","orange","red","pink","blue","purple"],"door_color_assignment":["white","black"],"door_generator_assignment":[1,0],"goal":4,"start":3,"action_noise":0.15,"location_history":"[3,4]","action_history":"[0]","door_history":"[1]","location_rts":"[5246]","trial_type":"two-door-navigation","trial_index":26,"time_elapsed":627615,"internal_node_id":"0.0-2.0-24.0"},{"group":"dihedral group of order 12","room_assignment":["brown","grey","yellow","olive","green","cyan","ivory","orange","red","pink","blue","purple"],"door_color_assignment":["white","black"],"door_generator_assignment":[1,0],"goal":8,"start":4,"action_noise":0.15,"location_history":"[4,5,0,1,2,3,9,8]","action_history":"[0,0,0,0,0,0,0]","door_history":"[1,1,1,1,1,1,1]","location_rts":"[1376,822,608,371,501,459,541]","trial_type":"two-door-navigation","trial_index":27,"time_elapsed":643848,"internal_node_id":"0.0-2.0-25.0"},{"group":"dihedral group of order 12","room_assignment":["brown","grey","yellow","olive","green","cyan","ivory","orange","red","pink","blue","purple"],"door_color_assignment":["white","black"],"door_generator_assignment":[1,0],"goal":6,"start":8,"action_noise":0.15,"location_history":"[8,2,3,4,5,0,6]","action_history":"[1,0,0,1,0,1]","door_history":"[0,1,1,0,1,0]","location_rts":"[1853,538,443,562,399,707]","trial_type":"two-door-navigation","trial_index":28,"time_elapsed":659573,"internal_node_id":"0.0-2.0-26.0"},{"group":"dihedral group of order 12","room_assignment":["brown","grey","yellow","olive","green","cyan","ivory","orange","red","pink","blue","purple"],"door_color_assignment":["white","black"],"door_generator_assignment":[1,0],"goal":1,"start":6,"action_noise":0.15,"location_history":"[6,11,10,4,5,0,6,11,5,11,10,9,8,7,6,11,5,0,6,0,1]","action_history":"[0,0,1,0,0,1,0,0,0,0,0,0,0,0,0,1,0,1,1,0]","door_history":"[1,1,0,1,1,0,1,1,1,1,1,1,1,1,1,0,1,0,0,1]","location_rts":"[1273,425,647,561,605,907,451,630,291,347,417,400,383,240,976,900,339,543,721,521]","trial_type":"two-door-navigation","trial_index":29,"time_elapsed":700786,"internal_node_id":"0.0-2.0-27.0"},{"group":"dihedral group of order 12","room_assignment":["brown","grey","yellow","olive","green","cyan","ivory","orange","red","pink","blue","purple"],"door_color_assignment":["white","black"],"door_generator_assignment":[1,0],"goal":5,"start":1,"action_noise":0.15,"location_history":"[1,2,8,2,3,4,10,9,8,2,3,9,8,2,3,4,5]","action_history":"[0,1,0,0,0,1,0,0,0,0,0,0,1,1,0,0]","door_history":"[1,0,1,1,1,0,1,1,1,1,1,1,0,0,1,1]","location_rts":"[1990,815,620,519,484,978,396,392,406,305,434,393,1054,1051,945,483]","trial_type":"two-door-navigation","trial_index":30,"time_elapsed":739971,"internal_node_id":"0.0-2.0-28.0"},{"group":"dihedral group of order 12","room_assignment":["brown","grey","yellow","olive","green","cyan","ivory","orange","red","pink","blue","purple"],"door_color_assignment":["white","black"],"door_generator_assignment":[1,0],"goal":9,"start":5,"action_noise":0.15,"location_history":"[5,0,6,11,5,11,10,4,5,11,10,4,5,0,6,11,10,9]","action_history":"[0,1,0,0,0,0,1,0,0,0,0,0,0,1,0,0,0]","door_history":"[1,0,1,1,1,1,0,1,1,1,1,1,1,0,1,1,1]","location_rts":"[5098,696,396,410,373,593,1322,364,419,347,392,394,494,687,439,279,275]","trial_type":"two-door-navigation","trial_index":31,"time_elapsed":778147,"internal_node_id":"0.0-2.0-29.0"},{"group":"dihedral group of order 12","room_assignment":["brown","grey","yellow","olive","green","cyan","ivory","orange","red","pink","blue","purple"],"door_color_assignment":["white","black"],"door_generator_assignment":[1,0],"goal":10,"start":9,"action_noise":0.15,"location_history":"[9,8,7,6,11,10]","action_history":"[1,0,0,0,0]","door_history":"[0,1,1,1,1]","location_rts":"[1858,1057,3182,1245,483]","trial_type":"two-door-navigation","trial_index":32,"time_elapsed":796035,"internal_node_id":"0.0-2.0-30.0"},{"group":"dihedral group of order 12","room_assignment":["brown","grey","yellow","olive","green","cyan","ivory","orange","red","pink","blue","purple"],"door_color_assignment":["white","black"],"door_generator_assignment":[1,0],"goal":0,"start":10,"action_noise":0.15,"location_history":"[10,4,10,4,5,0]","action_history":"[0,1,0,0,0]","door_history":"[1,0,1,1,1]","location_rts":"[1132,1222,402,446,361]","trial_type":"two-door-navigation","trial_index":33,"time_elapsed":809157,"internal_node_id":"0.0-2.0-31.0"},{"group":"dihedral group of order 12","room_assignment":["brown","grey","yellow","olive","green","cyan","ivory","orange","red","pink","blue","purple"],"door_color_assignment":["white","black"],"door_generator_assignment":[1,0],"goal":7,"start":0,"action_noise":0.15,"location_history":"[0,6,11,10,9,8,7]","action_history":"[1,0,0,0,0,0]","door_history":"[0,1,1,1,1,1]","location_rts":"[1235,383,264,304,308,253]","trial_type":"two-door-navigation","trial_index":34,"time_elapsed":822663,"internal_node_id":"0.0-2.0-32.0"},{"group":"dihedral group of order 12","room_assignment":["brown","grey","yellow","olive","green","cyan","ivory","orange","red","pink","blue","purple"],"door_color_assignment":["white","black"],"door_generator_assignment":[1,0],"goal":11,"start":7,"action_noise":0.15,"location_history":"[7,1,2,3,4,10,9,3,9,3,4,5,0,6,11]","action_history":"[1,0,0,0,1,0,1,1,1,0,0,0,1,0]","door_history":"[0,1,1,1,0,1,0,0,0,1,1,1,0,1]","location_rts":"[4182,549,392,568,635,349,632,352,403,281,380,616,734,505]","trial_type":"two-door-navigation","trial_index":35,"time_elapsed":857872,"internal_node_id":"0.0-2.0-33.0"},{"group":"dihedral group of order 12","room_assignment":["brown","grey","yellow","olive","green","cyan","ivory","orange","red","pink","blue","purple"],"door_color_assignment":["white","black"],"door_generator_assignment":[1,0],"goal":2,"start":11,"action_noise":0.15,"location_history":"[11,5,0,6,11,10,9,3,4,5,0,1,2]","action_history":"[0,0,1,0,0,0,1,0,0,0,0,0]","door_history":"[1,1,0,1,1,1,0,1,1,1,1,1]","location_rts":"[1346,490,874,431,465,491,662,419,428,429,472,542]","trial_type":"two-door-navigation","trial_index":36,"time_elapsed":883482,"internal_node_id":"0.0-2.0-34.0"},{"view_history":"[{\"page_index\":0,\"viewing_time\":1616}]","rt":1617,"trial_type":"instructions","trial_index":37,"time_elapsed":886099,"internal_node_id":"0.0-3.0"},{"view_history":"[{\"page_index\":0,\"viewing_time\":1274},{\"page_index\":1,\"viewing_time\":2758}]","rt":4033,"trial_type":"instructions","trial_index":38,"time_elapsed":891133,"internal_node_id":"0.0-4.0"},{"group":"dihedral group of order 12","fractal_assignment":["../images/grn_red.png","../images/wht_red.png","../images/ylw_slt.png","../images/ylw_pnk.png","../images/cyn_red.png","../images/blu_wht.png","../images/grn_prp.png","../images/grn_blu.png","../images/gry_blk.png","../images/red_prp.png","../images/pnk_blu.png","../images/org_blu.png"],"mutagen_generator_assignment":[0,1],"goal":7,"start":3,"action_noise":0.15,"location_history":"[3,9,8,7]","action_history":"[1,0,0]","mutagen_history":"[1,0,0]","location_rts":"[4897,687,451]","trial_type":"fractal-mutation","trial_index":39,"time_elapsed":906958,"internal_node_id":"0.0-5.0-0.0"},{"group":"dihedral group of order 12","fractal_assignment":["../images/grn_red.png","../images/wht_red.png","../images/ylw_slt.png","../images/ylw_pnk.png","../images/cyn_red.png","../images/blu_wht.png","../images/grn_prp.png","../images/grn_blu.png","../images/gry_blk.png","../images/red_prp.png","../images/pnk_blu.png","../images/org_blu.png"],"mutagen_generator_assignment":[0,1],"goal":5,"start":7,"action_noise":0.15,"location_history":"[7,6,11,10,4,5]","action_history":"[0,0,0,0,0]","mutagen_history":"[0,0,0,0,0]","location_rts":"[953,423,418,500,421]","trial_type":"fractal-mutation","trial_index":40,"time_elapsed":921668,"internal_node_id":"0.0-5.0-1.0"},{"group":"dihedral group of order 12","fractal_assignment":["../images/grn_red.png","../images/wht_red.png","../images/ylw_slt.png","../images/ylw_pnk.png","../images/cyn_red.png","../images/blu_wht.png","../images/grn_prp.png","../images/grn_blu.png","../images/gry_blk.png","../images/red_prp.png","../images/pnk_blu.png","../images/org_blu.png"],"mutagen_generator_assignment":[0,1],"goal":0,"start":5,"action_noise":0.15,"location_history":"[5,11,10,9,3,4,5,0]","action_history":"[1,0,0,0,0,0,0]","mutagen_history":"[1,0,0,0,0,0,0]","location_rts":"[1567,605,323,395,475,351,246]","trial_type":"fractal-mutation","trial_index":41,"time_elapsed":941717,"internal_node_id":"0.0-5.0-2.0"},{"group":"dihedral group of order 12","fractal_assignment":["../images/grn_red.png","../images/wht_red.png","../images/ylw_slt.png","../images/ylw_pnk.png","../images/cyn_red.png","../images/blu_wht.png","../images/grn_prp.png","../images/grn_blu.png","../images/gry_blk.png","../images/red_prp.png","../images/pnk_blu.png","../images/org_blu.png"],"mutagen_generator_assignment":[0,1],"goal":2,"start":0,"action_noise":0.15,"location_history":"[0,1,2]","action_history":"[1,0]","mutagen_history":"[1,0]","location_rts":"[1518,447]","trial_type":"fractal-mutation","trial_index":42,"time_elapsed":950843,"internal_node_id":"0.0-5.0-3.0"},{"group":"dihedral group of order 12","fractal_assignment":["../images/grn_red.png","../images/wht_red.png","../images/ylw_slt.png","../images/ylw_pnk.png","../images/cyn_red.png","../images/blu_wht.png","../images/grn_prp.png","../images/grn_blu.png","../images/gry_blk.png","../images/red_prp.png","../images/pnk_blu.png","../images/org_blu.png"],"mutagen_generator_assignment":[0,1],"goal":10,"start":2,"action_noise":0.15,"location_history":"[2,8,7,6,11,10]","action_history":"[1,0,0,1,0]","mutagen_history":"[1,0,0,1,0]","location_rts":"[2260,381,523,529,504]","trial_type":"fractal-mutation","trial_index":43,"time_elapsed":967269,"internal_node_id":"0.0-5.0-4.0"},{"group":"dihedral group of order 12","fractal_assignment":["../images/grn_red.png","../images/wht_red.png","../images/ylw_slt.png","../images/ylw_pnk.png","../images/cyn_red.png","../images/blu_wht.png","../images/grn_prp.png","../images/grn_blu.png","../images/gry_blk.png","../images/red_prp.png","../images/pnk_blu.png","../images/org_blu.png"],"mutagen_generator_assignment":[0,1],"goal":8,"start":10,"action_noise":0.15,"location_history":"[10,9,8]","action_history":"[0,0]","mutagen_history":"[0,0]","location_rts":"[1297,374]","trial_type":"fractal-mutation","trial_index":44,"time_elapsed":976817,"internal_node_id":"0.0-5.0-5.0"},{"group":"dihedral group of order 12","fractal_assignment":["../images/grn_red.png","../images/wht_red.png","../images/ylw_slt.png","../images/ylw_pnk.png","../images/cyn_red.png","../images/blu_wht.png","../images/grn_prp.png","../images/grn_blu.png","../images/gry_blk.png","../images/red_prp.png","../images/pnk_blu.png","../images/org_blu.png"],"mutagen_generator_assignment":[0,1],"goal":11,"start":8,"action_noise":0.15,"location_history":"[8,2,3,4,5,0,1,7,6,11]","action_history":"[1,0,0,0,0,0,1,0,0]","mutagen_history":"[1,0,0,0,0,0,1,0,0]","location_rts":"[5583,362,493,443,351,1152,1089,378,889]","trial_type":"fractal-mutation","trial_index":45,"time_elapsed":1009594,"internal_node_id":"0.0-5.0-6.0"},{"group":"dihedral group of order 12","fractal_assignment":["../images/grn_red.png","../images/wht_red.png","../images/ylw_slt.png","../images/ylw_pnk.png","../images/cyn_red.png","../images/blu_wht.png","../images/grn_prp.png","../images/grn_blu.png","../images/gry_blk.png","../images/red_prp.png","../images/pnk_blu.png","../images/org_blu.png"],"mutagen_generator_assignment":[0,1],"goal":6,"start":11,"action_noise":0.15,"location_history":"[11,5,0,6]","action_history":"[1,0,1]","mutagen_history":"[1,0,1]","location_rts":"[1840,471,951]","trial_type":"fractal-mutation","trial_index":46,"time_elapsed":1022197,"internal_node_id":"0.0-5.0-7.0"},{"group":"dihedral group of order 12","fractal_assignment":["../images/grn_red.png","../images/wht_red.png","../images/ylw_slt.png","../images/ylw_pnk.png","../images/cyn_red.png","../images/blu_wht.png","../images/grn_prp.png","../images/grn_blu.png","../images/gry_blk.png","../images/red_prp.png","../images/pnk_blu.png","../images/org_blu.png"],"mutagen_generator_assignment":[0,1],"goal":4,"start":6,"action_noise":0.15,"location_history":"[6,0,1,2,8,2,3,4]","action_history":"[1,0,0,1,0,0,0]","mutagen_history":"[1,0,0,1,0,0,0]","location_rts":"[1340,736,429,912,416,593,472]","trial_type":"fractal-mutation","trial_index":47,"time_elapsed":1043768,"internal_node_id":"0.0-5.0-8.0"},{"group":"dihedral group of order 12","fractal_assignment":["../images/grn_red.png","../images/wht_red.png","../images/ylw_slt.png","../images/ylw_pnk.png","../images/cyn_red.png","../images/blu_wht.png","../images/grn_prp.png","../images/grn_blu.png","../images/gry_blk.png","../images/red_prp.png","../images/pnk_blu.png","../images/org_blu.png"],"mutagen_generator_assignment":[0,1],"goal":1,"start":4,"action_noise":0.15,"location_history":"[4,10,9,8,7,1]","action_history":"[1,0,0,0,1]","mutagen_history":"[1,0,0,0,1]","location_rts":"[2074,445,454,408,1147]","trial_type":"fractal-mutation","trial_index":48,"time_elapsed":1060797,"internal_node_id":"0.0-5.0-9.0"},{"group":"dihedral group of order 12","fractal_assignment":["../images/grn_red.png","../images/wht_red.png","../images/ylw_slt.png","../images/ylw_pnk.png","../images/cyn_red.png","../images/blu_wht.png","../images/grn_prp.png","../images/grn_blu.png","../images/gry_blk.png","../images/red_prp.png","../images/pnk_blu.png","../images/org_blu.png"],"mutagen_generator_assignment":[0,1],"goal":9,"start":1,"action_noise":0.15,"location_history":"[1,2,8,7,6,11,5,11,10,9]","action_history":"[0,1,0,0,0,1,0,0,0]","mutagen_history":"[0,1,0,0,0,1,0,0,0]","location_rts":"[899,1013,477,413,681,1265,414,517,465]","trial_type":"fractal-mutation","trial_index":49,"time_elapsed":1087693,"internal_node_id":"0.0-5.0-10.0"},{"group":"dihedral group of order 12","fractal_assignment":["../images/grn_red.png","../images/wht_red.png","../images/ylw_slt.png","../images/ylw_pnk.png","../images/cyn_red.png","../images/blu_wht.png","../images/grn_prp.png","../images/grn_blu.png","../images/gry_blk.png","../images/red_prp.png","../images/pnk_blu.png","../images/org_blu.png"],"mutagen_generator_assignment":[0,1],"goal":10,"start":9,"action_noise":0.15,"location_history":"[9,3,4,10]","action_history":"[1,0,1]","mutagen_history":"[1,0,1]","location_rts":"[2399,673,980]","trial_type":"fractal-mutation","trial_index":50,"time_elapsed":1101283,"internal_node_id":"0.0-5.0-11.0"},{"group":"dihedral group of order 12","fractal_assignment":["../images/grn_red.png","../images/wht_red.png","../images/ylw_slt.png","../images/ylw_pnk.png","../images/cyn_red.png","../images/blu_wht.png","../images/grn_prp.png","../images/grn_blu.png","../images/gry_blk.png","../images/red_prp.png","../images/pnk_blu.png","../images/org_blu.png"],"mutagen_generator_assignment":[0,1],"goal":2,"start":10,"action_noise":0.15,"location_history":"[10,9,3,4,5,0,1,2]","action_history":"[0,1,0,0,0,0,0]","mutagen_history":"[0,1,0,0,0,0,0]","location_rts":"[1693,799,531,567,745,544,472]","trial_type":"fractal-mutation","trial_index":51,"time_elapsed":1122910,"internal_node_id":"0.0-5.0-12.0"},{"group":"dihedral group of order 12","fractal_assignment":["../images/grn_red.png","../images/wht_red.png","../images/ylw_slt.png","../images/ylw_pnk.png","../images/cyn_red.png","../images/blu_wht.png","../images/grn_prp.png","../images/grn_blu.png","../images/gry_blk.png","../images/red_prp.png","../images/pnk_blu.png","../images/org_blu.png"],"mutagen_generator_assignment":[0,1],"goal":0,"start":2,"action_noise":0.15,"location_history":"[2,8,7,6,0]","action_history":"[0,0,0,0]","mutagen_history":"[0,0,0,0]","location_rts":"[1327,396,494,420]","trial_type":"fractal-mutation","trial_index":52,"time_elapsed":1135890,"internal_node_id":"0.0-5.0-13.0"},{"group":"dihedral group of order 12","fractal_assignment":["../images/grn_red.png","../images/wht_red.png","../images/ylw_slt.png","../images/ylw_pnk.png","../images/cyn_red.png","../images/blu_wht.png","../images/grn_prp.png","../images/grn_blu.png","../images/gry_blk.png","../images/red_prp.png","../images/pnk_blu.png","../images/org_blu.png"],"mutagen_generator_assignment":[0,1],"goal":9,"start":0,"action_noise":0.15,"location_history":"[0,6,11,10,9]","action_history":"[1,0,0,0]","mutagen_history":"[1,0,0,0]","location_rts":"[1311,396,760,7123]","trial_type":"fractal-mutation","trial_index":53,"time_elapsed":1158038,"internal_node_id":"0.0-5.0-14.0"},{"group":"dihedral group of order 12","fractal_assignment":["../images/grn_red.png","../images/wht_red.png","../images/ylw_slt.png","../images/ylw_pnk.png","../images/cyn_red.png","../images/blu_wht.png","../images/grn_prp.png","../images/grn_blu.png","../images/gry_blk.png","../images/red_prp.png","../images/pnk_blu.png","../images/org_blu.png"],"mutagen_generator_assignment":[0,1],"goal":8,"start":9,"action_noise":0.15,"location_history":"[9,3,4,5,0,1,2,8]","action_history":"[0,0,0,0,0,0,1]","mutagen_history":"[0,0,0,0,0,0,1]","location_rts":"[1485,591,644,551,484,884,949]","trial_type":"fractal-mutation","trial_index":54,"time_elapsed":1179242,"internal_node_id":"0.0-5.0-15.0"},{"group":"dihedral group of order 12","fractal_assignment":["../images/grn_red.png","../images/wht_red.png","../images/ylw_slt.png","../images/ylw_pnk.png","../images/cyn_red.png","../images/blu_wht.png","../images/grn_prp.png","../images/grn_blu.png","../images/gry_blk.png","../images/red_prp.png","../images/pnk_blu.png","../images/org_blu.png"],"mutagen_generator_assignment":[0,1],"goal":6,"start":8,"action_noise":0.15,"location_history":"[8,7,1,2,8,7,6]","action_history":"[0,0,0,1,0,0]","mutagen_history":"[0,0,0,1,0,0]","location_rts":"[1630,571,505,795,449,420]","trial_type":"fractal-mutation","trial_index":55,"time_elapsed":1198800,"internal_node_id":"0.0-5.0-16.0"},{"group":"dihedral group of order 12","fractal_assignment":["../images/grn_red.png","../images/wht_red.png","../images/ylw_slt.png","../images/ylw_pnk.png","../images/cyn_red.png","../images/blu_wht.png","../images/grn_prp.png","../images/grn_blu.png","../images/gry_blk.png","../images/red_prp.png","../images/pnk_blu.png","../images/org_blu.png"],"mutagen_generator_assignment":[0,1],"goal":1,"start":6,"action_noise":0.15,"location_history":"[6,11,5,11,5,0,1]","action_history":"[0,1,0,0,0,0]","mutagen_history":"[0,1,0,0,0,0]","location_rts":"[2980,1400,438,703,414,736]","trial_type":"fractal-mutation","trial_index":56,"time_elapsed":1220491,"internal_node_id":"0.0-5.0-17.0"},{"group":"dihedral group of order 12","fractal_assignment":["../images/grn_red.png","../images/wht_red.png","../images/ylw_slt.png","../images/ylw_pnk.png","../images/cyn_red.png","../images/blu_wht.png","../images/grn_prp.png","../images/grn_blu.png","../images/gry_blk.png","../images/red_prp.png","../images/pnk_blu.png","../images/org_blu.png"],"mutagen_generator_assignment":[0,1],"goal":4,"start":1,"action_noise":0.15,"location_history":"[1,7,6,11,10,9,3,4]","action_history":"[0,0,0,0,0,0,0]","mutagen_history":"[0,0,0,0,0,0,0]","location_rts":"[960,404,526,443,395,377,440]","trial_type":"fractal-mutation","trial_index":57,"time_elapsed":1238917,"internal_node_id":"0.0-5.0-18.0"},{"group":"dihedral group of order 12","fractal_assignment":["../images/grn_red.png","../images/wht_red.png","../images/ylw_slt.png","../images/ylw_pnk.png","../images/cyn_red.png","../images/blu_wht.png","../images/grn_prp.png","../images/grn_blu.png","../images/gry_blk.png","../images/red_prp.png","../images/pnk_blu.png","../images/org_blu.png"],"mutagen_generator_assignment":[0,1],"goal":11,"start":4,"action_noise":0.15,"location_history":"[4,10,9,8,7,6,0,1,2,3,9,8,7,6,0,1,2,8,2,3,4,10,9,3,9,8,7,1,7,6,0,6,0,1,2,3,4,10,4,5,0,6,0,1,2,8,2,8,7,6,11]","action_history":"[1,0,0,0,0,1,0,0,0,0,0,0,0,1,0,0,1,0,0,0,1,0,1,1,0,0,1,1,0,1,0,1,0,0,0,0,1,1,0,0,1,1,0,1,1,0,1,0,0,0]","mutagen_history":"[1,0,0,0,0,1,0,0,0,0,0,0,0,1,0,0,1,0,0,0,1,0,1,1,0,0,1,1,0,1,0,1,0,0,0,0,1,1,0,0,1,1,0,1,1,0,1,0,0,0]","location_rts":"[1718,446,523,1206,886,1116,451,575,417,1635,573,525,444,937,1063,527,906,400,409,512,1494,527,1458,1203,444,1583,893,1239,458,984,431,1019,533,449,555,1246,1103,1207,464,433,1349,880,388,879,993,1853,807,394,341,817]","trial_type":"fractal-mutation","trial_index":58,"time_elapsed":1379311,"internal_node_id":"0.0-5.0-19.0"},{"group":"dihedral group of order 12","fractal_assignment":["../images/grn_red.png","../images/wht_red.png","../images/ylw_slt.png","../images/ylw_pnk.png","../images/cyn_red.png","../images/blu_wht.png","../images/grn_prp.png","../images/grn_blu.png","../images/gry_blk.png","../images/red_prp.png","../images/pnk_blu.png","../images/org_blu.png"],"mutagen_generator_assignment":[0,1],"goal":3,"start":11,"action_noise":0.15,"location_history":"[11,10,9,3]","action_history":"[1,0,0]","mutagen_history":"[1,0,0]","location_rts":"[1547,372,408]","trial_type":"fractal-mutation","trial_index":59,"time_elapsed":1390615,"internal_node_id":"0.0-5.0-20.0"},{"group":"dihedral group of order 12","fractal_assignment":["../images/grn_red.png","../images/wht_red.png","../images/ylw_slt.png","../images/ylw_pnk.png","../images/cyn_red.png","../images/blu_wht.png","../images/grn_prp.png","../images/grn_blu.png","../images/gry_blk.png","../images/red_prp.png","../images/pnk_blu.png","../images/org_blu.png"],"mutagen_generator_assignment":[0,1],"goal":5,"start":3,"action_noise":0.15,"location_history":"[3,9,8,2,8,7,1,7,6,0,6,0,6,11,5]","action_history":"[1,0,1,1,0,1,1,0,1,0,1,1,0,1]","mutagen_history":"[1,0,1,1,0,1,1,0,1,0,1,1,0,1]","location_rts":"[1786,424,966,690,272,809,994,514,910,591,509,736,285,511]","trial_type":"fractal-mutation","trial_index":60,"time_elapsed":1437185,"internal_node_id":"0.0-5.0-21.0"},{"group":"dihedral group of order 12","fractal_assignment":["../images/grn_red.png","../images/wht_red.png","../images/ylw_slt.png","../images/ylw_pnk.png","../images/cyn_red.png","../images/blu_wht.png","../images/grn_prp.png","../images/grn_blu.png","../images/gry_blk.png","../images/red_prp.png","../images/pnk_blu.png","../images/org_blu.png"],"mutagen_generator_assignment":[0,1],"goal":7,"start":5,"action_noise":0.15,"location_history":"[5,11,5,0,1,7]","action_history":"[0,1,0,0,0]","mutagen_history":"[0,1,0,0,0]","location_rts":"[1423,906,473,498,369]","trial_type":"fractal-mutation","trial_index":61,"time_elapsed":1453515,"internal_node_id":"0.0-5.0-22.0"},{"group":"dihedral group of order 12","fractal_assignment":["../images/grn_red.png","../images/wht_red.png","../images/ylw_slt.png","../images/ylw_pnk.png","../images/cyn_red.png","../images/blu_wht.png","../images/grn_prp.png","../images/grn_blu.png","../images/gry_blk.png","../images/red_prp.png","../images/pnk_blu.png","../images/org_blu.png"],"mutagen_generator_assignment":[0,1],"goal":3,"start":7,"action_noise":0.15,"location_history":"[7,6,11,10,9,3]","action_history":"[0,0,1,0,1]","mutagen_history":"[0,0,1,0,1]","location_rts":"[33224,820,1743,440,1112]","trial_type":"fractal-mutation","trial_index":62,"time_elapsed":1503432,"internal_node_id":"0.0-5.0-23.0"},{"group":"dihedral group of order 12","fractal_assignment":["../images/grn_red.png","../images/wht_red.png","../images/ylw_slt.png","../images/ylw_pnk.png","../images/cyn_red.png","../images/blu_wht.png","../images/grn_prp.png","../images/grn_blu.png","../images/gry_blk.png","../images/red_prp.png","../images/pnk_blu.png","../images/org_blu.png"],"mutagen_generator_assignment":[0,1],"goal":4,"start":3,"action_noise":0.15,"location_history":"[3,4]","action_history":"[0]","mutagen_history":"[0]","location_rts":"[1231]","trial_type":"fractal-mutation","trial_index":63,"time_elapsed":1509690,"internal_node_id":"0.0-5.0-24.0"},{"group":"dihedral group of order 12","fractal_assignment":["../images/grn_red.png","../images/wht_red.png","../images/ylw_slt.png","../images/ylw_pnk.png","../images/cyn_red.png","../images/blu_wht.png","../images/grn_prp.png","../images/grn_blu.png","../images/gry_blk.png","../images/red_prp.png","../images/pnk_blu.png","../images/org_blu.png"],"mutagen_generator_assignment":[0,1],"goal":8,"start":4,"action_noise":0.15,"location_history":"[4,5,11,5,0,1,2,3,4,5,0,1,7,6,0,1,2,3,4,5,0,1,7,6,11,5,11,10,9,8]","action_history":"[0,1,1,0,0,0,0,0,1,0,0,1,0,1,0,0,0,0,0,0,0,1,0,0,1,1,0,0,0]","mutagen_history":"[0,1,1,0,0,0,0,0,1,0,0,1,0,1,0,0,0,0,0,0,0,1,0,0,1,1,0,0,0]","location_rts":"[1040,1401,441,319,774,405,496,562,1426,705,477,1077,454,1189,436,435,398,388,795,998,570,877,606,863,1737,1267,281,568,959]","trial_type":"fractal-mutation","trial_index":64,"time_elapsed":1586906,"internal_node_id":"0.0-5.0-25.0"},{"group":"dihedral group of order 12","fractal_assignment":["../images/grn_red.png","../images/wht_red.png","../images/ylw_slt.png","../images/ylw_pnk.png","../images/cyn_red.png","../images/blu_wht.png","../images/grn_prp.png","../images/grn_blu.png","../images/gry_blk.png","../images/red_prp.png","../images/pnk_blu.png","../images/org_blu.png"],"mutagen_generator_assignment":[0,1],"goal":6,"start":8,"action_noise":0.15,"location_history":"[8,7,6]","action_history":"[1,0]","mutagen_history":"[1,0]","location_rts":"[2866,431]","trial_type":"fractal-mutation","trial_index":65,"time_elapsed":1597506,"internal_node_id":"0.0-5.0-26.0"},{"group":"dihedral group of order 12","fractal_assignment":["../images/grn_red.png","../images/wht_red.png","../images/ylw_slt.png","../images/ylw_pnk.png","../images/cyn_red.png","../images/blu_wht.png","../images/grn_prp.png","../images/grn_blu.png","../images/gry_blk.png","../images/red_prp.png","../images/pnk_blu.png","../images/org_blu.png"],"mutagen_generator_assignment":[0,1],"goal":1,"start":6,"action_noise":0.15,"location_history":"[6,11,5,0,1]","action_history":"[0,0,0,0]","mutagen_history":"[0,0,0,0]","location_rts":"[1304,949,9232,439]","trial_type":"fractal-mutation","trial_index":66,"time_elapsed":1621125,"internal_node_id":"0.0-5.0-27.0"},{"group":"dihedral group of order 12","fractal_assignment":["../images/grn_red.png","../images/wht_red.png","../images/ylw_slt.png","../images/ylw_pnk.png","../images/cyn_red.png","../images/blu_wht.png","../images/grn_prp.png","../images/grn_blu.png","../images/gry_blk.png","../images/red_prp.png","../images/pnk_blu.png","../images/org_blu.png"],"mutagen_generator_assignment":[0,1],"goal":5,"start":1,"action_noise":0.15,"location_history":"[1,2,8,2,3,4,5]","action_history":"[0,1,0,0,0,0]","mutagen_history":"[0,1,0,0,0,0]","location_rts":"[1193,1872,497,425,416,1057]","trial_type":"fractal-mutation","trial_index":67,"time_elapsed":1639732,"internal_node_id":"0.0-5.0-28.0"},{"group":"dihedral group of order 12","fractal_assignment":["../images/grn_red.png","../images/wht_red.png","../images/ylw_slt.png","../images/ylw_pnk.png","../images/cyn_red.png","../images/blu_wht.png","../images/grn_prp.png","../images/grn_blu.png","../images/gry_blk.png","../images/red_prp.png","../images/pnk_blu.png","../images/org_blu.png"],"mutagen_generator_assignment":[0,1],"goal":9,"start":5,"action_noise":0.15,"location_history":"[5,11,10,4,5,0,6,0,1,2,3,4,10,4,5,0,1,7,6,0,1,2,3,9]","action_history":"[1,0,0,0,0,0,1,0,1,0,1,0,0,0,0,0,0,0,1,0,0,0,1]","mutagen_history":"[1,0,0,0,0,0,1,0,1,0,1,0,0,0,0,0,0,0,1,0,0,0,1]","location_rts":"[1656,1672,486,813,5808,738,934,486,1659,451,1443,554,443,615,390,389,397,407,1105,417,1506,436,971]","trial_type":"fractal-mutation","trial_index":68,"time_elapsed":1713816,"internal_node_id":"0.0-5.0-29.0"},{"group":"dihedral group of order 12","fractal_assignment":["../images/grn_red.png","../images/wht_red.png","../images/ylw_slt.png","../images/ylw_pnk.png","../images/cyn_red.png","../images/blu_wht.png","../images/grn_prp.png","../images/grn_blu.png","../images/gry_blk.png","../images/red_prp.png","../images/pnk_blu.png","../images/org_blu.png"],"mutagen_generator_assignment":[0,1],"goal":10,"start":9,"action_noise":0.15,"location_history":"[9,3,4,5,11,10]","action_history":"[1,0,0,1,0]","mutagen_history":"[1,0,0,1,0]","location_rts":"[1650,485,387,1156,457]","trial_type":"fractal-mutation","trial_index":69,"time_elapsed":1730763,"internal_node_id":"0.0-5.0-30.0"},{"group":"dihedral group of order 12","fractal_assignment":["../images/grn_red.png","../images/wht_red.png","../images/ylw_slt.png","../images/ylw_pnk.png","../images/cyn_red.png","../images/blu_wht.png","../images/grn_prp.png","../images/grn_blu.png","../images/gry_blk.png","../images/red_prp.png","../images/pnk_blu.png","../images/org_blu.png"],"mutagen_generator_assignment":[0,1],"goal":0,"start":10,"action_noise":0.15,"location_history":"[10,9,8,7,6,11,10,4,5,0]","action_history":"[0,0,0,0,0,0,1,0,0]","mutagen_history":"[0,0,0,0,0,0,1,0,0]","location_rts":"[889,451,403,379,367,383,1144,381,399]","trial_type":"fractal-mutation","trial_index":70,"time_elapsed":1753053,"internal_node_id":"0.0-5.0-31.0"},{"group":"dihedral group of order 12","fractal_assignment":["../images/grn_red.png","../images/wht_red.png","../images/ylw_slt.png","../images/ylw_pnk.png","../images/cyn_red.png","../images/blu_wht.png","../images/grn_prp.png","../images/grn_blu.png","../images/gry_blk.png","../images/red_prp.png","../images/pnk_blu.png","../images/org_blu.png"],"mutagen_generator_assignment":[0,1],"goal":7,"start":0,"action_noise":0.15,"location_history":"[0,6,11,10,9,3,4,5,0,1,7]","action_history":"[0,1,0,0,1,0,0,0,0,1]","mutagen_history":"[0,1,0,0,1,0,0,0,0,1]","location_rts":"[1358,1136,403,478,1115,358,407,411,674,729]","trial_type":"fractal-mutation","trial_index":71,"time_elapsed":1781086,"internal_node_id":"0.0-5.0-32.0"},{"group":"dihedral group of order 12","fractal_assignment":["../images/grn_red.png","../images/wht_red.png","../images/ylw_slt.png","../images/ylw_pnk.png","../images/cyn_red.png","../images/blu_wht.png","../images/grn_prp.png","../images/grn_blu.png","../images/gry_blk.png","../images/red_prp.png","../images/pnk_blu.png","../images/org_blu.png"],"mutagen_generator_assignment":[0,1],"goal":11,"start":7,"action_noise":0.15,"location_history":"[7,6,0,6,11]","action_history":"[0,1,0,0]","mutagen_history":"[0,1,0,0]","location_rts":"[1505,1287,380,858]","trial_type":"fractal-mutation","trial_index":72,"time_elapsed":1796301,"internal_node_id":"0.0-5.0-33.0"},{"group":"dihedral group of order 12","fractal_assignment":["../images/grn_red.png","../images/wht_red.png","../images/ylw_slt.png","../images/ylw_pnk.png","../images/cyn_red.png","../images/blu_wht.png","../images/grn_prp.png","../images/grn_blu.png","../images/gry_blk.png","../images/red_prp.png","../images/pnk_blu.png","../images/org_blu.png"],"mutagen_generator_assignment":[0,1],"goal":2,"start":11,"action_noise":0.15,"location_history":"[11,10,9,8,7,1,2]","action_history":"[0,0,0,0,1,0]","mutagen_history":"[0,0,0,0,1,0]","location_rts":"[2172,1951,694,624,1951,653]","trial_type":"fractal-mutation","trial_index":73,"time_elapsed":1818705,"internal_node_id":"0.0-5.0-34.0"},{"view_history":"[{\"page_index\":0,\"viewing_time\":2894}]","rt":2895,"trial_type":"instructions","trial_index":74,"time_elapsed":1822601,"internal_node_id":"0.0-6.0"},{"rt":31764,"responses":"{\"Q0\":\"If I could figure out the quickest way from room to room through trial and error and learn from it.\"}","trial_type":"survey-text","trial_index":75,"time_elapsed":1855375,"internal_node_id":"0.0-7.0-0.0"},{"rt":31277,"responses":"{\"Q0\":\"If I could figure out the quickest way to change one figure to the next, learning my way through the patterns.\"}","trial_type":"survey-text","trial_index":76,"time_elapsed":1887655,"internal_node_id":"0.0-7.0-1.0"},{"rt":6769,"responses":"{\"Q0\":\"4\"}","trial_type":"survey-likert","trial_index":77,"time_elapsed":1895470,"internal_node_id":"0.0-7.0-2.0"},{"rt":28614,"responses":"{\"Q0\":\"They both involved me figuring out the pattern to get from one place or thing to another.\"}","trial_type":"survey-text","trial_index":78,"time_elapsed":1925088,"internal_node_id":"0.0-7.0-3.0"},{"rt":6111,"responses":"{\"Q0\":\"Yes\"}","trial_type":"survey-multi-choice","trial_index":79,"time_elapsed":1932213,"internal_node_id":"0.0-7.0-4.0"},{"rt":11334,"responses":"{\"Q0\":\"During session 2\"}","trial_type":"survey-multi-choice","trial_index":80,"time_elapsed":1944557,"internal_node_id":"0.0-7.0-5.0"},{"rt":48195,"responses":"{\"Q0\":\"I just felt that the tasks, while different to a degree were similar in objective and how they were completed.\"}","trial_type":"survey-text","trial_index":81,"time_elapsed":1993757,"internal_node_id":"0.0-7.0-6.0"},{"rt":5994,"responses":"{\"Q0\":\"3\"}","trial_type":"survey-likert","trial_index":82,"time_elapsed":2000807,"internal_node_id":"0.0-7.0-7.0"},{"rt":7201,"responses":"{\"Q0\":\"Same structure\"}","trial_type":"survey-multi-choice","trial_index":83,"time_elapsed":2009026,"internal_node_id":"0.0-7.0-8.0"},{"rt":20357,"responses":"{\"Q0\":\"black door = acid, white door = ray\",\"Q1\":\"Moderately confident\"}","trial_type":"survey-multi-choice","trial_index":84,"time_elapsed":2030491,"internal_node_id":"0.0-7.0-9.0"},{"rt":16171,"responses":"{\"Q0\":\"35-45\",\"Q1\":\"Some college\",\"Q2\":\"Female\",\"Q3\":\"White\"}","trial_type":"survey-multi-choice","trial_index":85,"time_elapsed":2047801,"internal_node_id":"0.0-8.0"},{"rt":43913,"responses":"{\"Q0\":\"This was fun! I really enjoyed the tasks in this HIT. Thank you very much for letting me be a part of it! :)\"}","trial_type":"survey-text","trial_index":86,"time_elapsed":2092763,"internal_node_id":"0.0-9.0"}]