[{"view_history":"[{\"page_index\":0,\"viewing_time\":20902},{\"page_index\":1,\"viewing_time\":1439}]","rt":22341,"trial_type":"instructions","trial_index":0,"time_elapsed":22343,"internal_node_id":"0.0-0.0"},{"view_history":"[{\"page_index\":0,\"viewing_time\":2910},{\"page_index\":1,\"viewing_time\":7722}]","rt":10633,"trial_type":"instructions","trial_index":1,"time_elapsed":33978,"internal_node_id":"0.0-1.0"},{"group":"dihedral group of order 12","room_assignment":["purple","blue","orange","yellow","grey","ivory","cyan","olive","brown","green","pink","red"],"door_color_assignment":["white","black"],"door_generator_assignment":[0,1],"goal":7,"start":3,"action_noise":0.15,"location_history":"[3,9,8,7]","action_history":"[1,0,0]","door_history":"[1,0,0]","location_rts":"[4180,2416,388]","trial_type":"two-door-navigation","trial_index":2,"time_elapsed":47499,"internal_node_id":"0.0-2.0-0.0"},{"group":"dihedral group of order 12","room_assignment":["purple","blue","orange","yellow","grey","ivory","cyan","olive","brown","green","pink","red"],"door_color_assignment":["white","black"],"door_generator_assignment":[0,1],"goal":5,"start":7,"action_noise":0.15,"location_history":"[7,6,11,10,4,10,4,5]","action_history":"[0,0,0,1,0,1,0]","door_history":"[0,0,0,1,0,1,0]","location_rts":"[2818,362,403,1371,372,1626,309]","trial_type":"two-door-navigation","trial_index":3,"time_elapsed":65315,"internal_node_id":"0.0-2.0-1.0"},{"group":"dihedral group of order 12","room_assignment":["purple","blue","orange","yellow","grey","ivory","cyan","olive","brown","green","pink","red"],"door_color_assignment":["white","black"],"door_generator_assignment":[0,1],"goal":0,"start":5,"action_noise":0.15,"location_history":"[5,0]","action_history":"[0]","door_history":"[0]","location_rts":"[2852]","trial_type":"two-door-navigation","trial_index":4,"time_elapsed":72673,"internal_node_id":"0.0-2.0-2.0"},{"group":"dihedral group of order 12","room_assignment":["purple","blue","orange","yellow","grey","ivory","cyan","olive","brown","green","pink","red"],"door_color_assignment":["white","black"],"door_generator_assignment":[0,1],"goal":2,"start":0,"action_noise":0.15,"location_history":"[0,1,2]","action_history":"[0,0]","door_history":"[0,0]","location_rts":"[3888,189]","trial_type":"two-door-navigation","trial_index":5,"time_elapsed":82274,"internal_node_id":"0.0-2.0-3.0"},{"group":"dihedral group of order 12","room_assignment":["purple","blue","orange","yellow","grey","ivory","cyan","olive","brown","green","pink","red"],"door_color_assignment":["white","black"],"door_generator_assignment":[0,1],"goal":10,"start":2,"action_noise":0.15,"location_history":"[2,8,7,6,11,10]","action_history":"[0,0,0,0,1]","door_history":"[0,0,0,0,1]","location_rts":"[4425,14,780,489,1273]","trial_type":"two-door-navigation","trial_index":6,"time_elapsed":97793,"internal_node_id":"0.0-2.0-4.0"},{"group":"dihedral group of order 12","room_assignment":["purple","blue","orange","yellow","grey","ivory","cyan","olive","brown","green","pink","red"],"door_color_assignment":["white","black"],"door_generator_assignment":[0,1],"goal":8,"start":10,"action_noise":0.15,"location_history":"[10,4,5,0,1,2,3,9,8]","action_history":"[0,0,0,0,0,0,0,0]","door_history":"[0,0,0,0,0,0,0,0]","location_rts":"[5527,196,936,520,1034,621,992,1114]","trial_type":"two-door-navigation","trial_index":7,"time_elapsed":120273,"internal_node_id":"0.0-2.0-5.0"},{"group":"dihedral group of order 12","room_assignment":["purple","blue","orange","yellow","grey","ivory","cyan","olive","brown","green","pink","red"],"door_color_assignment":["white","black"],"door_generator_assignment":[0,1],"goal":11,"start":8,"action_noise":0.15,"location_history":"[8,2,8,2,3,4,5,0,1,2,3,4,5,11]","action_history":"[1,1,1,0,0,0,0,1,0,0,0,0,1]","door_history":"[1,1,1,0,0,0,0,1,0,0,0,0,1]","location_rts":"[4562,2216,434,1940,579,1741,618,2330,310,475,1440,303,2530]","trial_type":"two-door-navigation","trial_index":8,"time_elapsed":156305,"internal_node_id":"0.0-2.0-6.0"},{"group":"dihedral group of order 12","room_assignment":["purple","blue","orange","yellow","grey","ivory","cyan","olive","brown","green","pink","red"],"door_color_assignment":["white","black"],"door_generator_assignment":[0,1],"goal":6,"start":11,"action_noise":0.15,"location_history":"[11,5,11,5,0,6]","action_history":"[1,0,1,0,1]","door_history":"[1,0,1,0,1]","location_rts":"[4047,621,1748,225,506]","trial_type":"two-door-navigation","trial_index":9,"time_elapsed":171990,"internal_node_id":"0.0-2.0-7.0"},{"group":"dihedral group of order 12","room_assignment":["purple","blue","orange","yellow","grey","ivory","cyan","olive","brown","green","pink","red"],"door_color_assignment":["white","black"],"door_generator_assignment":[0,1],"goal":4,"start":6,"action_noise":0.15,"location_history":"[6,11,5,11,5,0,6,11,10,4]","action_history":"[0,1,1,1,0,0,0,0,1]","door_history":"[0,1,1,1,0,0,0,0,1]","location_rts":"[4050,442,1219,331,1157,200,806,828,1906]","trial_type":"two-door-navigation","trial_index":10,"time_elapsed":195480,"internal_node_id":"0.0-2.0-8.0"},{"group":"dihedral group of order 12","room_assignment":["purple","blue","orange","yellow","grey","ivory","cyan","olive","brown","green","pink","red"],"door_color_assignment":["white","black"],"door_generator_assignment":[0,1],"goal":1,"start":4,"action_noise":0.15,"location_history":"[4,5,0,6,0,1]","action_history":"[0,0,0,1,0]","door_history":"[0,0,0,1,0]","location_rts":"[4341,1396,293,985,345]","trial_type":"two-door-navigation","trial_index":11,"time_elapsed":211372,"internal_node_id":"0.0-2.0-9.0"},{"group":"dihedral group of order 12","room_assignment":["purple","blue","orange","yellow","grey","ivory","cyan","olive","brown","green","pink","red"],"door_color_assignment":["white","black"],"door_generator_assignment":[0,1],"goal":9,"start":1,"action_noise":0.15,"location_history":"[1,2,3,4,5,11,5,11,10,9]","action_history":"[0,0,0,0,1,1,1,0,0]","door_history":"[0,0,0,0,1,1,1,0,0]","location_rts":"[3444,284,359,1621,1059,98,748,316,928]","trial_type":"two-door-navigation","trial_index":12,"time_elapsed":232774,"internal_node_id":"0.0-2.0-10.0"},{"group":"dihedral group of order 12","room_assignment":["purple","blue","orange","yellow","grey","ivory","cyan","olive","brown","green","pink","red"],"door_color_assignment":["white","black"],"door_generator_assignment":[0,1],"goal":10,"start":9,"action_noise":0.15,"location_history":"[9,3,9,3,4,10]","action_history":"[1,1,1,0,1]","door_history":"[1,1,1,0,1]","location_rts":"[1437,596,401,294,895]","trial_type":"two-door-navigation","trial_index":13,"time_elapsed":244936,"internal_node_id":"0.0-2.0-11.0"},{"group":"dihedral group of order 12","room_assignment":["purple","blue","orange","yellow","grey","ivory","cyan","olive","brown","green","pink","red"],"door_color_assignment":["white","black"],"door_generator_assignment":[0,1],"goal":2,"start":10,"action_noise":0.15,"location_history":"[10,9,8,2]","action_history":"[0,0,1]","door_history":"[0,0,1]","location_rts":"[1328,313,1404]","trial_type":"two-door-navigation","trial_index":14,"time_elapsed":254494,"internal_node_id":"0.0-2.0-12.0"},{"group":"dihedral group of order 12","room_assignment":["purple","blue","orange","yellow","grey","ivory","cyan","olive","brown","green","pink","red"],"door_color_assignment":["white","black"],"door_generator_assignment":[0,1],"goal":0,"start":2,"action_noise":0.15,"location_history":"[2,3,4,5,0]","action_history":"[0,0,0,0]","door_history":"[0,0,0,0]","location_rts":"[1247,430,841,374]","trial_type":"two-door-navigation","trial_index":15,"time_elapsed":264917,"internal_node_id":"0.0-2.0-13.0"},{"group":"dihedral group of order 12","room_assignment":["purple","blue","orange","yellow","grey","ivory","cyan","olive","brown","green","pink","red"],"door_color_assignment":["white","black"],"door_generator_assignment":[0,1],"goal":9,"start":0,"action_noise":0.15,"location_history":"[0,1,7,6,11,10,9]","action_history":"[0,0,0,0,0,0]","door_history":"[0,0,0,0,0,0]","location_rts":"[1531,563,733,644,570,1390]","trial_type":"two-door-navigation","trial_index":16,"time_elapsed":279874,"internal_node_id":"0.0-2.0-14.0"},{"group":"dihedral group of order 12","room_assignment":["purple","blue","orange","yellow","grey","ivory","cyan","olive","brown","green","pink","red"],"door_color_assignment":["white","black"],"door_generator_assignment":[0,1],"goal":8,"start":9,"action_noise":0.15,"location_history":"[9,3,4,5,11,5,0,1,2,8]","action_history":"[1,0,0,1,0,0,0,0,1]","door_history":"[1,0,0,1,0,0,0,0,1]","location_rts":"[1841,1395,1037,224,590,1193,313,603,817]","trial_type":"two-door-navigation","trial_index":17,"time_elapsed":300430,"internal_node_id":"0.0-2.0-15.0"},{"group":"dihedral group of order 12","room_assignment":["purple","blue","orange","yellow","grey","ivory","cyan","olive","brown","green","pink","red"],"door_color_assignment":["white","black"],"door_generator_assignment":[0,1],"goal":6,"start":8,"action_noise":0.15,"location_history":"[8,7,6]","action_history":"[0,0]","door_history":"[0,0]","location_rts":"[1254,457]","trial_type":"two-door-navigation","trial_index":18,"time_elapsed":307660,"internal_node_id":"0.0-2.0-16.0"},{"group":"dihedral group of order 12","room_assignment":["purple","blue","orange","yellow","grey","ivory","cyan","olive","brown","green","pink","red"],"door_color_assignment":["white","black"],"door_generator_assignment":[0,1],"goal":1,"start":6,"action_noise":0.15,"location_history":"[6,0,1]","action_history":"[1,0]","door_history":"[1,0]","location_rts":"[2079,2189]","trial_type":"two-door-navigation","trial_index":19,"time_elapsed":317438,"internal_node_id":"0.0-2.0-17.0"},{"group":"dihedral group of order 12","room_assignment":["purple","blue","orange","yellow","grey","ivory","cyan","olive","brown","green","pink","red"],"door_color_assignment":["white","black"],"door_generator_assignment":[0,1],"goal":4,"start":1,"action_noise":0.15,"location_history":"[1,7,1,2,3,4]","action_history":"[1,1,0,0,0]","door_history":"[1,1,0,0,0]","location_rts":"[1472,647,561,1908,2638]","trial_type":"two-door-navigation","trial_index":20,"time_elapsed":333184,"internal_node_id":"0.0-2.0-18.0"},{"group":"dihedral group of order 12","room_assignment":["purple","blue","orange","yellow","grey","ivory","cyan","olive","brown","green","pink","red"],"door_color_assignment":["white","black"],"door_generator_assignment":[0,1],"goal":11,"start":4,"action_noise":0.15,"location_history":"[4,5,11]","action_history":"[0,1]","door_history":"[0,1]","location_rts":"[1795,2228]","trial_type":"two-door-navigation","trial_index":21,"time_elapsed":342719,"internal_node_id":"0.0-2.0-19.0"},{"group":"dihedral group of order 12","room_assignment":["purple","blue","orange","yellow","grey","ivory","cyan","olive","brown","green","pink","red"],"door_color_assignment":["white","black"],"door_generator_assignment":[0,1],"goal":3,"start":11,"action_noise":0.15,"location_history":"[11,10,9,3]","action_history":"[0,0,1]","door_history":"[0,0,1]","location_rts":"[1308,490,935]","trial_type":"two-door-navigation","trial_index":22,"time_elapsed":351966,"internal_node_id":"0.0-2.0-20.0"},{"group":"dihedral group of order 12","room_assignment":["purple","blue","orange","yellow","grey","ivory","cyan","olive","brown","green","pink","red"],"door_color_assignment":["white","black"],"door_generator_assignment":[0,1],"goal":5,"start":3,"action_noise":0.15,"location_history":"[3,4,5]","action_history":"[1,0]","door_history":"[1,0]","location_rts":"[1828,897]","trial_type":"two-door-navigation","trial_index":23,"time_elapsed":360207,"internal_node_id":"0.0-2.0-21.0"},{"group":"dihedral group of order 12","room_assignment":["purple","blue","orange","yellow","grey","ivory","cyan","olive","brown","green","pink","red"],"door_color_assignment":["white","black"],"door_generator_assignment":[0,1],"goal":7,"start":5,"action_noise":0.15,"location_history":"[5,11,10,9,3,4,5,0,1,2,8,7]","action_history":"[0,0,0,0,0,0,0,0,1,0,0]","door_history":"[0,0,0,0,0,0,0,0,1,0,0]","location_rts":"[1293,647,1080,866,773,1173,294,1388,984,604,1044]","trial_type":"two-door-navigation","trial_index":24,"time_elapsed":384936,"internal_node_id":"0.0-2.0-22.0"},{"group":"dihedral group of order 12","room_assignment":["purple","blue","orange","yellow","grey","ivory","cyan","olive","brown","green","pink","red"],"door_color_assignment":["white","black"],"door_generator_assignment":[0,1],"goal":3,"start":7,"action_noise":0.15,"location_history":"[7,6,11,10,4,5,0,1,2,3]","action_history":"[0,0,0,1,0,0,0,0,0]","door_history":"[0,0,0,1,0,0,0,0,0]","location_rts":"[1276,335,491,1228,531,300,826,506,1020]","trial_type":"two-door-navigation","trial_index":25,"time_elapsed":403996,"internal_node_id":"0.0-2.0-23.0"},{"group":"dihedral group of order 12","room_assignment":["purple","blue","orange","yellow","grey","ivory","cyan","olive","brown","green","pink","red"],"door_color_assignment":["white","black"],"door_generator_assignment":[0,1],"goal":4,"start":3,"action_noise":0.15,"location_history":"[3,9,8,7,6,0,1,7,6,11,10,4]","action_history":"[1,0,0,0,0,0,0,0,0,0,1]","door_history":"[1,0,0,0,0,0,0,0,0,0,1]","location_rts":"[1301,466,503,385,607,2646,929,860,584,531,1018]","trial_type":"two-door-navigation","trial_index":26,"time_elapsed":428380,"internal_node_id":"0.0-2.0-24.0"},{"group":"dihedral group of order 12","room_assignment":["purple","blue","orange","yellow","grey","ivory","cyan","olive","brown","green","pink","red"],"door_color_assignment":["white","black"],"door_generator_assignment":[0,1],"goal":8,"start":4,"action_noise":0.15,"location_history":"[4,5,0,1,2,8]","action_history":"[0,0,0,0,1]","door_history":"[0,0,0,0,1]","location_rts":"[911,340,423,365,910]","trial_type":"two-door-navigation","trial_index":27,"time_elapsed":439869,"internal_node_id":"0.0-2.0-25.0"},{"group":"dihedral group of order 12","room_assignment":["purple","blue","orange","yellow","grey","ivory","cyan","olive","brown","green","pink","red"],"door_color_assignment":["white","black"],"door_generator_assignment":[0,1],"goal":6,"start":8,"action_noise":0.15,"location_history":"[8,7,6]","action_history":"[0,0]","door_history":"[0,0]","location_rts":"[912,332]","trial_type":"two-door-navigation","trial_index":28,"time_elapsed":446624,"internal_node_id":"0.0-2.0-26.0"},{"group":"dihedral group of order 12","room_assignment":["purple","blue","orange","yellow","grey","ivory","cyan","olive","brown","green","pink","red"],"door_color_assignment":["white","black"],"door_generator_assignment":[0,1],"goal":1,"start":6,"action_noise":0.15,"location_history":"[6,0,1]","action_history":"[0,0]","door_history":"[0,0]","location_rts":"[369,391]","trial_type":"two-door-navigation","trial_index":29,"time_elapsed":452905,"internal_node_id":"0.0-2.0-27.0"},{"group":"dihedral group of order 12","room_assignment":["purple","blue","orange","yellow","grey","ivory","cyan","olive","brown","green","pink","red"],"door_color_assignment":["white","black"],"door_generator_assignment":[0,1],"goal":5,"start":1,"action_noise":0.15,"location_history":"[1,2,3,4,5]","action_history":"[1,0,0,0]","door_history":"[1,0,0,0]","location_rts":"[1927,783,467,1672]","trial_type":"two-door-navigation","trial_index":30,"time_elapsed":465280,"internal_node_id":"0.0-2.0-28.0"},{"group":"dihedral group of order 12","room_assignment":["purple","blue","orange","yellow","grey","ivory","cyan","olive","brown","green","pink","red"],"door_color_assignment":["white","black"],"door_generator_assignment":[0,1],"goal":9,"start":5,"action_noise":0.15,"location_history":"[5,11,10,9]","action_history":"[0,0,0]","door_history":"[0,0,0]","location_rts":"[779,422,419]","trial_type":"two-door-navigation","trial_index":31,"time_elapsed":473421,"internal_node_id":"0.0-2.0-29.0"},{"group":"dihedral group of order 12","room_assignment":["purple","blue","orange","yellow","grey","ivory","cyan","olive","brown","green","pink","red"],"door_color_assignment":["white","black"],"door_generator_assignment":[0,1],"goal":10,"start":9,"action_noise":0.15,"location_history":"[9,3,4,10]","action_history":"[1,0,1]","door_history":"[1,0,1]","location_rts":"[1836,943,917]","trial_type":"two-door-navigation","trial_index":32,"time_elapsed":483634,"internal_node_id":"0.0-2.0-30.0"},{"group":"dihedral group of order 12","room_assignment":["purple","blue","orange","yellow","grey","ivory","cyan","olive","brown","green","pink","red"],"door_color_assignment":["white","black"],"door_generator_assignment":[0,1],"goal":0,"start":10,"action_noise":0.15,"location_history":"[10,4,5,0]","action_history":"[1,0,0]","door_history":"[1,0,0]","location_rts":"[2092,379,547]","trial_type":"two-door-navigation","trial_index":33,"time_elapsed":493173,"internal_node_id":"0.0-2.0-31.0"},{"group":"dihedral group of order 12","room_assignment":["purple","blue","orange","yellow","grey","ivory","cyan","olive","brown","green","pink","red"],"door_color_assignment":["white","black"],"door_generator_assignment":[0,1],"goal":7,"start":0,"action_noise":0.15,"location_history":"[0,6,11,10,9,8,7]","action_history":"[0,0,0,0,0,0]","door_history":"[0,0,0,0,0,0]","location_rts":"[2775,447,485,909,319,638]","trial_type":"two-door-navigation","trial_index":34,"time_elapsed":508286,"internal_node_id":"0.0-2.0-32.0"},{"group":"dihedral group of order 12","room_assignment":["purple","blue","orange","yellow","grey","ivory","cyan","olive","brown","green","pink","red"],"door_color_assignment":["white","black"],"door_generator_assignment":[0,1],"goal":11,"start":7,"action_noise":0.15,"location_history":"[7,1,2,8,7,1,2,3,4,10,9,3,9,8,7,6,0,1,7,1,7,6,11]","action_history":"[1,0,1,0,0,0,0,0,1,0,1,1,0,0,0,0,0,1,1,0,0,0]","door_history":"[1,0,1,0,0,0,0,0,1,0,1,1,0,0,0,0,0,1,1,0,0,0]","location_rts":"[1514,523,1314,555,772,417,932,1267,3789,233,860,726,235,371,409,962,805,849,643,666,505,287]","trial_type":"two-door-navigation","trial_index":35,"time_elapsed":552531,"internal_node_id":"0.0-2.0-33.0"},{"group":"dihedral group of order 12","room_assignment":["purple","blue","orange","yellow","grey","ivory","cyan","olive","brown","green","pink","red"],"door_color_assignment":["white","black"],"door_generator_assignment":[0,1],"goal":2,"start":11,"action_noise":0.15,"location_history":"[11,10,9,8,2]","action_history":"[0,0,0,1]","door_history":"[0,0,0,1]","location_rts":"[1316,398,367,783]","trial_type":"two-door-navigation","trial_index":36,"time_elapsed":562918,"internal_node_id":"0.0-2.0-34.0"},{"view_history":"[{\"page_index\":0,\"viewing_time\":4624}]","rt":4624,"trial_type":"instructions","trial_index":37,"time_elapsed":568542,"internal_node_id":"0.0-3.0"},{"view_history":"[{\"page_index\":0,\"viewing_time\":664074},{\"page_index\":1,\"viewing_time\":2923}]","rt":666998,"trial_type":"instructions","trial_index":38,"time_elapsed":1236540,"internal_node_id":"0.0-4.0"},{"group":"dihedral group of order 12","fractal_assignment":["../images/grn_red.png","../images/grn_blu.png","../images/cyn_red.png","../images/gry_blk.png","../images/wht_red.png","../images/blu_wht.png","../images/red_prp.png","../images/org_blu.png","../images/ylw_slt.png","../images/grn_prp.png","../images/pnk_blu.png","../images/ylw_pnk.png"],"mutagen_generator_assignment":[1,0],"goal":7,"start":3,"action_noise":0.15,"location_history":"[3,9,3,4,5,11,10,4,10,4,5,0,1,2,3,9,3,9,8,2,3,9,3,4,5,0,6,11,5,0,6,11,10,4,10,9,8,7]","action_history":"[1,1,0,0,1,0,1,0,0,0,0,0,1,0,1,1,0,0,1,0,1,1,0,1,0,0,0,1,0,1,0,0,0,0,0,0,0]","mutagen_history":"[0,0,1,1,0,1,0,1,1,1,1,1,0,1,0,0,1,1,0,1,0,0,1,0,1,1,1,0,1,0,1,1,1,1,1,1,1]","location_rts":"[2455,828,412,903,1328,762,1888,819,966,703,944,1068,813,671,666,705,358,744,654,502,443,675,381,600,318,547,1220,940,372,543,192,358,295,540,588,780,1022]","trial_type":"fractal-mutation","trial_index":39,"time_elapsed":1311398,"internal_node_id":"0.0-5.0-0.0"},{"group":"dihedral group of order 12","fractal_assignment":["../images/grn_red.png","../images/grn_blu.png","../images/cyn_red.png","../images/gry_blk.png","../images/wht_red.png","../images/blu_wht.png","../images/red_prp.png","../images/org_blu.png","../images/ylw_slt.png","../images/grn_prp.png","../images/pnk_blu.png","../images/ylw_pnk.png"],"mutagen_generator_assignment":[1,0],"goal":5,"start":7,"action_noise":0.15,"location_history":"[7,6,11,5]","action_history":"[0,0,1]","mutagen_history":"[1,1,0]","location_rts":"[2282,869,1552]","trial_type":"fractal-mutation","trial_index":40,"time_elapsed":1323151,"internal_node_id":"0.0-5.0-1.0"},{"group":"dihedral group of order 12","fractal_assignment":["../images/grn_red.png","../images/grn_blu.png","../images/cyn_red.png","../images/gry_blk.png","../images/wht_red.png","../images/blu_wht.png","../images/red_prp.png","../images/org_blu.png","../images/ylw_slt.png","../images/grn_prp.png","../images/pnk_blu.png","../images/ylw_pnk.png"],"mutagen_generator_assignment":[1,0],"goal":0,"start":5,"action_noise":0.15,"location_history":"[5,11,10,9,8,7,6,11,5,11,5,11,10,9,8,7,6,11,5,0]","action_history":"[0,0,0,0,0,0,0,1,0,0,0,0,0,0,0,0,1,1,0]","mutagen_history":"[1,1,1,1,1,1,1,0,1,1,1,1,1,1,1,1,0,0,1]","location_rts":"[1509,553,527,632,553,503,884,389,472,530,575,479,569,440,587,850,676,822,210]","trial_type":"fractal-mutation","trial_index":41,"time_elapsed":1361294,"internal_node_id":"0.0-5.0-2.0"},{"group":"dihedral group of order 12","fractal_assignment":["../images/grn_red.png","../images/grn_blu.png","../images/cyn_red.png","../images/gry_blk.png","../images/wht_red.png","../images/blu_wht.png","../images/red_prp.png","../images/org_blu.png","../images/ylw_slt.png","../images/grn_prp.png","../images/pnk_blu.png","../images/ylw_pnk.png"],"mutagen_generator_assignment":[1,0],"goal":2,"start":0,"action_noise":0.15,"location_history":"[0,1,7,6,11,10,9,8,2]","action_history":"[0,1,0,0,1,0,0,1]","mutagen_history":"[1,0,1,1,0,1,1,0]","location_rts":"[1259,1143,666,968,624,278,918,326]","trial_type":"fractal-mutation","trial_index":42,"time_elapsed":1380333,"internal_node_id":"0.0-5.0-3.0"},{"group":"dihedral group of order 12","fractal_assignment":["../images/grn_red.png","../images/grn_blu.png","../images/cyn_red.png","../images/gry_blk.png","../images/wht_red.png","../images/blu_wht.png","../images/red_prp.png","../images/org_blu.png","../images/ylw_slt.png","../images/grn_prp.png","../images/pnk_blu.png","../images/ylw_pnk.png"],"mutagen_generator_assignment":[1,0],"goal":10,"start":2,"action_noise":0.15,"location_history":"[2,3,4,10]","action_history":"[0,0,0]","mutagen_history":"[1,1,1]","location_rts":"[1303,802,750]","trial_type":"fractal-mutation","trial_index":43,"time_elapsed":1390272,"internal_node_id":"0.0-5.0-4.0"},{"group":"dihedral group of order 12","fractal_assignment":["../images/grn_red.png","../images/grn_blu.png","../images/cyn_red.png","../images/gry_blk.png","../images/wht_red.png","../images/blu_wht.png","../images/red_prp.png","../images/org_blu.png","../images/ylw_slt.png","../images/grn_prp.png","../images/pnk_blu.png","../images/ylw_pnk.png"],"mutagen_generator_assignment":[1,0],"goal":8,"start":10,"action_noise":0.15,"location_history":"[10,9,3,4,5,0,1,2,8]","action_history":"[0,0,0,0,0,0,0,1]","mutagen_history":"[1,1,1,1,1,1,1,0]","location_rts":"[1526,1075,494,895,561,627,769,515]","trial_type":"fractal-mutation","trial_index":44,"time_elapsed":1409785,"internal_node_id":"0.0-5.0-5.0"},{"group":"dihedral group of order 12","fractal_assignment":["../images/grn_red.png","../images/grn_blu.png","../images/cyn_red.png","../images/gry_blk.png","../images/wht_red.png","../images/blu_wht.png","../images/red_prp.png","../images/org_blu.png","../images/ylw_slt.png","../images/grn_prp.png","../images/pnk_blu.png","../images/ylw_pnk.png"],"mutagen_generator_assignment":[1,0],"goal":11,"start":8,"action_noise":0.15,"location_history":"[8,7,6,11]","action_history":"[0,0,0]","mutagen_history":"[1,1,1]","location_rts":"[1884,894,560]","trial_type":"fractal-mutation","trial_index":45,"time_elapsed":1420237,"internal_node_id":"0.0-5.0-6.0"},{"group":"dihedral group of order 12","fractal_assignment":["../images/grn_red.png","../images/grn_blu.png","../images/cyn_red.png","../images/gry_blk.png","../images/wht_red.png","../images/blu_wht.png","../images/red_prp.png","../images/org_blu.png","../images/ylw_slt.png","../images/grn_prp.png","../images/pnk_blu.png","../images/ylw_pnk.png"],"mutagen_generator_assignment":[1,0],"goal":6,"start":11,"action_noise":0.15,"location_history":"[11,10,9,8,2,3,4,5,0,6]","action_history":"[0,0,0,0,0,0,0,0,1]","mutagen_history":"[1,1,1,1,1,1,1,1,0]","location_rts":"[981,489,761,489,745,629,843,607,1483]","trial_type":"fractal-mutation","trial_index":46,"time_elapsed":1441639,"internal_node_id":"0.0-5.0-7.0"},{"group":"dihedral group of order 12","fractal_assignment":["../images/grn_red.png","../images/grn_blu.png","../images/cyn_red.png","../images/gry_blk.png","../images/wht_red.png","../images/blu_wht.png","../images/red_prp.png","../images/org_blu.png","../images/ylw_slt.png","../images/grn_prp.png","../images/pnk_blu.png","../images/ylw_pnk.png"],"mutagen_generator_assignment":[1,0],"goal":4,"start":6,"action_noise":0.15,"location_history":"[6,11,10,9,3,4]","action_history":"[0,0,0,1,0]","mutagen_history":"[1,1,1,0,1]","location_rts":"[1584,1169,906,958,469]","trial_type":"fractal-mutation","trial_index":47,"time_elapsed":1456143,"internal_node_id":"0.0-5.0-8.0"},{"group":"dihedral group of order 12","fractal_assignment":["../images/grn_red.png","../images/grn_blu.png","../images/cyn_red.png","../images/gry_blk.png","../images/wht_red.png","../images/blu_wht.png","../images/red_prp.png","../images/org_blu.png","../images/ylw_slt.png","../images/grn_prp.png","../images/pnk_blu.png","../images/ylw_pnk.png"],"mutagen_generator_assignment":[1,0],"goal":1,"start":4,"action_noise":0.15,"location_history":"[4,5,0,6,11,10,4,5,0,1]","action_history":"[0,0,0,0,0,0,0,0,0]","mutagen_history":"[1,1,1,1,1,1,1,1,1]","location_rts":"[1083,698,834,678,895,655,702,702,742]","trial_type":"fractal-mutation","trial_index":48,"time_elapsed":1477495,"internal_node_id":"0.0-5.0-9.0"},{"group":"dihedral group of order 12","fractal_assignment":["../images/grn_red.png","../images/grn_blu.png","../images/cyn_red.png","../images/gry_blk.png","../images/wht_red.png","../images/blu_wht.png","../images/red_prp.png","../images/org_blu.png","../images/ylw_slt.png","../images/grn_prp.png","../images/pnk_blu.png","../images/ylw_pnk.png"],"mutagen_generator_assignment":[1,0],"goal":9,"start":1,"action_noise":0.15,"location_history":"[1,7,6,11,5,0,1,2,3,9]","action_history":"[1,0,0,0,0,0,0,0,1]","mutagen_history":"[0,1,1,1,1,1,1,1,0]","location_rts":"[1678,986,860,548,498,585,903,603,833]","trial_type":"fractal-mutation","trial_index":49,"time_elapsed":1499021,"internal_node_id":"0.0-5.0-10.0"},{"group":"dihedral group of order 12","fractal_assignment":["../images/grn_red.png","../images/grn_blu.png","../images/cyn_red.png","../images/gry_blk.png","../images/wht_red.png","../images/blu_wht.png","../images/red_prp.png","../images/org_blu.png","../images/ylw_slt.png","../images/grn_prp.png","../images/pnk_blu.png","../images/ylw_pnk.png"],"mutagen_generator_assignment":[1,0],"goal":10,"start":9,"action_noise":0.15,"location_history":"[9,3,9,8,2,3,4,5,0,1,2,3,4,5,0,1,2,3,4,5,0,1,7,6,11,5,0,1,2,3,4,10]","action_history":"[0,0,0,0,0,0,0,0,0,0,0,0,0,0,0,0,0,0,1,0,0,1,0,0,1,0,0,0,0,0,1]","mutagen_history":"[1,1,1,1,1,1,1,1,1,1,1,1,1,1,1,1,1,1,0,1,1,0,1,1,0,1,1,1,1,1,0]","location_rts":"[1271,577,546,1677,725,772,1497,633,917,563,670,572,2366,464,1042,527,549,746,585,282,450,432,246,522,518,1794,868,795,472,415,448]","trial_type":"fractal-mutation","trial_index":50,"time_elapsed":1563622,"internal_node_id":"0.0-5.0-11.0"},{"group":"dihedral group of order 12","fractal_assignment":["../images/grn_red.png","../images/grn_blu.png","../images/cyn_red.png","../images/gry_blk.png","../images/wht_red.png","../images/blu_wht.png","../images/red_prp.png","../images/org_blu.png","../images/ylw_slt.png","../images/grn_prp.png","../images/pnk_blu.png","../images/ylw_pnk.png"],"mutagen_generator_assignment":[1,0],"goal":2,"start":10,"action_noise":0.15,"location_history":"[10,9,8,2]","action_history":"[0,0,1]","mutagen_history":"[1,1,0]","location_rts":"[1742,560,793]","trial_type":"fractal-mutation","trial_index":51,"time_elapsed":1573754,"internal_node_id":"0.0-5.0-12.0"},{"group":"dihedral group of order 12","fractal_assignment":["../images/grn_red.png","../images/grn_blu.png","../images/cyn_red.png","../images/gry_blk.png","../images/wht_red.png","../images/blu_wht.png","../images/red_prp.png","../images/org_blu.png","../images/ylw_slt.png","../images/grn_prp.png","../images/pnk_blu.png","../images/ylw_pnk.png"],"mutagen_generator_assignment":[1,0],"goal":0,"start":2,"action_noise":0.15,"location_history":"[2,8,7,6,11,10,9,8,7,1,2,3,9,3,4,5,0]","action_history":"[0,0,0,0,1,0,0,0,0,0,0,0,0,0,0,0]","mutagen_history":"[1,1,1,1,0,1,1,1,1,1,1,1,1,1,1,1]","location_rts":"[936,498,3105,511,718,738,556,536,654,694,582,553,625,502,781,761]","trial_type":"fractal-mutation","trial_index":52,"time_elapsed":1609162,"internal_node_id":"0.0-5.0-13.0"},{"group":"dihedral group of order 12","fractal_assignment":["../images/grn_red.png","../images/grn_blu.png","../images/cyn_red.png","../images/gry_blk.png","../images/wht_red.png","../images/blu_wht.png","../images/red_prp.png","../images/org_blu.png","../images/ylw_slt.png","../images/grn_prp.png","../images/pnk_blu.png","../images/ylw_pnk.png"],"mutagen_generator_assignment":[1,0],"goal":9,"start":0,"action_noise":0.15,"location_history":"[0,1,2,8,7,6,11,10,9]","action_history":"[0,0,0,0,0,0,0,0]","mutagen_history":"[1,1,1,1,1,1,1,1]","location_rts":"[1513,3645,2316,507,580,1095,612,1419]","trial_type":"fractal-mutation","trial_index":53,"time_elapsed":1633999,"internal_node_id":"0.0-5.0-14.0"},{"group":"dihedral group of order 12","fractal_assignment":["../images/grn_red.png","../images/grn_blu.png","../images/cyn_red.png","../images/gry_blk.png","../images/wht_red.png","../images/blu_wht.png","../images/red_prp.png","../images/org_blu.png","../images/ylw_slt.png","../images/grn_prp.png","../images/pnk_blu.png","../images/ylw_pnk.png"],"mutagen_generator_assignment":[1,0],"goal":8,"start":9,"action_noise":0.15,"location_history":"[9,8]","action_history":"[0]","mutagen_history":"[1]","location_rts":"[1235]","trial_type":"fractal-mutation","trial_index":54,"time_elapsed":1639946,"internal_node_id":"0.0-5.0-15.0"},{"group":"dihedral group of order 12","fractal_assignment":["../images/grn_red.png","../images/grn_blu.png","../images/cyn_red.png","../images/gry_blk.png","../images/wht_red.png","../images/blu_wht.png","../images/red_prp.png","../images/org_blu.png","../images/ylw_slt.png","../images/grn_prp.png","../images/pnk_blu.png","../images/ylw_pnk.png"],"mutagen_generator_assignment":[1,0],"goal":6,"start":8,"action_noise":0.15,"location_history":"[8,7,6]","action_history":"[0,0]","mutagen_history":"[1,1]","location_rts":"[9338,1000]","trial_type":"fractal-mutation","trial_index":55,"time_elapsed":1656207,"internal_node_id":"0.0-5.0-16.0"},{"group":"dihedral group of order 12","fractal_assignment":["../images/grn_red.png","../images/grn_blu.png","../images/cyn_red.png","../images/gry_blk.png","../images/wht_red.png","../images/blu_wht.png","../images/red_prp.png","../images/org_blu.png","../images/ylw_slt.png","../images/grn_prp.png","../images/pnk_blu.png","../images/ylw_pnk.png"],"mutagen_generator_assignment":[1,0],"goal":1,"start":6,"action_noise":0.15,"location_history":"[6,11,10,9,8,7,1]","action_history":"[0,0,0,0,0,1]","mutagen_history":"[1,1,1,1,1,0]","location_rts":"[5512,4817,1873,4155,6926,1807]","trial_type":"fractal-mutation","trial_index":56,"time_elapsed":1691958,"internal_node_id":"0.0-5.0-17.0"},{"group":"dihedral group of order 12","fractal_assignment":["../images/grn_red.png","../images/grn_blu.png","../images/cyn_red.png","../images/gry_blk.png","../images/wht_red.png","../images/blu_wht.png","../images/red_prp.png","../images/org_blu.png","../images/ylw_slt.png","../images/grn_prp.png","../images/pnk_blu.png","../images/ylw_pnk.png"],"mutagen_generator_assignment":[1,0],"goal":4,"start":1,"action_noise":0.15,"location_history":"[1,7,6,11,10,4]","action_history":"[0,0,0,0,1]","mutagen_history":"[1,1,1,1,0]","location_rts":"[3070,1286,595,909,1124]","trial_type":"fractal-mutation","trial_index":57,"time_elapsed":1708456,"internal_node_id":"0.0-5.0-18.0"},{"group":"dihedral group of order 12","fractal_assignment":["../images/grn_red.png","../images/grn_blu.png","../images/cyn_red.png","../images/gry_blk.png","../images/wht_red.png","../images/blu_wht.png","../images/red_prp.png","../images/org_blu.png","../images/ylw_slt.png","../images/grn_prp.png","../images/pnk_blu.png","../images/ylw_pnk.png"],"mutagen_generator_assignment":[1,0],"goal":11,"start":4,"action_noise":0.15,"location_history":"[4,5,0,1,2,8,7,6,11]","action_history":"[0,0,0,0,0,0,0,0]","mutagen_history":"[1,1,1,1,1,1,1,1]","location_rts":"[1568,668,1004,1125,1610,1561,850,1085]","trial_type":"fractal-mutation","trial_index":58,"time_elapsed":1731111,"internal_node_id":"0.0-5.0-19.0"},{"group":"dihedral group of order 12","fractal_assignment":["../images/grn_red.png","../images/grn_blu.png","../images/cyn_red.png","../images/gry_blk.png","../images/wht_red.png","../images/blu_wht.png","../images/red_prp.png","../images/org_blu.png","../images/ylw_slt.png","../images/grn_prp.png","../images/pnk_blu.png","../images/ylw_pnk.png"],"mutagen_generator_assignment":[1,0],"goal":3,"start":11,"action_noise":0.15,"location_history":"[11,5,0,6,11,10,9,3]","action_history":"[0,0,0,0,0,0,1]","mutagen_history":"[1,1,1,1,1,1,0]","location_rts":"[1264,568,777,520,1570,1409,748]","trial_type":"fractal-mutation","trial_index":59,"time_elapsed":1749916,"internal_node_id":"0.0-5.0-20.0"},{"group":"dihedral group of order 12","fractal_assignment":["../images/grn_red.png","../images/grn_blu.png","../images/cyn_red.png","../images/gry_blk.png","../images/wht_red.png","../images/blu_wht.png","../images/red_prp.png","../images/org_blu.png","../images/ylw_slt.png","../images/grn_prp.png","../images/pnk_blu.png","../images/ylw_pnk.png"],"mutagen_generator_assignment":[1,0],"goal":5,"start":3,"action_noise":0.15,"location_history":"[3,4,10,4,5]","action_history":"[0,1,1,0]","mutagen_history":"[1,0,0,1]","location_rts":"[1078,2991,855,350]","trial_type":"fractal-mutation","trial_index":60,"time_elapsed":1763328,"internal_node_id":"0.0-5.0-21.0"},{"group":"dihedral group of order 12","fractal_assignment":["../images/grn_red.png","../images/grn_blu.png","../images/cyn_red.png","../images/gry_blk.png","../images/wht_red.png","../images/blu_wht.png","../images/red_prp.png","../images/org_blu.png","../images/ylw_slt.png","../images/grn_prp.png","../images/pnk_blu.png","../images/ylw_pnk.png"],"mutagen_generator_assignment":[1,0],"goal":7,"start":5,"action_noise":0.15,"location_history":"[5,11,5,11,10,9,8,7]","action_history":"[1,1,0,0,0,0,0]","mutagen_history":"[0,0,1,1,1,1,1]","location_rts":"[1431,799,440,519,648,520,472]","trial_type":"fractal-mutation","trial_index":61,"time_elapsed":1779692,"internal_node_id":"0.0-5.0-22.0"},{"group":"dihedral group of order 12","fractal_assignment":["../images/grn_red.png","../images/grn_blu.png","../images/cyn_red.png","../images/gry_blk.png","../images/wht_red.png","../images/blu_wht.png","../images/red_prp.png","../images/org_blu.png","../images/ylw_slt.png","../images/grn_prp.png","../images/pnk_blu.png","../images/ylw_pnk.png"],"mutagen_generator_assignment":[1,0],"goal":3,"start":7,"action_noise":0.15,"location_history":"[7,6,11,10,9,3]","action_history":"[0,0,0,0,1]","mutagen_history":"[1,1,1,1,0]","location_rts":"[1035,687,691,783,1611]","trial_type":"fractal-mutation","trial_index":62,"time_elapsed":1794039,"internal_node_id":"0.0-5.0-23.0"},{"group":"dihedral group of order 12","fractal_assignment":["../images/grn_red.png","../images/grn_blu.png","../images/cyn_red.png","../images/gry_blk.png","../images/wht_red.png","../images/blu_wht.png","../images/red_prp.png","../images/org_blu.png","../images/ylw_slt.png","../images/grn_prp.png","../images/pnk_blu.png","../images/ylw_pnk.png"],"mutagen_generator_assignment":[1,0],"goal":4,"start":3,"action_noise":0.15,"location_history":"[3,9,8,7,6,11,5,0,6,11,10,9,3,4]","action_history":"[0,0,0,0,0,0,0,0,0,0,0,1,0]","mutagen_history":"[1,1,1,1,1,1,1,1,1,1,1,0,1]","location_rts":"[3811,930,888,1603,727,1330,1664,468,522,702,874,648,210]","trial_type":"fractal-mutation","trial_index":63,"time_elapsed":1827468,"internal_node_id":"0.0-5.0-24.0"},{"group":"dihedral group of order 12","fractal_assignment":["../images/grn_red.png","../images/grn_blu.png","../images/cyn_red.png","../images/gry_blk.png","../images/wht_red.png","../images/blu_wht.png","../images/red_prp.png","../images/org_blu.png","../images/ylw_slt.png","../images/grn_prp.png","../images/pnk_blu.png","../images/ylw_pnk.png"],"mutagen_generator_assignment":[1,0],"goal":8,"start":4,"action_noise":0.15,"location_history":"[4,5,0,1,7,6,11,10,9,8]","action_history":"[0,0,0,0,0,0,0,0,0]","mutagen_history":"[1,1,1,1,1,1,1,1,1]","location_rts":"[1368,466,510,1136,750,749,799,1387,10158]","trial_type":"fractal-mutation","trial_index":64,"time_elapsed":1859141,"internal_node_id":"0.0-5.0-25.0"},{"group":"dihedral group of order 12","fractal_assignment":["../images/grn_red.png","../images/grn_blu.png","../images/cyn_red.png","../images/gry_blk.png","../images/wht_red.png","../images/blu_wht.png","../images/red_prp.png","../images/org_blu.png","../images/ylw_slt.png","../images/grn_prp.png","../images/pnk_blu.png","../images/ylw_pnk.png"],"mutagen_generator_assignment":[1,0],"goal":6,"start":8,"action_noise":0.15,"location_history":"[8,7,6]","action_history":"[0,0]","mutagen_history":"[1,1]","location_rts":"[1869,866]","trial_type":"fractal-mutation","trial_index":65,"time_elapsed":1867805,"internal_node_id":"0.0-5.0-26.0"},{"group":"dihedral group of order 12","fractal_assignment":["../images/grn_red.png","../images/grn_blu.png","../images/cyn_red.png","../images/gry_blk.png","../images/wht_red.png","../images/blu_wht.png","../images/red_prp.png","../images/org_blu.png","../images/ylw_slt.png","../images/grn_prp.png","../images/pnk_blu.png","../images/ylw_pnk.png"],"mutagen_generator_assignment":[1,0],"goal":1,"start":6,"action_noise":0.15,"location_history":"[6,11,10,4,5,0,6,0,1]","action_history":"[0,0,0,0,0,0,0,0]","mutagen_history":"[1,1,1,1,1,1,1,1]","location_rts":"[3608,15241,1234,658,496,797,836,805]","trial_type":"fractal-mutation","trial_index":66,"time_elapsed":1904694,"internal_node_id":"0.0-5.0-27.0"},{"group":"dihedral group of order 12","fractal_assignment":["../images/grn_red.png","../images/grn_blu.png","../images/cyn_red.png","../images/gry_blk.png","../images/wht_red.png","../images/blu_wht.png","../images/red_prp.png","../images/org_blu.png","../images/ylw_slt.png","../images/grn_prp.png","../images/pnk_blu.png","../images/ylw_pnk.png"],"mutagen_generator_assignment":[1,0],"goal":5,"start":1,"action_noise":0.15,"location_history":"[1,2,3,4,10,9,8,7,6,0,1,7,6,11,5]","action_history":"[0,0,0,0,0,0,0,0,0,0,0,0,0,1]","mutagen_history":"[1,1,1,1,1,1,1,1,1,1,1,1,1,0]","location_rts":"[1038,1282,565,628,595,609,894,2520,1133,595,714,882,558,740]","trial_type":"fractal-mutation","trial_index":67,"time_elapsed":1937884,"internal_node_id":"0.0-5.0-28.0"},{"group":"dihedral group of order 12","fractal_assignment":["../images/grn_red.png","../images/grn_blu.png","../images/cyn_red.png","../images/gry_blk.png","../images/wht_red.png","../images/blu_wht.png","../images/red_prp.png","../images/org_blu.png","../images/ylw_slt.png","../images/grn_prp.png","../images/pnk_blu.png","../images/ylw_pnk.png"],"mutagen_generator_assignment":[1,0],"goal":9,"start":5,"action_noise":0.15,"location_history":"[5,0,1,2,3,9]","action_history":"[0,0,0,0,1]","mutagen_history":"[1,1,1,1,0]","location_rts":"[1243,568,543,596,672]","trial_type":"fractal-mutation","trial_index":68,"time_elapsed":1951026,"internal_node_id":"0.0-5.0-29.0"},{"group":"dihedral group of order 12","fractal_assignment":["../images/grn_red.png","../images/grn_blu.png","../images/cyn_red.png","../images/gry_blk.png","../images/wht_red.png","../images/blu_wht.png","../images/red_prp.png","../images/org_blu.png","../images/ylw_slt.png","../images/grn_prp.png","../images/pnk_blu.png","../images/ylw_pnk.png"],"mutagen_generator_assignment":[1,0],"goal":10,"start":9,"action_noise":0.15,"location_history":"[9,8,2,3,4,10]","action_history":"[0,0,0,0,1]","mutagen_history":"[1,1,1,1,0]","location_rts":"[1684,803,8729,704,910]","trial_type":"fractal-mutation","trial_index":69,"time_elapsed":1973193,"internal_node_id":"0.0-5.0-30.0"},{"group":"dihedral group of order 12","fractal_assignment":["../images/grn_red.png","../images/grn_blu.png","../images/cyn_red.png","../images/gry_blk.png","../images/wht_red.png","../images/blu_wht.png","../images/red_prp.png","../images/org_blu.png","../images/ylw_slt.png","../images/grn_prp.png","../images/pnk_blu.png","../images/ylw_pnk.png"],"mutagen_generator_assignment":[1,0],"goal":0,"start":10,"action_noise":0.15,"location_history":"[10,9,8,7,6,0]","action_history":"[0,0,0,0,1]","mutagen_history":"[1,1,1,1,0]","location_rts":"[1263,723,725,1017,813]","trial_type":"fractal-mutation","trial_index":70,"time_elapsed":1987086,"internal_node_id":"0.0-5.0-31.0"},{"group":"dihedral group of order 12","fractal_assignment":["../images/grn_red.png","../images/grn_blu.png","../images/cyn_red.png","../images/gry_blk.png","../images/wht_red.png","../images/blu_wht.png","../images/red_prp.png","../images/org_blu.png","../images/ylw_slt.png","../images/grn_prp.png","../images/pnk_blu.png","../images/ylw_pnk.png"],"mutagen_generator_assignment":[1,0],"goal":7,"start":0,"action_noise":0.15,"location_history":"[0,6,11,10,9,8,2,3,4,5,11,10,9,8,7]","action_history":"[0,0,0,0,0,0,0,0,0,0,0,0,0,0]","mutagen_history":"[1,1,1,1,1,1,1,1,1,1,1,1,1,1]","location_rts":"[9912,1484,1214,2461,1893,1436,602,2434,1851,1148,1392,4464,942,20272]","trial_type":"fractal-mutation","trial_index":71,"time_elapsed":2058692,"internal_node_id":"0.0-5.0-32.0"},{"group":"dihedral group of order 12","fractal_assignment":["../images/grn_red.png","../images/grn_blu.png","../images/cyn_red.png","../images/gry_blk.png","../images/wht_red.png","../images/blu_wht.png","../images/red_prp.png","../images/org_blu.png","../images/ylw_slt.png","../images/grn_prp.png","../images/pnk_blu.png","../images/ylw_pnk.png"],"mutagen_generator_assignment":[1,0],"goal":11,"start":7,"action_noise":0.15,"location_history":"[7,6,11]","action_history":"[0,0]","mutagen_history":"[1,1]","location_rts":"[1346,908]","trial_type":"fractal-mutation","trial_index":72,"time_elapsed":2066820,"internal_node_id":"0.0-5.0-33.0"},{"group":"dihedral group of order 12","fractal_assignment":["../images/grn_red.png","../images/grn_blu.png","../images/cyn_red.png","../images/gry_blk.png","../images/wht_red.png","../images/blu_wht.png","../images/red_prp.png","../images/org_blu.png","../images/ylw_slt.png","../images/grn_prp.png","../images/pnk_blu.png","../images/ylw_pnk.png"],"mutagen_generator_assignment":[1,0],"goal":2,"start":11,"action_noise":0.15,"location_history":"[11,10,9,3,4,5,0,6,11,5,0,1,2]","action_history":"[0,0,0,0,0,0,0,0,0,0,0,0]","mutagen_history":"[1,1,1,1,1,1,1,1,1,1,1,1]","location_rts":"[7637,5183,1100,32984,1357,4691,1122,1376,688,724,749,920]","trial_type":"fractal-mutation","trial_index":73,"time_elapsed":2143109,"internal_node_id":"0.0-5.0-34.0"},{"view_history":"[{\"page_index\":0,\"viewing_time\":1655}]","rt":1656,"trial_type":"instructions","trial_index":74,"time_elapsed":2145766,"internal_node_id":"0.0-6.0"},{"rt":24605,"responses":"{\"Q0\":\"Logical memory\"}","trial_type":"survey-text","trial_index":75,"time_elapsed":2171378,"internal_node_id":"0.0-7.0-0.0"},{"rt":10353,"responses":"{\"Q0\":\"Visual memory\"}","trial_type":"survey-text","trial_index":76,"time_elapsed":2182735,"internal_node_id":"0.0-7.0-1.0"},{"rt":3937,"responses":"{\"Q0\":\"3\"}","trial_type":"survey-likert","trial_index":77,"time_elapsed":2187678,"internal_node_id":"0.0-7.0-2.0"},{"rt":21326,"responses":"{\"Q0\":\"They kind of followed the same pattern of one button to rotate through, and a second to alternate.\"}","trial_type":"survey-text","trial_index":78,"time_elapsed":2210008,"internal_node_id":"0.0-7.0-3.0"},{"rt":4668,"responses":"{\"Q0\":\"Yes\"}","trial_type":"survey-multi-choice","trial_index":79,"time_elapsed":2215684,"internal_node_id":"0.0-7.0-4.0"},{"rt":21124,"responses":"{\"Q0\":\"During session 2\"}","trial_type":"survey-multi-choice","trial_index":80,"time_elapsed":2237818,"internal_node_id":"0.0-7.0-5.0"},{"rt":7446,"responses":"{\"Q0\":\"\"}","trial_type":"survey-text","trial_index":81,"time_elapsed":2246269,"internal_node_id":"0.0-7.0-6.0"},{"rt":6988,"responses":"{\"Q0\":\"1\"}","trial_type":"survey-likert","trial_index":82,"time_elapsed":2254263,"internal_node_id":"0.0-7.0-7.0"},{"rt":8293,"responses":"{\"Q0\":\"Same structure\"}","trial_type":"survey-multi-choice","trial_index":83,"time_elapsed":2263561,"internal_node_id":"0.0-7.0-8.0"},{"rt":16353,"responses":"{\"Q0\":\"black door = acid, white door = ray\",\"Q1\":\"Pretty confident\"}","trial_type":"survey-multi-choice","trial_index":84,"time_elapsed":2280929,"internal_node_id":"0.0-7.0-9.0"},{"rt":6478,"responses":"{\"Q0\":\"25-35\",\"Q1\":\"Bachelor's degree\",\"Q2\":\"Male\",\"Q3\":\"White\"}","trial_type":"survey-multi-choice","trial_index":85,"time_elapsed":2288441,"internal_node_id":"0.0-8.0"},{"rt":2896,"responses":"{\"Q0\":\"\"}","trial_type":"survey-text","trial_index":86,"time_elapsed":2292340,"internal_node_id":"0.0-9.0"}]