[{"view_history":"[{\"page_index\":0,\"viewing_time\":1837},{\"page_index\":1,\"viewing_time\":1379}]","rt":3216,"trial_type":"instructions","trial_index":0,"time_elapsed":3216,"internal_node_id":"0.0-0.0"},{"view_history":"[{\"page_index\":0,\"viewing_time\":1525},{\"page_index\":1,\"viewing_time\":2972}]","rt":4497,"trial_type":"instructions","trial_index":1,"time_elapsed":8714,"internal_node_id":"0.0-1.0"},{"group":"dihedral group of order 12","room_assignment":["blue","green","brown","yellow","cyan","orange","purple","ivory","pink","red","olive","grey"],"door_color_assignment":["white","black"],"door_generator_assignment":[0,1],"goal":7,"start":3,"action_noise":0.15,"location_history":"[3,4,5,11,10,9,8,7]","action_history":"[1,1,1,1,0,0,0]","door_history":"[1,1,1,1,0,0,0]","location_rts":"[12519,1219,1307,99,1208,449,553]","trial_type":"two-door-navigation","trial_index":2,"time_elapsed":36660,"internal_node_id":"0.0-2.0-0.0"},{"group":"dihedral group of order 12","room_assignment":["blue","green","brown","yellow","cyan","orange","purple","ivory","pink","red","olive","grey"],"door_color_assignment":["white","black"],"door_generator_assignment":[0,1],"goal":5,"start":7,"action_noise":0.15,"location_history":"[7,1,7,1,2,8,2,3,4,10,9,8,7,6,11,10,9,8,7,1,7,1,7,1,7,6,11,10,4,10,9,8,2,8,2,8,2,8,2,8,2,8,7,6,11,10,9,3,4,5]","action_history":"[1,1,1,1,1,1,0,0,0,0,0,0,0,0,0,0,0,0,1,1,1,1,1,1,0,0,1,1,1,0,0,1,1,1,1,1,1,1,1,1,1,0,0,0,0,0,0,0,0]","door_history":"[1,1,1,1,1,1,0,0,0,0,0,0,0,0,0,0,0,0,1,1,1,1,1,1,0,0,1,1,1,0,0,1,1,1,1,1,1,1,1,1,1,0,0,0,0,0,0,0,0]","location_rts":"[1049,455,209,89,327,494,354,186,79,237,240,81,184,180,384,619,50,247,980,25,4,186,213,179,105,137,509,31,225,254,71,437,690,455,121,541,546,275,519,119,67,466,226,100,150,200,90,42,378]","trial_type":"two-door-navigation","trial_index":3,"time_elapsed":103589,"internal_node_id":"0.0-2.0-1.0"},{"group":"dihedral group of order 12","room_assignment":["blue","green","brown","yellow","cyan","orange","purple","ivory","pink","red","olive","grey"],"door_color_assignment":["white","black"],"door_generator_assignment":[0,1],"goal":0,"start":5,"action_noise":0.15,"location_history":"[5,0]","action_history":"[0]","door_history":"[0]","location_rts":"[2332]","trial_type":"two-door-navigation","trial_index":4,"time_elapsed":110435,"internal_node_id":"0.0-2.0-2.0"},{"group":"dihedral group of order 12","room_assignment":["blue","green","brown","yellow","cyan","orange","purple","ivory","pink","red","olive","grey"],"door_color_assignment":["white","black"],"door_generator_assignment":[0,1],"goal":2,"start":0,"action_noise":0.15,"location_history":"[0,1,2]","action_history":"[0,0]","door_history":"[0,0]","location_rts":"[451,436]","trial_type":"two-door-navigation","trial_index":5,"time_elapsed":116849,"internal_node_id":"0.0-2.0-3.0"},{"group":"dihedral group of order 12","room_assignment":["blue","green","brown","yellow","cyan","orange","purple","ivory","pink","red","olive","grey"],"door_color_assignment":["white","black"],"door_generator_assignment":[0,1],"goal":10,"start":2,"action_noise":0.15,"location_history":"[2,3,4,5,0,1,7,6,11,10]","action_history":"[0,0,0,0,0,0,0,0,0]","door_history":"[0,0,0,0,0,0,0,0,0]","location_rts":"[305,337,711,716,452,336,164,237,459]","trial_type":"two-door-navigation","trial_index":6,"time_elapsed":133182,"internal_node_id":"0.0-2.0-4.0"},{"group":"dihedral group of order 12","room_assignment":["blue","green","brown","yellow","cyan","orange","purple","ivory","pink","red","olive","grey"],"door_color_assignment":["white","black"],"door_generator_assignment":[0,1],"goal":8,"start":10,"action_noise":0.15,"location_history":"[10,9,3,4,5,11,10,4,5,0,1,2,3,4,5,0,1,7,1,2,8]","action_history":"[0,0,0,0,0,0,0,0,0,0,0,0,0,0,0,0,1,1,1,1]","door_history":"[0,0,0,0,0,0,0,0,0,0,0,0,0,0,0,0,1,1,1,1]","location_rts":"[73,376,191,207,255,99,36,380,1054,52,102,159,57,450,513,123,459,37,114,128]","trial_type":"two-door-navigation","trial_index":7,"time_elapsed":161793,"internal_node_id":"0.0-2.0-5.0"},{"group":"dihedral group of order 12","room_assignment":["blue","green","brown","yellow","cyan","orange","purple","ivory","pink","red","olive","grey"],"door_color_assignment":["white","black"],"door_generator_assignment":[0,1],"goal":11,"start":8,"action_noise":0.15,"location_history":"[8,7,6,11]","action_history":"[0,0,0]","door_history":"[0,0,0]","location_rts":"[551,485,497]","trial_type":"two-door-navigation","trial_index":8,"time_elapsed":169866,"internal_node_id":"0.0-2.0-6.0"},{"group":"dihedral group of order 12","room_assignment":["blue","green","brown","yellow","cyan","orange","purple","ivory","pink","red","olive","grey"],"door_color_assignment":["white","black"],"door_generator_assignment":[0,1],"goal":6,"start":11,"action_noise":0.15,"location_history":"[11,10,9,8,7,6]","action_history":"[0,0,0,0,0]","door_history":"[0,0,0,0,0]","location_rts":"[261,214,91,299,311]","trial_type":"two-door-navigation","trial_index":9,"time_elapsed":179605,"internal_node_id":"0.0-2.0-7.0"},{"group":"dihedral group of order 12","room_assignment":["blue","green","brown","yellow","cyan","orange","purple","ivory","pink","red","olive","grey"],"door_color_assignment":["white","black"],"door_generator_assignment":[0,1],"goal":4,"start":6,"action_noise":0.15,"location_history":"[6,11,5,0,1,2,3,4]","action_history":"[0,0,0,0,0,0,0]","door_history":"[0,0,0,0,0,0,0]","location_rts":"[93,47,218,150,154,100,27]","trial_type":"two-door-navigation","trial_index":10,"time_elapsed":190983,"internal_node_id":"0.0-2.0-8.0"},{"group":"dihedral group of order 12","room_assignment":["blue","green","brown","yellow","cyan","orange","purple","ivory","pink","red","olive","grey"],"door_color_assignment":["white","black"],"door_generator_assignment":[0,1],"goal":1,"start":4,"action_noise":0.15,"location_history":"[4,5,11,10,9,8,7,6,11,5,0,1]","action_history":"[0,0,0,0,0,0,0,0,0,0,0]","door_history":"[0,0,0,0,0,0,0,0,0,0,0]","location_rts":"[213,657,77,138,48,82,19,750,12,17,396]","trial_type":"two-door-navigation","trial_index":11,"time_elapsed":208026,"internal_node_id":"0.0-2.0-9.0"},{"group":"dihedral group of order 12","room_assignment":["blue","green","brown","yellow","cyan","orange","purple","ivory","pink","red","olive","grey"],"door_color_assignment":["white","black"],"door_generator_assignment":[0,1],"goal":9,"start":1,"action_noise":0.15,"location_history":"[1,2,3,4,5,0,1,2,3,9]","action_history":"[0,0,0,0,0,0,0,0,1]","door_history":"[0,0,0,0,0,0,0,0,1]","location_rts":"[137,35,128,237,80,393,90,341,359]","trial_type":"two-door-navigation","trial_index":12,"time_elapsed":222443,"internal_node_id":"0.0-2.0-10.0"},{"group":"dihedral group of order 12","room_assignment":["blue","green","brown","yellow","cyan","orange","purple","ivory","pink","red","olive","grey"],"door_color_assignment":["white","black"],"door_generator_assignment":[0,1],"goal":10,"start":9,"action_noise":0.15,"location_history":"[9,8,7,6,0,1,2,3,4,5,0,1,2,3,4,10]","action_history":"[0,0,0,0,0,0,0,0,0,0,0,0,0,0,0]","door_history":"[0,0,0,0,0,0,0,0,0,0,0,0,0,0,0]","location_rts":"[466,391,26,318,309,181,114,286,239,285,199,231,304,242,254]","trial_type":"two-door-navigation","trial_index":13,"time_elapsed":244982,"internal_node_id":"0.0-2.0-11.0"},{"group":"dihedral group of order 12","room_assignment":["blue","green","brown","yellow","cyan","orange","purple","ivory","pink","red","olive","grey"],"door_color_assignment":["white","black"],"door_generator_assignment":[0,1],"goal":2,"start":10,"action_noise":0.15,"location_history":"[10,4,5,0,1,2]","action_history":"[0,0,0,0,0]","door_history":"[0,0,0,0,0]","location_rts":"[784,290,582,252,80]","trial_type":"two-door-navigation","trial_index":14,"time_elapsed":255532,"internal_node_id":"0.0-2.0-12.0"},{"group":"dihedral group of order 12","room_assignment":["blue","green","brown","yellow","cyan","orange","purple","ivory","pink","red","olive","grey"],"door_color_assignment":["white","black"],"door_generator_assignment":[0,1],"goal":0,"start":2,"action_noise":0.15,"location_history":"[2,3,4,5,11,10,9,8,7,6,11,5,0]","action_history":"[0,0,0,0,0,0,0,0,0,0,0,0]","door_history":"[0,0,0,0,0,0,0,0,0,0,0,0]","location_rts":"[355,395,189,140,195,238,583,1259,519,670,236,252]","trial_type":"two-door-navigation","trial_index":15,"time_elapsed":276214,"internal_node_id":"0.0-2.0-13.0"},{"group":"dihedral group of order 12","room_assignment":["blue","green","brown","yellow","cyan","orange","purple","ivory","pink","red","olive","grey"],"door_color_assignment":["white","black"],"door_generator_assignment":[0,1],"goal":9,"start":0,"action_noise":0.15,"location_history":"[0,1,2,3,4,5,11,10,4,10,4,5,11,5,11,10,4,10,4,10,4,10,4,10,4,10,4,10,9]","action_history":"[0,0,0,0,0,0,0,1,1,1,1,1,1,1,1,1,1,1,1,1,1,1,1,1,1,1,1,0]","door_history":"[0,0,0,0,0,0,0,1,1,1,1,1,1,1,1,1,1,1,1,1,1,1,1,1,1,1,1,0]","location_rts":"[469,15,733,2219,905,102,899,317,178,63,693,342,392,759,599,1112,682,651,111,197,34,708,191,876,675,110,175,186]","trial_type":"two-door-navigation","trial_index":16,"time_elapsed":322462,"internal_node_id":"0.0-2.0-14.0"},{"group":"dihedral group of order 12","room_assignment":["blue","green","brown","yellow","cyan","orange","purple","ivory","pink","red","olive","grey"],"door_color_assignment":["white","black"],"door_generator_assignment":[0,1],"goal":8,"start":9,"action_noise":0.15,"location_history":"[9,3,4,5,11,10,9,3,9,8]","action_history":"[0,0,0,0,0,1,1,1,1]","door_history":"[0,0,0,0,0,1,1,1,1]","location_rts":"[192,84,282,200,59,159,268,44,201]","trial_type":"two-door-navigation","trial_index":17,"time_elapsed":336570,"internal_node_id":"0.0-2.0-15.0"},{"group":"dihedral group of order 12","room_assignment":["blue","green","brown","yellow","cyan","orange","purple","ivory","pink","red","olive","grey"],"door_color_assignment":["white","black"],"door_generator_assignment":[0,1],"goal":6,"start":8,"action_noise":0.15,"location_history":"[8,7,6]","action_history":"[0,0]","door_history":"[0,0]","location_rts":"[64,17]","trial_type":"two-door-navigation","trial_index":18,"time_elapsed":342178,"internal_node_id":"0.0-2.0-16.0"},{"group":"dihedral group of order 12","room_assignment":["blue","green","brown","yellow","cyan","orange","purple","ivory","pink","red","olive","grey"],"door_color_assignment":["white","black"],"door_generator_assignment":[0,1],"goal":1,"start":6,"action_noise":0.15,"location_history":"[6,11,10,9,8,2,3,4,10,4,5,11,10,9,3,4,5,11,10,4,10,4,10,4,10,4,5,0,1]","action_history":"[0,0,0,0,0,0,0,1,1,0,0,0,0,0,0,0,1,1,1,1,1,1,1,1,1,0,0,0]","door_history":"[0,0,0,0,0,0,0,1,1,0,0,0,0,0,0,0,1,1,1,1,1,1,1,1,1,0,0,0]","location_rts":"[321,54,377,472,2,100,55,222,499,232,48,1016,192,368,404,413,508,357,846,519,984,540,510,615,99,177,69,284]","trial_type":"two-door-navigation","trial_index":19,"time_elapsed":384303,"internal_node_id":"0.0-2.0-17.0"},{"group":"dihedral group of order 12","room_assignment":["blue","green","brown","yellow","cyan","orange","purple","ivory","pink","red","olive","grey"],"door_color_assignment":["white","black"],"door_generator_assignment":[0,1],"goal":4,"start":1,"action_noise":0.15,"location_history":"[1,2,3,4]","action_history":"[0,0,0]","door_history":"[0,0,0]","location_rts":"[1235,1883,271]","trial_type":"two-door-navigation","trial_index":20,"time_elapsed":394229,"internal_node_id":"0.0-2.0-18.0"},{"group":"dihedral group of order 12","room_assignment":["blue","green","brown","yellow","cyan","orange","purple","ivory","pink","red","olive","grey"],"door_color_assignment":["white","black"],"door_generator_assignment":[0,1],"goal":11,"start":4,"action_noise":0.15,"location_history":"[4,5,0,1,2,3,4,10,9,8,2,3,4,5,11]","action_history":"[0,0,0,0,0,0,0,0,0,0,0,0,0,1]","door_history":"[0,0,0,0,0,0,0,0,0,0,0,0,0,1]","location_rts":"[34,439,333,200,309,4013,10328,487,1907,6011,348,4664,304,406]","trial_type":"two-door-navigation","trial_index":21,"time_elapsed":441695,"internal_node_id":"0.0-2.0-19.0"},{"group":"dihedral group of order 12","room_assignment":["blue","green","brown","yellow","cyan","orange","purple","ivory","pink","red","olive","grey"],"door_color_assignment":["white","black"],"door_generator_assignment":[0,1],"goal":3,"start":11,"action_noise":0.15,"location_history":"[11,5,11,10,4,5,11,10,9,8,7,6,11,10,9,8,7,6,11,10,9,8,2,3]","action_history":"[1,1,0,0,0,0,0,0,0,0,0,0,0,0,0,0,0,0,0,1,1,1,1]","door_history":"[1,1,0,0,0,0,0,0,0,0,0,0,0,0,0,0,0,0,0,1,1,1,1]","location_rts":"[2669,305,2366,933,1598,3525,578,1087,3256,2168,860,570,730,374,562,600,483,722,799,210,255,84,73]","trial_type":"two-door-navigation","trial_index":22,"time_elapsed":493298,"internal_node_id":"0.0-2.0-20.0"},{"group":"dihedral group of order 12","room_assignment":["blue","green","brown","yellow","cyan","orange","purple","ivory","pink","red","olive","grey"],"door_color_assignment":["white","black"],"door_generator_assignment":[0,1],"goal":5,"start":3,"action_noise":0.15,"location_history":"[3,4,5]","action_history":"[0,0]","door_history":"[0,0]","location_rts":"[1078,258]","trial_type":"two-door-navigation","trial_index":23,"time_elapsed":500164,"internal_node_id":"0.0-2.0-21.0"},{"group":"dihedral group of order 12","room_assignment":["blue","green","brown","yellow","cyan","orange","purple","ivory","pink","red","olive","grey"],"door_color_assignment":["white","black"],"door_generator_assignment":[0,1],"goal":7,"start":5,"action_noise":0.15,"location_history":"[5,0,6,0,1,2,3,4,10,4,10,4,10,4,5,11,5,11,5,0,6,11,10,9,3,9,3,9,8,7]","action_history":"[0,0,0,0,0,0,0,1,1,1,1,1,1,0,0,0,0,0,0,0,0,0,1,1,1,1,1,0,0]","door_history":"[0,0,0,0,0,0,0,1,1,1,1,1,1,0,0,0,0,0,0,0,0,0,1,1,1,1,1,0,0]","location_rts":"[37,194,214,202,595,505,328,107,208,65,342,39,64,1175,233,60,5,7,403,242,420,180,164,165,62,171,437,138,715]","trial_type":"two-door-navigation","trial_index":24,"time_elapsed":540505,"internal_node_id":"0.0-2.0-22.0"},{"group":"dihedral group of order 12","room_assignment":["blue","green","brown","yellow","cyan","orange","purple","ivory","pink","red","olive","grey"],"door_color_assignment":["white","black"],"door_generator_assignment":[0,1],"goal":3,"start":7,"action_noise":0.15,"location_history":"[7,6,11,5,0,1,2,8,7,6,11,10,9,8,7,6,11,10,9,3]","action_history":"[0,0,0,0,0,0,1,0,0,0,0,0,0,0,0,0,0,0,1]","door_history":"[0,0,0,0,0,0,1,0,0,0,0,0,0,0,0,0,0,0,1]","location_rts":"[232,70,48,327,111,399,148,276,183,202,239,108,26,136,82,199,176,56,304]","trial_type":"two-door-navigation","trial_index":25,"time_elapsed":566567,"internal_node_id":"0.0-2.0-23.0"},{"group":"dihedral group of order 12","room_assignment":["blue","green","brown","yellow","cyan","orange","purple","ivory","pink","red","olive","grey"],"door_color_assignment":["white","black"],"door_generator_assignment":[0,1],"goal":4,"start":3,"action_noise":0.15,"location_history":"[3,4]","action_history":"[0]","door_history":"[0]","location_rts":"[249]","trial_type":"two-door-navigation","trial_index":26,"time_elapsed":571330,"internal_node_id":"0.0-2.0-24.0"},{"group":"dihedral group of order 12","room_assignment":["blue","green","brown","yellow","cyan","orange","purple","ivory","pink","red","olive","grey"],"door_color_assignment":["white","black"],"door_generator_assignment":[0,1],"goal":8,"start":4,"action_noise":0.15,"location_history":"[4,5,0,1,2,8]","action_history":"[0,0,0,0,0]","door_history":"[0,0,0,0,0]","location_rts":"[379,269,158,96,20]","trial_type":"two-door-navigation","trial_index":27,"time_elapsed":580816,"internal_node_id":"0.0-2.0-25.0"},{"group":"dihedral group of order 12","room_assignment":["blue","green","brown","yellow","cyan","orange","purple","ivory","pink","red","olive","grey"],"door_color_assignment":["white","black"],"door_generator_assignment":[0,1],"goal":6,"start":8,"action_noise":0.15,"location_history":"[8,7,6]","action_history":"[0,0]","door_history":"[0,0]","location_rts":"[209,34]","trial_type":"two-door-navigation","trial_index":28,"time_elapsed":587294,"internal_node_id":"0.0-2.0-26.0"},{"group":"dihedral group of order 12","room_assignment":["blue","green","brown","yellow","cyan","orange","purple","ivory","pink","red","olive","grey"],"door_color_assignment":["white","black"],"door_generator_assignment":[0,1],"goal":1,"start":6,"action_noise":0.15,"location_history":"[6,11,5,0,6,11,5,11,5,11,5,0,1]","action_history":"[0,0,0,0,0,1,1,1,1,1,0,0]","door_history":"[0,0,0,0,0,1,1,1,1,1,0,0]","location_rts":"[257,202,47,58,114,631,218,16,116,99,67,150]","trial_type":"two-door-navigation","trial_index":29,"time_elapsed":604929,"internal_node_id":"0.0-2.0-27.0"},{"group":"dihedral group of order 12","room_assignment":["blue","green","brown","yellow","cyan","orange","purple","ivory","pink","red","olive","grey"],"door_color_assignment":["white","black"],"door_generator_assignment":[0,1],"goal":5,"start":1,"action_noise":0.15,"location_history":"[1,7,6,11,10,9,8,7,1,2,3,4,5]","action_history":"[0,0,0,0,0,0,0,0,0,0,0,0]","door_history":"[0,0,0,0,0,0,0,0,0,0,0,0]","location_rts":"[215,304,396,314,572,87,294,46,172,2,145,308]","trial_type":"two-door-navigation","trial_index":30,"time_elapsed":623446,"internal_node_id":"0.0-2.0-28.0"},{"group":"dihedral group of order 12","room_assignment":["blue","green","brown","yellow","cyan","orange","purple","ivory","pink","red","olive","grey"],"door_color_assignment":["white","black"],"door_generator_assignment":[0,1],"goal":9,"start":5,"action_noise":0.15,"location_history":"[5,0,1,2,3,4,5,0,1,2,3,4,10,9]","action_history":"[0,0,0,0,0,0,0,0,0,0,0,0,0]","door_history":"[0,0,0,0,0,0,0,0,0,0,0,0,0]","location_rts":"[512,58,1009,8,27,46,284,180,494,42,160,4,924]","trial_type":"two-door-navigation","trial_index":31,"time_elapsed":643865,"internal_node_id":"0.0-2.0-29.0"},{"group":"dihedral group of order 12","room_assignment":["blue","green","brown","yellow","cyan","orange","purple","ivory","pink","red","olive","grey"],"door_color_assignment":["white","black"],"door_generator_assignment":[0,1],"goal":10,"start":9,"action_noise":0.15,"location_history":"[9,8,7,1,2,3,4,5,0,1,2,8,7,6,11,10]","action_history":"[0,0,0,0,0,0,0,0,0,0,0,0,0,0,0]","door_history":"[0,0,0,0,0,0,0,0,0,0,0,0,0,0,0]","location_rts":"[295,160,1119,49,313,492,206,314,261,724,181,261,384,434,732]","trial_type":"two-door-navigation","trial_index":32,"time_elapsed":668489,"internal_node_id":"0.0-2.0-30.0"},{"group":"dihedral group of order 12","room_assignment":["blue","green","brown","yellow","cyan","orange","purple","ivory","pink","red","olive","grey"],"door_color_assignment":["white","black"],"door_generator_assignment":[0,1],"goal":0,"start":10,"action_noise":0.15,"location_history":"[10,9,8,7,1,2,3,4,10,9,3,4,5,0]","action_history":"[0,0,0,0,0,0,0,0,0,0,0,0,0]","door_history":"[0,0,0,0,0,0,0,0,0,0,0,0,0]","location_rts":"[199,286,99,346,331,871,352,399,241,125,30,733,914]","trial_type":"two-door-navigation","trial_index":33,"time_elapsed":690083,"internal_node_id":"0.0-2.0-31.0"},{"group":"dihedral group of order 12","room_assignment":["blue","green","brown","yellow","cyan","orange","purple","ivory","pink","red","olive","grey"],"door_color_assignment":["white","black"],"door_generator_assignment":[0,1],"goal":7,"start":0,"action_noise":0.15,"location_history":"[0,1,2,8,7]","action_history":"[0,0,0,0]","door_history":"[0,0,0,0]","location_rts":"[3341,130,134,299]","trial_type":"two-door-navigation","trial_index":34,"time_elapsed":701540,"internal_node_id":"0.0-2.0-32.0"},{"group":"dihedral group of order 12","room_assignment":["blue","green","brown","yellow","cyan","orange","purple","ivory","pink","red","olive","grey"],"door_color_assignment":["white","black"],"door_generator_assignment":[0,1],"goal":11,"start":7,"action_noise":0.15,"location_history":"[7,6,11]","action_history":"[0,0]","door_history":"[0,0]","location_rts":"[403,64]","trial_type":"two-door-navigation","trial_index":35,"time_elapsed":707534,"internal_node_id":"0.0-2.0-33.0"},{"group":"dihedral group of order 12","room_assignment":["blue","green","brown","yellow","cyan","orange","purple","ivory","pink","red","olive","grey"],"door_color_assignment":["white","black"],"door_generator_assignment":[0,1],"goal":2,"start":11,"action_noise":0.15,"location_history":"[11,10,9,8,7,6,11,10,9,3,9,8,7,6,11,10,4,5,0,1,7,6,11,10,9,8,7,6,11,5,11,5,0,6,0,6,0,6,0,1,2]","action_history":"[0,0,0,0,0,0,0,0,0,0,0,0,0,0,0,0,0,0,0,0,0,0,0,0,0,0,0,0,1,1,1,1,1,1,1,1,1,1,1,1]","door_history":"[0,0,0,0,0,0,0,0,0,0,0,0,0,0,0,0,0,0,0,0,0,0,0,0,0,0,0,0,1,1,1,1,1,1,1,1,1,1,1,1]","location_rts":"[337,195,114,425,870,219,45,155,111,57,377,176,51,266,266,96,187,412,46,286,191,334,279,1636,2051,1347,491,271,322,692,363,149,137,1,335,351,237,197,183,206]","trial_type":"two-door-navigation","trial_index":36,"time_elapsed":766003,"internal_node_id":"0.0-2.0-34.0"},{"view_history":"[{\"page_index\":0,\"viewing_time\":4138}]","rt":4138,"trial_type":"instructions","trial_index":37,"time_elapsed":771142,"internal_node_id":"0.0-3.0"},{"view_history":"[{\"page_index\":0,\"viewing_time\":2915},{\"page_index\":1,\"viewing_time\":7553}]","rt":10468,"trial_type":"instructions","trial_index":38,"time_elapsed":782610,"internal_node_id":"0.0-4.0"},{"group":"dihedral group of order 12","fractal_assignment":["../images/red_prp.png","../images/gry_blk.png","../images/ylw_slt.png","../images/grn_red.png","../images/grn_prp.png","../images/ylw_pnk.png","../images/org_blu.png","../images/wht_red.png","../images/pnk_blu.png","../images/cyn_red.png","../images/grn_blu.png","../images/blu_wht.png"],"mutagen_generator_assignment":[1,0],"goal":7,"start":3,"action_noise":0.15,"location_history":"[3,9,3,4,5,0,6,11,10,9,8,7]","action_history":"[1,1,1,0,0,0,0,0,0,0,0]","mutagen_history":"[0,0,0,1,1,1,1,1,1,1,1]","location_rts":"[1726,475,586,586,359,233,214,121,233,320,64]","trial_type":"fractal-mutation","trial_index":39,"time_elapsed":802555,"internal_node_id":"0.0-5.0-0.0"},{"group":"dihedral group of order 12","fractal_assignment":["../images/red_prp.png","../images/gry_blk.png","../images/ylw_slt.png","../images/grn_red.png","../images/grn_prp.png","../images/ylw_pnk.png","../images/org_blu.png","../images/wht_red.png","../images/pnk_blu.png","../images/cyn_red.png","../images/grn_blu.png","../images/blu_wht.png"],"mutagen_generator_assignment":[1,0],"goal":5,"start":7,"action_noise":0.15,"location_history":"[7,6,11,10,4,5]","action_history":"[0,0,0,0,0]","mutagen_history":"[1,1,1,1,1]","location_rts":"[204,82,178,192,180]","trial_type":"fractal-mutation","trial_index":40,"time_elapsed":812195,"internal_node_id":"0.0-5.0-1.0"},{"group":"dihedral group of order 12","fractal_assignment":["../images/red_prp.png","../images/gry_blk.png","../images/ylw_slt.png","../images/grn_red.png","../images/grn_prp.png","../images/ylw_pnk.png","../images/org_blu.png","../images/wht_red.png","../images/pnk_blu.png","../images/cyn_red.png","../images/grn_blu.png","../images/blu_wht.png"],"mutagen_generator_assignment":[1,0],"goal":0,"start":5,"action_noise":0.15,"location_history":"[5,0]","action_history":"[0]","mutagen_history":"[1]","location_rts":"[127]","trial_type":"fractal-mutation","trial_index":41,"time_elapsed":816881,"internal_node_id":"0.0-5.0-2.0"},{"group":"dihedral group of order 12","fractal_assignment":["../images/red_prp.png","../images/gry_blk.png","../images/ylw_slt.png","../images/grn_red.png","../images/grn_prp.png","../images/ylw_pnk.png","../images/org_blu.png","../images/wht_red.png","../images/pnk_blu.png","../images/cyn_red.png","../images/grn_blu.png","../images/blu_wht.png"],"mutagen_generator_assignment":[1,0],"goal":2,"start":0,"action_noise":0.15,"location_history":"[0,1,7,6,11,10,9,8,7,6,11,10,4,10,4,10,4,10,4,10,4,10,4,10,9,8,7,6,11,10,9,3,4,5,0,1,2]","action_history":"[0,0,0,0,0,0,0,0,0,0,0,1,1,1,1,1,1,1,1,1,1,1,1,1,0,0,0,0,0,0,0,0,0,0,0,0]","mutagen_history":"[1,1,1,1,1,1,1,1,1,1,1,0,0,0,0,0,0,0,0,0,0,0,0,0,1,1,1,1,1,1,1,1,1,1,1,1]","location_rts":"[217,87,222,433,124,135,155,843,156,52,241,509,704,19,99,518,204,345,1351,2461,130,1153,455,2,153,114,41,35,1030,180,91,355,146,116,119,9]","trial_type":"fractal-mutation","trial_index":42,"time_elapsed":871218,"internal_node_id":"0.0-5.0-3.0"},{"group":"dihedral group of order 12","fractal_assignment":["../images/red_prp.png","../images/gry_blk.png","../images/ylw_slt.png","../images/grn_red.png","../images/grn_prp.png","../images/ylw_pnk.png","../images/org_blu.png","../images/wht_red.png","../images/pnk_blu.png","../images/cyn_red.png","../images/grn_blu.png","../images/blu_wht.png"],"mutagen_generator_assignment":[1,0],"goal":10,"start":2,"action_noise":0.15,"location_history":"[2,3,4,5,0,1,2,3,4,5,0,1,2,3,4,5,0,6,11,10]","action_history":"[0,0,0,0,0,0,0,0,0,0,0,0,0,0,0,0,0,0,0]","mutagen_history":"[1,1,1,1,1,1,1,1,1,1,1,1,1,1,1,1,1,1,1]","location_rts":"[1,176,65,120,64,5,756,166,82,347,126,124,114,283,906,327,76,281,163]","trial_type":"fractal-mutation","trial_index":43,"time_elapsed":899059,"internal_node_id":"0.0-5.0-4.0"},{"group":"dihedral group of order 12","fractal_assignment":["../images/red_prp.png","../images/gry_blk.png","../images/ylw_slt.png","../images/grn_red.png","../images/grn_prp.png","../images/ylw_pnk.png","../images/org_blu.png","../images/wht_red.png","../images/pnk_blu.png","../images/cyn_red.png","../images/grn_blu.png","../images/blu_wht.png"],"mutagen_generator_assignment":[1,0],"goal":8,"start":10,"action_noise":0.15,"location_history":"[10,9,3,4,5,11,5,11,5,11,5,11,5,11,5,11,5,11,10,4,10,9,8]","action_history":"[0,0,0,0,1,1,1,1,1,1,1,1,1,1,1,1,1,1,1,1,0,0]","mutagen_history":"[1,1,1,1,0,0,0,0,0,0,0,0,0,0,0,0,0,0,0,0,1,1]","location_rts":"[615,478,291,184,162,231,146,214,179,512,385,60,36,47,60,27,158,113,72,85,171,200]","trial_type":"fractal-mutation","trial_index":44,"time_elapsed":929932,"internal_node_id":"0.0-5.0-5.0"},{"group":"dihedral group of order 12","fractal_assignment":["../images/red_prp.png","../images/gry_blk.png","../images/ylw_slt.png","../images/grn_red.png","../images/grn_prp.png","../images/ylw_pnk.png","../images/org_blu.png","../images/wht_red.png","../images/pnk_blu.png","../images/cyn_red.png","../images/grn_blu.png","../images/blu_wht.png"],"mutagen_generator_assignment":[1,0],"goal":11,"start":8,"action_noise":0.15,"location_history":"[8,7,6,0,1,2,3,4,5,0,1,2,8,7,6,0,6,0,1,2,8,2,3,4,5,0,1,2,3,9,8,7,6,11]","action_history":"[0,0,0,0,0,0,0,0,0,0,0,0,0,0,0,1,1,0,0,1,1,0,0,0,0,0,0,0,1,0,0,0,0]","mutagen_history":"[1,1,1,1,1,1,1,1,1,1,1,1,1,1,1,0,0,1,1,0,0,1,1,1,1,1,1,1,0,1,1,1,1]","location_rts":"[208,82,10,31,167,154,9,17,48,36,79,36,64,112,40,132,228,1086,11,49,18,62,40,81,88,28,22,518,188,408,195,67,163]","trial_type":"fractal-mutation","trial_index":45,"time_elapsed":972785,"internal_node_id":"0.0-5.0-6.0"},{"group":"dihedral group of order 12","fractal_assignment":["../images/red_prp.png","../images/gry_blk.png","../images/ylw_slt.png","../images/grn_red.png","../images/grn_prp.png","../images/ylw_pnk.png","../images/org_blu.png","../images/wht_red.png","../images/pnk_blu.png","../images/cyn_red.png","../images/grn_blu.png","../images/blu_wht.png"],"mutagen_generator_assignment":[1,0],"goal":6,"start":11,"action_noise":0.15,"location_history":"[11,10,9,8,7,6]","action_history":"[0,0,0,0,0]","mutagen_history":"[1,1,1,1,1]","location_rts":"[352,34,127,290,232]","trial_type":"fractal-mutation","trial_index":46,"time_elapsed":982619,"internal_node_id":"0.0-5.0-7.0"},{"group":"dihedral group of order 12","fractal_assignment":["../images/red_prp.png","../images/gry_blk.png","../images/ylw_slt.png","../images/grn_red.png","../images/grn_prp.png","../images/ylw_pnk.png","../images/org_blu.png","../images/wht_red.png","../images/pnk_blu.png","../images/cyn_red.png","../images/grn_blu.png","../images/blu_wht.png"],"mutagen_generator_assignment":[1,0],"goal":4,"start":6,"action_noise":0.15,"location_history":"[6,11,10,9,8,2,3,4]","action_history":"[0,0,0,0,0,0,0]","mutagen_history":"[1,1,1,1,1,1,1]","location_rts":"[480,5,34,39,97,128,251]","trial_type":"fractal-mutation","trial_index":47,"time_elapsed":994573,"internal_node_id":"0.0-5.0-8.0"},{"group":"dihedral group of order 12","fractal_assignment":["../images/red_prp.png","../images/gry_blk.png","../images/ylw_slt.png","../images/grn_red.png","../images/grn_prp.png","../images/ylw_pnk.png","../images/org_blu.png","../images/wht_red.png","../images/pnk_blu.png","../images/cyn_red.png","../images/grn_blu.png","../images/blu_wht.png"],"mutagen_generator_assignment":[1,0],"goal":1,"start":4,"action_noise":0.15,"location_history":"[4,5,0,1]","action_history":"[0,0,0]","mutagen_history":"[1,1,1]","location_rts":"[59,372,144]","trial_type":"fractal-mutation","trial_index":48,"time_elapsed":1001829,"internal_node_id":"0.0-5.0-9.0"},{"group":"dihedral group of order 12","fractal_assignment":["../images/red_prp.png","../images/gry_blk.png","../images/ylw_slt.png","../images/grn_red.png","../images/grn_prp.png","../images/ylw_pnk.png","../images/org_blu.png","../images/wht_red.png","../images/pnk_blu.png","../images/cyn_red.png","../images/grn_blu.png","../images/blu_wht.png"],"mutagen_generator_assignment":[1,0],"goal":9,"start":1,"action_noise":0.15,"location_history":"[1,2,3,4,5,0,1,2,3,4,10,9]","action_history":"[0,0,0,0,0,0,0,0,0,0,0]","mutagen_history":"[1,1,1,1,1,1,1,1,1,1,1]","location_rts":"[388,170,5,294,42,38,1043,57,106,56,50]","trial_type":"fractal-mutation","trial_index":49,"time_elapsed":1019248,"internal_node_id":"0.0-5.0-10.0"},{"group":"dihedral group of order 12","fractal_assignment":["../images/red_prp.png","../images/gry_blk.png","../images/ylw_slt.png","../images/grn_red.png","../images/grn_prp.png","../images/ylw_pnk.png","../images/org_blu.png","../images/wht_red.png","../images/pnk_blu.png","../images/cyn_red.png","../images/grn_blu.png","../images/blu_wht.png"],"mutagen_generator_assignment":[1,0],"goal":10,"start":9,"action_noise":0.15,"location_history":"[9,3,4,5,0,1,2,3,4,5,0,1,2,3,4,5,0,1,2,8,7,6,11,5,11,5,11,5,0,6,11,10]","action_history":"[0,0,0,0,0,0,0,0,0,0,0,0,0,0,0,0,0,0,0,0,0,0,1,1,1,1,1,0,0,0,0]","mutagen_history":"[1,1,1,1,1,1,1,1,1,1,1,1,1,1,1,1,1,1,1,1,1,1,0,0,0,0,0,1,1,1,1]","location_rts":"[263,477,25,36,56,241,120,1182,52,454,40,138,70,1132,177,97,973,388,691,38,228,725,87,70,59,55,243,86,81,46,36]","trial_type":"fractal-mutation","trial_index":50,"time_elapsed":1063837,"internal_node_id":"0.0-5.0-11.0"},{"group":"dihedral group of order 12","fractal_assignment":["../images/red_prp.png","../images/gry_blk.png","../images/ylw_slt.png","../images/grn_red.png","../images/grn_prp.png","../images/ylw_pnk.png","../images/org_blu.png","../images/wht_red.png","../images/pnk_blu.png","../images/cyn_red.png","../images/grn_blu.png","../images/blu_wht.png"],"mutagen_generator_assignment":[1,0],"goal":2,"start":10,"action_noise":0.15,"location_history":"[10,9,8,7,6,11,10,9,3,9,8,2]","action_history":"[0,0,0,0,0,0,0,1,1,0,0]","mutagen_history":"[1,1,1,1,1,1,1,0,0,1,1]","location_rts":"[197,43,546,60,60,1,74,68,126,78,48]","trial_type":"fractal-mutation","trial_index":51,"time_elapsed":1080258,"internal_node_id":"0.0-5.0-12.0"},{"group":"dihedral group of order 12","fractal_assignment":["../images/red_prp.png","../images/gry_blk.png","../images/ylw_slt.png","../images/grn_red.png","../images/grn_prp.png","../images/ylw_pnk.png","../images/org_blu.png","../images/wht_red.png","../images/pnk_blu.png","../images/cyn_red.png","../images/grn_blu.png","../images/blu_wht.png"],"mutagen_generator_assignment":[1,0],"goal":0,"start":2,"action_noise":0.15,"location_history":"[2,3,4,5,0]","action_history":"[0,0,0,0]","mutagen_history":"[1,1,1,1]","location_rts":"[508,54,476,344]","trial_type":"fractal-mutation","trial_index":52,"time_elapsed":1089384,"internal_node_id":"0.0-5.0-13.0"},{"group":"dihedral group of order 12","fractal_assignment":["../images/red_prp.png","../images/gry_blk.png","../images/ylw_slt.png","../images/grn_red.png","../images/grn_prp.png","../images/ylw_pnk.png","../images/org_blu.png","../images/wht_red.png","../images/pnk_blu.png","../images/cyn_red.png","../images/grn_blu.png","../images/blu_wht.png"],"mutagen_generator_assignment":[1,0],"goal":9,"start":0,"action_noise":0.15,"location_history":"[0,1,2,3,4,5,0,1,2,3,4,5,0,1,2,3,4,5,0,6,11,10,9]","action_history":"[0,0,0,0,0,0,0,0,0,0,0,0,0,0,0,0,0,0,0,0,0,0]","mutagen_history":"[1,1,1,1,1,1,1,1,1,1,1,1,1,1,1,1,1,1,1,1,1,1]","location_rts":"[535,147,204,62,70,88,198,20,2672,258,427,1012,0,114,746,453,448,621,1613,9,70,107]","trial_type":"fractal-mutation","trial_index":53,"time_elapsed":1126084,"internal_node_id":"0.0-5.0-14.0"},{"group":"dihedral group of order 12","fractal_assignment":["../images/red_prp.png","../images/gry_blk.png","../images/ylw_slt.png","../images/grn_red.png","../images/grn_prp.png","../images/ylw_pnk.png","../images/org_blu.png","../images/wht_red.png","../images/pnk_blu.png","../images/cyn_red.png","../images/grn_blu.png","../images/blu_wht.png"],"mutagen_generator_assignment":[1,0],"goal":8,"start":9,"action_noise":0.15,"location_history":"[9,8]","action_history":"[0]","mutagen_history":"[1]","location_rts":"[322]","trial_type":"fractal-mutation","trial_index":54,"time_elapsed":1130967,"internal_node_id":"0.0-5.0-15.0"},{"group":"dihedral group of order 12","fractal_assignment":["../images/red_prp.png","../images/gry_blk.png","../images/ylw_slt.png","../images/grn_red.png","../images/grn_prp.png","../images/ylw_pnk.png","../images/org_blu.png","../images/wht_red.png","../images/pnk_blu.png","../images/cyn_red.png","../images/grn_blu.png","../images/blu_wht.png"],"mutagen_generator_assignment":[1,0],"goal":6,"start":8,"action_noise":0.15,"location_history":"[8,7,6]","action_history":"[0,0]","mutagen_history":"[1,1]","location_rts":"[77,577]","trial_type":"fractal-mutation","trial_index":55,"time_elapsed":1137236,"internal_node_id":"0.0-5.0-16.0"},{"group":"dihedral group of order 12","fractal_assignment":["../images/red_prp.png","../images/gry_blk.png","../images/ylw_slt.png","../images/grn_red.png","../images/grn_prp.png","../images/ylw_pnk.png","../images/org_blu.png","../images/wht_red.png","../images/pnk_blu.png","../images/cyn_red.png","../images/grn_blu.png","../images/blu_wht.png"],"mutagen_generator_assignment":[1,0],"goal":1,"start":6,"action_noise":0.15,"location_history":"[6,11,10,9,8,7,1]","action_history":"[0,0,0,0,0,0]","mutagen_history":"[1,1,1,1,1,1]","location_rts":"[97,198,44,243,271,63]","trial_type":"fractal-mutation","trial_index":56,"time_elapsed":1148010,"internal_node_id":"0.0-5.0-17.0"},{"group":"dihedral group of order 12","fractal_assignment":["../images/red_prp.png","../images/gry_blk.png","../images/ylw_slt.png","../images/grn_red.png","../images/grn_prp.png","../images/ylw_pnk.png","../images/org_blu.png","../images/wht_red.png","../images/pnk_blu.png","../images/cyn_red.png","../images/grn_blu.png","../images/blu_wht.png"],"mutagen_generator_assignment":[1,0],"goal":4,"start":1,"action_noise":0.15,"location_history":"[1,2,3,9,8,7,6,0,1,2,3,4]","action_history":"[0,0,0,0,0,0,0,0,0,0,0]","mutagen_history":"[1,1,1,1,1,1,1,1,1,1,1]","location_rts":"[29,135,968,285,140,159,252,265,127,436,493]","trial_type":"fractal-mutation","trial_index":57,"time_elapsed":1166461,"internal_node_id":"0.0-5.0-18.0"},{"group":"dihedral group of order 12","fractal_assignment":["../images/red_prp.png","../images/gry_blk.png","../images/ylw_slt.png","../images/grn_red.png","../images/grn_prp.png","../images/ylw_pnk.png","../images/org_blu.png","../images/wht_red.png","../images/pnk_blu.png","../images/cyn_red.png","../images/grn_blu.png","../images/blu_wht.png"],"mutagen_generator_assignment":[1,0],"goal":11,"start":4,"action_noise":0.15,"location_history":"[4,5,0,1,2,8,2,8,2,3,4,5,0,1,2,3,4,5,0,6,0,1,2,3,4,10,9,8,2,8,2,8,7,1,7,1,7,1,7,1,7,1,7,1,7,1,7,1,2,3,4,10,4,5,0,1,2,3,4,5,0,6,11]","action_history":"[0,0,0,0,1,1,1,1,0,0,0,0,0,0,0,0,0,0,0,0,0,0,0,0,0,0,0,1,1,1,1,1,1,1,1,1,1,1,1,1,1,1,1,1,1,1,0,0,0,0,0,0,0,0,0,0,0,0,0,0,0,0]","mutagen_history":"[1,1,1,1,0,0,0,0,1,1,1,1,1,1,1,1,1,1,1,1,1,1,1,1,1,1,1,0,0,0,0,0,0,0,0,0,0,0,0,0,0,0,0,0,0,0,1,1,1,1,1,1,1,1,1,1,1,1,1,1,1,1]","location_rts":"[289,264,112,185,72,203,460,637,90,369,268,104,94,360,368,141,211,266,211,77,249,99,448,701,291,22,748,93,51,34,45,221,142,262,634,521,713,10,801,251,980,222,207,537,55,95,202,140,106,69,108,194,184,115,245,219,140,123,306,144,122,148]","trial_type":"fractal-mutation","trial_index":58,"time_elapsed":1250894,"internal_node_id":"0.0-5.0-19.0"},{"group":"dihedral group of order 12","fractal_assignment":["../images/red_prp.png","../images/gry_blk.png","../images/ylw_slt.png","../images/grn_red.png","../images/grn_prp.png","../images/ylw_pnk.png","../images/org_blu.png","../images/wht_red.png","../images/pnk_blu.png","../images/cyn_red.png","../images/grn_blu.png","../images/blu_wht.png"],"mutagen_generator_assignment":[1,0],"goal":3,"start":11,"action_noise":0.15,"location_history":"[11,5,0,1,2,3]","action_history":"[0,0,0,0,0]","mutagen_history":"[1,1,1,1,1]","location_rts":"[422,225,339,540,247]","trial_type":"fractal-mutation","trial_index":59,"time_elapsed":1261471,"internal_node_id":"0.0-5.0-20.0"},{"group":"dihedral group of order 12","fractal_assignment":["../images/red_prp.png","../images/gry_blk.png","../images/ylw_slt.png","../images/grn_red.png","../images/grn_prp.png","../images/ylw_pnk.png","../images/org_blu.png","../images/wht_red.png","../images/pnk_blu.png","../images/cyn_red.png","../images/grn_blu.png","../images/blu_wht.png"],"mutagen_generator_assignment":[1,0],"goal":5,"start":3,"action_noise":0.15,"location_history":"[3,4,5]","action_history":"[0,0]","mutagen_history":"[1,1]","location_rts":"[342,107]","trial_type":"fractal-mutation","trial_index":60,"time_elapsed":1267538,"internal_node_id":"0.0-5.0-21.0"},{"group":"dihedral group of order 12","fractal_assignment":["../images/red_prp.png","../images/gry_blk.png","../images/ylw_slt.png","../images/grn_red.png","../images/grn_prp.png","../images/ylw_pnk.png","../images/org_blu.png","../images/wht_red.png","../images/pnk_blu.png","../images/cyn_red.png","../images/grn_blu.png","../images/blu_wht.png"],"mutagen_generator_assignment":[1,0],"goal":7,"start":5,"action_noise":0.15,"location_history":"[5,0,6,11,10,9,8,7]","action_history":"[0,0,0,0,0,0,0]","mutagen_history":"[1,1,1,1,1,1,1]","location_rts":"[225,150,258,282,28,156,229]","trial_type":"fractal-mutation","trial_index":61,"time_elapsed":1279789,"internal_node_id":"0.0-5.0-22.0"},{"group":"dihedral group of order 12","fractal_assignment":["../images/red_prp.png","../images/gry_blk.png","../images/ylw_slt.png","../images/grn_red.png","../images/grn_prp.png","../images/ylw_pnk.png","../images/org_blu.png","../images/wht_red.png","../images/pnk_blu.png","../images/cyn_red.png","../images/grn_blu.png","../images/blu_wht.png"],"mutagen_generator_assignment":[1,0],"goal":3,"start":7,"action_noise":0.15,"location_history":"[7,6,11,10,9,3]","action_history":"[0,0,0,0,0]","mutagen_history":"[1,1,1,1,1]","location_rts":"[373,66,212,54,69]","trial_type":"fractal-mutation","trial_index":62,"time_elapsed":1289358,"internal_node_id":"0.0-5.0-23.0"},{"group":"dihedral group of order 12","fractal_assignment":["../images/red_prp.png","../images/gry_blk.png","../images/ylw_slt.png","../images/grn_red.png","../images/grn_prp.png","../images/ylw_pnk.png","../images/org_blu.png","../images/wht_red.png","../images/pnk_blu.png","../images/cyn_red.png","../images/grn_blu.png","../images/blu_wht.png"],"mutagen_generator_assignment":[1,0],"goal":4,"start":3,"action_noise":0.15,"location_history":"[3,4]","action_history":"[0]","mutagen_history":"[1]","location_rts":"[32]","trial_type":"fractal-mutation","trial_index":63,"time_elapsed":1293953,"internal_node_id":"0.0-5.0-24.0"},{"group":"dihedral group of order 12","fractal_assignment":["../images/red_prp.png","../images/gry_blk.png","../images/ylw_slt.png","../images/grn_red.png","../images/grn_prp.png","../images/ylw_pnk.png","../images/org_blu.png","../images/wht_red.png","../images/pnk_blu.png","../images/cyn_red.png","../images/grn_blu.png","../images/blu_wht.png"],"mutagen_generator_assignment":[1,0],"goal":8,"start":4,"action_noise":0.15,"location_history":"[4,10,9,8]","action_history":"[0,0,0]","mutagen_history":"[1,1,1]","location_rts":"[499,93,215]","trial_type":"fractal-mutation","trial_index":64,"time_elapsed":1301436,"internal_node_id":"0.0-5.0-25.0"},{"group":"dihedral group of order 12","fractal_assignment":["../images/red_prp.png","../images/gry_blk.png","../images/ylw_slt.png","../images/grn_red.png","../images/grn_prp.png","../images/ylw_pnk.png","../images/org_blu.png","../images/wht_red.png","../images/pnk_blu.png","../images/cyn_red.png","../images/grn_blu.png","../images/blu_wht.png"],"mutagen_generator_assignment":[1,0],"goal":6,"start":8,"action_noise":0.15,"location_history":"[8,7,6]","action_history":"[0,0]","mutagen_history":"[1,1]","location_rts":"[278,78]","trial_type":"fractal-mutation","trial_index":65,"time_elapsed":1307408,"internal_node_id":"0.0-5.0-26.0"},{"group":"dihedral group of order 12","fractal_assignment":["../images/red_prp.png","../images/gry_blk.png","../images/ylw_slt.png","../images/grn_red.png","../images/grn_prp.png","../images/ylw_pnk.png","../images/org_blu.png","../images/wht_red.png","../images/pnk_blu.png","../images/cyn_red.png","../images/grn_blu.png","../images/blu_wht.png"],"mutagen_generator_assignment":[1,0],"goal":1,"start":6,"action_noise":0.15,"location_history":"[6,11,5,0,1]","action_history":"[0,0,0,0]","mutagen_history":"[1,1,1,1]","location_rts":"[139,151,570,209]","trial_type":"fractal-mutation","trial_index":66,"time_elapsed":1316215,"internal_node_id":"0.0-5.0-27.0"},{"group":"dihedral group of order 12","fractal_assignment":["../images/red_prp.png","../images/gry_blk.png","../images/ylw_slt.png","../images/grn_red.png","../images/grn_prp.png","../images/ylw_pnk.png","../images/org_blu.png","../images/wht_red.png","../images/pnk_blu.png","../images/cyn_red.png","../images/grn_blu.png","../images/blu_wht.png"],"mutagen_generator_assignment":[1,0],"goal":5,"start":1,"action_noise":0.15,"location_history":"[1,2,3,4,10,9,8,7,1,2,3,4,5]","action_history":"[0,0,0,0,0,0,0,0,0,0,0,0]","mutagen_history":"[1,1,1,1,1,1,1,1,1,1,1,1]","location_rts":"[144,289,261,40,120,180,309,240,65,217,83,201]","trial_type":"fractal-mutation","trial_index":67,"time_elapsed":1334585,"internal_node_id":"0.0-5.0-28.0"},{"group":"dihedral group of order 12","fractal_assignment":["../images/red_prp.png","../images/gry_blk.png","../images/ylw_slt.png","../images/grn_red.png","../images/grn_prp.png","../images/ylw_pnk.png","../images/org_blu.png","../images/wht_red.png","../images/pnk_blu.png","../images/cyn_red.png","../images/grn_blu.png","../images/blu_wht.png"],"mutagen_generator_assignment":[1,0],"goal":9,"start":5,"action_noise":0.15,"location_history":"[5,0,1,7,6,0,1,2,3,4,5,11,10,9]","action_history":"[0,0,0,0,0,0,0,0,0,0,0,0,0]","mutagen_history":"[1,1,1,1,1,1,1,1,1,1,1,1,1]","location_rts":"[69,406,904,166,418,314,99,420,263,314,1045,379,183]","trial_type":"fractal-mutation","trial_index":68,"time_elapsed":1356820,"internal_node_id":"0.0-5.0-29.0"},{"group":"dihedral group of order 12","fractal_assignment":["../images/red_prp.png","../images/gry_blk.png","../images/ylw_slt.png","../images/grn_red.png","../images/grn_prp.png","../images/ylw_pnk.png","../images/org_blu.png","../images/wht_red.png","../images/pnk_blu.png","../images/cyn_red.png","../images/grn_blu.png","../images/blu_wht.png"],"mutagen_generator_assignment":[1,0],"goal":10,"start":9,"action_noise":0.15,"location_history":"[9,8,2,3,4,10]","action_history":"[0,0,0,0,0]","mutagen_history":"[1,1,1,1,1]","location_rts":"[5,3347,146,51,101]","trial_type":"fractal-mutation","trial_index":69,"time_elapsed":1369258,"internal_node_id":"0.0-5.0-30.0"},{"group":"dihedral group of order 12","fractal_assignment":["../images/red_prp.png","../images/gry_blk.png","../images/ylw_slt.png","../images/grn_red.png","../images/grn_prp.png","../images/ylw_pnk.png","../images/org_blu.png","../images/wht_red.png","../images/pnk_blu.png","../images/cyn_red.png","../images/grn_blu.png","../images/blu_wht.png"],"mutagen_generator_assignment":[1,0],"goal":0,"start":10,"action_noise":0.15,"location_history":"[10,9,8,7,6,0]","action_history":"[0,0,0,0,0]","mutagen_history":"[1,1,1,1,1]","location_rts":"[1396,271,132,548,147]","trial_type":"fractal-mutation","trial_index":70,"time_elapsed":1380542,"internal_node_id":"0.0-5.0-31.0"},{"group":"dihedral group of order 12","fractal_assignment":["../images/red_prp.png","../images/gry_blk.png","../images/ylw_slt.png","../images/grn_red.png","../images/grn_prp.png","../images/ylw_pnk.png","../images/org_blu.png","../images/wht_red.png","../images/pnk_blu.png","../images/cyn_red.png","../images/grn_blu.png","../images/blu_wht.png"],"mutagen_generator_assignment":[1,0],"goal":7,"start":0,"action_noise":0.15,"location_history":"[0,1,7]","action_history":"[0,0]","mutagen_history":"[1,1]","location_rts":"[260,242]","trial_type":"fractal-mutation","trial_index":71,"time_elapsed":1386660,"internal_node_id":"0.0-5.0-32.0"},{"group":"dihedral group of order 12","fractal_assignment":["../images/red_prp.png","../images/gry_blk.png","../images/ylw_slt.png","../images/grn_red.png","../images/grn_prp.png","../images/ylw_pnk.png","../images/org_blu.png","../images/wht_red.png","../images/pnk_blu.png","../images/cyn_red.png","../images/grn_blu.png","../images/blu_wht.png"],"mutagen_generator_assignment":[1,0],"goal":11,"start":7,"action_noise":0.15,"location_history":"[7,6,11]","action_history":"[0,0]","mutagen_history":"[1,1]","location_rts":"[252,47]","trial_type":"fractal-mutation","trial_index":72,"time_elapsed":1392574,"internal_node_id":"0.0-5.0-33.0"},{"group":"dihedral group of order 12","fractal_assignment":["../images/red_prp.png","../images/gry_blk.png","../images/ylw_slt.png","../images/grn_red.png","../images/grn_prp.png","../images/ylw_pnk.png","../images/org_blu.png","../images/wht_red.png","../images/pnk_blu.png","../images/cyn_red.png","../images/grn_blu.png","../images/blu_wht.png"],"mutagen_generator_assignment":[1,0],"goal":2,"start":11,"action_noise":0.15,"location_history":"[11,10,4,5,0,1,2]","action_history":"[0,0,0,0,0,0]","mutagen_history":"[1,1,1,1,1,1]","location_rts":"[246,49,194,444,210,384]","trial_type":"fractal-mutation","trial_index":73,"time_elapsed":1403955,"internal_node_id":"0.0-5.0-34.0"},{"view_history":"[{\"page_index\":0,\"viewing_time\":2930}]","rt":2930,"trial_type":"instructions","trial_index":74,"time_elapsed":1407886,"internal_node_id":"0.0-6.0"},{"rt":10043,"responses":"{\"Q0\":\"I have no idea\"}","trial_type":"survey-text","trial_index":75,"time_elapsed":1418931,"internal_node_id":"0.0-7.0-0.0"},{"rt":5047,"responses":"{\"Q0\":\"No idea\"}","trial_type":"survey-text","trial_index":76,"time_elapsed":1424980,"internal_node_id":"0.0-7.0-1.0"},{"rt":3764,"responses":"{\"Q0\":\"2\"}","trial_type":"survey-likert","trial_index":77,"time_elapsed":1429746,"internal_node_id":"0.0-7.0-2.0"},{"rt":7207,"responses":"{\"Q0\":\"None\"}","trial_type":"survey-text","trial_index":78,"time_elapsed":1437953,"internal_node_id":"0.0-7.0-3.0"},{"rt":3097,"responses":"{\"Q0\":\"No\"}","trial_type":"survey-multi-choice","trial_index":79,"time_elapsed":1442053,"internal_node_id":"0.0-7.0-4.0"},{"rt":3601,"responses":"{\"Q0\":\"Did not notice\"}","trial_type":"survey-multi-choice","trial_index":80,"time_elapsed":1446657,"internal_node_id":"0.0-7.0-5.0"},{"rt":4099,"responses":"{\"Q0\":\"\"}","trial_type":"survey-text","trial_index":81,"time_elapsed":1451757,"internal_node_id":"0.0-7.0-6.0"},{"rt":4305,"responses":"{\"Q0\":\"0\"}","trial_type":"survey-likert","trial_index":82,"time_elapsed":1457063,"internal_node_id":"0.0-7.0-7.0"},{"rt":8773,"responses":"{\"Q0\":\"Different structure\"}","trial_type":"survey-multi-choice","trial_index":83,"time_elapsed":1466838,"internal_node_id":"0.0-7.0-8.0"},{"rt":15889,"responses":"{\"Q0\":\"black door = acid, white door = ray\",\"Q1\":\"Not at all confident\"}","trial_type":"survey-multi-choice","trial_index":84,"time_elapsed":1483729,"internal_node_id":"0.0-7.0-9.0"},{"rt":6868,"responses":"{\"Q0\":\"25-35\",\"Q1\":\"Some college\",\"Q2\":\"Female\",\"Q3\":\"Asian\"}","trial_type":"survey-multi-choice","trial_index":85,"time_elapsed":1491602,"internal_node_id":"0.0-8.0"},{"rt":1320,"responses":"{\"Q0\":\"\"}","trial_type":"survey-text","trial_index":86,"time_elapsed":1493922,"internal_node_id":"0.0-9.0"}]