[{"view_history":"[{\"page_index\":0,\"viewing_time\":2605},{\"page_index\":1,\"viewing_time\":15679}]","rt":18285,"trial_type":"instructions","trial_index":0,"time_elapsed":18285,"internal_node_id":"0.0-0.0"},{"view_history":"[{\"page_index\":0,\"viewing_time\":1582},{\"page_index\":1,\"viewing_time\":2968}]","rt":4550,"trial_type":"instructions","trial_index":1,"time_elapsed":23836,"internal_node_id":"0.0-1.0"},{"group":"dihedral group of order 12","room_assignment":["cyan","blue","ivory","red","yellow","green","brown","grey","pink","olive","orange","purple"],"door_color_assignment":["white","black"],"door_generator_assignment":[0,1],"goal":7,"start":3,"action_noise":0.15,"location_history":"[3,9,8,7]","action_history":"[0,0,0]","door_history":"[0,0,0]","location_rts":"[1736,330,226]","trial_type":"two-door-navigation","trial_index":2,"time_elapsed":32823,"internal_node_id":"0.0-2.0-0.0"},{"group":"dihedral group of order 12","room_assignment":["cyan","blue","ivory","red","yellow","green","brown","grey","pink","olive","orange","purple"],"door_color_assignment":["white","black"],"door_generator_assignment":[0,1],"goal":5,"start":7,"action_noise":0.15,"location_history":"[7,1,2,3,4,5]","action_history":"[1,0,0,0,0]","door_history":"[1,0,0,0,0]","location_rts":"[1847,452,103,152,272]","trial_type":"two-door-navigation","trial_index":3,"time_elapsed":44522,"internal_node_id":"0.0-2.0-1.0"},{"group":"dihedral group of order 12","room_assignment":["cyan","blue","ivory","red","yellow","green","brown","grey","pink","olive","orange","purple"],"door_color_assignment":["white","black"],"door_generator_assignment":[0,1],"goal":0,"start":5,"action_noise":0.15,"location_history":"[5,11,10,9,8,7,6,11,5,0]","action_history":"[0,0,0,0,0,1,0,0,0]","door_history":"[0,0,0,0,0,1,0,0,0]","location_rts":"[1247,368,741,150,115,512,21,115,24]","trial_type":"two-door-navigation","trial_index":4,"time_elapsed":60947,"internal_node_id":"0.0-2.0-2.0"},{"group":"dihedral group of order 12","room_assignment":["cyan","blue","ivory","red","yellow","green","brown","grey","pink","olive","orange","purple"],"door_color_assignment":["white","black"],"door_generator_assignment":[0,1],"goal":2,"start":0,"action_noise":0.15,"location_history":"[0,1,2]","action_history":"[0,0]","door_history":"[0,0]","location_rts":"[1930,241]","trial_type":"two-door-navigation","trial_index":5,"time_elapsed":68772,"internal_node_id":"0.0-2.0-3.0"},{"group":"dihedral group of order 12","room_assignment":["cyan","blue","ivory","red","yellow","green","brown","grey","pink","olive","orange","purple"],"door_color_assignment":["white","black"],"door_generator_assignment":[0,1],"goal":10,"start":2,"action_noise":0.15,"location_history":"[2,3,9,8,7,6,11,10]","action_history":"[0,0,0,0,0,0,0]","door_history":"[0,0,0,0,0,0,0]","location_rts":"[3700,770,285,138,256,474,228]","trial_type":"two-door-navigation","trial_index":6,"time_elapsed":85656,"internal_node_id":"0.0-2.0-4.0"},{"group":"dihedral group of order 12","room_assignment":["cyan","blue","ivory","red","yellow","green","brown","grey","pink","olive","orange","purple"],"door_color_assignment":["white","black"],"door_generator_assignment":[0,1],"goal":8,"start":10,"action_noise":0.15,"location_history":"[10,4,5,11,10,9,8]","action_history":"[1,0,1,0,0,0]","door_history":"[1,0,1,0,0,0]","location_rts":"[1683,412,1271,631,247,436]","trial_type":"two-door-navigation","trial_index":7,"time_elapsed":100275,"internal_node_id":"0.0-2.0-5.0"},{"group":"dihedral group of order 12","room_assignment":["cyan","blue","ivory","red","yellow","green","brown","grey","pink","olive","orange","purple"],"door_color_assignment":["white","black"],"door_generator_assignment":[0,1],"goal":11,"start":8,"action_noise":0.15,"location_history":"[8,7,1,2,3,4,5,0,1,2,3,4,5,0,1,7,6,11]","action_history":"[0,1,0,0,0,0,0,0,0,0,0,0,0,0,0,1,0]","door_history":"[0,1,0,0,0,0,0,0,0,0,0,0,0,0,0,1,0]","location_rts":"[2026,246,132,50,41,125,399,431,109,156,158,84,198,2835,414,957,35]","trial_type":"two-door-navigation","trial_index":8,"time_elapsed":130330,"internal_node_id":"0.0-2.0-6.0"},{"group":"dihedral group of order 12","room_assignment":["cyan","blue","ivory","red","yellow","green","brown","grey","pink","olive","orange","purple"],"door_color_assignment":["white","black"],"door_generator_assignment":[0,1],"goal":6,"start":11,"action_noise":0.15,"location_history":"[11,10,9,8,7,6]","action_history":"[0,0,0,0,0]","door_history":"[0,0,0,0,0]","location_rts":"[1853,88,87,45,68]","trial_type":"two-door-navigation","trial_index":9,"time_elapsed":141369,"internal_node_id":"0.0-2.0-7.0"},{"group":"dihedral group of order 12","room_assignment":["cyan","blue","ivory","red","yellow","green","brown","grey","pink","olive","orange","purple"],"door_color_assignment":["white","black"],"door_generator_assignment":[0,1],"goal":4,"start":6,"action_noise":0.15,"location_history":"[6,11,10,9,3,4]","action_history":"[0,0,0,0,0]","door_history":"[0,0,0,0,0]","location_rts":"[1853,884,769,524,657]","trial_type":"two-door-navigation","trial_index":10,"time_elapsed":154925,"internal_node_id":"0.0-2.0-8.0"},{"group":"dihedral group of order 12","room_assignment":["cyan","blue","ivory","red","yellow","green","brown","grey","pink","olive","orange","purple"],"door_color_assignment":["white","black"],"door_generator_assignment":[0,1],"goal":1,"start":4,"action_noise":0.15,"location_history":"[4,5,0,1]","action_history":"[0,0,0]","door_history":"[0,0,0]","location_rts":"[1115,111,237]","trial_type":"two-door-navigation","trial_index":11,"time_elapsed":163120,"internal_node_id":"0.0-2.0-9.0"},{"group":"dihedral group of order 12","room_assignment":["cyan","blue","ivory","red","yellow","green","brown","grey","pink","olive","orange","purple"],"door_color_assignment":["white","black"],"door_generator_assignment":[0,1],"goal":9,"start":1,"action_noise":0.15,"location_history":"[1,2,8,7,6,11,10,4,5,0,1,2,8,2,8,7,6,11,10,9]","action_history":"[0,1,0,0,0,0,0,0,0,0,0,1,0,0,0,0,0,0,0]","door_history":"[0,1,0,0,0,0,0,0,0,0,0,1,0,0,0,0,0,0,0]","location_rts":"[2199,1007,209,74,101,45,198,59,117,186,393,341,75,130,182,840,201,71,183]","trial_type":"two-door-navigation","trial_index":12,"time_elapsed":193548,"internal_node_id":"0.0-2.0-10.0"},{"group":"dihedral group of order 12","room_assignment":["cyan","blue","ivory","red","yellow","green","brown","grey","pink","olive","orange","purple"],"door_color_assignment":["white","black"],"door_generator_assignment":[0,1],"goal":10,"start":9,"action_noise":0.15,"location_history":"[9,8,7,1,7,6,11,10]","action_history":"[0,0,1,0,0,0,0]","door_history":"[0,0,1,0,0,0,0]","location_rts":"[1333,165,338,65,96,1,68]","trial_type":"two-door-navigation","trial_index":13,"time_elapsed":206579,"internal_node_id":"0.0-2.0-11.0"},{"group":"dihedral group of order 12","room_assignment":["cyan","blue","ivory","red","yellow","green","brown","grey","pink","olive","orange","purple"],"door_color_assignment":["white","black"],"door_generator_assignment":[0,1],"goal":2,"start":10,"action_noise":0.15,"location_history":"[10,9,8,2]","action_history":"[0,0,0]","door_history":"[0,0,0]","location_rts":"[1998,17,135]","trial_type":"two-door-navigation","trial_index":14,"time_elapsed":215453,"internal_node_id":"0.0-2.0-12.0"},{"group":"dihedral group of order 12","room_assignment":["cyan","blue","ivory","red","yellow","green","brown","grey","pink","olive","orange","purple"],"door_color_assignment":["white","black"],"door_generator_assignment":[0,1],"goal":0,"start":2,"action_noise":0.15,"location_history":"[2,3,4,5,11,10,9,8,7,1,2,3,4,5,0]","action_history":"[0,0,0,0,0,0,0,0,1,0,0,0,0,0]","door_history":"[0,0,0,0,0,0,0,0,1,0,0,0,0,0]","location_rts":"[2368,322,348,263,35,329,50,441,170,133,559,313,423,186]","trial_type":"two-door-navigation","trial_index":15,"time_elapsed":239859,"internal_node_id":"0.0-2.0-13.0"},{"group":"dihedral group of order 12","room_assignment":["cyan","blue","ivory","red","yellow","green","brown","grey","pink","olive","orange","purple"],"door_color_assignment":["white","black"],"door_generator_assignment":[0,1],"goal":9,"start":0,"action_noise":0.15,"location_history":"[0,6,11,10,9]","action_history":"[0,0,0,0]","door_history":"[0,0,0,0]","location_rts":"[744,844,133,577]","trial_type":"two-door-navigation","trial_index":16,"time_elapsed":249956,"internal_node_id":"0.0-2.0-14.0"},{"group":"dihedral group of order 12","room_assignment":["cyan","blue","ivory","red","yellow","green","brown","grey","pink","olive","orange","purple"],"door_color_assignment":["white","black"],"door_generator_assignment":[0,1],"goal":8,"start":9,"action_noise":0.15,"location_history":"[9,3,4,5,11,10,9,8]","action_history":"[0,0,0,0,0,0,0]","door_history":"[0,0,0,0,0,0,0]","location_rts":"[374,884,514,657,769,278,346]","trial_type":"two-door-navigation","trial_index":17,"time_elapsed":264782,"internal_node_id":"0.0-2.0-15.0"},{"group":"dihedral group of order 12","room_assignment":["cyan","blue","ivory","red","yellow","green","brown","grey","pink","olive","orange","purple"],"door_color_assignment":["white","black"],"door_generator_assignment":[0,1],"goal":6,"start":8,"action_noise":0.15,"location_history":"[8,7,6]","action_history":"[0,0]","door_history":"[0,0]","location_rts":"[261,1672]","trial_type":"two-door-navigation","trial_index":18,"time_elapsed":272379,"internal_node_id":"0.0-2.0-16.0"},{"group":"dihedral group of order 12","room_assignment":["cyan","blue","ivory","red","yellow","green","brown","grey","pink","olive","orange","purple"],"door_color_assignment":["white","black"],"door_generator_assignment":[0,1],"goal":1,"start":6,"action_noise":0.15,"location_history":"[6,11,10,9,3,4,5,0,1]","action_history":"[0,0,0,0,0,0,0,0]","door_history":"[0,0,0,0,0,0,0,0]","location_rts":"[1179,407,223,214,135,608,416,372]","trial_type":"two-door-navigation","trial_index":19,"time_elapsed":288016,"internal_node_id":"0.0-2.0-17.0"},{"group":"dihedral group of order 12","room_assignment":["cyan","blue","ivory","red","yellow","green","brown","grey","pink","olive","orange","purple"],"door_color_assignment":["white","black"],"door_generator_assignment":[0,1],"goal":4,"start":1,"action_noise":0.15,"location_history":"[1,2,3,4]","action_history":"[0,0,0]","door_history":"[0,0,0]","location_rts":"[2329,205,411]","trial_type":"two-door-navigation","trial_index":20,"time_elapsed":297692,"internal_node_id":"0.0-2.0-18.0"},{"group":"dihedral group of order 12","room_assignment":["cyan","blue","ivory","red","yellow","green","brown","grey","pink","olive","orange","purple"],"door_color_assignment":["white","black"],"door_generator_assignment":[0,1],"goal":11,"start":4,"action_noise":0.15,"location_history":"[4,5,11]","action_history":"[0,0]","door_history":"[0,0]","location_rts":"[622,190]","trial_type":"two-door-navigation","trial_index":21,"time_elapsed":304172,"internal_node_id":"0.0-2.0-19.0"},{"group":"dihedral group of order 12","room_assignment":["cyan","blue","ivory","red","yellow","green","brown","grey","pink","olive","orange","purple"],"door_color_assignment":["white","black"],"door_generator_assignment":[0,1],"goal":3,"start":11,"action_noise":0.15,"location_history":"[11,10,9,8,7,1,2,3]","action_history":"[0,0,0,0,1,0,0]","door_history":"[0,0,0,0,1,0,0]","location_rts":"[642,278,66,421,71,219,318]","trial_type":"two-door-navigation","trial_index":22,"time_elapsed":317229,"internal_node_id":"0.0-2.0-20.0"},{"group":"dihedral group of order 12","room_assignment":["cyan","blue","ivory","red","yellow","green","brown","grey","pink","olive","orange","purple"],"door_color_assignment":["white","black"],"door_generator_assignment":[0,1],"goal":5,"start":3,"action_noise":0.15,"location_history":"[3,4,5]","action_history":"[0,0]","door_history":"[0,0]","location_rts":"[476,148]","trial_type":"two-door-navigation","trial_index":23,"time_elapsed":323508,"internal_node_id":"0.0-2.0-21.0"},{"group":"dihedral group of order 12","room_assignment":["cyan","blue","ivory","red","yellow","green","brown","grey","pink","olive","orange","purple"],"door_color_assignment":["white","black"],"door_generator_assignment":[0,1],"goal":7,"start":5,"action_noise":0.15,"location_history":"[5,0,1,7]","action_history":"[0,0,0]","door_history":"[0,0,0]","location_rts":"[409,450,792]","trial_type":"two-door-navigation","trial_index":24,"time_elapsed":331884,"internal_node_id":"0.0-2.0-22.0"},{"group":"dihedral group of order 12","room_assignment":["cyan","blue","ivory","red","yellow","green","brown","grey","pink","olive","orange","purple"],"door_color_assignment":["white","black"],"door_generator_assignment":[0,1],"goal":3,"start":7,"action_noise":0.15,"location_history":"[7,6,11,10,9,8,7,1,2,3]","action_history":"[0,0,0,0,0,0,1,0,0]","door_history":"[0,0,0,0,0,0,1,0,0]","location_rts":"[719,649,290,300,282,215,128,188,101]","trial_type":"two-door-navigation","trial_index":25,"time_elapsed":347921,"internal_node_id":"0.0-2.0-23.0"},{"group":"dihedral group of order 12","room_assignment":["cyan","blue","ivory","red","yellow","green","brown","grey","pink","olive","orange","purple"],"door_color_assignment":["white","black"],"door_generator_assignment":[0,1],"goal":4,"start":3,"action_noise":0.15,"location_history":"[3,9,3,4]","action_history":"[0,0,0]","door_history":"[0,0,0]","location_rts":"[823,222,115]","trial_type":"two-door-navigation","trial_index":26,"time_elapsed":355806,"internal_node_id":"0.0-2.0-24.0"},{"group":"dihedral group of order 12","room_assignment":["cyan","blue","ivory","red","yellow","green","brown","grey","pink","olive","orange","purple"],"door_color_assignment":["white","black"],"door_generator_assignment":[0,1],"goal":8,"start":4,"action_noise":0.15,"location_history":"[4,5,0,6,11,10,9,8]","action_history":"[0,0,0,0,0,0,0]","door_history":"[0,0,0,0,0,0,0]","location_rts":"[624,359,124,774,387,287,378]","trial_type":"two-door-navigation","trial_index":27,"time_elapsed":369770,"internal_node_id":"0.0-2.0-25.0"},{"group":"dihedral group of order 12","room_assignment":["cyan","blue","ivory","red","yellow","green","brown","grey","pink","olive","orange","purple"],"door_color_assignment":["white","black"],"door_generator_assignment":[0,1],"goal":6,"start":8,"action_noise":0.15,"location_history":"[8,2,8,2,3,4,10,9,8,7,1,2,8,7,6]","action_history":"[0,1,0,0,0,0,0,0,0,1,0,1,0,0]","door_history":"[0,1,0,0,0,0,0,0,0,1,0,1,0,0]","location_rts":"[455,454,94,54,526,255,145,203,316,174,236,1395,200,54]","trial_type":"two-door-navigation","trial_index":28,"time_elapsed":392816,"internal_node_id":"0.0-2.0-26.0"},{"group":"dihedral group of order 12","room_assignment":["cyan","blue","ivory","red","yellow","green","brown","grey","pink","olive","orange","purple"],"door_color_assignment":["white","black"],"door_generator_assignment":[0,1],"goal":1,"start":6,"action_noise":0.15,"location_history":"[6,11,10,9,8,7,1]","action_history":"[0,0,0,0,0,1]","door_history":"[0,0,0,0,0,1]","location_rts":"[828,419,231,181,411,379]","trial_type":"two-door-navigation","trial_index":29,"time_elapsed":405179,"internal_node_id":"0.0-2.0-27.0"},{"group":"dihedral group of order 12","room_assignment":["cyan","blue","ivory","red","yellow","green","brown","grey","pink","olive","orange","purple"],"door_color_assignment":["white","black"],"door_generator_assignment":[0,1],"goal":5,"start":1,"action_noise":0.15,"location_history":"[1,7,6,0,1,2,3,4,10,9,3,4,5]","action_history":"[0,0,0,0,0,0,0,0,0,0,0,0]","door_history":"[0,0,0,0,0,0,0,0,0,0,0,0]","location_rts":"[485,197,255,174,138,407,540,107,356,719,583,291]","trial_type":"two-door-navigation","trial_index":30,"time_elapsed":425826,"internal_node_id":"0.0-2.0-28.0"},{"group":"dihedral group of order 12","room_assignment":["cyan","blue","ivory","red","yellow","green","brown","grey","pink","olive","orange","purple"],"door_color_assignment":["white","black"],"door_generator_assignment":[0,1],"goal":9,"start":5,"action_noise":0.15,"location_history":"[5,0,1,2,8,7,1,7,1,2,3,4,10,4,5,0,1,2,3,4,5,0,6,11,10,9]","action_history":"[0,0,0,1,0,0,0,0,0,0,0,0,0,0,0,0,0,1,0,0,0,0,0,0,0]","door_history":"[0,0,0,1,0,0,0,0,0,0,0,0,0,0,0,0,0,1,0,0,0,0,0,0,0]","location_rts":"[367,701,307,724,83,170,110,108,87,567,176,438,99,272,1233,927,837,780,21,531,30,876,717,374,246]","trial_type":"two-door-navigation","trial_index":31,"time_elapsed":466902,"internal_node_id":"0.0-2.0-29.0"},{"group":"dihedral group of order 12","room_assignment":["cyan","blue","ivory","red","yellow","green","brown","grey","pink","olive","orange","purple"],"door_color_assignment":["white","black"],"door_generator_assignment":[0,1],"goal":10,"start":9,"action_noise":0.15,"location_history":"[9,8,7,6,11,10]","action_history":"[0,0,0,0,0]","door_history":"[0,0,0,0,0]","location_rts":"[723,342,732,223,205]","trial_type":"two-door-navigation","trial_index":32,"time_elapsed":478002,"internal_node_id":"0.0-2.0-30.0"},{"group":"dihedral group of order 12","room_assignment":["cyan","blue","ivory","red","yellow","green","brown","grey","pink","olive","orange","purple"],"door_color_assignment":["white","black"],"door_generator_assignment":[0,1],"goal":0,"start":10,"action_noise":0.15,"location_history":"[10,9,8,7,1,2,3,4,5,0]","action_history":"[0,0,0,1,0,0,0,0,0]","door_history":"[0,0,0,1,0,0,0,0,0]","location_rts":"[546,1166,1015,225,274,191,198,245,97]","trial_type":"two-door-navigation","trial_index":33,"time_elapsed":495084,"internal_node_id":"0.0-2.0-31.0"},{"group":"dihedral group of order 12","room_assignment":["cyan","blue","ivory","red","yellow","green","brown","grey","pink","olive","orange","purple"],"door_color_assignment":["white","black"],"door_generator_assignment":[0,1],"goal":7,"start":0,"action_noise":0.15,"location_history":"[0,1,2,8,7]","action_history":"[0,0,1,0]","door_history":"[0,0,1,0]","location_rts":"[524,784,1121,200]","trial_type":"two-door-navigation","trial_index":34,"time_elapsed":505485,"internal_node_id":"0.0-2.0-32.0"},{"group":"dihedral group of order 12","room_assignment":["cyan","blue","ivory","red","yellow","green","brown","grey","pink","olive","orange","purple"],"door_color_assignment":["white","black"],"door_generator_assignment":[0,1],"goal":11,"start":7,"action_noise":0.15,"location_history":"[7,6,11]","action_history":"[0,0]","door_history":"[0,0]","location_rts":"[606,639]","trial_type":"two-door-navigation","trial_index":35,"time_elapsed":512386,"internal_node_id":"0.0-2.0-33.0"},{"group":"dihedral group of order 12","room_assignment":["cyan","blue","ivory","red","yellow","green","brown","grey","pink","olive","orange","purple"],"door_color_assignment":["white","black"],"door_generator_assignment":[0,1],"goal":2,"start":11,"action_noise":0.15,"location_history":"[11,10,9,3,4,5,0,6,11,10,9,8,7,1,2]","action_history":"[0,0,0,0,0,0,0,0,0,0,0,0,1,0]","door_history":"[0,0,0,0,0,0,0,0,0,0,0,0,1,0]","location_rts":"[5855,366,272,286,324,309,146,384,361,107,475,206,351,84]","trial_type":"two-door-navigation","trial_index":36,"time_elapsed":540466,"internal_node_id":"0.0-2.0-34.0"},{"view_history":"[{\"page_index\":0,\"viewing_time\":1324}]","rt":1324,"trial_type":"instructions","trial_index":37,"time_elapsed":542795,"internal_node_id":"0.0-3.0"},{"view_history":"[{\"page_index\":0,\"viewing_time\":1209},{\"page_index\":1,\"viewing_time\":448608}]","rt":449818,"trial_type":"instructions","trial_index":38,"time_elapsed":993617,"internal_node_id":"0.0-4.0"},{"group":"dicyclic group of order 12","fractal_assignment":["../images/gry_blk.png","../images/wht_red.png","../images/grn_prp.png","../images/grn_blu.png","../images/red_prp.png","../images/grn_red.png","../images/ylw_pnk.png","../images/org_blu.png","../images/pnk_blu.png","../images/blu_wht.png","../images/ylw_slt.png","../images/cyn_red.png"],"mutagen_generator_assignment":[1,0],"goal":7,"start":3,"action_noise":0.15,"location_history":"[3,0,4,9,6,11,4,8,5,10,7]","action_history":"[0,0,0,0,0,0,1,0,0,0]","mutagen_history":"[1,1,1,1,1,1,0,1,1,1]","location_rts":"[3885,341,66,1050,669,997,1943,835,480,1213]","trial_type":"fractal-mutation","trial_index":39,"time_elapsed":1020120,"internal_node_id":"0.0-5.0-0.0"},{"group":"dicyclic group of order 12","fractal_assignment":["../images/gry_blk.png","../images/wht_red.png","../images/grn_prp.png","../images/grn_blu.png","../images/red_prp.png","../images/grn_red.png","../images/ylw_pnk.png","../images/org_blu.png","../images/pnk_blu.png","../images/blu_wht.png","../images/ylw_slt.png","../images/cyn_red.png"],"mutagen_generator_assignment":[1,0],"goal":5,"start":7,"action_noise":0.15,"location_history":"[7,8,0,1,2,3,0,1,2,3,0,4,8,5]","action_history":"[0,0,0,0,0,0,0,1,0,0,1,1,1]","mutagen_history":"[1,1,1,1,1,1,1,0,1,1,0,0,0]","location_rts":"[3127,891,371,69,206,537,531,759,1096,212,23,239,444]","trial_type":"fractal-mutation","trial_index":40,"time_elapsed":1046918,"internal_node_id":"0.0-5.0-1.0"},{"group":"dicyclic group of order 12","fractal_assignment":["../images/gry_blk.png","../images/wht_red.png","../images/grn_prp.png","../images/grn_blu.png","../images/red_prp.png","../images/grn_red.png","../images/ylw_pnk.png","../images/org_blu.png","../images/pnk_blu.png","../images/blu_wht.png","../images/ylw_slt.png","../images/cyn_red.png"],"mutagen_generator_assignment":[1,0],"goal":0,"start":5,"action_noise":0.15,"location_history":"[5,9,1,2,3,0]","action_history":"[1,1,0,0,0]","mutagen_history":"[0,0,1,1,1]","location_rts":"[3232,1239,1204,103,264]","trial_type":"fractal-mutation","trial_index":41,"time_elapsed":1062078,"internal_node_id":"0.0-5.0-2.0"},{"group":"dicyclic group of order 12","fractal_assignment":["../images/gry_blk.png","../images/wht_red.png","../images/grn_prp.png","../images/grn_blu.png","../images/red_prp.png","../images/grn_red.png","../images/ylw_pnk.png","../images/org_blu.png","../images/pnk_blu.png","../images/blu_wht.png","../images/ylw_slt.png","../images/cyn_red.png"],"mutagen_generator_assignment":[1,0],"goal":2,"start":0,"action_noise":0.15,"location_history":"[0,4,9,1,5,9,1,5,9,6,11,4,9,6,11,4,8,0,4,9,1,2]","action_history":"[1,1,1,1,1,1,0,1,0,0,0,0,0,0,0,1,1,1,1,1,0]","mutagen_history":"[0,0,0,0,0,0,1,0,1,1,1,1,1,1,1,0,0,0,0,0,1]","location_rts":"[1606,423,860,69,223,393,78,393,762,426,182,979,336,432,539,115,173,96,102,681,299]","trial_type":"fractal-mutation","trial_index":42,"time_elapsed":1098150,"internal_node_id":"0.0-5.0-3.0"},{"group":"dicyclic group of order 12","fractal_assignment":["../images/gry_blk.png","../images/wht_red.png","../images/grn_prp.png","../images/grn_blu.png","../images/red_prp.png","../images/grn_red.png","../images/ylw_pnk.png","../images/org_blu.png","../images/pnk_blu.png","../images/blu_wht.png","../images/ylw_slt.png","../images/cyn_red.png"],"mutagen_generator_assignment":[1,0],"goal":10,"start":2,"action_noise":0.15,"location_history":"[2,3,0,4,9,1,5,9,1,2,3,0,1,5,10]","action_history":"[0,1,1,1,1,1,1,1,0,0,0,0,1,0]","mutagen_history":"[1,0,0,0,0,0,0,0,1,1,1,1,0,1]","location_rts":"[2027,455,204,69,47,118,40,266,2,61,104,115,342,0]","trial_type":"fractal-mutation","trial_index":43,"time_elapsed":1121181,"internal_node_id":"0.0-5.0-4.0"},{"group":"dicyclic group of order 12","fractal_assignment":["../images/gry_blk.png","../images/wht_red.png","../images/grn_prp.png","../images/grn_blu.png","../images/red_prp.png","../images/grn_red.png","../images/ylw_pnk.png","../images/org_blu.png","../images/pnk_blu.png","../images/blu_wht.png","../images/ylw_slt.png","../images/cyn_red.png"],"mutagen_generator_assignment":[1,0],"goal":8,"start":10,"action_noise":0.15,"location_history":"[10,2,6,10,2,3,7,11,3,0,4,9,6,11,4,9,6,11,4,8]","action_history":"[1,1,1,1,0,1,1,1,1,1,0,0,0,0,0,0,0,0,1]","mutagen_history":"[0,0,0,0,1,0,0,0,0,0,1,1,1,1,1,1,1,1,0]","location_rts":"[315,1695,996,302,850,1630,1253,230,842,398,272,324,528,93,129,379,236,521,573]","trial_type":"fractal-mutation","trial_index":44,"time_elapsed":1157498,"internal_node_id":"0.0-5.0-5.0"},{"group":"dicyclic group of order 12","fractal_assignment":["../images/gry_blk.png","../images/wht_red.png","../images/grn_prp.png","../images/grn_blu.png","../images/red_prp.png","../images/grn_red.png","../images/ylw_pnk.png","../images/org_blu.png","../images/pnk_blu.png","../images/blu_wht.png","../images/ylw_slt.png","../images/cyn_red.png"],"mutagen_generator_assignment":[1,0],"goal":11,"start":8,"action_noise":0.15,"location_history":"[8,5,9,6,10,2,3,0,4,8,0,1,2,3,7,11]","action_history":"[0,0,0,0,1,1,1,1,1,1,0,0,0,1,1]","mutagen_history":"[1,1,1,1,0,0,0,0,0,0,1,1,1,0,0]","location_rts":"[2673,2302,736,623,523,388,393,387,105,373,106,93,173,46,248]","trial_type":"fractal-mutation","trial_index":45,"time_elapsed":1187007,"internal_node_id":"0.0-5.0-6.0"},{"group":"dicyclic group of order 12","fractal_assignment":["../images/gry_blk.png","../images/wht_red.png","../images/grn_prp.png","../images/grn_blu.png","../images/red_prp.png","../images/grn_red.png","../images/ylw_pnk.png","../images/org_blu.png","../images/pnk_blu.png","../images/blu_wht.png","../images/ylw_slt.png","../images/cyn_red.png"],"mutagen_generator_assignment":[1,0],"goal":6,"start":11,"action_noise":0.15,"location_history":"[11,4,8,0,1,2,3,7,8,0,4,8,0,1,2,3,0,1,5,9,6]","action_history":"[1,1,1,0,0,0,1,0,1,1,1,1,0,0,0,0,0,0,0,0]","mutagen_history":"[0,0,0,1,1,1,0,1,0,0,0,0,1,1,1,1,1,1,1,1]","location_rts":"[1510,213,28,96,65,138,31,233,345,302,670,113,159,42,64,25,644,113,155,264]","trial_type":"fractal-mutation","trial_index":46,"time_elapsed":1218261,"internal_node_id":"0.0-5.0-7.0"},{"group":"dicyclic group of order 12","fractal_assignment":["../images/gry_blk.png","../images/wht_red.png","../images/grn_prp.png","../images/grn_blu.png","../images/red_prp.png","../images/grn_red.png","../images/ylw_pnk.png","../images/org_blu.png","../images/pnk_blu.png","../images/blu_wht.png","../images/ylw_slt.png","../images/cyn_red.png"],"mutagen_generator_assignment":[1,0],"goal":4,"start":6,"action_noise":0.15,"location_history":"[6,11,4]","action_history":"[0,0]","mutagen_history":"[1,1]","location_rts":"[1641,67]","trial_type":"fractal-mutation","trial_index":47,"time_elapsed":1225771,"internal_node_id":"0.0-5.0-8.0"},{"group":"dicyclic group of order 12","fractal_assignment":["../images/gry_blk.png","../images/wht_red.png","../images/grn_prp.png","../images/grn_blu.png","../images/red_prp.png","../images/grn_red.png","../images/ylw_pnk.png","../images/org_blu.png","../images/pnk_blu.png","../images/blu_wht.png","../images/ylw_slt.png","../images/cyn_red.png"],"mutagen_generator_assignment":[1,0],"goal":1,"start":4,"action_noise":0.15,"location_history":"[4,8,0,1]","action_history":"[0,0,0]","mutagen_history":"[1,1,1]","location_rts":"[1863,74,135]","trial_type":"fractal-mutation","trial_index":48,"time_elapsed":1234774,"internal_node_id":"0.0-5.0-9.0"},{"group":"dicyclic group of order 12","fractal_assignment":["../images/gry_blk.png","../images/wht_red.png","../images/grn_prp.png","../images/grn_blu.png","../images/red_prp.png","../images/grn_red.png","../images/ylw_pnk.png","../images/org_blu.png","../images/pnk_blu.png","../images/blu_wht.png","../images/ylw_slt.png","../images/cyn_red.png"],"mutagen_generator_assignment":[1,0],"goal":9,"start":1,"action_noise":0.15,"location_history":"[1,2,6,10,7,11,3,7,11,4,9]","action_history":"[0,1,1,1,1,1,1,1,0,0]","mutagen_history":"[1,0,0,0,0,0,0,0,1,1]","location_rts":"[234,328,212,285,438,270,312,242,163,133]","trial_type":"fractal-mutation","trial_index":49,"time_elapsed":1251989,"internal_node_id":"0.0-5.0-10.0"},{"group":"dicyclic group of order 12","fractal_assignment":["../images/gry_blk.png","../images/wht_red.png","../images/grn_prp.png","../images/grn_blu.png","../images/red_prp.png","../images/grn_red.png","../images/ylw_pnk.png","../images/org_blu.png","../images/pnk_blu.png","../images/blu_wht.png","../images/ylw_slt.png","../images/cyn_red.png"],"mutagen_generator_assignment":[1,0],"goal":10,"start":9,"action_noise":0.15,"location_history":"[9,6,11,4,9,1,5,9,1,5,9,6,11,4,9,1,2,6,10]","action_history":"[0,0,0,0,1,1,1,1,1,0,1,0,0,0,0,1,1,1]","mutagen_history":"[1,1,1,1,0,0,0,0,0,1,0,1,1,1,1,0,0,0]","location_rts":"[446,148,288,235,789,92,68,312,112,155,110,320,485,272,326,724,191,750]","trial_type":"fractal-mutation","trial_index":50,"time_elapsed":1281508,"internal_node_id":"0.0-5.0-11.0"},{"group":"dicyclic group of order 12","fractal_assignment":["../images/gry_blk.png","../images/wht_red.png","../images/grn_prp.png","../images/grn_blu.png","../images/red_prp.png","../images/grn_red.png","../images/ylw_pnk.png","../images/org_blu.png","../images/pnk_blu.png","../images/blu_wht.png","../images/ylw_slt.png","../images/cyn_red.png"],"mutagen_generator_assignment":[1,0],"goal":2,"start":10,"action_noise":0.15,"location_history":"[10,7,11,4,8,0,4,9,1,5,9,1,2]","action_history":"[0,1,1,1,1,1,1,1,1,1,0,0]","mutagen_history":"[1,0,0,0,0,0,0,0,0,0,1,1]","location_rts":"[1945,974,364,167,149,364,55,468,105,667,264,101]","trial_type":"fractal-mutation","trial_index":51,"time_elapsed":1303982,"internal_node_id":"0.0-5.0-12.0"},{"group":"dicyclic group of order 12","fractal_assignment":["../images/gry_blk.png","../images/wht_red.png","../images/grn_prp.png","../images/grn_blu.png","../images/red_prp.png","../images/grn_red.png","../images/ylw_pnk.png","../images/org_blu.png","../images/pnk_blu.png","../images/blu_wht.png","../images/ylw_slt.png","../images/cyn_red.png"],"mutagen_generator_assignment":[1,0],"goal":0,"start":2,"action_noise":0.15,"location_history":"[2,6,10,2,6,11,3,0]","action_history":"[1,1,1,1,0,0,0]","mutagen_history":"[0,0,0,0,1,1,1]","location_rts":"[1078,269,19,210,159,334,53]","trial_type":"fractal-mutation","trial_index":52,"time_elapsed":1317406,"internal_node_id":"0.0-5.0-13.0"},{"group":"dicyclic group of order 12","fractal_assignment":["../images/gry_blk.png","../images/wht_red.png","../images/grn_prp.png","../images/grn_blu.png","../images/red_prp.png","../images/grn_red.png","../images/ylw_pnk.png","../images/org_blu.png","../images/pnk_blu.png","../images/blu_wht.png","../images/ylw_slt.png","../images/cyn_red.png"],"mutagen_generator_assignment":[1,0],"goal":9,"start":0,"action_noise":0.15,"location_history":"[0,4,8,5,10,7,8,5,10,7,11,4,8,0,4,8,0,4,9]","action_history":"[1,1,0,0,0,0,0,0,0,0,0,1,1,1,1,1,1,0]","mutagen_history":"[0,0,1,1,1,1,1,1,1,1,1,0,0,0,0,0,0,1]","location_rts":"[4919,410,990,22,186,610,522,308,291,278,187,153,34,287,408,211,271,641]","trial_type":"fractal-mutation","trial_index":53,"time_elapsed":1351871,"internal_node_id":"0.0-5.0-14.0"},{"group":"dicyclic group of order 12","fractal_assignment":["../images/gry_blk.png","../images/wht_red.png","../images/grn_prp.png","../images/grn_blu.png","../images/red_prp.png","../images/grn_red.png","../images/ylw_pnk.png","../images/org_blu.png","../images/pnk_blu.png","../images/blu_wht.png","../images/ylw_slt.png","../images/cyn_red.png"],"mutagen_generator_assignment":[1,0],"goal":8,"start":9,"action_noise":0.15,"location_history":"[9,6,10,2,6,10,2,3,7,11,3,0,4,8]","action_history":"[1,1,1,1,1,1,0,1,1,1,1,1,1]","mutagen_history":"[0,0,0,0,0,0,1,0,0,0,0,0,0]","location_rts":"[2918,385,186,306,183,350,175,307,156,128,288,447,841]","trial_type":"fractal-mutation","trial_index":54,"time_elapsed":1376278,"internal_node_id":"0.0-5.0-15.0"},{"group":"dicyclic group of order 12","fractal_assignment":["../images/gry_blk.png","../images/wht_red.png","../images/grn_prp.png","../images/grn_blu.png","../images/red_prp.png","../images/grn_red.png","../images/ylw_pnk.png","../images/org_blu.png","../images/pnk_blu.png","../images/blu_wht.png","../images/ylw_slt.png","../images/cyn_red.png"],"mutagen_generator_assignment":[1,0],"goal":6,"start":8,"action_noise":0.15,"location_history":"[8,5,9,1,5,9,1,2,3,7,8,0,1,2,3,7,8,5,10,7,8,5,9,1,5,9,1,5,10,2,6]","action_history":"[1,1,1,1,1,1,0,0,0,0,0,0,1,0,1,1,0,0,0,0,0,1,1,1,1,1,1,0,1,1]","mutagen_history":"[0,0,0,0,0,0,1,1,1,1,1,1,0,1,0,0,1,1,1,1,1,0,0,0,0,0,0,1,0,0]","location_rts":"[878,303,165,90,230,270,159,1411,225,27,154,249,197,307,290,565,665,148,112,51,74,703,800,224,121,113,157,8,129,270]","trial_type":"fractal-mutation","trial_index":55,"time_elapsed":1422259,"internal_node_id":"0.0-5.0-16.0"},{"group":"dicyclic group of order 12","fractal_assignment":["../images/gry_blk.png","../images/wht_red.png","../images/grn_prp.png","../images/grn_blu.png","../images/red_prp.png","../images/grn_red.png","../images/ylw_pnk.png","../images/org_blu.png","../images/pnk_blu.png","../images/blu_wht.png","../images/ylw_slt.png","../images/cyn_red.png"],"mutagen_generator_assignment":[1,0],"goal":1,"start":6,"action_noise":0.15,"location_history":"[6,10,2,6,10,2,6,10,2,6,11,4,8,5,9,1]","action_history":"[1,1,1,1,1,1,0,1,1,1,0,1,1,1,1]","mutagen_history":"[0,0,0,0,0,0,1,0,0,0,1,0,0,0,0]","location_rts":"[1344,306,99,80,500,66,178,44,324,563,116,134,143,57,332]","trial_type":"fractal-mutation","trial_index":56,"time_elapsed":1446578,"internal_node_id":"0.0-5.0-17.0"},{"group":"dicyclic group of order 12","fractal_assignment":["../images/gry_blk.png","../images/wht_red.png","../images/grn_prp.png","../images/grn_blu.png","../images/red_prp.png","../images/grn_red.png","../images/ylw_pnk.png","../images/org_blu.png","../images/pnk_blu.png","../images/blu_wht.png","../images/ylw_slt.png","../images/cyn_red.png"],"mutagen_generator_assignment":[1,0],"goal":4,"start":1,"action_noise":0.15,"location_history":"[1,5,9,6,11,3,7,8,5,9,6,11,4]","action_history":"[1,1,1,0,1,1,1,1,1,0,0,0]","mutagen_history":"[0,0,0,1,0,0,0,0,0,1,1,1]","location_rts":"[367,275,167,216,167,96,277,488,385,127,240,508]","trial_type":"fractal-mutation","trial_index":57,"time_elapsed":1466743,"internal_node_id":"0.0-5.0-18.0"},{"group":"dicyclic group of order 12","fractal_assignment":["../images/gry_blk.png","../images/wht_red.png","../images/grn_prp.png","../images/grn_blu.png","../images/red_prp.png","../images/grn_red.png","../images/ylw_pnk.png","../images/org_blu.png","../images/pnk_blu.png","../images/blu_wht.png","../images/ylw_slt.png","../images/cyn_red.png"],"mutagen_generator_assignment":[1,0],"goal":11,"start":4,"action_noise":0.15,"location_history":"[4,8,5,9,1,5,10,7,8,5,10,2,6,10,2,6,11]","action_history":"[1,0,1,1,1,0,0,0,0,0,1,1,1,1,1,0]","mutagen_history":"[0,1,0,0,0,1,1,1,1,1,0,0,0,0,0,1]","location_rts":"[1538,2507,1214,213,143,925,649,178,278,555,618,633,346,334,41,816]","trial_type":"fractal-mutation","trial_index":58,"time_elapsed":1499111,"internal_node_id":"0.0-5.0-19.0"},{"group":"dicyclic group of order 12","fractal_assignment":["../images/gry_blk.png","../images/wht_red.png","../images/grn_prp.png","../images/grn_blu.png","../images/red_prp.png","../images/grn_red.png","../images/ylw_pnk.png","../images/org_blu.png","../images/pnk_blu.png","../images/blu_wht.png","../images/ylw_slt.png","../images/cyn_red.png"],"mutagen_generator_assignment":[1,0],"goal":3,"start":11,"action_noise":0.15,"location_history":"[11,3]","action_history":"[1]","mutagen_history":"[0]","location_rts":"[961]","trial_type":"fractal-mutation","trial_index":59,"time_elapsed":1504671,"internal_node_id":"0.0-5.0-20.0"},{"group":"dicyclic group of order 12","fractal_assignment":["../images/gry_blk.png","../images/wht_red.png","../images/grn_prp.png","../images/grn_blu.png","../images/red_prp.png","../images/grn_red.png","../images/ylw_pnk.png","../images/org_blu.png","../images/pnk_blu.png","../images/blu_wht.png","../images/ylw_slt.png","../images/cyn_red.png"],"mutagen_generator_assignment":[1,0],"goal":5,"start":3,"action_noise":0.15,"location_history":"[3,7,11,3,0,4,8,0,4,9,1,5]","action_history":"[1,1,1,0,1,1,1,1,0,0,1]","mutagen_history":"[0,0,0,1,0,0,0,0,1,1,0]","location_rts":"[1323,293,87,704,542,668,490,224,866,1462,694]","trial_type":"fractal-mutation","trial_index":60,"time_elapsed":1527685,"internal_node_id":"0.0-5.0-21.0"},{"group":"dicyclic group of order 12","fractal_assignment":["../images/gry_blk.png","../images/wht_red.png","../images/grn_prp.png","../images/grn_blu.png","../images/red_prp.png","../images/grn_red.png","../images/ylw_pnk.png","../images/org_blu.png","../images/pnk_blu.png","../images/blu_wht.png","../images/ylw_slt.png","../images/cyn_red.png"],"mutagen_generator_assignment":[1,0],"goal":7,"start":5,"action_noise":0.15,"location_history":"[5,9,1,5,9,1,2,6,10,7]","action_history":"[1,1,1,1,1,0,1,1,1]","mutagen_history":"[0,0,0,0,0,1,0,0,0]","location_rts":"[1430,769,786,255,520,49,285,272,901]","trial_type":"fractal-mutation","trial_index":61,"time_elapsed":1546270,"internal_node_id":"0.0-5.0-22.0"},{"group":"dicyclic group of order 12","fractal_assignment":["../images/gry_blk.png","../images/wht_red.png","../images/grn_prp.png","../images/grn_blu.png","../images/red_prp.png","../images/grn_red.png","../images/ylw_pnk.png","../images/org_blu.png","../images/pnk_blu.png","../images/blu_wht.png","../images/ylw_slt.png","../images/cyn_red.png"],"mutagen_generator_assignment":[1,0],"goal":3,"start":7,"action_noise":0.15,"location_history":"[7,11,3]","action_history":"[1,1]","mutagen_history":"[0,0]","location_rts":"[736,273]","trial_type":"fractal-mutation","trial_index":62,"time_elapsed":1552950,"internal_node_id":"0.0-5.0-23.0"},{"group":"dicyclic group of order 12","fractal_assignment":["../images/gry_blk.png","../images/wht_red.png","../images/grn_prp.png","../images/grn_blu.png","../images/red_prp.png","../images/grn_red.png","../images/ylw_pnk.png","../images/org_blu.png","../images/pnk_blu.png","../images/blu_wht.png","../images/ylw_slt.png","../images/cyn_red.png"],"mutagen_generator_assignment":[1,0],"goal":4,"start":3,"action_noise":0.15,"location_history":"[3,7,11,3,7,11,3,7,11,3,7,8,5,9,1,5,9,6,10,2,6,10,2,3,0,4]","action_history":"[1,0,1,1,1,1,1,0,1,1,0,0,1,1,1,1,0,1,1,1,1,1,0,1,1]","mutagen_history":"[0,1,0,0,0,0,0,1,0,0,1,1,0,0,0,0,1,0,0,0,0,0,1,0,0]","location_rts":"[992,1678,294,382,472,957,223,229,403,301,550,804,884,648,247,483,733,261,381,443,500,373,317,2353,615]","trial_type":"fractal-mutation","trial_index":63,"time_elapsed":1599719,"internal_node_id":"0.0-5.0-24.0"},{"group":"dicyclic group of order 12","fractal_assignment":["../images/gry_blk.png","../images/wht_red.png","../images/grn_prp.png","../images/grn_blu.png","../images/red_prp.png","../images/grn_red.png","../images/ylw_pnk.png","../images/org_blu.png","../images/pnk_blu.png","../images/blu_wht.png","../images/ylw_slt.png","../images/cyn_red.png"],"mutagen_generator_assignment":[1,0],"goal":8,"start":4,"action_noise":0.15,"location_history":"[4,8]","action_history":"[1]","mutagen_history":"[0]","location_rts":"[863]","trial_type":"fractal-mutation","trial_index":64,"time_elapsed":1605170,"internal_node_id":"0.0-5.0-25.0"},{"group":"dicyclic group of order 12","fractal_assignment":["../images/gry_blk.png","../images/wht_red.png","../images/grn_prp.png","../images/grn_blu.png","../images/red_prp.png","../images/grn_red.png","../images/ylw_pnk.png","../images/org_blu.png","../images/pnk_blu.png","../images/blu_wht.png","../images/ylw_slt.png","../images/cyn_red.png"],"mutagen_generator_assignment":[1,0],"goal":6,"start":8,"action_noise":0.15,"location_history":"[8,5,9,1,5,9,6]","action_history":"[0,1,1,1,1,0]","mutagen_history":"[1,0,0,0,0,1]","location_rts":"[2045,132,89,18,694,221]","trial_type":"fractal-mutation","trial_index":65,"time_elapsed":1618543,"internal_node_id":"0.0-5.0-26.0"},{"group":"dicyclic group of order 12","fractal_assignment":["../images/gry_blk.png","../images/wht_red.png","../images/grn_prp.png","../images/grn_blu.png","../images/red_prp.png","../images/grn_red.png","../images/ylw_pnk.png","../images/org_blu.png","../images/pnk_blu.png","../images/blu_wht.png","../images/ylw_slt.png","../images/cyn_red.png"],"mutagen_generator_assignment":[1,0],"goal":1,"start":6,"action_noise":0.15,"location_history":"[6,10,2,3,0,4,8,0,4,9,1]","action_history":"[1,1,1,0,1,1,1,1,0,1]","mutagen_history":"[0,0,0,1,0,0,0,0,1,0]","location_rts":"[350,41,534,522,62,809,285,468,952,127]","trial_type":"fractal-mutation","trial_index":66,"time_elapsed":1637220,"internal_node_id":"0.0-5.0-27.0"},{"group":"dicyclic group of order 12","fractal_assignment":["../images/gry_blk.png","../images/wht_red.png","../images/grn_prp.png","../images/grn_blu.png","../images/red_prp.png","../images/grn_red.png","../images/ylw_pnk.png","../images/org_blu.png","../images/pnk_blu.png","../images/blu_wht.png","../images/ylw_slt.png","../images/cyn_red.png"],"mutagen_generator_assignment":[1,0],"goal":5,"start":1,"action_noise":0.15,"location_history":"[1,5]","action_history":"[1]","mutagen_history":"[0]","location_rts":"[925]","trial_type":"fractal-mutation","trial_index":67,"time_elapsed":1642728,"internal_node_id":"0.0-5.0-28.0"},{"group":"dicyclic group of order 12","fractal_assignment":["../images/gry_blk.png","../images/wht_red.png","../images/grn_prp.png","../images/grn_blu.png","../images/red_prp.png","../images/grn_red.png","../images/ylw_pnk.png","../images/org_blu.png","../images/pnk_blu.png","../images/blu_wht.png","../images/ylw_slt.png","../images/cyn_red.png"],"mutagen_generator_assignment":[1,0],"goal":9,"start":5,"action_noise":0.15,"location_history":"[5,9]","action_history":"[1]","mutagen_history":"[0]","location_rts":"[533]","trial_type":"fractal-mutation","trial_index":68,"time_elapsed":1647837,"internal_node_id":"0.0-5.0-29.0"},{"group":"dicyclic group of order 12","fractal_assignment":["../images/gry_blk.png","../images/wht_red.png","../images/grn_prp.png","../images/grn_blu.png","../images/red_prp.png","../images/grn_red.png","../images/ylw_pnk.png","../images/org_blu.png","../images/pnk_blu.png","../images/blu_wht.png","../images/ylw_slt.png","../images/cyn_red.png"],"mutagen_generator_assignment":[1,0],"goal":10,"start":9,"action_noise":0.15,"location_history":"[9,1,5,9,1,5,10]","action_history":"[0,1,1,1,1,0]","mutagen_history":"[1,0,0,0,0,1]","location_rts":"[2115,38,265,69,497,221]","trial_type":"fractal-mutation","trial_index":69,"time_elapsed":1661232,"internal_node_id":"0.0-5.0-30.0"},{"group":"dicyclic group of order 12","fractal_assignment":["../images/gry_blk.png","../images/wht_red.png","../images/grn_prp.png","../images/grn_blu.png","../images/red_prp.png","../images/grn_red.png","../images/ylw_pnk.png","../images/org_blu.png","../images/pnk_blu.png","../images/blu_wht.png","../images/ylw_slt.png","../images/cyn_red.png"],"mutagen_generator_assignment":[1,0],"goal":0,"start":10,"action_noise":0.15,"location_history":"[10,7,11,4,8,0]","action_history":"[0,1,1,1,1]","mutagen_history":"[1,0,0,0,0]","location_rts":"[1601,253,73,319,382]","trial_type":"fractal-mutation","trial_index":70,"time_elapsed":1672881,"internal_node_id":"0.0-5.0-31.0"},{"group":"dicyclic group of order 12","fractal_assignment":["../images/gry_blk.png","../images/wht_red.png","../images/grn_prp.png","../images/grn_blu.png","../images/red_prp.png","../images/grn_red.png","../images/ylw_pnk.png","../images/org_blu.png","../images/pnk_blu.png","../images/blu_wht.png","../images/ylw_slt.png","../images/cyn_red.png"],"mutagen_generator_assignment":[1,0],"goal":7,"start":0,"action_noise":0.15,"location_history":"[0,4,8,0,1,2,6,10,2,6,11,3,7]","action_history":"[1,1,0,0,0,1,1,1,1,0,1,1]","mutagen_history":"[0,0,1,1,1,0,0,0,0,1,0,0]","location_rts":"[1883,165,458,37,97,1113,826,346,196,157,117,327]","trial_type":"fractal-mutation","trial_index":71,"time_elapsed":1695418,"internal_node_id":"0.0-5.0-32.0"},{"group":"dicyclic group of order 12","fractal_assignment":["../images/gry_blk.png","../images/wht_red.png","../images/grn_prp.png","../images/grn_blu.png","../images/red_prp.png","../images/grn_red.png","../images/ylw_pnk.png","../images/org_blu.png","../images/pnk_blu.png","../images/blu_wht.png","../images/ylw_slt.png","../images/cyn_red.png"],"mutagen_generator_assignment":[1,0],"goal":11,"start":7,"action_noise":0.15,"location_history":"[7,11]","action_history":"[1]","mutagen_history":"[0]","location_rts":"[820]","trial_type":"fractal-mutation","trial_index":72,"time_elapsed":1700828,"internal_node_id":"0.0-5.0-33.0"},{"group":"dicyclic group of order 12","fractal_assignment":["../images/gry_blk.png","../images/wht_red.png","../images/grn_prp.png","../images/grn_blu.png","../images/red_prp.png","../images/grn_red.png","../images/ylw_pnk.png","../images/org_blu.png","../images/pnk_blu.png","../images/blu_wht.png","../images/ylw_slt.png","../images/cyn_red.png"],"mutagen_generator_assignment":[1,0],"goal":2,"start":11,"action_noise":0.15,"location_history":"[11,3,7,8,0,4,8,5,10,7,11,4,8,5,10,2]","action_history":"[1,1,0,1,1,1,0,1,1,1,1,1,0,0,1]","mutagen_history":"[0,0,1,0,0,0,1,0,0,0,0,0,1,1,0]","location_rts":"[390,156,779,1021,154,460,838,5,230,338,310,232,1675,819,54]","trial_type":"fractal-mutation","trial_index":73,"time_elapsed":1728461,"internal_node_id":"0.0-5.0-34.0"},{"view_history":"[{\"page_index\":0,\"viewing_time\":2994}]","rt":2994,"trial_type":"instructions","trial_index":74,"time_elapsed":1732459,"internal_node_id":"0.0-6.0"},{"rt":37949,"responses":"{\"Q0\":\"I'm assuming the degree to which individuals are able to spatial navigate from remembering trial and error interspersed with random interference/variables.\"}","trial_type":"survey-text","trial_index":75,"time_elapsed":1771416,"internal_node_id":"0.0-7.0-0.0"},{"rt":16273,"responses":"{\"Q0\":\"Same thing as the first, but considerably more complex and less predictable\"}","trial_type":"survey-text","trial_index":76,"time_elapsed":1788692,"internal_node_id":"0.0-7.0-1.0"},{"rt":4939,"responses":"{\"Q0\":\"2\"}","trial_type":"survey-likert","trial_index":77,"time_elapsed":1794637,"internal_node_id":"0.0-7.0-2.0"},{"rt":39916,"responses":"{\"Q0\":\"It seemed that, ostensibly, the goal was to learn a specific pattern based on visual cues -- Far easier on the first than the second.\"}","trial_type":"survey-text","trial_index":78,"time_elapsed":1835555,"internal_node_id":"0.0-7.0-3.0"},{"rt":9490,"responses":"{\"Q0\":\"No\"}","trial_type":"survey-multi-choice","trial_index":79,"time_elapsed":1846055,"internal_node_id":"0.0-7.0-4.0"},{"rt":5655,"responses":"{\"Q0\":\"During these questions/I wasn't aware until you pointed it out\"}","trial_type":"survey-multi-choice","trial_index":80,"time_elapsed":1852713,"internal_node_id":"0.0-7.0-5.0"},{"rt":22746,"responses":"{\"Q0\":\"Other than being generally related, did not notice a precise correspondence.\"}","trial_type":"survey-text","trial_index":81,"time_elapsed":1876462,"internal_node_id":"0.0-7.0-6.0"},{"rt":3170,"responses":"{\"Q0\":\"0\"}","trial_type":"survey-likert","trial_index":82,"time_elapsed":1880636,"internal_node_id":"0.0-7.0-7.0"},{"rt":6081,"responses":"{\"Q0\":\"Different structure\"}","trial_type":"survey-multi-choice","trial_index":83,"time_elapsed":1887719,"internal_node_id":"0.0-7.0-8.0"},{"rt":14207,"responses":"{\"Q0\":\"white door = acid, black door = ray\",\"Q1\":\"Not at all confident\"}","trial_type":"survey-multi-choice","trial_index":84,"time_elapsed":1902936,"internal_node_id":"0.0-7.0-9.0"},{"rt":6237,"responses":"{\"Q0\":\"35-45\",\"Q1\":\"Some college\",\"Q2\":\"Male\",\"Q3\":\"White\"}","trial_type":"survey-multi-choice","trial_index":85,"time_elapsed":1910183,"internal_node_id":"0.0-8.0"},{"rt":1741,"responses":"{\"Q0\":\"\"}","trial_type":"survey-text","trial_index":86,"time_elapsed":1912928,"internal_node_id":"0.0-9.0"}]