[{"view_history":"[{\"page_index\":0,\"viewing_time\":1439},{\"page_index\":1,\"viewing_time\":13654}]","rt":15094,"trial_type":"instructions","trial_index":0,"time_elapsed":15095,"internal_node_id":"0.0-0.0"},{"view_history":"[{\"page_index\":0,\"viewing_time\":3269},{\"page_index\":1,\"viewing_time\":9048}]","rt":12318,"trial_type":"instructions","trial_index":1,"time_elapsed":28414,"internal_node_id":"0.0-1.0"},{"group":"dicyclic group of order 12","room_assignment":["cyan","green","orange","blue","yellow","olive","purple","red","grey","ivory","pink","brown"],"door_color_assignment":["white","black"],"door_generator_assignment":[1,0],"goal":7,"start":3,"action_noise":0.15,"location_history":"[3,0,4,9,6,10,2,6,10,2,6,11,4,8,0,1,2,3,7]","action_history":"[1,0,0,1,1,1,1,1,1,1,0,0,1,1,1,1,1,1]","door_history":"[0,1,1,0,0,0,0,0,0,0,1,1,0,0,0,0,0,0]","location_rts":"[1412,407,515,476,387,291,3654,313,561,3065,2268,761,2707,934,420,886,330,267]","trial_type":"two-door-navigation","trial_index":2,"time_elapsed":69684,"internal_node_id":"0.0-2.0-0.0"},{"group":"dicyclic group of order 12","room_assignment":["cyan","green","orange","blue","yellow","olive","purple","red","grey","ivory","pink","brown"],"door_color_assignment":["white","black"],"door_generator_assignment":[1,0],"goal":5,"start":7,"action_noise":0.15,"location_history":"[7,8,5]","action_history":"[1,0]","door_history":"[0,1]","location_rts":"[2600,421]","trial_type":"two-door-navigation","trial_index":3,"time_elapsed":78223,"internal_node_id":"0.0-2.0-1.0"},{"group":"dicyclic group of order 12","room_assignment":["cyan","green","orange","blue","yellow","olive","purple","red","grey","ivory","pink","brown"],"door_color_assignment":["white","black"],"door_generator_assignment":[1,0],"goal":0,"start":5,"action_noise":0.15,"location_history":"[5,10,7,11,3,0]","action_history":"[1,0,0,0,0]","door_history":"[0,1,1,1,1]","location_rts":"[6697,496,310,258,267]","trial_type":"two-door-navigation","trial_index":4,"time_elapsed":94790,"internal_node_id":"0.0-2.0-2.0"},{"group":"dicyclic group of order 12","room_assignment":["cyan","green","orange","blue","yellow","olive","purple","red","grey","ivory","pink","brown"],"door_color_assignment":["white","black"],"door_generator_assignment":[1,0],"goal":2,"start":0,"action_noise":0.15,"location_history":"[0,1,5,9,1,5,9,1,5,9,1,2]","action_history":"[0,1,1,1,1,1,1,1,1,1,1]","door_history":"[1,0,0,0,0,0,0,0,0,0,0]","location_rts":"[6566,330,289,265,523,789,752,1576,472,854,1953]","trial_type":"two-door-navigation","trial_index":5,"time_elapsed":123744,"internal_node_id":"0.0-2.0-3.0"},{"group":"dicyclic group of order 12","room_assignment":["cyan","green","orange","blue","yellow","olive","purple","red","grey","ivory","pink","brown"],"door_color_assignment":["white","black"],"door_generator_assignment":[1,0],"goal":10,"start":2,"action_noise":0.15,"location_history":"[2,6,10]","action_history":"[1,1]","door_history":"[0,0]","location_rts":"[2238,250]","trial_type":"two-door-navigation","trial_index":6,"time_elapsed":131746,"internal_node_id":"0.0-2.0-4.0"},{"group":"dicyclic group of order 12","room_assignment":["cyan","green","orange","blue","yellow","olive","purple","red","grey","ivory","pink","brown"],"door_color_assignment":["white","black"],"door_generator_assignment":[1,0],"goal":8,"start":10,"action_noise":0.15,"location_history":"[10,2,6,11,4,8]","action_history":"[1,1,0,0,0]","door_history":"[0,0,1,1,1]","location_rts":"[516,295,2049,373,227]","trial_type":"two-door-navigation","trial_index":7,"time_elapsed":144090,"internal_node_id":"0.0-2.0-5.0"},{"group":"dicyclic group of order 12","room_assignment":["cyan","green","orange","blue","yellow","olive","purple","red","grey","ivory","pink","brown"],"door_color_assignment":["white","black"],"door_generator_assignment":[1,0],"goal":11,"start":8,"action_noise":0.15,"location_history":"[8,0,1,2,3,0,1,2,3,0,1,2,3,0,1,2,3,0,4,9,6,11]","action_history":"[1,0,0,0,0,0,0,0,0,0,0,0,0,0,0,0,0,0,0,0,0]","door_history":"[0,1,1,1,1,1,1,1,1,1,1,1,1,1,1,1,1,1,1,1,1]","location_rts":"[6588,350,418,288,2239,1641,1004,762,3179,363,418,863,2491,788,978,991,855,569,386,1032,332]","trial_type":"two-door-navigation","trial_index":8,"time_elapsed":196274,"internal_node_id":"0.0-2.0-6.0"},{"group":"dicyclic group of order 12","room_assignment":["cyan","green","orange","blue","yellow","olive","purple","red","grey","ivory","pink","brown"],"door_color_assignment":["white","black"],"door_generator_assignment":[1,0],"goal":6,"start":11,"action_noise":0.15,"location_history":"[11,4,9,1,2,3,0,1,2,3,0,1,5,10,7,8,5,10,2,6]","action_history":"[0,0,0,0,0,0,0,0,0,0,0,0,0,0,0,0,0,0,0]","door_history":"[1,1,1,1,1,1,1,1,1,1,1,1,1,1,1,1,1,1,1]","location_rts":"[1724,418,717,434,736,933,681,2565,1602,998,1762,837,380,403,429,448,245,626,932]","trial_type":"two-door-navigation","trial_index":9,"time_elapsed":235757,"internal_node_id":"0.0-2.0-7.0"},{"group":"dicyclic group of order 12","room_assignment":["cyan","green","orange","blue","yellow","olive","purple","red","grey","ivory","pink","brown"],"door_color_assignment":["white","black"],"door_generator_assignment":[1,0],"goal":4,"start":6,"action_noise":0.15,"location_history":"[6,10,2,6,10,2,3,7,11,3,7,11,4]","action_history":"[1,1,1,1,1,1,1,1,1,1,1,1]","door_history":"[0,0,0,0,0,0,0,0,0,0,0,0]","location_rts":"[3014,317,538,1440,576,615,323,299,810,534,320,1288]","trial_type":"two-door-navigation","trial_index":10,"time_elapsed":261406,"internal_node_id":"0.0-2.0-8.0"},{"group":"dicyclic group of order 12","room_assignment":["cyan","green","orange","blue","yellow","olive","purple","red","grey","ivory","pink","brown"],"door_color_assignment":["white","black"],"door_generator_assignment":[1,0],"goal":1,"start":4,"action_noise":0.15,"location_history":"[4,9,6,11,4,9,6,10,7,8,5,10,7,11,4,9,6,11,4,9,6,11,4,9,6,10,2,6,11,3,7,11,3,0,4,8,0,4,8,0,4,8,0,4,8,5,9,6,10,7,11,4,8,5,10,7,8,5,10,7,8,5,10,7,8,0,1]","action_history":"[0,0,0,0,0,0,0,0,0,0,0,0,0,0,0,0,0,0,0,0,0,0,0,0,1,1,1,1,1,1,1,1,1,1,1,1,1,1,1,1,1,1,0,1,0,1,0,1,0,1,0,1,0,0,0,1,0,0,0,0,0,0,0,0,1,1]","door_history":"[1,1,1,1,1,1,1,1,1,1,1,1,1,1,1,1,1,1,1,1,1,1,1,1,0,0,0,0,0,0,0,0,0,0,0,0,0,0,0,0,0,0,1,0,1,0,1,0,1,0,1,0,1,1,1,0,1,1,1,1,1,1,1,1,0,0]","location_rts":"[3520,2152,513,392,287,269,954,282,579,1110,824,353,339,1778,1779,1137,1582,1290,2755,530,314,299,624,348,355,341,370,291,293,429,283,1081,1569,602,344,496,305,236,513,484,1242,369,331,338,304,1564,341,601,299,411,170,317,316,525,354,805,273,391,370,330,248,544,298,282,295,337]","trial_type":"two-door-navigation","trial_index":11,"time_elapsed":374980,"internal_node_id":"0.0-2.0-9.0"},{"group":"dicyclic group of order 12","room_assignment":["cyan","green","orange","blue","yellow","olive","purple","red","grey","ivory","pink","brown"],"door_color_assignment":["white","black"],"door_generator_assignment":[1,0],"goal":9,"start":1,"action_noise":0.15,"location_history":"[1,5,9]","action_history":"[1,0]","door_history":"[0,1]","location_rts":"[3144,319]","trial_type":"two-door-navigation","trial_index":12,"time_elapsed":383960,"internal_node_id":"0.0-2.0-10.0"},{"group":"dicyclic group of order 12","room_assignment":["cyan","green","orange","blue","yellow","olive","purple","red","grey","ivory","pink","brown"],"door_color_assignment":["white","black"],"door_generator_assignment":[1,0],"goal":10,"start":9,"action_noise":0.15,"location_history":"[9,1,5,10]","action_history":"[1,1,0]","door_history":"[0,0,1]","location_rts":"[1708,312,285]","trial_type":"two-door-navigation","trial_index":13,"time_elapsed":392787,"internal_node_id":"0.0-2.0-11.0"},{"group":"dicyclic group of order 12","room_assignment":["cyan","green","orange","blue","yellow","olive","purple","red","grey","ivory","pink","brown"],"door_color_assignment":["white","black"],"door_generator_assignment":[1,0],"goal":2,"start":10,"action_noise":0.15,"location_history":"[10,7,11,3,7,11,3,7,11,3,0,4,8,0,4,8,5,10,7,8,5,10,2]","action_history":"[0,1,1,1,1,1,1,1,1,1,1,1,1,0,0,0,0,0,0,0,0,0]","door_history":"[1,0,0,0,0,0,0,0,0,0,0,0,0,1,1,1,1,1,1,1,1,1]","location_rts":"[954,401,245,257,270,378,277,379,377,433,361,556,296,316,427,321,507,915,193,204,932,335]","trial_type":"two-door-navigation","trial_index":14,"time_elapsed":427757,"internal_node_id":"0.0-2.0-12.0"},{"group":"dicyclic group of order 12","room_assignment":["cyan","green","orange","blue","yellow","olive","purple","red","grey","ivory","pink","brown"],"door_color_assignment":["white","black"],"door_generator_assignment":[1,0],"goal":0,"start":2,"action_noise":0.15,"location_history":"[2,3,7,8,5,10,7,11,4,9,6,11,4,9,6,11,4,9,6,11,4,8,5,10,2,6,10,2,3,7,11,3,7,8,0]","action_history":"[0,0,0,0,0,0,0,0,0,0,0,0,0,0,0,0,0,0,0,0,0,0,0,0,1,1,1,1,1,1,1,1,1,1]","door_history":"[1,1,1,1,1,1,1,1,1,1,1,1,1,1,1,1,1,1,1,1,1,1,1,1,0,0,0,0,0,0,0,0,0,0]","location_rts":"[868,276,332,389,384,554,345,1221,268,850,1138,599,505,640,331,170,173,208,82,651,642,617,1109,82,323,386,341,704,892,330,822,723,329,805]","trial_type":"two-door-navigation","trial_index":15,"time_elapsed":483558,"internal_node_id":"0.0-2.0-13.0"},{"group":"dicyclic group of order 12","room_assignment":["cyan","green","orange","blue","yellow","olive","purple","red","grey","ivory","pink","brown"],"door_color_assignment":["white","black"],"door_generator_assignment":[1,0],"goal":9,"start":0,"action_noise":0.15,"location_history":"[0,4,9]","action_history":"[1,0]","door_history":"[0,1]","location_rts":"[1059,287]","trial_type":"two-door-navigation","trial_index":16,"time_elapsed":490420,"internal_node_id":"0.0-2.0-14.0"},{"group":"dicyclic group of order 12","room_assignment":["cyan","green","orange","blue","yellow","olive","purple","red","grey","ivory","pink","brown"],"door_color_assignment":["white","black"],"door_generator_assignment":[1,0],"goal":8,"start":9,"action_noise":0.15,"location_history":"[9,1,2,3,0,4,9,6,11,4,9,6,10,2,6,10,2,6,10,7,11,3,7,11,3,7,11,4,8]","action_history":"[1,0,0,0,0,0,0,0,0,0,0,1,1,1,1,1,1,1,1,1,1,1,1,1,1,1,1,1]","door_history":"[0,1,1,1,1,1,1,1,1,1,1,0,0,0,0,0,0,0,0,0,0,0,0,0,0,0,0,0]","location_rts":"[1101,286,266,329,273,246,261,294,491,377,285,254,298,329,481,611,532,449,818,449,3530,403,826,362,354,334,183,481]","trial_type":"two-door-navigation","trial_index":17,"time_elapsed":537041,"internal_node_id":"0.0-2.0-15.0"},{"group":"dicyclic group of order 12","room_assignment":["cyan","green","orange","blue","yellow","olive","purple","red","grey","ivory","pink","brown"],"door_color_assignment":["white","black"],"door_generator_assignment":[1,0],"goal":6,"start":8,"action_noise":0.15,"location_history":"[8,0,4,8,0,4,9,1,5,10,7,8,0,1,2,3,0,1,2,3,0,1,2,3,0,1,2,3,0,4,8,0,4,8,0,4,9,6]","action_history":"[1,1,1,1,1,1,1,1,0,0,0,0,0,0,0,0,0,0,0,0,0,0,0,0,0,0,0,0,1,1,1,1,1,1,1,0,0]","door_history":"[0,0,0,0,0,0,0,0,1,1,1,1,1,1,1,1,1,1,1,1,1,1,1,1,1,1,1,1,0,0,0,0,0,0,0,1,1]","location_rts":"[6439,4229,1222,1017,5768,3317,336,743,281,394,300,331,629,429,620,278,600,1003,577,587,642,352,445,358,371,499,320,420,252,255,503,388,309,290,299,287,316]","trial_type":"two-door-navigation","trial_index":18,"time_elapsed":613189,"internal_node_id":"0.0-2.0-16.0"},{"group":"dicyclic group of order 12","room_assignment":["cyan","green","orange","blue","yellow","olive","purple","red","grey","ivory","pink","brown"],"door_color_assignment":["white","black"],"door_generator_assignment":[1,0],"goal":1,"start":6,"action_noise":0.15,"location_history":"[6,10,7,8,0,1]","action_history":"[1,0,0,1,0]","door_history":"[0,1,1,0,1]","location_rts":"[10608,827,322,310,262]","trial_type":"two-door-navigation","trial_index":19,"time_elapsed":634050,"internal_node_id":"0.0-2.0-17.0"},{"group":"dicyclic group of order 12","room_assignment":["cyan","green","orange","blue","yellow","olive","purple","red","grey","ivory","pink","brown"],"door_color_assignment":["white","black"],"door_generator_assignment":[1,0],"goal":4,"start":1,"action_noise":0.15,"location_history":"[1,2,6,10,2,6,10,2,6,10,7,11,3,7,11,4]","action_history":"[0,1,1,1,1,1,1,1,1,1,1,1,1,1,1]","door_history":"[1,0,0,0,0,0,0,0,0,0,0,0,0,0,0]","location_rts":"[878,284,292,137,223,537,114,323,199,333,344,304,217,289,335]","trial_type":"two-door-navigation","trial_index":20,"time_elapsed":657464,"internal_node_id":"0.0-2.0-18.0"},{"group":"dicyclic group of order 12","room_assignment":["cyan","green","orange","blue","yellow","olive","purple","red","grey","ivory","pink","brown"],"door_color_assignment":["white","black"],"door_generator_assignment":[1,0],"goal":11,"start":4,"action_noise":0.15,"location_history":"[4,9,6,11]","action_history":"[1,0,0]","door_history":"[0,1,1]","location_rts":"[704,305,384]","trial_type":"two-door-navigation","trial_index":21,"time_elapsed":665386,"internal_node_id":"0.0-2.0-19.0"},{"group":"dicyclic group of order 12","room_assignment":["cyan","green","orange","blue","yellow","olive","purple","red","grey","ivory","pink","brown"],"door_color_assignment":["white","black"],"door_generator_assignment":[1,0],"goal":3,"start":11,"action_noise":0.15,"location_history":"[11,4,9,6,11,4,8,5,10,7,8,5,10,7,11,4,9,6,11,3]","action_history":"[0,0,0,0,0,0,0,0,0,0,0,0,0,0,0,0,0,0,0]","door_history":"[1,1,1,1,1,1,1,1,1,1,1,1,1,1,1,1,1,1,1]","location_rts":"[975,324,231,288,268,328,252,226,321,356,219,1677,505,397,627,339,1093,263,326]","trial_type":"two-door-navigation","trial_index":22,"time_elapsed":697037,"internal_node_id":"0.0-2.0-20.0"},{"group":"dicyclic group of order 12","room_assignment":["cyan","green","orange","blue","yellow","olive","purple","red","grey","ivory","pink","brown"],"door_color_assignment":["white","black"],"door_generator_assignment":[1,0],"goal":5,"start":3,"action_noise":0.15,"location_history":"[3,0,4,9,6,11,4,9,6,11,4,9,6,11,4,9,6,11,4,8,0,4,8,0,4,8,0,4,8,0,4,8,0,1,5]","action_history":"[0,1,0,0,0,0,0,0,0,0,0,0,0,0,0,0,0,0,1,1,1,1,1,1,1,1,1,1,1,1,1,1,1,1]","door_history":"[1,0,1,1,1,1,1,1,1,1,1,1,1,1,1,1,1,1,0,0,0,0,0,0,0,0,0,0,0,0,0,0,0,0]","location_rts":"[1169,442,317,289,170,402,313,288,296,417,258,200,273,291,101,234,251,425,437,265,510,218,380,306,394,312,236,808,695,499,637,883,360,132]","trial_type":"two-door-navigation","trial_index":23,"time_elapsed":747964,"internal_node_id":"0.0-2.0-21.0"},{"group":"dicyclic group of order 12","room_assignment":["cyan","green","orange","blue","yellow","olive","purple","red","grey","ivory","pink","brown"],"door_color_assignment":["white","black"],"door_generator_assignment":[1,0],"goal":7,"start":5,"action_noise":0.15,"location_history":"[5,9,6,11,4,9,6,10,7]","action_history":"[1,0,0,0,0,0,0,0]","door_history":"[0,1,1,1,1,1,1,1]","location_rts":"[856,238,229,258,268,301,554,297]","trial_type":"two-door-navigation","trial_index":24,"time_elapsed":762511,"internal_node_id":"0.0-2.0-22.0"},{"group":"dicyclic group of order 12","room_assignment":["cyan","green","orange","blue","yellow","olive","purple","red","grey","ivory","pink","brown"],"door_color_assignment":["white","black"],"door_generator_assignment":[1,0],"goal":3,"start":7,"action_noise":0.15,"location_history":"[7,8,5,10,2,3]","action_history":"[0,0,0,0,0]","door_history":"[1,1,1,1,1]","location_rts":"[591,267,226,467,377]","trial_type":"two-door-navigation","trial_index":25,"time_elapsed":772972,"internal_node_id":"0.0-2.0-23.0"},{"group":"dicyclic group of order 12","room_assignment":["cyan","green","orange","blue","yellow","olive","purple","red","grey","ivory","pink","brown"],"door_color_assignment":["white","black"],"door_generator_assignment":[1,0],"goal":4,"start":3,"action_noise":0.15,"location_history":"[3,0,4]","action_history":"[0,1]","door_history":"[1,0]","location_rts":"[803,304]","trial_type":"two-door-navigation","trial_index":26,"time_elapsed":779594,"internal_node_id":"0.0-2.0-24.0"},{"group":"dicyclic group of order 12","room_assignment":["cyan","green","orange","blue","yellow","olive","purple","red","grey","ivory","pink","brown"],"door_color_assignment":["white","black"],"door_generator_assignment":[1,0],"goal":8,"start":4,"action_noise":0.15,"location_history":"[4,8]","action_history":"[1]","door_history":"[0]","location_rts":"[742]","trial_type":"two-door-navigation","trial_index":27,"time_elapsed":784843,"internal_node_id":"0.0-2.0-25.0"},{"group":"dicyclic group of order 12","room_assignment":["cyan","green","orange","blue","yellow","olive","purple","red","grey","ivory","pink","brown"],"door_color_assignment":["white","black"],"door_generator_assignment":[1,0],"goal":6,"start":8,"action_noise":0.15,"location_history":"[8,0,4,8,0,4,8,0,4,8,0,4,9,6]","action_history":"[1,1,1,1,1,1,1,1,1,1,1,0,0]","door_history":"[0,0,0,0,0,0,0,0,0,0,0,1,1]","location_rts":"[910,533,530,497,265,530,282,484,1183,484,744,368,223]","trial_type":"two-door-navigation","trial_index":28,"time_elapsed":808448,"internal_node_id":"0.0-2.0-26.0"},{"group":"dicyclic group of order 12","room_assignment":["cyan","green","orange","blue","yellow","olive","purple","red","grey","ivory","pink","brown"],"door_color_assignment":["white","black"],"door_generator_assignment":[1,0],"goal":1,"start":6,"action_noise":0.15,"location_history":"[6,11,4,8,0,1]","action_history":"[0,0,1,1,1]","door_history":"[1,1,0,0,0]","location_rts":"[2132,283,225,199,403]","trial_type":"two-door-navigation","trial_index":29,"time_elapsed":820227,"internal_node_id":"0.0-2.0-27.0"},{"group":"dicyclic group of order 12","room_assignment":["cyan","green","orange","blue","yellow","olive","purple","red","grey","ivory","pink","brown"],"door_color_assignment":["white","black"],"door_generator_assignment":[1,0],"goal":5,"start":1,"action_noise":0.15,"location_history":"[1,5]","action_history":"[1]","door_history":"[0]","location_rts":"[1036]","trial_type":"two-door-navigation","trial_index":30,"time_elapsed":825770,"internal_node_id":"0.0-2.0-28.0"},{"group":"dicyclic group of order 12","room_assignment":["cyan","green","orange","blue","yellow","olive","purple","red","grey","ivory","pink","brown"],"door_color_assignment":["white","black"],"door_generator_assignment":[1,0],"goal":9,"start":5,"action_noise":0.15,"location_history":"[5,10,2,6,11,4,9]","action_history":"[0,1,1,0,1,0]","door_history":"[1,0,0,1,0,1]","location_rts":"[1270,324,282,274,260,221]","trial_type":"two-door-navigation","trial_index":31,"time_elapsed":837941,"internal_node_id":"0.0-2.0-29.0"},{"group":"dicyclic group of order 12","room_assignment":["cyan","green","orange","blue","yellow","olive","purple","red","grey","ivory","pink","brown"],"door_color_assignment":["white","black"],"door_generator_assignment":[1,0],"goal":10,"start":9,"action_noise":0.15,"location_history":"[9,1,5,9,6,11,4,8,0,1,5,10]","action_history":"[1,1,1,1,1,1,1,1,0,1,0]","door_history":"[0,0,0,0,0,0,0,0,1,0,1]","location_rts":"[788,302,252,214,247,235,266,265,257,283,246]","trial_type":"two-door-navigation","trial_index":32,"time_elapsed":855863,"internal_node_id":"0.0-2.0-30.0"},{"group":"dicyclic group of order 12","room_assignment":["cyan","green","orange","blue","yellow","olive","purple","red","grey","ivory","pink","brown"],"door_color_assignment":["white","black"],"door_generator_assignment":[1,0],"goal":0,"start":10,"action_noise":0.15,"location_history":"[10,7,11,4,9,6,11,4,9,6,11,4,9,6,10,7,8,0]","action_history":"[0,0,0,0,0,0,0,0,0,0,0,0,0,0,0,0,0]","door_history":"[1,1,1,1,1,1,1,1,1,1,1,1,1,1,1,1,1]","location_rts":"[1046,309,472,370,711,515,396,520,828,512,337,300,570,585,346,536,298]","trial_type":"two-door-navigation","trial_index":33,"time_elapsed":885130,"internal_node_id":"0.0-2.0-31.0"},{"group":"dicyclic group of order 12","room_assignment":["cyan","green","orange","blue","yellow","olive","purple","red","grey","ivory","pink","brown"],"door_color_assignment":["white","black"],"door_generator_assignment":[1,0],"goal":7,"start":0,"action_noise":0.15,"location_history":"[0,1,5,10,2,6,10,2,6,11,3,7]","action_history":"[0,1,0,1,1,1,1,1,1,1,1]","door_history":"[1,0,1,0,0,0,0,0,0,0,0]","location_rts":"[814,273,570,282,331,361,557,431,339,295,209]","trial_type":"two-door-navigation","trial_index":34,"time_elapsed":904173,"internal_node_id":"0.0-2.0-32.0"},{"group":"dicyclic group of order 12","room_assignment":["cyan","green","orange","blue","yellow","olive","purple","red","grey","ivory","pink","brown"],"door_color_assignment":["white","black"],"door_generator_assignment":[1,0],"goal":11,"start":7,"action_noise":0.15,"location_history":"[7,8,5,10,7,8,5,10,7,11]","action_history":"[0,0,0,0,0,0,0,0,0]","door_history":"[1,1,1,1,1,1,1,1,1]","location_rts":"[1396,434,392,119,243,328,306,72,329]","trial_type":"two-door-navigation","trial_index":35,"time_elapsed":920360,"internal_node_id":"0.0-2.0-33.0"},{"group":"dicyclic group of order 12","room_assignment":["cyan","green","orange","blue","yellow","olive","purple","red","grey","ivory","pink","brown"],"door_color_assignment":["white","black"],"door_generator_assignment":[1,0],"goal":2,"start":11,"action_noise":0.15,"location_history":"[11,4,8,0,4,8,0,4,8,0,4,8,5,9,1,2]","action_history":"[0,1,0,1,1,1,1,1,1,1,1,1,1,1,1]","door_history":"[1,0,1,0,0,0,0,0,0,0,0,0,0,0,0]","location_rts":"[2172,315,363,769,193,404,433,455,314,354,413,210,303,227,326]","trial_type":"two-door-navigation","trial_index":36,"time_elapsed":946227,"internal_node_id":"0.0-2.0-34.0"},{"view_history":"[{\"page_index\":0,\"viewing_time\":1308}]","rt":1309,"trial_type":"instructions","trial_index":37,"time_elapsed":948537,"internal_node_id":"0.0-3.0"},{"view_history":"[{\"page_index\":0,\"viewing_time\":12414},{\"page_index\":1,\"viewing_time\":9227}]","rt":21641,"trial_type":"instructions","trial_index":38,"time_elapsed":971178,"internal_node_id":"0.0-4.0"},{"group":"dicyclic group of order 12","fractal_assignment":["../images/grn_blu.png","../images/ylw_slt.png","../images/blu_wht.png","../images/ylw_pnk.png","../images/grn_prp.png","../images/red_prp.png","../images/org_blu.png","../images/cyn_red.png","../images/pnk_blu.png","../images/gry_blk.png","../images/grn_red.png","../images/wht_red.png"],"mutagen_generator_assignment":[1,0],"goal":7,"start":3,"action_noise":0.15,"location_history":"[3,7]","action_history":"[1]","mutagen_history":"[0]","location_rts":"[2144]","trial_type":"fractal-mutation","trial_index":39,"time_elapsed":977849,"internal_node_id":"0.0-5.0-0.0"},{"group":"dicyclic group of order 12","fractal_assignment":["../images/grn_blu.png","../images/ylw_slt.png","../images/blu_wht.png","../images/ylw_pnk.png","../images/grn_prp.png","../images/red_prp.png","../images/org_blu.png","../images/cyn_red.png","../images/pnk_blu.png","../images/gry_blk.png","../images/grn_red.png","../images/wht_red.png"],"mutagen_generator_assignment":[1,0],"goal":5,"start":7,"action_noise":0.15,"location_history":"[7,11,3,0,1,2,6,11,4,9,6,10,2,6,10,2,6,10,2,6,10,2,3,7,8,5]","action_history":"[0,0,0,0,0,0,0,0,0,0,0,1,1,1,1,1,1,1,1,1,1,1,1,0,0]","mutagen_history":"[1,1,1,1,1,1,1,1,1,1,1,0,0,0,0,0,0,0,0,0,0,0,0,1,1]","location_rts":"[759,322,332,321,245,271,913,410,568,421,358,420,685,741,330,459,280,337,746,522,442,372,379,315,349]","trial_type":"fractal-mutation","trial_index":40,"time_elapsed":1021326,"internal_node_id":"0.0-5.0-1.0"},{"group":"dicyclic group of order 12","fractal_assignment":["../images/grn_blu.png","../images/ylw_slt.png","../images/blu_wht.png","../images/ylw_pnk.png","../images/grn_prp.png","../images/red_prp.png","../images/org_blu.png","../images/cyn_red.png","../images/pnk_blu.png","../images/gry_blk.png","../images/grn_red.png","../images/wht_red.png"],"mutagen_generator_assignment":[1,0],"goal":0,"start":5,"action_noise":0.15,"location_history":"[5,9,1,5,10,2,3,7,11,3,7,11,4,8,0]","action_history":"[1,1,1,1,1,1,1,1,1,1,1,1,1,1]","mutagen_history":"[0,0,0,0,0,0,0,0,0,0,0,0,0,0]","location_rts":"[916,290,456,323,371,262,381,432,385,449,529,343,574,418]","trial_type":"fractal-mutation","trial_index":41,"time_elapsed":1045117,"internal_node_id":"0.0-5.0-2.0"},{"group":"dicyclic group of order 12","fractal_assignment":["../images/grn_blu.png","../images/ylw_slt.png","../images/blu_wht.png","../images/ylw_pnk.png","../images/grn_prp.png","../images/red_prp.png","../images/org_blu.png","../images/cyn_red.png","../images/pnk_blu.png","../images/gry_blk.png","../images/grn_red.png","../images/wht_red.png"],"mutagen_generator_assignment":[1,0],"goal":2,"start":0,"action_noise":0.15,"location_history":"[0,4,9,6,10,2]","action_history":"[1,1,1,1,1]","mutagen_history":"[0,0,0,0,0]","location_rts":"[775,255,246,667,298]","trial_type":"fractal-mutation","trial_index":42,"time_elapsed":1055906,"internal_node_id":"0.0-5.0-3.0"},{"group":"dicyclic group of order 12","fractal_assignment":["../images/grn_blu.png","../images/ylw_slt.png","../images/blu_wht.png","../images/ylw_pnk.png","../images/grn_prp.png","../images/red_prp.png","../images/org_blu.png","../images/cyn_red.png","../images/pnk_blu.png","../images/gry_blk.png","../images/grn_red.png","../images/wht_red.png"],"mutagen_generator_assignment":[1,0],"goal":10,"start":2,"action_noise":0.15,"location_history":"[2,6,10]","action_history":"[1,1]","mutagen_history":"[0,0]","location_rts":"[3854,917]","trial_type":"fractal-mutation","trial_index":43,"time_elapsed":1066204,"internal_node_id":"0.0-5.0-4.0"},{"group":"dicyclic group of order 12","fractal_assignment":["../images/grn_blu.png","../images/ylw_slt.png","../images/blu_wht.png","../images/ylw_pnk.png","../images/grn_prp.png","../images/red_prp.png","../images/org_blu.png","../images/cyn_red.png","../images/pnk_blu.png","../images/gry_blk.png","../images/grn_red.png","../images/wht_red.png"],"mutagen_generator_assignment":[1,0],"goal":8,"start":10,"action_noise":0.15,"location_history":"[10,2,3,7,11,3,7,8]","action_history":"[1,1,1,1,1,1,1]","mutagen_history":"[0,0,0,0,0,0,0]","location_rts":"[735,379,207,241,427,256,113]","trial_type":"fractal-mutation","trial_index":44,"time_elapsed":1079128,"internal_node_id":"0.0-5.0-5.0"},{"group":"dicyclic group of order 12","fractal_assignment":["../images/grn_blu.png","../images/ylw_slt.png","../images/blu_wht.png","../images/ylw_pnk.png","../images/grn_prp.png","../images/red_prp.png","../images/org_blu.png","../images/cyn_red.png","../images/pnk_blu.png","../images/gry_blk.png","../images/grn_red.png","../images/wht_red.png"],"mutagen_generator_assignment":[1,0],"goal":11,"start":8,"action_noise":0.15,"location_history":"[8,0,4,8,0,4,8,5,9,6,11]","action_history":"[1,1,1,1,1,1,0,0,0,0]","mutagen_history":"[0,0,0,0,0,0,1,1,1,1]","location_rts":"[663,342,1292,419,680,466,376,421,412,798]","trial_type":"fractal-mutation","trial_index":45,"time_elapsed":1099306,"internal_node_id":"0.0-5.0-6.0"},{"group":"dicyclic group of order 12","fractal_assignment":["../images/grn_blu.png","../images/ylw_slt.png","../images/blu_wht.png","../images/ylw_pnk.png","../images/grn_prp.png","../images/red_prp.png","../images/org_blu.png","../images/cyn_red.png","../images/pnk_blu.png","../images/gry_blk.png","../images/grn_red.png","../images/wht_red.png"],"mutagen_generator_assignment":[1,0],"goal":6,"start":11,"action_noise":0.15,"location_history":"[11,4,9,6]","action_history":"[0,0,0]","mutagen_history":"[1,1,1]","location_rts":"[778,349,275]","trial_type":"fractal-mutation","trial_index":46,"time_elapsed":1107755,"internal_node_id":"0.0-5.0-7.0"},{"group":"dicyclic group of order 12","fractal_assignment":["../images/grn_blu.png","../images/ylw_slt.png","../images/blu_wht.png","../images/ylw_pnk.png","../images/grn_prp.png","../images/red_prp.png","../images/org_blu.png","../images/cyn_red.png","../images/pnk_blu.png","../images/gry_blk.png","../images/grn_red.png","../images/wht_red.png"],"mutagen_generator_assignment":[1,0],"goal":4,"start":6,"action_noise":0.15,"location_history":"[6,11,4]","action_history":"[0,0]","mutagen_history":"[1,1]","location_rts":"[8618,383]","trial_type":"fractal-mutation","trial_index":47,"time_elapsed":1122650,"internal_node_id":"0.0-5.0-8.0"},{"group":"dicyclic group of order 12","fractal_assignment":["../images/grn_blu.png","../images/ylw_slt.png","../images/blu_wht.png","../images/ylw_pnk.png","../images/grn_prp.png","../images/red_prp.png","../images/org_blu.png","../images/cyn_red.png","../images/pnk_blu.png","../images/gry_blk.png","../images/grn_red.png","../images/wht_red.png"],"mutagen_generator_assignment":[1,0],"goal":1,"start":4,"action_noise":0.15,"location_history":"[4,8,0,4,8,0,1]","action_history":"[1,1,1,1,1,1]","mutagen_history":"[0,0,0,0,0,0]","location_rts":"[794,464,515,830,838,1453]","trial_type":"fractal-mutation","trial_index":48,"time_elapsed":1137100,"internal_node_id":"0.0-5.0-9.0"},{"group":"dicyclic group of order 12","fractal_assignment":["../images/grn_blu.png","../images/ylw_slt.png","../images/blu_wht.png","../images/ylw_pnk.png","../images/grn_prp.png","../images/red_prp.png","../images/org_blu.png","../images/cyn_red.png","../images/pnk_blu.png","../images/gry_blk.png","../images/grn_red.png","../images/wht_red.png"],"mutagen_generator_assignment":[1,0],"goal":9,"start":1,"action_noise":0.15,"location_history":"[1,5,9]","action_history":"[1,1]","mutagen_history":"[0,0]","location_rts":"[1879,622]","trial_type":"fractal-mutation","trial_index":49,"time_elapsed":1145121,"internal_node_id":"0.0-5.0-10.0"},{"group":"dicyclic group of order 12","fractal_assignment":["../images/grn_blu.png","../images/ylw_slt.png","../images/blu_wht.png","../images/ylw_pnk.png","../images/grn_prp.png","../images/red_prp.png","../images/org_blu.png","../images/cyn_red.png","../images/pnk_blu.png","../images/gry_blk.png","../images/grn_red.png","../images/wht_red.png"],"mutagen_generator_assignment":[1,0],"goal":10,"start":9,"action_noise":0.15,"location_history":"[9,1,5,9,6,10]","action_history":"[1,1,1,1,1]","mutagen_history":"[0,0,0,0,0]","location_rts":"[881,45,287,793,345]","trial_type":"fractal-mutation","trial_index":50,"time_elapsed":1156022,"internal_node_id":"0.0-5.0-11.0"},{"group":"dicyclic group of order 12","fractal_assignment":["../images/grn_blu.png","../images/ylw_slt.png","../images/blu_wht.png","../images/ylw_pnk.png","../images/grn_prp.png","../images/red_prp.png","../images/org_blu.png","../images/cyn_red.png","../images/pnk_blu.png","../images/gry_blk.png","../images/grn_red.png","../images/wht_red.png"],"mutagen_generator_assignment":[1,0],"goal":2,"start":10,"action_noise":0.15,"location_history":"[10,2]","action_history":"[1]","mutagen_history":"[0]","location_rts":"[882]","trial_type":"fractal-mutation","trial_index":51,"time_elapsed":1161413,"internal_node_id":"0.0-5.0-12.0"},{"group":"dicyclic group of order 12","fractal_assignment":["../images/grn_blu.png","../images/ylw_slt.png","../images/blu_wht.png","../images/ylw_pnk.png","../images/grn_prp.png","../images/red_prp.png","../images/org_blu.png","../images/cyn_red.png","../images/pnk_blu.png","../images/gry_blk.png","../images/grn_red.png","../images/wht_red.png"],"mutagen_generator_assignment":[1,0],"goal":0,"start":2,"action_noise":0.15,"location_history":"[2,6,11,4,8,0]","action_history":"[1,1,1,1,1]","mutagen_history":"[0,0,0,0,0]","location_rts":"[681,343,715,437,453]","trial_type":"fractal-mutation","trial_index":52,"time_elapsed":1172586,"internal_node_id":"0.0-5.0-13.0"},{"group":"dicyclic group of order 12","fractal_assignment":["../images/grn_blu.png","../images/ylw_slt.png","../images/blu_wht.png","../images/ylw_pnk.png","../images/grn_prp.png","../images/red_prp.png","../images/org_blu.png","../images/cyn_red.png","../images/pnk_blu.png","../images/gry_blk.png","../images/grn_red.png","../images/wht_red.png"],"mutagen_generator_assignment":[1,0],"goal":9,"start":0,"action_noise":0.15,"location_history":"[0,4,8,0,1,5,9]","action_history":"[1,1,1,1,1,1]","mutagen_history":"[0,0,0,0,0,0]","location_rts":"[619,515,408,736,742,295]","trial_type":"fractal-mutation","trial_index":53,"time_elapsed":1185468,"internal_node_id":"0.0-5.0-14.0"},{"group":"dicyclic group of order 12","fractal_assignment":["../images/grn_blu.png","../images/ylw_slt.png","../images/blu_wht.png","../images/ylw_pnk.png","../images/grn_prp.png","../images/red_prp.png","../images/org_blu.png","../images/cyn_red.png","../images/pnk_blu.png","../images/gry_blk.png","../images/grn_red.png","../images/wht_red.png"],"mutagen_generator_assignment":[1,0],"goal":8,"start":9,"action_noise":0.15,"location_history":"[9,6,10,7,11,3,7,8]","action_history":"[1,1,1,1,1,1,1]","mutagen_history":"[0,0,0,0,0,0,0]","location_rts":"[1536,315,430,563,438,268,588]","trial_type":"fractal-mutation","trial_index":54,"time_elapsed":1200180,"internal_node_id":"0.0-5.0-15.0"},{"group":"dicyclic group of order 12","fractal_assignment":["../images/grn_blu.png","../images/ylw_slt.png","../images/blu_wht.png","../images/ylw_pnk.png","../images/grn_prp.png","../images/red_prp.png","../images/org_blu.png","../images/cyn_red.png","../images/pnk_blu.png","../images/gry_blk.png","../images/grn_red.png","../images/wht_red.png"],"mutagen_generator_assignment":[1,0],"goal":6,"start":8,"action_noise":0.15,"location_history":"[8,0,4,8,5,9,1,5,10,2,6]","action_history":"[1,1,1,1,1,1,1,1,1,1]","mutagen_history":"[0,0,0,0,0,0,0,0,0,0]","location_rts":"[605,294,230,287,216,310,253,301,345,382]","trial_type":"fractal-mutation","trial_index":55,"time_elapsed":1217009,"internal_node_id":"0.0-5.0-16.0"},{"group":"dicyclic group of order 12","fractal_assignment":["../images/grn_blu.png","../images/ylw_slt.png","../images/blu_wht.png","../images/ylw_pnk.png","../images/grn_prp.png","../images/red_prp.png","../images/org_blu.png","../images/cyn_red.png","../images/pnk_blu.png","../images/gry_blk.png","../images/grn_red.png","../images/wht_red.png"],"mutagen_generator_assignment":[1,0],"goal":1,"start":6,"action_noise":0.15,"location_history":"[6,10,2,6,11,4,8,0,4,8,0,1]","action_history":"[1,1,1,1,0,1,1,1,1,1,1]","mutagen_history":"[0,0,0,0,1,0,0,0,0,0,0]","location_rts":"[950,1490,646,566,312,278,387,579,338,79,269]","trial_type":"fractal-mutation","trial_index":56,"time_elapsed":1238204,"internal_node_id":"0.0-5.0-17.0"},{"group":"dicyclic group of order 12","fractal_assignment":["../images/grn_blu.png","../images/ylw_slt.png","../images/blu_wht.png","../images/ylw_pnk.png","../images/grn_prp.png","../images/red_prp.png","../images/org_blu.png","../images/cyn_red.png","../images/pnk_blu.png","../images/gry_blk.png","../images/grn_red.png","../images/wht_red.png"],"mutagen_generator_assignment":[1,0],"goal":4,"start":1,"action_noise":0.15,"location_history":"[1,5,10,2,6,10,2,6,11,3,0,4]","action_history":"[1,1,1,1,1,1,1,1,1,1,1]","mutagen_history":"[0,0,0,0,0,0,0,0,0,0,0]","location_rts":"[617,346,412,928,968,674,743,1241,313,638,539]","trial_type":"fractal-mutation","trial_index":57,"time_elapsed":1260227,"internal_node_id":"0.0-5.0-18.0"},{"group":"dicyclic group of order 12","fractal_assignment":["../images/grn_blu.png","../images/ylw_slt.png","../images/blu_wht.png","../images/ylw_pnk.png","../images/grn_prp.png","../images/red_prp.png","../images/org_blu.png","../images/cyn_red.png","../images/pnk_blu.png","../images/gry_blk.png","../images/grn_red.png","../images/wht_red.png"],"mutagen_generator_assignment":[1,0],"goal":11,"start":4,"action_noise":0.15,"location_history":"[4,9,6,10,7,8,5,10,2,3,0,4,9,1,5,9,1,5,9,1,5,9,6,10,2,6,10,2,6,11]","action_history":"[0,0,0,0,0,0,0,0,0,0,1,1,1,1,1,1,1,1,1,1,1,1,1,1,1,1,1,1,1]","mutagen_history":"[1,1,1,1,1,1,1,1,1,1,0,0,0,0,0,0,0,0,0,0,0,0,0,0,0,0,0,0,0]","location_rts":"[873,287,382,410,666,347,271,470,326,300,232,335,294,402,328,408,507,416,482,604,304,349,286,472,1198,574,427,505,453]","trial_type":"fractal-mutation","trial_index":58,"time_elapsed":1309283,"internal_node_id":"0.0-5.0-19.0"},{"group":"dicyclic group of order 12","fractal_assignment":["../images/grn_blu.png","../images/ylw_slt.png","../images/blu_wht.png","../images/ylw_pnk.png","../images/grn_prp.png","../images/red_prp.png","../images/org_blu.png","../images/cyn_red.png","../images/pnk_blu.png","../images/gry_blk.png","../images/grn_red.png","../images/wht_red.png"],"mutagen_generator_assignment":[1,0],"goal":3,"start":11,"action_noise":0.15,"location_history":"[11,3]","action_history":"[0]","mutagen_history":"[1]","location_rts":"[1200]","trial_type":"fractal-mutation","trial_index":59,"time_elapsed":1315161,"internal_node_id":"0.0-5.0-20.0"},{"group":"dicyclic group of order 12","fractal_assignment":["../images/grn_blu.png","../images/ylw_slt.png","../images/blu_wht.png","../images/ylw_pnk.png","../images/grn_prp.png","../images/red_prp.png","../images/org_blu.png","../images/cyn_red.png","../images/pnk_blu.png","../images/gry_blk.png","../images/grn_red.png","../images/wht_red.png"],"mutagen_generator_assignment":[1,0],"goal":5,"start":3,"action_noise":0.15,"location_history":"[3,0,1,2,6,11,4,8,0,4,8,0,1,5]","action_history":"[0,0,0,0,0,1,1,1,1,1,1,1,1]","mutagen_history":"[1,1,1,1,1,0,0,0,0,0,0,0,0]","location_rts":"[1236,356,291,376,507,314,397,307,255,331,332,446,780]","trial_type":"fractal-mutation","trial_index":60,"time_elapsed":1339284,"internal_node_id":"0.0-5.0-21.0"},{"group":"dicyclic group of order 12","fractal_assignment":["../images/grn_blu.png","../images/ylw_slt.png","../images/blu_wht.png","../images/ylw_pnk.png","../images/grn_prp.png","../images/red_prp.png","../images/org_blu.png","../images/cyn_red.png","../images/pnk_blu.png","../images/gry_blk.png","../images/grn_red.png","../images/wht_red.png"],"mutagen_generator_assignment":[1,0],"goal":7,"start":5,"action_noise":0.15,"location_history":"[5,9,6,11,4,9,6,11,4,9,6,11,3,0,1,5,9,1,5,10,2,6,10,2,6,10,7]","action_history":"[1,0,0,0,0,0,0,0,0,0,0,0,0,0,1,1,1,1,1,1,1,1,1,1,1,1]","mutagen_history":"[0,1,1,1,1,1,1,1,1,1,1,1,1,1,0,0,0,0,0,0,0,0,0,0,0,0]","location_rts":"[939,641,1295,958,366,354,1034,668,386,412,375,1113,408,299,387,297,338,263,823,346,699,122,335,513,461,636]","trial_type":"fractal-mutation","trial_index":61,"time_elapsed":1386847,"internal_node_id":"0.0-5.0-22.0"},{"group":"dicyclic group of order 12","fractal_assignment":["../images/grn_blu.png","../images/ylw_slt.png","../images/blu_wht.png","../images/ylw_pnk.png","../images/grn_prp.png","../images/red_prp.png","../images/org_blu.png","../images/cyn_red.png","../images/pnk_blu.png","../images/gry_blk.png","../images/grn_red.png","../images/wht_red.png"],"mutagen_generator_assignment":[1,0],"goal":3,"start":7,"action_noise":0.15,"location_history":"[7,8,5,10,7,8,5,10,7,8,5,10,7,11,3]","action_history":"[0,0,0,0,0,0,0,0,0,0,0,0,1,1]","mutagen_history":"[1,1,1,1,1,1,1,1,1,1,1,1,0,0]","location_rts":"[1197,333,674,739,427,767,713,493,488,900,554,342,303,900]","trial_type":"fractal-mutation","trial_index":62,"time_elapsed":1415543,"internal_node_id":"0.0-5.0-23.0"},{"group":"dicyclic group of order 12","fractal_assignment":["../images/grn_blu.png","../images/ylw_slt.png","../images/blu_wht.png","../images/ylw_pnk.png","../images/grn_prp.png","../images/red_prp.png","../images/org_blu.png","../images/cyn_red.png","../images/pnk_blu.png","../images/gry_blk.png","../images/grn_red.png","../images/wht_red.png"],"mutagen_generator_assignment":[1,0],"goal":4,"start":3,"action_noise":0.15,"location_history":"[3,7,8,0,1,5,9,1,5,9,1,5,9,1,5,9,6,11,4]","action_history":"[1,1,1,1,1,1,1,1,1,1,1,1,1,1,1,0,0,0]","mutagen_history":"[0,0,0,0,0,0,0,0,0,0,0,0,0,0,0,1,1,1]","location_rts":"[711,400,452,444,591,496,837,695,423,351,253,377,440,112,405,336,371,1469]","trial_type":"fractal-mutation","trial_index":63,"time_elapsed":1446904,"internal_node_id":"0.0-5.0-24.0"},{"group":"dicyclic group of order 12","fractal_assignment":["../images/grn_blu.png","../images/ylw_slt.png","../images/blu_wht.png","../images/ylw_pnk.png","../images/grn_prp.png","../images/red_prp.png","../images/org_blu.png","../images/cyn_red.png","../images/pnk_blu.png","../images/gry_blk.png","../images/grn_red.png","../images/wht_red.png"],"mutagen_generator_assignment":[1,0],"goal":8,"start":4,"action_noise":0.15,"location_history":"[4,8]","action_history":"[1]","mutagen_history":"[0]","location_rts":"[979]","trial_type":"fractal-mutation","trial_index":64,"time_elapsed":1452396,"internal_node_id":"0.0-5.0-25.0"},{"group":"dicyclic group of order 12","fractal_assignment":["../images/grn_blu.png","../images/ylw_slt.png","../images/blu_wht.png","../images/ylw_pnk.png","../images/grn_prp.png","../images/red_prp.png","../images/org_blu.png","../images/cyn_red.png","../images/pnk_blu.png","../images/gry_blk.png","../images/grn_red.png","../images/wht_red.png"],"mutagen_generator_assignment":[1,0],"goal":6,"start":8,"action_noise":0.15,"location_history":"[8,5,10,7,8,0,4,8,0,4,8,0,4,9,1,5,10,7,11,3,7,11,3,0,4,9,6]","action_history":"[0,0,0,0,1,1,1,1,1,1,1,1,1,1,1,1,1,1,1,1,1,1,0,0,0,0]","mutagen_history":"[1,1,1,1,0,0,0,0,0,0,0,0,0,0,0,0,0,0,0,0,0,0,1,1,1,1]","location_rts":"[1421,507,715,390,742,507,302,239,365,382,329,235,548,258,292,367,337,1645,373,356,553,375,345,448,324,102]","trial_type":"fractal-mutation","trial_index":65,"time_elapsed":1497560,"internal_node_id":"0.0-5.0-26.0"},{"group":"dicyclic group of order 12","fractal_assignment":["../images/grn_blu.png","../images/ylw_slt.png","../images/blu_wht.png","../images/ylw_pnk.png","../images/grn_prp.png","../images/red_prp.png","../images/org_blu.png","../images/cyn_red.png","../images/pnk_blu.png","../images/gry_blk.png","../images/grn_red.png","../images/wht_red.png"],"mutagen_generator_assignment":[1,0],"goal":1,"start":6,"action_noise":0.15,"location_history":"[6,10,7,8,5,10,7,11,3,0,4,8,5,9,1]","action_history":"[0,0,0,0,0,0,1,1,1,1,1,1,1,1]","mutagen_history":"[1,1,1,1,1,1,0,0,0,0,0,0,0,0]","location_rts":"[1709,428,353,391,356,396,329,320,694,1489,1132,408,691,1011]","trial_type":"fractal-mutation","trial_index":66,"time_elapsed":1526681,"internal_node_id":"0.0-5.0-27.0"},{"group":"dicyclic group of order 12","fractal_assignment":["../images/grn_blu.png","../images/ylw_slt.png","../images/blu_wht.png","../images/ylw_pnk.png","../images/grn_prp.png","../images/red_prp.png","../images/org_blu.png","../images/cyn_red.png","../images/pnk_blu.png","../images/gry_blk.png","../images/grn_red.png","../images/wht_red.png"],"mutagen_generator_assignment":[1,0],"goal":5,"start":1,"action_noise":0.15,"location_history":"[1,2,6,11,4,9,6,11,3,7,8,0,4,8,0,4,8,0,4,8,0,4,8,0,4,8,5]","action_history":"[0,0,0,0,0,0,0,1,1,0,1,1,1,1,1,1,1,1,1,1,1,1,1,1,1,1]","mutagen_history":"[1,1,1,1,1,1,1,0,0,1,0,0,0,0,0,0,0,0,0,0,0,0,0,0,0,0]","location_rts":"[1259,214,658,306,344,496,654,708,2649,384,286,335,201,582,409,1140,433,767,440,305,572,353,301,292,794,2084]","trial_type":"fractal-mutation","trial_index":67,"time_elapsed":1576328,"internal_node_id":"0.0-5.0-28.0"},{"group":"dicyclic group of order 12","fractal_assignment":["../images/grn_blu.png","../images/ylw_slt.png","../images/blu_wht.png","../images/ylw_pnk.png","../images/grn_prp.png","../images/red_prp.png","../images/org_blu.png","../images/cyn_red.png","../images/pnk_blu.png","../images/gry_blk.png","../images/grn_red.png","../images/wht_red.png"],"mutagen_generator_assignment":[1,0],"goal":9,"start":5,"action_noise":0.15,"location_history":"[5,9]","action_history":"[0]","mutagen_history":"[1]","location_rts":"[754]","trial_type":"fractal-mutation","trial_index":68,"time_elapsed":1581769,"internal_node_id":"0.0-5.0-29.0"},{"group":"dicyclic group of order 12","fractal_assignment":["../images/grn_blu.png","../images/ylw_slt.png","../images/blu_wht.png","../images/ylw_pnk.png","../images/grn_prp.png","../images/red_prp.png","../images/org_blu.png","../images/cyn_red.png","../images/pnk_blu.png","../images/gry_blk.png","../images/grn_red.png","../images/wht_red.png"],"mutagen_generator_assignment":[1,0],"goal":10,"start":9,"action_noise":0.15,"location_history":"[9,1,2,3,0,1,2,3,0,4,9,6,10]","action_history":"[1,0,0,0,0,0,0,0,0,0,0,0]","mutagen_history":"[0,1,1,1,1,1,1,1,1,1,1,1]","location_rts":"[750,299,317,320,437,335,307,280,205,282,446,1235]","trial_type":"fractal-mutation","trial_index":69,"time_elapsed":1604533,"internal_node_id":"0.0-5.0-30.0"},{"group":"dicyclic group of order 12","fractal_assignment":["../images/grn_blu.png","../images/ylw_slt.png","../images/blu_wht.png","../images/ylw_pnk.png","../images/grn_prp.png","../images/red_prp.png","../images/org_blu.png","../images/cyn_red.png","../images/pnk_blu.png","../images/gry_blk.png","../images/grn_red.png","../images/wht_red.png"],"mutagen_generator_assignment":[1,0],"goal":0,"start":10,"action_noise":0.15,"location_history":"[10,2,6,10,2,3,0]","action_history":"[1,1,1,1,1,1]","mutagen_history":"[0,0,0,0,0,0]","location_rts":"[1197,341,293,447,418,404]","trial_type":"fractal-mutation","trial_index":70,"time_elapsed":1617190,"internal_node_id":"0.0-5.0-31.0"},{"group":"dicyclic group of order 12","fractal_assignment":["../images/grn_blu.png","../images/ylw_slt.png","../images/blu_wht.png","../images/ylw_pnk.png","../images/grn_prp.png","../images/red_prp.png","../images/org_blu.png","../images/cyn_red.png","../images/pnk_blu.png","../images/gry_blk.png","../images/grn_red.png","../images/wht_red.png"],"mutagen_generator_assignment":[1,0],"goal":7,"start":0,"action_noise":0.15,"location_history":"[0,4,8,0,4,8,0,4,9,1,2,6,10,2,3,0,1,2,3,7]","action_history":"[1,1,1,1,1,1,1,1,1,1,1,1,1,0,0,0,0,0,0]","mutagen_history":"[0,0,0,0,0,0,0,0,0,0,0,0,0,1,1,1,1,1,1]","location_rts":"[995,316,679,348,367,385,702,563,360,320,296,5451,737,269,2229,991,1466,452,458]","trial_type":"fractal-mutation","trial_index":71,"time_elapsed":1658307,"internal_node_id":"0.0-5.0-32.0"},{"group":"dicyclic group of order 12","fractal_assignment":["../images/grn_blu.png","../images/ylw_slt.png","../images/blu_wht.png","../images/ylw_pnk.png","../images/grn_prp.png","../images/red_prp.png","../images/org_blu.png","../images/cyn_red.png","../images/pnk_blu.png","../images/gry_blk.png","../images/grn_red.png","../images/wht_red.png"],"mutagen_generator_assignment":[1,0],"goal":11,"start":7,"action_noise":0.15,"location_history":"[7,11]","action_history":"[1]","mutagen_history":"[0]","location_rts":"[1433]","trial_type":"fractal-mutation","trial_index":72,"time_elapsed":1664254,"internal_node_id":"0.0-5.0-33.0"},{"group":"dicyclic group of order 12","fractal_assignment":["../images/grn_blu.png","../images/ylw_slt.png","../images/blu_wht.png","../images/ylw_pnk.png","../images/grn_prp.png","../images/red_prp.png","../images/org_blu.png","../images/cyn_red.png","../images/pnk_blu.png","../images/gry_blk.png","../images/grn_red.png","../images/wht_red.png"],"mutagen_generator_assignment":[1,0],"goal":2,"start":11,"action_noise":0.15,"location_history":"[11,3,7,8,0,4,8,0,4,8,0,1,5,9,1,5,9,1,5,10,7,8,5,10,7,11,4,8,5,10,7,8,0,4,8,5,9,6,11,3,7,11,4,9,1,5,9,6,10,2]","action_history":"[1,1,1,1,1,1,1,1,1,1,1,1,1,1,1,1,1,1,0,0,0,0,0,0,0,0,0,0,0,0,0,0,1,1,0,1,0,1,0,1,1,0,0,1,1,1,0,1,1]","mutagen_history":"[0,0,0,0,0,0,0,0,0,0,0,0,0,0,0,0,0,0,1,1,1,1,1,1,1,1,1,1,1,1,1,1,0,0,1,0,1,0,1,0,0,1,1,0,0,0,1,0,0]","location_rts":"[927,2457,2479,224,2195,516,782,269,549,656,1173,1524,785,1014,424,264,96,167,251,294,240,370,302,150,721,652,305,363,326,271,230,202,273,354,387,310,285,238,314,301,494,348,230,33,374,361,109,288,388]","trial_type":"fractal-mutation","trial_index":73,"time_elapsed":1747981,"internal_node_id":"0.0-5.0-34.0"},{"view_history":"[{\"page_index\":0,\"viewing_time\":2827}]","rt":2828,"trial_type":"instructions","trial_index":74,"time_elapsed":1751809,"internal_node_id":"0.0-6.0"},{"rt":5625,"responses":"{\"Q0\":\"fun\"}","trial_type":"survey-text","trial_index":75,"time_elapsed":1758439,"internal_node_id":"0.0-7.0-0.0"},{"rt":19577,"responses":"{\"Q0\":\"it was interesting...took some time getting used to\"}","trial_type":"survey-text","trial_index":76,"time_elapsed":1779018,"internal_node_id":"0.0-7.0-1.0"},{"rt":4832,"responses":"{\"Q0\":\"2\"}","trial_type":"survey-likert","trial_index":77,"time_elapsed":1784852,"internal_node_id":"0.0-7.0-2.0"},{"rt":8863,"responses":"{\"Q0\":\"none\"}","trial_type":"survey-text","trial_index":78,"time_elapsed":1794716,"internal_node_id":"0.0-7.0-3.0"},{"rt":9221,"responses":"{\"Q0\":\"Yes\"}","trial_type":"survey-multi-choice","trial_index":79,"time_elapsed":1804944,"internal_node_id":"0.0-7.0-4.0"},{"rt":10188,"responses":"{\"Q0\":\"During these questions/I wasn't aware until you pointed it out\"}","trial_type":"survey-multi-choice","trial_index":80,"time_elapsed":1816136,"internal_node_id":"0.0-7.0-5.0"},{"rt":4117,"responses":"{\"Q0\":\"\"}","trial_type":"survey-text","trial_index":81,"time_elapsed":1821254,"internal_node_id":"0.0-7.0-6.0"},{"rt":11961,"responses":"{\"Q0\":\"2\"}","trial_type":"survey-likert","trial_index":82,"time_elapsed":1834218,"internal_node_id":"0.0-7.0-7.0"},{"rt":33554,"responses":"{\"Q0\":\"Same structure\"}","trial_type":"survey-multi-choice","trial_index":83,"time_elapsed":1868774,"internal_node_id":"0.0-7.0-8.0"},{"rt":45938,"responses":"{\"Q0\":\"white door = acid, black door = ray\",\"Q1\":\"Not at all confident\"}","trial_type":"survey-multi-choice","trial_index":84,"time_elapsed":1915720,"internal_node_id":"0.0-7.0-9.0"},{"rt":13199,"responses":"{\"Q0\":\"25-35\",\"Q1\":\"Bachelor's degree\",\"Q2\":\"Female\",\"Q3\":\"White\"}","trial_type":"survey-multi-choice","trial_index":85,"time_elapsed":1929934,"internal_node_id":"0.0-8.0"},{"rt":1173,"responses":"{\"Q0\":\"\"}","trial_type":"survey-text","trial_index":86,"time_elapsed":1932108,"internal_node_id":"0.0-9.0"}]