[{"view_history":"[{\"page_index\":0,\"viewing_time\":2846},{\"page_index\":1,\"viewing_time\":5897}]","rt":8744,"trial_type":"instructions","trial_index":0,"time_elapsed":8745,"internal_node_id":"0.0-0.0"},{"view_history":"[{\"page_index\":0,\"viewing_time\":2043},{\"page_index\":1,\"viewing_time\":1782}]","rt":3825,"trial_type":"instructions","trial_index":1,"time_elapsed":13571,"internal_node_id":"0.0-1.0"},{"group":"dicyclic group of order 12","room_assignment":["red","purple","blue","grey","green","olive","cyan","ivory","yellow","pink","brown","orange"],"door_color_assignment":["white","black"],"door_generator_assignment":[1,0],"goal":7,"start":3,"action_noise":0.15,"location_history":"[3,0,4,8,0,1,5,10,2,6,11,3,7]","action_history":"[0,1,1,1,0,1,1,1,0,1,1,1]","door_history":"[1,0,0,0,1,0,0,0,1,0,0,0]","location_rts":"[3299,930,459,522,771,714,307,346,395,642,332,534]","trial_type":"two-door-navigation","trial_index":2,"time_elapsed":38585,"internal_node_id":"0.0-2.0-0.0"},{"group":"dicyclic group of order 12","room_assignment":["red","purple","blue","grey","green","olive","cyan","ivory","yellow","pink","brown","orange"],"door_color_assignment":["white","black"],"door_generator_assignment":[1,0],"goal":5,"start":7,"action_noise":0.15,"location_history":"[7,11,4,9,6,10,2,6,10,7,11,3,0,1,5]","action_history":"[1,1,1,0,1,1,1,1,0,1,1,0,0,1]","door_history":"[0,0,0,1,0,0,0,0,1,0,0,1,1,0]","location_rts":"[2047,410,466,608,504,424,335,431,328,1132,428,591,1525,745]","trial_type":"two-door-navigation","trial_index":3,"time_elapsed":66390,"internal_node_id":"0.0-2.0-1.0"},{"group":"dicyclic group of order 12","room_assignment":["red","purple","blue","grey","green","olive","cyan","ivory","yellow","pink","brown","orange"],"door_color_assignment":["white","black"],"door_generator_assignment":[1,0],"goal":0,"start":5,"action_noise":0.15,"location_history":"[5,10,2,6,11,3,7,8,0]","action_history":"[0,0,1,0,1,1,0,1]","door_history":"[1,1,0,1,0,0,1,0]","location_rts":"[2004,633,868,712,860,367,248,1168]","trial_type":"two-door-navigation","trial_index":4,"time_elapsed":84935,"internal_node_id":"0.0-2.0-2.0"},{"group":"dicyclic group of order 12","room_assignment":["red","purple","blue","grey","green","olive","cyan","ivory","yellow","pink","brown","orange"],"door_color_assignment":["white","black"],"door_generator_assignment":[1,0],"goal":2,"start":0,"action_noise":0.15,"location_history":"[0,1,5,9,1,5,10,2]","action_history":"[0,1,1,1,1,0,1]","door_history":"[1,0,0,0,0,1,0]","location_rts":"[1398,1225,305,352,351,263,1076]","trial_type":"two-door-navigation","trial_index":5,"time_elapsed":100577,"internal_node_id":"0.0-2.0-3.0"},{"group":"dicyclic group of order 12","room_assignment":["red","purple","blue","grey","green","olive","cyan","ivory","yellow","pink","brown","orange"],"door_color_assignment":["white","black"],"door_generator_assignment":[1,0],"goal":10,"start":2,"action_noise":0.15,"location_history":"[2,6,10]","action_history":"[1,1]","door_history":"[0,0]","location_rts":"[2138,365]","trial_type":"two-door-navigation","trial_index":6,"time_elapsed":108634,"internal_node_id":"0.0-2.0-4.0"},{"group":"dicyclic group of order 12","room_assignment":["red","purple","blue","grey","green","olive","cyan","ivory","yellow","pink","brown","orange"],"door_color_assignment":["white","black"],"door_generator_assignment":[1,0],"goal":8,"start":10,"action_noise":0.15,"location_history":"[10,7,8]","action_history":"[0,0]","door_history":"[1,1]","location_rts":"[1503,786]","trial_type":"two-door-navigation","trial_index":7,"time_elapsed":116477,"internal_node_id":"0.0-2.0-5.0"},{"group":"dicyclic group of order 12","room_assignment":["red","purple","blue","grey","green","olive","cyan","ivory","yellow","pink","brown","orange"],"door_color_assignment":["white","black"],"door_generator_assignment":[1,0],"goal":11,"start":8,"action_noise":0.15,"location_history":"[8,5,9,6,10,2,3,7,11]","action_history":"[0,1,1,1,1,0,1,1]","door_history":"[1,0,0,0,0,1,0,0]","location_rts":"[1254,1033,408,362,352,364,877,336]","trial_type":"two-door-navigation","trial_index":8,"time_elapsed":133158,"internal_node_id":"0.0-2.0-6.0"},{"group":"dicyclic group of order 12","room_assignment":["red","purple","blue","grey","green","olive","cyan","ivory","yellow","pink","brown","orange"],"door_color_assignment":["white","black"],"door_generator_assignment":[1,0],"goal":6,"start":11,"action_noise":0.15,"location_history":"[11,3,7,11,4,8,5,9,6]","action_history":"[1,1,1,0,0,0,1,1]","door_history":"[0,0,0,1,1,1,0,0]","location_rts":"[3204,348,304,332,1751,2260,885,401]","trial_type":"two-door-navigation","trial_index":9,"time_elapsed":154342,"internal_node_id":"0.0-2.0-7.0"},{"group":"dicyclic group of order 12","room_assignment":["red","purple","blue","grey","green","olive","cyan","ivory","yellow","pink","brown","orange"],"door_color_assignment":["white","black"],"door_generator_assignment":[1,0],"goal":4,"start":6,"action_noise":0.15,"location_history":"[6,10,7,8,5,9,6,10,2,3,7,8,0,4]","action_history":"[0,0,0,1,1,0,1,1,0,1,0,1,1]","door_history":"[1,1,1,0,0,1,0,0,1,0,1,0,0]","location_rts":"[1676,865,791,1204,405,1032,859,344,610,1298,326,561,534]","trial_type":"two-door-navigation","trial_index":10,"time_elapsed":181657,"internal_node_id":"0.0-2.0-8.0"},{"group":"dicyclic group of order 12","room_assignment":["red","purple","blue","grey","green","olive","cyan","ivory","yellow","pink","brown","orange"],"door_color_assignment":["white","black"],"door_generator_assignment":[1,0],"goal":1,"start":4,"action_noise":0.15,"location_history":"[4,9,6,10,2,6,11,3,0,4,9,1]","action_history":"[0,0,1,1,1,1,0,1,1,0,1]","door_history":"[1,1,0,0,0,0,1,0,0,1,0]","location_rts":"[3509,2170,1095,363,353,442,2436,646,337,371,492]","trial_type":"two-door-navigation","trial_index":11,"time_elapsed":208638,"internal_node_id":"0.0-2.0-9.0"},{"group":"dicyclic group of order 12","room_assignment":["red","purple","blue","grey","green","olive","cyan","ivory","yellow","pink","brown","orange"],"door_color_assignment":["white","black"],"door_generator_assignment":[1,0],"goal":9,"start":1,"action_noise":0.15,"location_history":"[1,2,3,0,4,9]","action_history":"[0,0,1,1,0]","door_history":"[1,1,0,0,1]","location_rts":"[2505,672,1040,376,298]","trial_type":"two-door-navigation","trial_index":12,"time_elapsed":222146,"internal_node_id":"0.0-2.0-10.0"},{"group":"dicyclic group of order 12","room_assignment":["red","purple","blue","grey","green","olive","cyan","ivory","yellow","pink","brown","orange"],"door_color_assignment":["white","black"],"door_generator_assignment":[1,0],"goal":10,"start":9,"action_noise":0.15,"location_history":"[9,1,2,6,11,3,0,4,9,6,10]","action_history":"[1,1,1,0,1,1,1,0,0,1]","door_history":"[0,0,0,1,0,0,0,1,1,0]","location_rts":"[3098,331,316,355,1149,1621,379,852,1480,785]","trial_type":"two-door-navigation","trial_index":13,"time_elapsed":246238,"internal_node_id":"0.0-2.0-11.0"},{"group":"dicyclic group of order 12","room_assignment":["red","purple","blue","grey","green","olive","cyan","ivory","yellow","pink","brown","orange"],"door_color_assignment":["white","black"],"door_generator_assignment":[1,0],"goal":2,"start":10,"action_noise":0.15,"location_history":"[10,7,8,0,4,8,5,9,1,2]","action_history":"[0,0,1,1,1,0,1,1,1]","door_history":"[1,1,0,0,0,1,0,0,0]","location_rts":"[5262,723,1183,318,1048,267,1839,358,352]","trial_type":"two-door-navigation","trial_index":14,"time_elapsed":270311,"internal_node_id":"0.0-2.0-12.0"},{"group":"dicyclic group of order 12","room_assignment":["red","purple","blue","grey","green","olive","cyan","ivory","yellow","pink","brown","orange"],"door_color_assignment":["white","black"],"door_generator_assignment":[1,0],"goal":0,"start":2,"action_noise":0.15,"location_history":"[2,3,0]","action_history":"[0,0]","door_history":"[1,1]","location_rts":"[3446,948]","trial_type":"two-door-navigation","trial_index":15,"time_elapsed":280251,"internal_node_id":"0.0-2.0-13.0"},{"group":"dicyclic group of order 12","room_assignment":["red","purple","blue","grey","green","olive","cyan","ivory","yellow","pink","brown","orange"],"door_color_assignment":["white","black"],"door_generator_assignment":[1,0],"goal":9,"start":0,"action_noise":0.15,"location_history":"[0,4,9]","action_history":"[0,0]","door_history":"[1,1]","location_rts":"[1920,672]","trial_type":"two-door-navigation","trial_index":16,"time_elapsed":288395,"internal_node_id":"0.0-2.0-14.0"},{"group":"dicyclic group of order 12","room_assignment":["red","purple","blue","grey","green","olive","cyan","ivory","yellow","pink","brown","orange"],"door_color_assignment":["white","black"],"door_generator_assignment":[1,0],"goal":8,"start":9,"action_noise":0.15,"location_history":"[9,6,10,2,6,10,7,11,3,7,8]","action_history":"[0,1,1,1,1,0,1,1,1,0]","door_history":"[1,0,0,0,0,1,0,0,0,1]","location_rts":"[1658,1234,327,372,436,404,542,495,347,375]","trial_type":"two-door-navigation","trial_index":17,"time_elapsed":308319,"internal_node_id":"0.0-2.0-15.0"},{"group":"dicyclic group of order 12","room_assignment":["red","purple","blue","grey","green","olive","cyan","ivory","yellow","pink","brown","orange"],"door_color_assignment":["white","black"],"door_generator_assignment":[1,0],"goal":6,"start":8,"action_noise":0.15,"location_history":"[8,0,4,9,1,5,10,7,11,3,7,8,0,4,9,6]","action_history":"[1,1,0,1,1,0,1,1,1,1,0,1,1,0,0]","door_history":"[0,0,1,0,0,1,0,0,0,0,1,0,0,1,1]","location_rts":"[2952,304,954,836,338,819,735,379,340,368,372,360,340,726,1113]","trial_type":"two-door-navigation","trial_index":18,"time_elapsed":338125,"internal_node_id":"0.0-2.0-16.0"},{"group":"dicyclic group of order 12","room_assignment":["red","purple","blue","grey","green","olive","cyan","ivory","yellow","pink","brown","orange"],"door_color_assignment":["white","black"],"door_generator_assignment":[1,0],"goal":1,"start":6,"action_noise":0.15,"location_history":"[6,10,2,6,11,3,0,4,8,5,9,1]","action_history":"[1,1,1,0,1,1,0,1,0,1,1]","door_history":"[0,0,0,1,0,0,1,0,1,0,0]","location_rts":"[2692,541,551,373,365,421,1057,358,305,597,418]","trial_type":"two-door-navigation","trial_index":19,"time_elapsed":360559,"internal_node_id":"0.0-2.0-17.0"},{"group":"dicyclic group of order 12","room_assignment":["red","purple","blue","grey","green","olive","cyan","ivory","yellow","pink","brown","orange"],"door_color_assignment":["white","black"],"door_generator_assignment":[1,0],"goal":4,"start":1,"action_noise":0.15,"location_history":"[1,2,3,0,4]","action_history":"[0,0,0,1]","door_history":"[1,1,1,0]","location_rts":"[14212,2325,680,1037]","trial_type":"two-door-navigation","trial_index":20,"time_elapsed":386410,"internal_node_id":"0.0-2.0-18.0"},{"group":"dicyclic group of order 12","room_assignment":["red","purple","blue","grey","green","olive","cyan","ivory","yellow","pink","brown","orange"],"door_color_assignment":["white","black"],"door_generator_assignment":[1,0],"goal":11,"start":4,"action_noise":0.15,"location_history":"[4,9,6,10,2,6,11]","action_history":"[0,1,1,1,1,0]","door_history":"[1,0,0,0,0,1]","location_rts":"[1420,897,315,326,334,355]","trial_type":"two-door-navigation","trial_index":21,"time_elapsed":399708,"internal_node_id":"0.0-2.0-19.0"},{"group":"dicyclic group of order 12","room_assignment":["red","purple","blue","grey","green","olive","cyan","ivory","yellow","pink","brown","orange"],"door_color_assignment":["white","black"],"door_generator_assignment":[1,0],"goal":3,"start":11,"action_noise":0.15,"location_history":"[11,4,8,5,9,1,5,10,2,6,10,7,11,3]","action_history":"[1,1,0,1,1,1,0,1,1,1,0,1,1]","door_history":"[0,0,1,0,0,0,1,0,0,0,1,0,0]","location_rts":"[1956,344,255,631,383,352,538,417,352,389,710,488,321]","trial_type":"two-door-navigation","trial_index":22,"time_elapsed":423652,"internal_node_id":"0.0-2.0-20.0"},{"group":"dicyclic group of order 12","room_assignment":["red","purple","blue","grey","green","olive","cyan","ivory","yellow","pink","brown","orange"],"door_color_assignment":["white","black"],"door_generator_assignment":[1,0],"goal":5,"start":3,"action_noise":0.15,"location_history":"[3,7,11,3,7,8,0,4,9,6,10,2,3,7,11,3,0,1,5]","action_history":"[0,1,1,1,0,1,1,0,1,1,1,0,1,1,1,1,0,1]","door_history":"[1,0,0,0,1,0,0,1,0,0,0,1,0,0,0,0,1,0]","location_rts":"[1590,1422,416,431,1017,909,376,319,1226,414,545,331,837,373,400,418,281,686]","trial_type":"two-door-navigation","trial_index":23,"time_elapsed":457516,"internal_node_id":"0.0-2.0-21.0"},{"group":"dicyclic group of order 12","room_assignment":["red","purple","blue","grey","green","olive","cyan","ivory","yellow","pink","brown","orange"],"door_color_assignment":["white","black"],"door_generator_assignment":[1,0],"goal":7,"start":5,"action_noise":0.15,"location_history":"[5,10,2,6,10,7]","action_history":"[0,1,1,1,0]","door_history":"[1,0,0,0,1]","location_rts":"[2654,1273,399,643,356]","trial_type":"two-door-navigation","trial_index":24,"time_elapsed":471457,"internal_node_id":"0.0-2.0-22.0"},{"group":"dicyclic group of order 12","room_assignment":["red","purple","blue","grey","green","olive","cyan","ivory","yellow","pink","brown","orange"],"door_color_assignment":["white","black"],"door_generator_assignment":[1,0],"goal":3,"start":7,"action_noise":0.15,"location_history":"[7,8,5,10,2,6,10,7,11,3]","action_history":"[0,0,0,1,1,1,0,1,1]","door_history":"[1,1,1,0,0,0,1,0,0]","location_rts":"[2424,682,1388,797,342,313,831,915,260]","trial_type":"two-door-navigation","trial_index":25,"time_elapsed":492098,"internal_node_id":"0.0-2.0-23.0"},{"group":"dicyclic group of order 12","room_assignment":["red","purple","blue","grey","green","olive","cyan","ivory","yellow","pink","brown","orange"],"door_color_assignment":["white","black"],"door_generator_assignment":[1,0],"goal":4,"start":3,"action_noise":0.15,"location_history":"[3,0,4]","action_history":"[0,1]","door_history":"[1,0]","location_rts":"[1499,840]","trial_type":"two-door-navigation","trial_index":26,"time_elapsed":499990,"internal_node_id":"0.0-2.0-24.0"},{"group":"dicyclic group of order 12","room_assignment":["red","purple","blue","grey","green","olive","cyan","ivory","yellow","pink","brown","orange"],"door_color_assignment":["white","black"],"door_generator_assignment":[1,0],"goal":8,"start":4,"action_noise":0.15,"location_history":"[4,8]","action_history":"[0]","door_history":"[1]","location_rts":"[1763]","trial_type":"two-door-navigation","trial_index":27,"time_elapsed":506280,"internal_node_id":"0.0-2.0-25.0"},{"group":"dicyclic group of order 12","room_assignment":["red","purple","blue","grey","green","olive","cyan","ivory","yellow","pink","brown","orange"],"door_color_assignment":["white","black"],"door_generator_assignment":[1,0],"goal":6,"start":8,"action_noise":0.15,"location_history":"[8,5,10,2,3,7,11,3,0,1,5,9,1,5,9,1,2,3,7,8,5,9,6]","action_history":"[1,1,1,0,1,1,1,0,0,1,1,1,1,0,1,1,0,1,1,0,1,1]","door_history":"[0,0,0,1,0,0,0,1,1,0,0,0,0,1,0,0,1,0,0,1,0,0]","location_rts":"[1881,353,351,411,996,327,343,354,1093,622,455,386,423,333,460,355,490,1174,257,277,469,341]","trial_type":"two-door-navigation","trial_index":28,"time_elapsed":544443,"internal_node_id":"0.0-2.0-26.0"},{"group":"dicyclic group of order 12","room_assignment":["red","purple","blue","grey","green","olive","cyan","ivory","yellow","pink","brown","orange"],"door_color_assignment":["white","black"],"door_generator_assignment":[1,0],"goal":1,"start":6,"action_noise":0.15,"location_history":"[6,11,3,7,11,4,9,1]","action_history":"[0,1,1,1,0,0,1]","door_history":"[1,0,0,0,1,1,0]","location_rts":"[7187,1007,395,874,344,926,1055]","trial_type":"two-door-navigation","trial_index":29,"time_elapsed":566896,"internal_node_id":"0.0-2.0-27.0"},{"group":"dicyclic group of order 12","room_assignment":["red","purple","blue","grey","green","olive","cyan","ivory","yellow","pink","brown","orange"],"door_color_assignment":["white","black"],"door_generator_assignment":[1,0],"goal":5,"start":1,"action_noise":0.15,"location_history":"[1,5]","action_history":"[0]","door_history":"[1]","location_rts":"[1544]","trial_type":"two-door-navigation","trial_index":30,"time_elapsed":572965,"internal_node_id":"0.0-2.0-28.0"},{"group":"dicyclic group of order 12","room_assignment":["red","purple","blue","grey","green","olive","cyan","ivory","yellow","pink","brown","orange"],"door_color_assignment":["white","black"],"door_generator_assignment":[1,0],"goal":9,"start":5,"action_noise":0.15,"location_history":"[5,10,2,6,10,7,11,3,7,8,0,4,9]","action_history":"[0,1,1,1,0,1,1,1,0,1,0,0]","door_history":"[1,0,0,0,1,0,0,0,1,0,1,1]","location_rts":"[2335,1264,408,378,790,1038,546,958,351,602,1009,691]","trial_type":"two-door-navigation","trial_index":31,"time_elapsed":599117,"internal_node_id":"0.0-2.0-29.0"},{"group":"dicyclic group of order 12","room_assignment":["red","purple","blue","grey","green","olive","cyan","ivory","yellow","pink","brown","orange"],"door_color_assignment":["white","black"],"door_generator_assignment":[1,0],"goal":10,"start":9,"action_noise":0.15,"location_history":"[9,6,10]","action_history":"[0,1]","door_history":"[1,0]","location_rts":"[1590,1058]","trial_type":"two-door-navigation","trial_index":32,"time_elapsed":607317,"internal_node_id":"0.0-2.0-30.0"},{"group":"dicyclic group of order 12","room_assignment":["red","purple","blue","grey","green","olive","cyan","ivory","yellow","pink","brown","orange"],"door_color_assignment":["white","black"],"door_generator_assignment":[1,0],"goal":0,"start":10,"action_noise":0.15,"location_history":"[10,7,8,0]","action_history":"[0,0,1]","door_history":"[1,1,0]","location_rts":"[4490,818,1557]","trial_type":"two-door-navigation","trial_index":33,"time_elapsed":620758,"internal_node_id":"0.0-2.0-31.0"},{"group":"dicyclic group of order 12","room_assignment":["red","purple","blue","grey","green","olive","cyan","ivory","yellow","pink","brown","orange"],"door_color_assignment":["white","black"],"door_generator_assignment":[1,0],"goal":7,"start":0,"action_noise":0.15,"location_history":"[0,4,9,1,2,6,11,4,9,6,10,2,6,11,4,9,6,10,2,3,7]","action_history":"[0,0,1,1,1,1,0,0,0,1,1,1,1,0,0,0,1,1,1,1]","door_history":"[1,1,0,0,0,0,1,1,1,0,0,0,0,1,1,1,0,0,0,0]","location_rts":"[2635,736,2320,548,343,435,335,970,887,1123,437,403,454,346,870,884,709,376,435,6808]","trial_type":"two-door-navigation","trial_index":34,"time_elapsed":666780,"internal_node_id":"0.0-2.0-32.0"},{"group":"dicyclic group of order 12","room_assignment":["red","purple","blue","grey","green","olive","cyan","ivory","yellow","pink","brown","orange"],"door_color_assignment":["white","black"],"door_generator_assignment":[1,0],"goal":11,"start":7,"action_noise":0.15,"location_history":"[7,8,0,1,2,6,11]","action_history":"[0,1,0,1,1,1]","door_history":"[1,0,1,0,0,0]","location_rts":"[7760,1322,1062,759,333,306]","trial_type":"two-door-navigation","trial_index":35,"time_elapsed":687975,"internal_node_id":"0.0-2.0-33.0"},{"group":"dicyclic group of order 12","room_assignment":["red","purple","blue","grey","green","olive","cyan","ivory","yellow","pink","brown","orange"],"door_color_assignment":["white","black"],"door_generator_assignment":[1,0],"goal":2,"start":11,"action_noise":0.15,"location_history":"[11,4,9,1,5,9,6,11,3,0,4,9,6,10,2]","action_history":"[0,0,1,1,1,0,0,1,1,1,0,0,1,1]","door_history":"[1,1,0,0,0,1,1,0,0,0,1,1,0,0]","location_rts":"[2128,828,1299,391,389,668,2056,1663,342,392,435,1301,1041,373]","trial_type":"two-door-navigation","trial_index":36,"time_elapsed":719114,"internal_node_id":"0.0-2.0-34.0"},{"view_history":"[{\"page_index\":0,\"viewing_time\":154915}]","rt":154915,"trial_type":"instructions","trial_index":37,"time_elapsed":875030,"internal_node_id":"0.0-3.0"},{"view_history":"[{\"page_index\":0,\"viewing_time\":3076},{\"page_index\":1,\"viewing_time\":5164}]","rt":8240,"trial_type":"instructions","trial_index":38,"time_elapsed":884272,"internal_node_id":"0.0-4.0"},{"group":"dihedral group of order 12","fractal_assignment":["../images/gry_blk.png","../images/org_blu.png","../images/cyn_red.png","../images/ylw_slt.png","../images/blu_wht.png","../images/red_prp.png","../images/pnk_blu.png","../images/ylw_pnk.png","../images/grn_red.png","../images/wht_red.png","../images/grn_blu.png","../images/grn_prp.png"],"mutagen_generator_assignment":[0,1],"goal":7,"start":3,"action_noise":0.15,"location_history":"[3,4,10,9,8,7]","action_history":"[0,0,0,0,0]","mutagen_history":"[0,0,0,0,0]","location_rts":"[11519,452,425,452,575]","trial_type":"fractal-mutation","trial_index":39,"time_elapsed":906361,"internal_node_id":"0.0-5.0-0.0"},{"group":"dihedral group of order 12","fractal_assignment":["../images/gry_blk.png","../images/org_blu.png","../images/cyn_red.png","../images/ylw_slt.png","../images/blu_wht.png","../images/red_prp.png","../images/pnk_blu.png","../images/ylw_pnk.png","../images/grn_red.png","../images/wht_red.png","../images/grn_blu.png","../images/grn_prp.png"],"mutagen_generator_assignment":[0,1],"goal":5,"start":7,"action_noise":0.15,"location_history":"[7,6,11,10,4,5]","action_history":"[0,0,0,0,0]","mutagen_history":"[0,0,0,0,0]","location_rts":"[1181,438,424,446,617]","trial_type":"fractal-mutation","trial_index":40,"time_elapsed":918121,"internal_node_id":"0.0-5.0-1.0"},{"group":"dihedral group of order 12","fractal_assignment":["../images/gry_blk.png","../images/org_blu.png","../images/cyn_red.png","../images/ylw_slt.png","../images/blu_wht.png","../images/red_prp.png","../images/pnk_blu.png","../images/ylw_pnk.png","../images/grn_red.png","../images/wht_red.png","../images/grn_blu.png","../images/grn_prp.png"],"mutagen_generator_assignment":[0,1],"goal":0,"start":5,"action_noise":0.15,"location_history":"[5,0]","action_history":"[0]","mutagen_history":"[0]","location_rts":"[1174]","trial_type":"fractal-mutation","trial_index":41,"time_elapsed":923828,"internal_node_id":"0.0-5.0-2.0"},{"group":"dihedral group of order 12","fractal_assignment":["../images/gry_blk.png","../images/org_blu.png","../images/cyn_red.png","../images/ylw_slt.png","../images/blu_wht.png","../images/red_prp.png","../images/pnk_blu.png","../images/ylw_pnk.png","../images/grn_red.png","../images/wht_red.png","../images/grn_blu.png","../images/grn_prp.png"],"mutagen_generator_assignment":[0,1],"goal":2,"start":0,"action_noise":0.15,"location_history":"[0,1,7,6,11,10,9,8,7,6,11,5,0,1,2]","action_history":"[0,0,0,0,0,0,0,0,0,0,0,0,1,0]","mutagen_history":"[0,0,0,0,0,0,0,0,0,0,0,0,1,0]","location_rts":"[869,499,509,440,495,488,466,663,548,684,636,810,1044,799]","trial_type":"fractal-mutation","trial_index":42,"time_elapsed":950903,"internal_node_id":"0.0-5.0-3.0"},{"group":"dihedral group of order 12","fractal_assignment":["../images/gry_blk.png","../images/org_blu.png","../images/cyn_red.png","../images/ylw_slt.png","../images/blu_wht.png","../images/red_prp.png","../images/pnk_blu.png","../images/ylw_pnk.png","../images/grn_red.png","../images/wht_red.png","../images/grn_blu.png","../images/grn_prp.png"],"mutagen_generator_assignment":[0,1],"goal":10,"start":2,"action_noise":0.15,"location_history":"[2,3,4,5,0,1,2,8,7,6,11,10]","action_history":"[1,0,0,0,0,0,1,0,0,0,0]","mutagen_history":"[1,0,0,0,0,0,1,0,0,0,0]","location_rts":"[4277,1054,602,472,420,418,970,940,538,469,510]","trial_type":"fractal-mutation","trial_index":43,"time_elapsed":977484,"internal_node_id":"0.0-5.0-4.0"},{"group":"dihedral group of order 12","fractal_assignment":["../images/gry_blk.png","../images/org_blu.png","../images/cyn_red.png","../images/ylw_slt.png","../images/blu_wht.png","../images/red_prp.png","../images/pnk_blu.png","../images/ylw_pnk.png","../images/grn_red.png","../images/wht_red.png","../images/grn_blu.png","../images/grn_prp.png"],"mutagen_generator_assignment":[0,1],"goal":8,"start":10,"action_noise":0.15,"location_history":"[10,9,8]","action_history":"[0,0]","mutagen_history":"[0,0]","location_rts":"[1399,452]","trial_type":"fractal-mutation","trial_index":44,"time_elapsed":984901,"internal_node_id":"0.0-5.0-5.0"},{"group":"dihedral group of order 12","fractal_assignment":["../images/gry_blk.png","../images/org_blu.png","../images/cyn_red.png","../images/ylw_slt.png","../images/blu_wht.png","../images/red_prp.png","../images/pnk_blu.png","../images/ylw_pnk.png","../images/grn_red.png","../images/wht_red.png","../images/grn_blu.png","../images/grn_prp.png"],"mutagen_generator_assignment":[0,1],"goal":11,"start":8,"action_noise":0.15,"location_history":"[8,7,6,11]","action_history":"[0,0,0]","mutagen_history":"[0,0,0]","location_rts":"[1369,358,573]","trial_type":"fractal-mutation","trial_index":45,"time_elapsed":993796,"internal_node_id":"0.0-5.0-6.0"},{"group":"dihedral group of order 12","fractal_assignment":["../images/gry_blk.png","../images/org_blu.png","../images/cyn_red.png","../images/ylw_slt.png","../images/blu_wht.png","../images/red_prp.png","../images/pnk_blu.png","../images/ylw_pnk.png","../images/grn_red.png","../images/wht_red.png","../images/grn_blu.png","../images/grn_prp.png"],"mutagen_generator_assignment":[0,1],"goal":6,"start":11,"action_noise":0.15,"location_history":"[11,10,9,8,2,8,7,6]","action_history":"[0,0,0,0,0,0,0]","mutagen_history":"[0,0,0,0,0,0,0]","location_rts":"[1373,362,348,366,521,449,412]","trial_type":"fractal-mutation","trial_index":46,"time_elapsed":1008329,"internal_node_id":"0.0-5.0-7.0"},{"group":"dihedral group of order 12","fractal_assignment":["../images/gry_blk.png","../images/org_blu.png","../images/cyn_red.png","../images/ylw_slt.png","../images/blu_wht.png","../images/red_prp.png","../images/pnk_blu.png","../images/ylw_pnk.png","../images/grn_red.png","../images/wht_red.png","../images/grn_blu.png","../images/grn_prp.png"],"mutagen_generator_assignment":[0,1],"goal":4,"start":6,"action_noise":0.15,"location_history":"[6,11,10,9,8,7,6,11,10,4]","action_history":"[0,0,0,0,0,0,0,0,0]","mutagen_history":"[0,0,0,0,0,0,0,0,0]","location_rts":"[1420,447,478,416,469,542,650,584,657]","trial_type":"fractal-mutation","trial_index":47,"time_elapsed":1026764,"internal_node_id":"0.0-5.0-8.0"},{"group":"dihedral group of order 12","fractal_assignment":["../images/gry_blk.png","../images/org_blu.png","../images/cyn_red.png","../images/ylw_slt.png","../images/blu_wht.png","../images/red_prp.png","../images/pnk_blu.png","../images/ylw_pnk.png","../images/grn_red.png","../images/wht_red.png","../images/grn_blu.png","../images/grn_prp.png"],"mutagen_generator_assignment":[0,1],"goal":1,"start":4,"action_noise":0.15,"location_history":"[4,5,11,10,9,8,7,1]","action_history":"[0,0,0,0,0,0,0]","mutagen_history":"[0,0,0,0,0,0,0]","location_rts":"[2195,908,627,433,521,449,525]","trial_type":"fractal-mutation","trial_index":48,"time_elapsed":1043126,"internal_node_id":"0.0-5.0-9.0"},{"group":"dihedral group of order 12","fractal_assignment":["../images/gry_blk.png","../images/org_blu.png","../images/cyn_red.png","../images/ylw_slt.png","../images/blu_wht.png","../images/red_prp.png","../images/pnk_blu.png","../images/ylw_pnk.png","../images/grn_red.png","../images/wht_red.png","../images/grn_blu.png","../images/grn_prp.png"],"mutagen_generator_assignment":[0,1],"goal":9,"start":1,"action_noise":0.15,"location_history":"[1,2,3,4,5,0,1,2,3,9]","action_history":"[0,0,0,0,0,0,0,0,0]","mutagen_history":"[0,0,0,0,0,0,0,0,0]","location_rts":"[1086,536,545,636,533,452,511,436,484]","trial_type":"fractal-mutation","trial_index":49,"time_elapsed":1061121,"internal_node_id":"0.0-5.0-10.0"},{"group":"dihedral group of order 12","fractal_assignment":["../images/gry_blk.png","../images/org_blu.png","../images/cyn_red.png","../images/ylw_slt.png","../images/blu_wht.png","../images/red_prp.png","../images/pnk_blu.png","../images/ylw_pnk.png","../images/grn_red.png","../images/wht_red.png","../images/grn_blu.png","../images/grn_prp.png"],"mutagen_generator_assignment":[0,1],"goal":10,"start":9,"action_noise":0.15,"location_history":"[9,8,7,6,11,10]","action_history":"[0,0,0,0,0]","mutagen_history":"[0,0,0,0,0]","location_rts":"[1243,452,505,469,489]","trial_type":"fractal-mutation","trial_index":50,"time_elapsed":1072924,"internal_node_id":"0.0-5.0-11.0"},{"group":"dihedral group of order 12","fractal_assignment":["../images/gry_blk.png","../images/org_blu.png","../images/cyn_red.png","../images/ylw_slt.png","../images/blu_wht.png","../images/red_prp.png","../images/pnk_blu.png","../images/ylw_pnk.png","../images/grn_red.png","../images/wht_red.png","../images/grn_blu.png","../images/grn_prp.png"],"mutagen_generator_assignment":[0,1],"goal":2,"start":10,"action_noise":0.15,"location_history":"[10,9,8,7,1,2]","action_history":"[0,0,0,0,0]","mutagen_history":"[0,0,0,0,0]","location_rts":"[1011,387,506,330,508]","trial_type":"fractal-mutation","trial_index":51,"time_elapsed":1084306,"internal_node_id":"0.0-5.0-12.0"},{"group":"dihedral group of order 12","fractal_assignment":["../images/gry_blk.png","../images/org_blu.png","../images/cyn_red.png","../images/ylw_slt.png","../images/blu_wht.png","../images/red_prp.png","../images/pnk_blu.png","../images/ylw_pnk.png","../images/grn_red.png","../images/wht_red.png","../images/grn_blu.png","../images/grn_prp.png"],"mutagen_generator_assignment":[0,1],"goal":0,"start":2,"action_noise":0.15,"location_history":"[2,3,4,5,0]","action_history":"[0,0,0,0]","mutagen_history":"[0,0,0,0]","location_rts":"[1081,421,434,381]","trial_type":"fractal-mutation","trial_index":52,"time_elapsed":1094238,"internal_node_id":"0.0-5.0-13.0"},{"group":"dihedral group of order 12","fractal_assignment":["../images/gry_blk.png","../images/org_blu.png","../images/cyn_red.png","../images/ylw_slt.png","../images/blu_wht.png","../images/red_prp.png","../images/pnk_blu.png","../images/ylw_pnk.png","../images/grn_red.png","../images/wht_red.png","../images/grn_blu.png","../images/grn_prp.png"],"mutagen_generator_assignment":[0,1],"goal":9,"start":0,"action_noise":0.15,"location_history":"[0,1,2,3,4,5,11,5,0,1,2,3,4,5,11,10,4,5,0,6,11,10,9]","action_history":"[0,0,0,0,0,0,0,0,0,0,0,0,0,0,0,0,0,0,1,0,0,0]","mutagen_history":"[0,0,0,0,0,0,0,0,0,0,0,0,0,0,0,0,0,0,1,0,0,0]","location_rts":"[946,486,386,437,403,501,424,403,428,426,415,424,584,479,419,454,846,443,674,490,436,473]","trial_type":"fractal-mutation","trial_index":53,"time_elapsed":1131753,"internal_node_id":"0.0-5.0-14.0"},{"group":"dihedral group of order 12","fractal_assignment":["../images/gry_blk.png","../images/org_blu.png","../images/cyn_red.png","../images/ylw_slt.png","../images/blu_wht.png","../images/red_prp.png","../images/pnk_blu.png","../images/ylw_pnk.png","../images/grn_red.png","../images/wht_red.png","../images/grn_blu.png","../images/grn_prp.png"],"mutagen_generator_assignment":[0,1],"goal":8,"start":9,"action_noise":0.15,"location_history":"[9,8]","action_history":"[0]","mutagen_history":"[0]","location_rts":"[1232]","trial_type":"fractal-mutation","trial_index":54,"time_elapsed":1137523,"internal_node_id":"0.0-5.0-15.0"},{"group":"dihedral group of order 12","fractal_assignment":["../images/gry_blk.png","../images/org_blu.png","../images/cyn_red.png","../images/ylw_slt.png","../images/blu_wht.png","../images/red_prp.png","../images/pnk_blu.png","../images/ylw_pnk.png","../images/grn_red.png","../images/wht_red.png","../images/grn_blu.png","../images/grn_prp.png"],"mutagen_generator_assignment":[0,1],"goal":6,"start":8,"action_noise":0.15,"location_history":"[8,7,6]","action_history":"[0,0]","mutagen_history":"[0,0]","location_rts":"[1525,341]","trial_type":"fractal-mutation","trial_index":55,"time_elapsed":1144954,"internal_node_id":"0.0-5.0-16.0"},{"group":"dihedral group of order 12","fractal_assignment":["../images/gry_blk.png","../images/org_blu.png","../images/cyn_red.png","../images/ylw_slt.png","../images/blu_wht.png","../images/red_prp.png","../images/pnk_blu.png","../images/ylw_pnk.png","../images/grn_red.png","../images/wht_red.png","../images/grn_blu.png","../images/grn_prp.png"],"mutagen_generator_assignment":[0,1],"goal":1,"start":6,"action_noise":0.15,"location_history":"[6,0,1]","action_history":"[0,0]","mutagen_history":"[0,0]","location_rts":"[917,419]","trial_type":"fractal-mutation","trial_index":56,"time_elapsed":1151860,"internal_node_id":"0.0-5.0-17.0"},{"group":"dihedral group of order 12","fractal_assignment":["../images/gry_blk.png","../images/org_blu.png","../images/cyn_red.png","../images/ylw_slt.png","../images/blu_wht.png","../images/red_prp.png","../images/pnk_blu.png","../images/ylw_pnk.png","../images/grn_red.png","../images/wht_red.png","../images/grn_blu.png","../images/grn_prp.png"],"mutagen_generator_assignment":[0,1],"goal":4,"start":1,"action_noise":0.15,"location_history":"[1,2,3,4]","action_history":"[0,0,0]","mutagen_history":"[0,0,0]","location_rts":"[1021,409,374]","trial_type":"fractal-mutation","trial_index":57,"time_elapsed":1160267,"internal_node_id":"0.0-5.0-18.0"},{"group":"dihedral group of order 12","fractal_assignment":["../images/gry_blk.png","../images/org_blu.png","../images/cyn_red.png","../images/ylw_slt.png","../images/blu_wht.png","../images/red_prp.png","../images/pnk_blu.png","../images/ylw_pnk.png","../images/grn_red.png","../images/wht_red.png","../images/grn_blu.png","../images/grn_prp.png"],"mutagen_generator_assignment":[0,1],"goal":11,"start":4,"action_noise":0.15,"location_history":"[4,5,0,1,2,3,4,5,0,1,2,3,4,10,9,8,7,6,11]","action_history":"[0,0,0,0,0,0,0,0,0,0,0,0,0,0,0,0,0,0]","mutagen_history":"[0,0,0,0,0,0,0,0,0,0,0,0,0,0,0,0,0,0]","location_rts":"[646,427,611,370,398,404,386,391,815,382,431,466,568,460,455,462,460,532]","trial_type":"fractal-mutation","trial_index":58,"time_elapsed":1190966,"internal_node_id":"0.0-5.0-19.0"},{"group":"dihedral group of order 12","fractal_assignment":["../images/gry_blk.png","../images/org_blu.png","../images/cyn_red.png","../images/ylw_slt.png","../images/blu_wht.png","../images/red_prp.png","../images/pnk_blu.png","../images/ylw_pnk.png","../images/grn_red.png","../images/wht_red.png","../images/grn_blu.png","../images/grn_prp.png"],"mutagen_generator_assignment":[0,1],"goal":3,"start":11,"action_noise":0.15,"location_history":"[11,10,9,3]","action_history":"[0,0,0]","mutagen_history":"[0,0,0]","location_rts":"[886,435,410]","trial_type":"fractal-mutation","trial_index":59,"time_elapsed":1199296,"internal_node_id":"0.0-5.0-20.0"},{"group":"dihedral group of order 12","fractal_assignment":["../images/gry_blk.png","../images/org_blu.png","../images/cyn_red.png","../images/ylw_slt.png","../images/blu_wht.png","../images/red_prp.png","../images/pnk_blu.png","../images/ylw_pnk.png","../images/grn_red.png","../images/wht_red.png","../images/grn_blu.png","../images/grn_prp.png"],"mutagen_generator_assignment":[0,1],"goal":5,"start":3,"action_noise":0.15,"location_history":"[3,4,5]","action_history":"[0,0]","mutagen_history":"[0,0]","location_rts":"[818,393]","trial_type":"fractal-mutation","trial_index":60,"time_elapsed":1206072,"internal_node_id":"0.0-5.0-21.0"},{"group":"dihedral group of order 12","fractal_assignment":["../images/gry_blk.png","../images/org_blu.png","../images/cyn_red.png","../images/ylw_slt.png","../images/blu_wht.png","../images/red_prp.png","../images/pnk_blu.png","../images/ylw_pnk.png","../images/grn_red.png","../images/wht_red.png","../images/grn_blu.png","../images/grn_prp.png"],"mutagen_generator_assignment":[0,1],"goal":7,"start":5,"action_noise":0.15,"location_history":"[5,0,1,7]","action_history":"[0,0,0]","mutagen_history":"[0,0,0]","location_rts":"[771,575,440]","trial_type":"fractal-mutation","trial_index":61,"time_elapsed":1214453,"internal_node_id":"0.0-5.0-22.0"},{"group":"dihedral group of order 12","fractal_assignment":["../images/gry_blk.png","../images/org_blu.png","../images/cyn_red.png","../images/ylw_slt.png","../images/blu_wht.png","../images/red_prp.png","../images/pnk_blu.png","../images/ylw_pnk.png","../images/grn_red.png","../images/wht_red.png","../images/grn_blu.png","../images/grn_prp.png"],"mutagen_generator_assignment":[0,1],"goal":3,"start":7,"action_noise":0.15,"location_history":"[7,6,11,10,4,5,0,1,2,3]","action_history":"[0,0,0,0,0,0,0,0,0]","mutagen_history":"[0,0,0,0,0,0,0,0,0]","location_rts":"[708,406,415,435,537,465,572,394,482]","trial_type":"fractal-mutation","trial_index":62,"time_elapsed":1231646,"internal_node_id":"0.0-5.0-23.0"},{"group":"dihedral group of order 12","fractal_assignment":["../images/gry_blk.png","../images/org_blu.png","../images/cyn_red.png","../images/ylw_slt.png","../images/blu_wht.png","../images/red_prp.png","../images/pnk_blu.png","../images/ylw_pnk.png","../images/grn_red.png","../images/wht_red.png","../images/grn_blu.png","../images/grn_prp.png"],"mutagen_generator_assignment":[0,1],"goal":4,"start":3,"action_noise":0.15,"location_history":"[3,4]","action_history":"[0]","mutagen_history":"[0]","location_rts":"[944]","trial_type":"fractal-mutation","trial_index":63,"time_elapsed":1237123,"internal_node_id":"0.0-5.0-24.0"},{"group":"dihedral group of order 12","fractal_assignment":["../images/gry_blk.png","../images/org_blu.png","../images/cyn_red.png","../images/ylw_slt.png","../images/blu_wht.png","../images/red_prp.png","../images/pnk_blu.png","../images/ylw_pnk.png","../images/grn_red.png","../images/wht_red.png","../images/grn_blu.png","../images/grn_prp.png"],"mutagen_generator_assignment":[0,1],"goal":8,"start":4,"action_noise":0.15,"location_history":"[4,5,0,1,2,3,4,5,11,10,9,8]","action_history":"[0,0,0,0,0,0,0,0,0,0,0]","mutagen_history":"[0,0,0,0,0,0,0,0,0,0,0]","location_rts":"[706,434,419,396,494,446,481,447,493,525,467]","trial_type":"fractal-mutation","trial_index":64,"time_elapsed":1257238,"internal_node_id":"0.0-5.0-25.0"},{"group":"dihedral group of order 12","fractal_assignment":["../images/gry_blk.png","../images/org_blu.png","../images/cyn_red.png","../images/ylw_slt.png","../images/blu_wht.png","../images/red_prp.png","../images/pnk_blu.png","../images/ylw_pnk.png","../images/grn_red.png","../images/wht_red.png","../images/grn_blu.png","../images/grn_prp.png"],"mutagen_generator_assignment":[0,1],"goal":6,"start":8,"action_noise":0.15,"location_history":"[8,2,3,9,8,7,6]","action_history":"[0,0,0,0,0,0]","mutagen_history":"[0,0,0,0,0,0]","location_rts":"[1433,483,405,405,1265,424]","trial_type":"fractal-mutation","trial_index":65,"time_elapsed":1271326,"internal_node_id":"0.0-5.0-26.0"},{"group":"dihedral group of order 12","fractal_assignment":["../images/gry_blk.png","../images/org_blu.png","../images/cyn_red.png","../images/ylw_slt.png","../images/blu_wht.png","../images/red_prp.png","../images/pnk_blu.png","../images/ylw_pnk.png","../images/grn_red.png","../images/wht_red.png","../images/grn_blu.png","../images/grn_prp.png"],"mutagen_generator_assignment":[0,1],"goal":1,"start":6,"action_noise":0.15,"location_history":"[6,11,10,9,8,7,6,11,10,9,8,7,1]","action_history":"[0,0,0,0,0,0,0,0,0,0,1,0]","mutagen_history":"[0,0,0,0,0,0,0,0,0,0,1,0]","location_rts":"[874,424,417,565,656,434,437,471,454,698,978,677]","trial_type":"fractal-mutation","trial_index":66,"time_elapsed":1294512,"internal_node_id":"0.0-5.0-27.0"},{"group":"dihedral group of order 12","fractal_assignment":["../images/gry_blk.png","../images/org_blu.png","../images/cyn_red.png","../images/ylw_slt.png","../images/blu_wht.png","../images/red_prp.png","../images/pnk_blu.png","../images/ylw_pnk.png","../images/grn_red.png","../images/wht_red.png","../images/grn_blu.png","../images/grn_prp.png"],"mutagen_generator_assignment":[0,1],"goal":5,"start":1,"action_noise":0.15,"location_history":"[1,2,3,9,8,7,1,2,3,9,8,7,1,2,3,4,5]","action_history":"[0,0,0,0,0,0,0,1,0,0,0,0,0,0,0,0]","mutagen_history":"[0,0,0,0,0,0,0,1,0,0,0,0,0,0,0,0]","location_rts":"[1680,473,461,690,891,477,1044,963,500,477,469,544,841,606,698,839]","trial_type":"fractal-mutation","trial_index":67,"time_elapsed":1326859,"internal_node_id":"0.0-5.0-28.0"},{"group":"dihedral group of order 12","fractal_assignment":["../images/gry_blk.png","../images/org_blu.png","../images/cyn_red.png","../images/ylw_slt.png","../images/blu_wht.png","../images/red_prp.png","../images/pnk_blu.png","../images/ylw_pnk.png","../images/grn_red.png","../images/wht_red.png","../images/grn_blu.png","../images/grn_prp.png"],"mutagen_generator_assignment":[0,1],"goal":9,"start":5,"action_noise":0.15,"location_history":"[5,0,1,2,3,4,10,9]","action_history":"[0,0,0,0,0,0,0]","mutagen_history":"[0,0,0,0,0,0,0]","location_rts":"[1354,723,533,421,437,547,441]","trial_type":"fractal-mutation","trial_index":68,"time_elapsed":1342008,"internal_node_id":"0.0-5.0-29.0"},{"group":"dihedral group of order 12","fractal_assignment":["../images/gry_blk.png","../images/org_blu.png","../images/cyn_red.png","../images/ylw_slt.png","../images/blu_wht.png","../images/red_prp.png","../images/pnk_blu.png","../images/ylw_pnk.png","../images/grn_red.png","../images/wht_red.png","../images/grn_blu.png","../images/grn_prp.png"],"mutagen_generator_assignment":[0,1],"goal":10,"start":9,"action_noise":0.15,"location_history":"[9,8,7,6,11,10]","action_history":"[0,0,0,0,0]","mutagen_history":"[0,0,0,0,0]","location_rts":"[721,459,389,427,442]","trial_type":"fractal-mutation","trial_index":69,"time_elapsed":1353085,"internal_node_id":"0.0-5.0-30.0"},{"group":"dihedral group of order 12","fractal_assignment":["../images/gry_blk.png","../images/org_blu.png","../images/cyn_red.png","../images/ylw_slt.png","../images/blu_wht.png","../images/red_prp.png","../images/pnk_blu.png","../images/ylw_pnk.png","../images/grn_red.png","../images/wht_red.png","../images/grn_blu.png","../images/grn_prp.png"],"mutagen_generator_assignment":[0,1],"goal":0,"start":10,"action_noise":0.15,"location_history":"[10,9,8,2,3,4,10,4,10,9,3,4,5,0]","action_history":"[0,0,0,0,0,0,0,0,0,0,0,0,0]","mutagen_history":"[0,0,0,0,0,0,0,0,0,0,0,0,0]","location_rts":"[712,468,427,391,398,470,382,502,457,401,357,530,401]","trial_type":"fractal-mutation","trial_index":70,"time_elapsed":1375843,"internal_node_id":"0.0-5.0-31.0"},{"group":"dihedral group of order 12","fractal_assignment":["../images/gry_blk.png","../images/org_blu.png","../images/cyn_red.png","../images/ylw_slt.png","../images/blu_wht.png","../images/red_prp.png","../images/pnk_blu.png","../images/ylw_pnk.png","../images/grn_red.png","../images/wht_red.png","../images/grn_blu.png","../images/grn_prp.png"],"mutagen_generator_assignment":[0,1],"goal":7,"start":0,"action_noise":0.15,"location_history":"[0,1,2,3,4,5,0,1,2,3,4,5,11,10,9,8,7]","action_history":"[0,0,0,0,0,0,0,0,0,0,0,0,0,0,0,0]","mutagen_history":"[0,0,0,0,0,0,0,0,0,0,0,0,0,0,0,0]","location_rts":"[797,541,418,418,529,545,429,471,421,399,420,591,869,473,748,932]","trial_type":"fractal-mutation","trial_index":71,"time_elapsed":1404787,"internal_node_id":"0.0-5.0-32.0"},{"group":"dihedral group of order 12","fractal_assignment":["../images/gry_blk.png","../images/org_blu.png","../images/cyn_red.png","../images/ylw_slt.png","../images/blu_wht.png","../images/red_prp.png","../images/pnk_blu.png","../images/ylw_pnk.png","../images/grn_red.png","../images/wht_red.png","../images/grn_blu.png","../images/grn_prp.png"],"mutagen_generator_assignment":[0,1],"goal":11,"start":7,"action_noise":0.15,"location_history":"[7,6,11]","action_history":"[0,0]","mutagen_history":"[0,0]","location_rts":"[698,441]","trial_type":"fractal-mutation","trial_index":72,"time_elapsed":1411486,"internal_node_id":"0.0-5.0-33.0"},{"group":"dihedral group of order 12","fractal_assignment":["../images/gry_blk.png","../images/org_blu.png","../images/cyn_red.png","../images/ylw_slt.png","../images/blu_wht.png","../images/red_prp.png","../images/pnk_blu.png","../images/ylw_pnk.png","../images/grn_red.png","../images/wht_red.png","../images/grn_blu.png","../images/grn_prp.png"],"mutagen_generator_assignment":[0,1],"goal":2,"start":11,"action_noise":0.15,"location_history":"[11,10,9,8,7,6,11,10,9,8,7,6,11,10,9,8,7,6,11,5,0,1,7,6,0,6,11,10,9,8,7,6,0,1,2]","action_history":"[0,0,0,0,0,0,0,0,0,0,0,0,0,0,0,0,0,0,0,0,0,0,0,0,1,0,0,0,0,0,0,0,0,0]","mutagen_history":"[0,0,0,0,0,0,0,0,0,0,0,0,0,0,0,0,0,0,0,0,0,0,0,0,1,0,0,0,0,0,0,0,0,0]","location_rts":"[673,365,440,445,393,436,491,445,373,445,390,385,481,773,411,559,513,515,738,514,646,484,505,489,877,477,529,512,362,610,433,442,529,428]","trial_type":"fractal-mutation","trial_index":73,"time_elapsed":1467947,"internal_node_id":"0.0-5.0-34.0"},{"view_history":"[{\"page_index\":0,\"viewing_time\":3475}]","rt":3475,"trial_type":"instructions","trial_index":74,"time_elapsed":1472424,"internal_node_id":"0.0-6.0"},{"rt":22884,"responses":"{\"Q0\":\"Remembering patterns\"}","trial_type":"survey-text","trial_index":75,"time_elapsed":1496316,"internal_node_id":"0.0-7.0-0.0"},{"rt":40149,"responses":"{\"Q0\":\"Learning via trial by fire\"}","trial_type":"survey-text","trial_index":76,"time_elapsed":1537470,"internal_node_id":"0.0-7.0-1.0"},{"rt":9899,"responses":"{\"Q0\":\"1\"}","trial_type":"survey-likert","trial_index":77,"time_elapsed":1548376,"internal_node_id":"0.0-7.0-2.0"},{"rt":66627,"responses":"{\"Q0\":\"I did not notice any similarities between the two experiments\"}","trial_type":"survey-text","trial_index":78,"time_elapsed":1616006,"internal_node_id":"0.0-7.0-3.0"},{"rt":5431,"responses":"{\"Q0\":\"No\"}","trial_type":"survey-multi-choice","trial_index":79,"time_elapsed":1622445,"internal_node_id":"0.0-7.0-4.0"},{"rt":8951,"responses":"{\"Q0\":\"Did not notice\"}","trial_type":"survey-multi-choice","trial_index":80,"time_elapsed":1632405,"internal_node_id":"0.0-7.0-5.0"},{"rt":4176,"responses":"{\"Q0\":\"\"}","trial_type":"survey-text","trial_index":81,"time_elapsed":1637584,"internal_node_id":"0.0-7.0-6.0"},{"rt":5764,"responses":"{\"Q0\":\"0\"}","trial_type":"survey-likert","trial_index":82,"time_elapsed":1644350,"internal_node_id":"0.0-7.0-7.0"},{"rt":9120,"responses":"{\"Q0\":\"Different structure\"}","trial_type":"survey-multi-choice","trial_index":83,"time_elapsed":1654474,"internal_node_id":"0.0-7.0-8.0"},{"rt":33107,"responses":"{\"Q0\":\"white door = acid, black door = ray\",\"Q1\":\"Completely confident\"}","trial_type":"survey-multi-choice","trial_index":84,"time_elapsed":1688593,"internal_node_id":"0.0-7.0-9.0"},{"rt":12048,"responses":"{\"Q0\":\"25-35\",\"Q1\":\"High school degree or GED\",\"Q2\":\"Male\",\"Q3\":\"Black or African American\"}","trial_type":"survey-multi-choice","trial_index":85,"time_elapsed":1701655,"internal_node_id":"0.0-8.0"},{"rt":77546,"responses":"{\"Q0\":\"I have no additional comments\"}","trial_type":"survey-text","trial_index":86,"time_elapsed":1780204,"internal_node_id":"0.0-9.0"}]