[{"view_history":"[{\"page_index\":0,\"viewing_time\":698964},{\"page_index\":1,\"viewing_time\":6479}]","rt":705444,"trial_type":"instructions","trial_index":0,"time_elapsed":705444,"internal_node_id":"0.0-0.0"},{"view_history":"[{\"page_index\":0,\"viewing_time\":1529},{\"page_index\":1,\"viewing_time\":3720}]","rt":5249,"trial_type":"instructions","trial_index":1,"time_elapsed":711695,"internal_node_id":"0.0-1.0"},{"group":"dicyclic group of order 12","room_assignment":["purple","ivory","grey","brown","green","cyan","orange","olive","red","pink","blue","yellow"],"door_color_assignment":["white","black"],"door_generator_assignment":[0,1],"goal":7,"start":3,"action_noise":0.15,"location_history":"[3,0,1,5,10,7]","action_history":"[0,0,1,0,0]","door_history":"[0,0,1,0,0]","location_rts":"[4254,967,2517,519,1097]","trial_type":"two-door-navigation","trial_index":2,"time_elapsed":729670,"internal_node_id":"0.0-2.0-0.0"},{"group":"dicyclic group of order 12","room_assignment":["purple","ivory","grey","brown","green","cyan","orange","olive","red","pink","blue","yellow"],"door_color_assignment":["white","black"],"door_generator_assignment":[0,1],"goal":5,"start":7,"action_noise":0.15,"location_history":"[7,11,4,8,5]","action_history":"[1,0,0,0]","door_history":"[1,0,0,0]","location_rts":"[1731,642,472,322]","trial_type":"two-door-navigation","trial_index":3,"time_elapsed":740420,"internal_node_id":"0.0-2.0-1.0"},{"group":"dicyclic group of order 12","room_assignment":["purple","ivory","grey","brown","green","cyan","orange","olive","red","pink","blue","yellow"],"door_color_assignment":["white","black"],"door_generator_assignment":[0,1],"goal":0,"start":5,"action_noise":0.15,"location_history":"[5,9,6,11,4,9,6,11,4,9,1,2,3,7,8,5,9,6,11,4,9,6,11,4,9,1,2,3,7,11,3,7,11,3,7,8,0]","action_history":"[1,0,0,0,0,0,0,0,0,1,0,1,1,0,0,1,0,0,0,1,0,1,0,0,0,1,1,1,1,1,1,1,1,0,0,1]","door_history":"[1,0,0,0,0,0,0,0,0,1,0,1,1,0,0,1,0,0,0,1,0,1,0,0,0,1,1,1,1,1,1,1,1,0,0,1]","location_rts":"[1136,476,322,366,450,410,387,493,522,1015,424,781,586,1211,2172,2116,749,430,690,720,621,654,546,435,454,427,484,456,311,384,379,387,392,841,346,510]","trial_type":"two-door-navigation","trial_index":4,"time_elapsed":803712,"internal_node_id":"0.0-2.0-2.0"},{"group":"dicyclic group of order 12","room_assignment":["purple","ivory","grey","brown","green","cyan","orange","olive","red","pink","blue","yellow"],"door_color_assignment":["white","black"],"door_generator_assignment":[0,1],"goal":2,"start":0,"action_noise":0.15,"location_history":"[0,1,2]","action_history":"[0,0]","door_history":"[0,0]","location_rts":"[4837,318]","trial_type":"two-door-navigation","trial_index":5,"time_elapsed":814408,"internal_node_id":"0.0-2.0-3.0"},{"group":"dicyclic group of order 12","room_assignment":["purple","ivory","grey","brown","green","cyan","orange","olive","red","pink","blue","yellow"],"door_color_assignment":["white","black"],"door_generator_assignment":[0,1],"goal":10,"start":2,"action_noise":0.15,"location_history":"[2,6,10]","action_history":"[1,1]","door_history":"[1,1]","location_rts":"[1332,283]","trial_type":"two-door-navigation","trial_index":6,"time_elapsed":821569,"internal_node_id":"0.0-2.0-4.0"},{"group":"dicyclic group of order 12","room_assignment":["purple","ivory","grey","brown","green","cyan","orange","olive","red","pink","blue","yellow"],"door_color_assignment":["white","black"],"door_generator_assignment":[0,1],"goal":8,"start":10,"action_noise":0.15,"location_history":"[10,7,11,3,0,4,8]","action_history":"[0,1,1,1,1,1]","door_history":"[0,1,1,1,1,1]","location_rts":"[362,685,333,419,632,601]","trial_type":"two-door-navigation","trial_index":7,"time_elapsed":834219,"internal_node_id":"0.0-2.0-5.0"},{"group":"dicyclic group of order 12","room_assignment":["purple","ivory","grey","brown","green","cyan","orange","olive","red","pink","blue","yellow"],"door_color_assignment":["white","black"],"door_generator_assignment":[0,1],"goal":11,"start":8,"action_noise":0.15,"location_history":"[8,5,9,1,5,10,2,3,0,4,8,5,9,6,11]","action_history":"[0,0,0,0,0,0,0,0,0,1,0,1,0,0]","door_history":"[0,0,0,0,0,0,0,0,0,1,0,1,0,0]","location_rts":"[1089,505,635,540,380,509,504,530,854,394,858,683,905,647]","trial_type":"two-door-navigation","trial_index":8,"time_elapsed":861024,"internal_node_id":"0.0-2.0-6.0"},{"group":"dicyclic group of order 12","room_assignment":["purple","ivory","grey","brown","green","cyan","orange","olive","red","pink","blue","yellow"],"door_color_assignment":["white","black"],"door_generator_assignment":[0,1],"goal":6,"start":11,"action_noise":0.15,"location_history":"[11,3,7,8,5,10,7,8,5,10,7,11,4,8,0,4,8,5,10,7,8,0,4,8,5,10,2,3,0,1,2,6]","action_history":"[1,1,0,0,0,0,0,0,0,1,1,0,1,1,1,1,0,0,0,0,1,1,1,0,0,1,0,0,0,0,1]","door_history":"[1,1,0,0,0,0,0,0,0,1,1,0,1,1,1,1,0,0,0,0,1,1,1,0,0,1,0,0,0,0,1]","location_rts":"[1357,611,380,383,446,422,444,473,404,610,384,1620,785,631,424,806,1625,1357,622,619,1296,1164,753,545,789,835,520,464,309,395,748]","trial_type":"two-door-navigation","trial_index":9,"time_elapsed":918343,"internal_node_id":"0.0-2.0-7.0"},{"group":"dicyclic group of order 12","room_assignment":["purple","ivory","grey","brown","green","cyan","orange","olive","red","pink","blue","yellow"],"door_color_assignment":["white","black"],"door_generator_assignment":[0,1],"goal":4,"start":6,"action_noise":0.15,"location_history":"[6,10,7,8,5,10,7,11,3,0,1,5,9,1,5,10,2,6,10,7,8,5,10,7,11,3,7,11,3,7,11,3,7,11,3,0,4]","action_history":"[1,0,0,1,0,0,1,1,0,0,1,1,1,1,0,1,1,0,0,0,0,0,0,1,1,1,1,1,1,1,0,1,1,0,0,1]","door_history":"[1,0,0,1,0,0,1,1,0,0,1,1,1,1,0,1,1,0,0,0,0,0,0,1,1,1,1,1,1,1,0,1,1,0,0,1]","location_rts":"[924,635,297,455,621,446,841,1448,894,761,1587,943,816,1042,731,802,1059,1174,375,1156,370,564,558,974,293,359,1128,201,302,548,276,151,250,478,220,301]","trial_type":"two-door-navigation","trial_index":10,"time_elapsed":982509,"internal_node_id":"0.0-2.0-8.0"},{"group":"dicyclic group of order 12","room_assignment":["purple","ivory","grey","brown","green","cyan","orange","olive","red","pink","blue","yellow"],"door_color_assignment":["white","black"],"door_generator_assignment":[0,1],"goal":1,"start":4,"action_noise":0.15,"location_history":"[4,9,6,10,7,8,5,10,7,8,5,10,2,3,0,1]","action_history":"[0,0,0,0,0,0,0,0,0,0,0,1,0,0,0]","door_history":"[0,0,0,0,0,0,0,0,0,0,0,1,0,0,0]","location_rts":"[1175,244,395,425,455,418,648,570,437,498,696,696,409,461,413]","trial_type":"two-door-navigation","trial_index":11,"time_elapsed":1009226,"internal_node_id":"0.0-2.0-9.0"},{"group":"dicyclic group of order 12","room_assignment":["purple","ivory","grey","brown","green","cyan","orange","olive","red","pink","blue","yellow"],"door_color_assignment":["white","black"],"door_generator_assignment":[0,1],"goal":9,"start":1,"action_noise":0.15,"location_history":"[1,5,9]","action_history":"[1,1]","door_history":"[1,1]","location_rts":"[4917,1101]","trial_type":"two-door-navigation","trial_index":12,"time_elapsed":1020785,"internal_node_id":"0.0-2.0-10.0"},{"group":"dicyclic group of order 12","room_assignment":["purple","ivory","grey","brown","green","cyan","orange","olive","red","pink","blue","yellow"],"door_color_assignment":["white","black"],"door_generator_assignment":[0,1],"goal":10,"start":9,"action_noise":0.15,"location_history":"[9,1,5,10]","action_history":"[1,1,0]","door_history":"[1,1,0]","location_rts":"[1612,1954,1811]","trial_type":"two-door-navigation","trial_index":13,"time_elapsed":1032719,"internal_node_id":"0.0-2.0-11.0"},{"group":"dicyclic group of order 12","room_assignment":["purple","ivory","grey","brown","green","cyan","orange","olive","red","pink","blue","yellow"],"door_color_assignment":["white","black"],"door_generator_assignment":[0,1],"goal":2,"start":10,"action_noise":0.15,"location_history":"[10,7,8,5,10,7,11,4,9,6,11,4,9,6,11,4,8,5,9,1,5,10,2]","action_history":"[0,0,0,0,0,0,0,0,1,0,0,0,0,0,0,0,0,0,1,1,0,1]","door_history":"[0,0,0,0,0,0,0,0,1,0,0,0,0,0,0,0,0,0,1,1,0,1]","location_rts":"[1196,314,275,224,590,726,383,1224,1063,12696,10986,501,549,395,436,440,347,411,566,225,1266,596]","trial_type":"two-door-navigation","trial_index":14,"time_elapsed":1094045,"internal_node_id":"0.0-2.0-12.0"},{"group":"dicyclic group of order 12","room_assignment":["purple","ivory","grey","brown","green","cyan","orange","olive","red","pink","blue","yellow"],"door_color_assignment":["white","black"],"door_generator_assignment":[0,1],"goal":0,"start":2,"action_noise":0.15,"location_history":"[2,6,11,4,8,0]","action_history":"[1,0,0,0,1]","door_history":"[1,0,0,0,1]","location_rts":"[2358,659,405,644,1042]","trial_type":"two-door-navigation","trial_index":15,"time_elapsed":1107760,"internal_node_id":"0.0-2.0-13.0"},{"group":"dicyclic group of order 12","room_assignment":["purple","ivory","grey","brown","green","cyan","orange","olive","red","pink","blue","yellow"],"door_color_assignment":["white","black"],"door_generator_assignment":[0,1],"goal":9,"start":0,"action_noise":0.15,"location_history":"[0,1,5,10,2,6,10,2,3,0,4,8,0,1,2,3,0,1,5,9]","action_history":"[0,1,1,1,1,1,1,0,1,1,1,1,0,0,0,0,0,1,1]","door_history":"[0,1,1,1,1,1,1,0,1,1,1,1,0,0,0,0,0,1,1]","location_rts":"[2734,865,355,798,1194,400,416,1938,769,612,761,422,615,1020,398,685,417,856,798]","trial_type":"two-door-navigation","trial_index":16,"time_elapsed":1146688,"internal_node_id":"0.0-2.0-14.0"},{"group":"dicyclic group of order 12","room_assignment":["purple","ivory","grey","brown","green","cyan","orange","olive","red","pink","blue","yellow"],"door_color_assignment":["white","black"],"door_generator_assignment":[0,1],"goal":8,"start":9,"action_noise":0.15,"location_history":"[9,1,5,9,1,2,3,0,4,8]","action_history":"[1,1,1,1,0,1,1,1,1]","door_history":"[1,1,1,1,0,1,1,1,1]","location_rts":"[1490,311,267,222,860,278,362,588,460]","trial_type":"two-door-navigation","trial_index":17,"time_elapsed":1164192,"internal_node_id":"0.0-2.0-15.0"},{"group":"dicyclic group of order 12","room_assignment":["purple","ivory","grey","brown","green","cyan","orange","olive","red","pink","blue","yellow"],"door_color_assignment":["white","black"],"door_generator_assignment":[0,1],"goal":6,"start":8,"action_noise":0.15,"location_history":"[8,0,1,2,3,0,1,2,3,0,1,2,6]","action_history":"[1,0,0,0,0,0,1,0,0,0,0,1]","door_history":"[1,0,0,0,0,0,1,0,0,0,0,1]","location_rts":"[1364,262,315,195,155,308,966,195,247,368,1263,568]","trial_type":"two-door-navigation","trial_index":18,"time_elapsed":1186132,"internal_node_id":"0.0-2.0-16.0"},{"group":"dicyclic group of order 12","room_assignment":["purple","ivory","grey","brown","green","cyan","orange","olive","red","pink","blue","yellow"],"door_color_assignment":["white","black"],"door_generator_assignment":[0,1],"goal":1,"start":6,"action_noise":0.15,"location_history":"[6,11,4,9,6,11,3,0,1]","action_history":"[0,0,0,0,0,0,0,0]","door_history":"[0,0,0,0,0,0,0,0]","location_rts":"[1145,290,574,606,435,390,440,386]","trial_type":"two-door-navigation","trial_index":19,"time_elapsed":1202045,"internal_node_id":"0.0-2.0-17.0"},{"group":"dicyclic group of order 12","room_assignment":["purple","ivory","grey","brown","green","cyan","orange","olive","red","pink","blue","yellow"],"door_color_assignment":["white","black"],"door_generator_assignment":[0,1],"goal":4,"start":1,"action_noise":0.15,"location_history":"[1,2,3,0,4]","action_history":"[0,1,1,1]","door_history":"[0,1,1,1]","location_rts":"[1407,769,372,447]","trial_type":"two-door-navigation","trial_index":20,"time_elapsed":1212621,"internal_node_id":"0.0-2.0-18.0"},{"group":"dicyclic group of order 12","room_assignment":["purple","ivory","grey","brown","green","cyan","orange","olive","red","pink","blue","yellow"],"door_color_assignment":["white","black"],"door_generator_assignment":[0,1],"goal":11,"start":4,"action_noise":0.15,"location_history":"[4,8,5,10,7,8,5,10,7,8,5,9,6,11]","action_history":"[0,0,0,0,0,0,0,0,1,0,1,0,0]","door_history":"[0,0,0,0,0,0,0,0,1,0,1,0,0]","location_rts":"[2498,579,1210,1060,525,637,950,588,742,402,1021,987,477]","trial_type":"two-door-navigation","trial_index":21,"time_elapsed":1241053,"internal_node_id":"0.0-2.0-19.0"},{"group":"dicyclic group of order 12","room_assignment":["purple","ivory","grey","brown","green","cyan","orange","olive","red","pink","blue","yellow"],"door_color_assignment":["white","black"],"door_generator_assignment":[0,1],"goal":3,"start":11,"action_noise":0.15,"location_history":"[11,3]","action_history":"[1]","door_history":"[1]","location_rts":"[5269]","trial_type":"two-door-navigation","trial_index":22,"time_elapsed":1250848,"internal_node_id":"0.0-2.0-20.0"},{"group":"dicyclic group of order 12","room_assignment":["purple","ivory","grey","brown","green","cyan","orange","olive","red","pink","blue","yellow"],"door_color_assignment":["white","black"],"door_generator_assignment":[0,1],"goal":5,"start":3,"action_noise":0.15,"location_history":"[3,0,1,2,6,10,2,6,11,4,9,6,11,4,9,6,11,3,0,1,2,6,11,4,9,6,11,4,9,6,11,4,8,5]","action_history":"[0,0,1,1,1,1,1,0,0,0,0,0,0,0,0,0,1,0,0,1,1,0,0,0,0,0,0,0,0,0,0,1,0]","door_history":"[0,0,1,1,1,1,1,0,0,0,0,0,0,0,0,0,1,0,0,1,1,0,0,0,0,0,0,0,0,0,0,1,0]","location_rts":"[2289,483,926,593,735,482,868,1319,516,365,410,442,533,502,516,454,609,387,490,3533,1068,925,472,316,242,375,390,436,430,356,942,692,434]","trial_type":"two-door-navigation","trial_index":23,"time_elapsed":1311492,"internal_node_id":"0.0-2.0-21.0"},{"group":"dicyclic group of order 12","room_assignment":["purple","ivory","grey","brown","green","cyan","orange","olive","red","pink","blue","yellow"],"door_color_assignment":["white","black"],"door_generator_assignment":[0,1],"goal":7,"start":5,"action_noise":0.15,"location_history":"[5,10,7]","action_history":"[0,0]","door_history":"[0,0]","location_rts":"[1893,394]","trial_type":"two-door-navigation","trial_index":24,"time_elapsed":1319319,"internal_node_id":"0.0-2.0-22.0"},{"group":"dicyclic group of order 12","room_assignment":["purple","ivory","grey","brown","green","cyan","orange","olive","red","pink","blue","yellow"],"door_color_assignment":["white","black"],"door_generator_assignment":[0,1],"goal":3,"start":7,"action_noise":0.15,"location_history":"[7,11,4,8,5,9,6,11,3]","action_history":"[0,0,1,0,1,0,0,1]","door_history":"[0,0,1,0,1,0,0,1]","location_rts":"[1240,387,650,431,453,780,917,756]","trial_type":"two-door-navigation","trial_index":25,"time_elapsed":1336591,"internal_node_id":"0.0-2.0-23.0"},{"group":"dicyclic group of order 12","room_assignment":["purple","ivory","grey","brown","green","cyan","orange","olive","red","pink","blue","yellow"],"door_color_assignment":["white","black"],"door_generator_assignment":[0,1],"goal":4,"start":3,"action_noise":0.15,"location_history":"[3,0,1,5,9,6,10,2,6,11,3,0,4]","action_history":"[0,0,0,1,1,1,1,1,0,1,1,1]","door_history":"[0,0,0,1,1,1,1,1,0,1,1,1]","location_rts":"[1982,1040,1660,715,370,340,379,429,1023,481,1116,631]","trial_type":"two-door-navigation","trial_index":26,"time_elapsed":1362483,"internal_node_id":"0.0-2.0-24.0"},{"group":"dicyclic group of order 12","room_assignment":["purple","ivory","grey","brown","green","cyan","orange","olive","red","pink","blue","yellow"],"door_color_assignment":["white","black"],"door_generator_assignment":[0,1],"goal":8,"start":4,"action_noise":0.15,"location_history":"[4,8]","action_history":"[1]","door_history":"[1]","location_rts":"[2222]","trial_type":"two-door-navigation","trial_index":27,"time_elapsed":1369231,"internal_node_id":"0.0-2.0-25.0"},{"group":"dicyclic group of order 12","room_assignment":["purple","ivory","grey","brown","green","cyan","orange","olive","red","pink","blue","yellow"],"door_color_assignment":["white","black"],"door_generator_assignment":[0,1],"goal":6,"start":8,"action_noise":0.15,"location_history":"[8,0,1,5,10,7,8,0,1,2,6]","action_history":"[1,1,1,0,0,0,0,0,1,1]","door_history":"[1,1,1,0,0,0,0,0,1,1]","location_rts":"[949,706,1319,1684,660,1285,936,709,916,774]","trial_type":"two-door-navigation","trial_index":28,"time_elapsed":1392874,"internal_node_id":"0.0-2.0-26.0"},{"group":"dicyclic group of order 12","room_assignment":["purple","ivory","grey","brown","green","cyan","orange","olive","red","pink","blue","yellow"],"door_color_assignment":["white","black"],"door_generator_assignment":[0,1],"goal":1,"start":6,"action_noise":0.15,"location_history":"[6,11,4,9,6,11,3,7,8,5,10,7,8,0,1]","action_history":"[0,0,0,0,0,0,1,0,0,0,0,0,1,1]","door_history":"[0,0,0,0,0,0,1,0,0,0,0,0,1,1]","location_rts":"[2086,289,494,875,344,370,906,385,440,425,801,541,824,427]","trial_type":"two-door-navigation","trial_index":29,"time_elapsed":1419861,"internal_node_id":"0.0-2.0-27.0"},{"group":"dicyclic group of order 12","room_assignment":["purple","ivory","grey","brown","green","cyan","orange","olive","red","pink","blue","yellow"],"door_color_assignment":["white","black"],"door_generator_assignment":[0,1],"goal":5,"start":1,"action_noise":0.15,"location_history":"[1,5]","action_history":"[1]","door_history":"[1]","location_rts":"[3224]","trial_type":"two-door-navigation","trial_index":30,"time_elapsed":1427605,"internal_node_id":"0.0-2.0-28.0"},{"group":"dicyclic group of order 12","room_assignment":["purple","ivory","grey","brown","green","cyan","orange","olive","red","pink","blue","yellow"],"door_color_assignment":["white","black"],"door_generator_assignment":[0,1],"goal":9,"start":5,"action_noise":0.15,"location_history":"[5,9]","action_history":"[1]","door_history":"[1]","location_rts":"[1213]","trial_type":"two-door-navigation","trial_index":31,"time_elapsed":1433344,"internal_node_id":"0.0-2.0-29.0"},{"group":"dicyclic group of order 12","room_assignment":["purple","ivory","grey","brown","green","cyan","orange","olive","red","pink","blue","yellow"],"door_color_assignment":["white","black"],"door_generator_assignment":[0,1],"goal":10,"start":9,"action_noise":0.15,"location_history":"[9,1,5,9,1,5,10]","action_history":"[1,0,1,1,0,0]","door_history":"[1,0,1,1,0,0]","location_rts":"[1132,4089,1474,812,971,695]","trial_type":"two-door-navigation","trial_index":32,"time_elapsed":1452131,"internal_node_id":"0.0-2.0-30.0"},{"group":"dicyclic group of order 12","room_assignment":["purple","ivory","grey","brown","green","cyan","orange","olive","red","pink","blue","yellow"],"door_color_assignment":["white","black"],"door_generator_assignment":[0,1],"goal":0,"start":10,"action_noise":0.15,"location_history":"[10,2,6,10,2,6,11,4,9,1,2,3,0]","action_history":"[1,1,1,1,1,0,0,0,0,0,0,0]","door_history":"[1,1,1,1,1,0,0,0,0,0,0,0]","location_rts":"[1391,643,1614,371,823,534,438,384,393,396,467,676]","trial_type":"two-door-navigation","trial_index":33,"time_elapsed":1476000,"internal_node_id":"0.0-2.0-31.0"},{"group":"dicyclic group of order 12","room_assignment":["purple","ivory","grey","brown","green","cyan","orange","olive","red","pink","blue","yellow"],"door_color_assignment":["white","black"],"door_generator_assignment":[0,1],"goal":7,"start":0,"action_noise":0.15,"location_history":"[0,4,9,6,11,4,9,1,2,3,0,1,5,9,6,11,4,9,1,2,3,0,1,5,9,1,5,9,6,10,2,6,10,7]","action_history":"[1,0,0,0,0,0,0,0,0,0,0,0,1,0,0,0,0,1,1,0,0,0,1,1,1,1,1,0,1,1,1,1,0]","door_history":"[1,0,0,0,0,0,0,0,0,0,0,0,1,0,0,0,0,1,1,0,0,0,1,1,1,1,1,0,1,1,1,1,0]","location_rts":"[1126,1039,297,678,314,508,480,719,294,404,404,553,467,364,419,467,481,363,688,378,380,297,1184,530,787,351,597,1037,573,372,1140,569,769]","trial_type":"two-door-navigation","trial_index":34,"time_elapsed":1532157,"internal_node_id":"0.0-2.0-32.0"},{"group":"dicyclic group of order 12","room_assignment":["purple","ivory","grey","brown","green","cyan","orange","olive","red","pink","blue","yellow"],"door_color_assignment":["white","black"],"door_generator_assignment":[0,1],"goal":11,"start":7,"action_noise":0.15,"location_history":"[7,11]","action_history":"[1]","door_history":"[1]","location_rts":"[1261]","trial_type":"two-door-navigation","trial_index":35,"time_elapsed":1537942,"internal_node_id":"0.0-2.0-33.0"},{"group":"dicyclic group of order 12","room_assignment":["purple","ivory","grey","brown","green","cyan","orange","olive","red","pink","blue","yellow"],"door_color_assignment":["white","black"],"door_generator_assignment":[0,1],"goal":2,"start":11,"action_noise":0.15,"location_history":"[11,3,0,4,9,6,11,4,9,6,11,3,0,1,2]","action_history":"[1,0,0,0,0,0,0,1,0,0,0,0,1,0]","door_history":"[1,0,0,0,0,0,0,1,0,0,0,0,1,0]","location_rts":"[847,597,385,471,391,444,468,487,337,472,424,445,576,1225]","trial_type":"two-door-navigation","trial_index":36,"time_elapsed":1563275,"internal_node_id":"0.0-2.0-34.0"},{"view_history":"[{\"page_index\":0,\"viewing_time\":1755}]","rt":1755,"trial_type":"instructions","trial_index":37,"time_elapsed":1566031,"internal_node_id":"0.0-3.0"},{"view_history":"[{\"page_index\":0,\"viewing_time\":1712},{\"page_index\":1,\"viewing_time\":1776}]","rt":3488,"trial_type":"instructions","trial_index":38,"time_elapsed":1570520,"internal_node_id":"0.0-4.0"},{"group":"dihedral group of order 12","fractal_assignment":["../images/ylw_pnk.png","../images/wht_red.png","../images/grn_blu.png","../images/blu_wht.png","../images/ylw_slt.png","../images/org_blu.png","../images/gry_blk.png","../images/cyn_red.png","../images/grn_prp.png","../images/pnk_blu.png","../images/grn_red.png","../images/red_prp.png"],"mutagen_generator_assignment":[0,1],"goal":7,"start":3,"action_noise":0.15,"location_history":"[3,9,8,7]","action_history":"[0,0,0]","mutagen_history":"[0,0,0]","location_rts":"[6939,688,404]","trial_type":"fractal-mutation","trial_index":39,"time_elapsed":1585141,"internal_node_id":"0.0-5.0-0.0"},{"group":"dihedral group of order 12","fractal_assignment":["../images/ylw_pnk.png","../images/wht_red.png","../images/grn_blu.png","../images/blu_wht.png","../images/ylw_slt.png","../images/org_blu.png","../images/gry_blk.png","../images/cyn_red.png","../images/grn_prp.png","../images/pnk_blu.png","../images/grn_red.png","../images/red_prp.png"],"mutagen_generator_assignment":[0,1],"goal":5,"start":7,"action_noise":0.15,"location_history":"[7,6,11,10,9,3,4,5]","action_history":"[1,0,1,0,0,0,0]","mutagen_history":"[1,0,1,0,0,0,0]","location_rts":"[1683,713,1385,1694,552,538,942]","trial_type":"fractal-mutation","trial_index":40,"time_elapsed":1603822,"internal_node_id":"0.0-5.0-1.0"},{"group":"dihedral group of order 12","fractal_assignment":["../images/ylw_pnk.png","../images/wht_red.png","../images/grn_blu.png","../images/blu_wht.png","../images/ylw_slt.png","../images/org_blu.png","../images/gry_blk.png","../images/cyn_red.png","../images/grn_prp.png","../images/pnk_blu.png","../images/grn_red.png","../images/red_prp.png"],"mutagen_generator_assignment":[0,1],"goal":0,"start":5,"action_noise":0.15,"location_history":"[5,0]","action_history":"[0]","mutagen_history":"[0]","location_rts":"[1815]","trial_type":"fractal-mutation","trial_index":41,"time_elapsed":1610165,"internal_node_id":"0.0-5.0-2.0"},{"group":"dihedral group of order 12","fractal_assignment":["../images/ylw_pnk.png","../images/wht_red.png","../images/grn_blu.png","../images/blu_wht.png","../images/ylw_slt.png","../images/org_blu.png","../images/gry_blk.png","../images/cyn_red.png","../images/grn_prp.png","../images/pnk_blu.png","../images/grn_red.png","../images/red_prp.png"],"mutagen_generator_assignment":[0,1],"goal":2,"start":0,"action_noise":0.15,"location_history":"[0,1,7,6,0,1,2]","action_history":"[0,1,1,1,0,1]","mutagen_history":"[0,1,1,1,0,1]","location_rts":"[747,596,851,670,764,579]","trial_type":"fractal-mutation","trial_index":42,"time_elapsed":1624461,"internal_node_id":"0.0-5.0-3.0"},{"group":"dihedral group of order 12","fractal_assignment":["../images/ylw_pnk.png","../images/wht_red.png","../images/grn_blu.png","../images/blu_wht.png","../images/ylw_slt.png","../images/org_blu.png","../images/gry_blk.png","../images/cyn_red.png","../images/grn_prp.png","../images/pnk_blu.png","../images/grn_red.png","../images/red_prp.png"],"mutagen_generator_assignment":[0,1],"goal":10,"start":2,"action_noise":0.15,"location_history":"[2,3,4,10]","action_history":"[0,0,1]","mutagen_history":"[0,0,1]","location_rts":"[1231,475,825]","trial_type":"fractal-mutation","trial_index":43,"time_elapsed":1633687,"internal_node_id":"0.0-5.0-4.0"},{"group":"dihedral group of order 12","fractal_assignment":["../images/ylw_pnk.png","../images/wht_red.png","../images/grn_blu.png","../images/blu_wht.png","../images/ylw_slt.png","../images/org_blu.png","../images/gry_blk.png","../images/cyn_red.png","../images/grn_prp.png","../images/pnk_blu.png","../images/grn_red.png","../images/red_prp.png"],"mutagen_generator_assignment":[0,1],"goal":8,"start":10,"action_noise":0.15,"location_history":"[10,4,10,4,10,9,8]","action_history":"[1,1,1,0,0,0]","mutagen_history":"[1,1,1,0,0,0]","location_rts":"[1292,568,701,601,897,1196]","trial_type":"fractal-mutation","trial_index":44,"time_elapsed":1649046,"internal_node_id":"0.0-5.0-5.0"},{"group":"dihedral group of order 12","fractal_assignment":["../images/ylw_pnk.png","../images/wht_red.png","../images/grn_blu.png","../images/blu_wht.png","../images/ylw_slt.png","../images/org_blu.png","../images/gry_blk.png","../images/cyn_red.png","../images/grn_prp.png","../images/pnk_blu.png","../images/grn_red.png","../images/red_prp.png"],"mutagen_generator_assignment":[0,1],"goal":11,"start":8,"action_noise":0.15,"location_history":"[8,2,8,7,6,11]","action_history":"[1,0,0,0,0]","mutagen_history":"[1,0,0,0,0]","location_rts":"[1294,1904,297,182,477]","trial_type":"fractal-mutation","trial_index":45,"time_elapsed":1662127,"internal_node_id":"0.0-5.0-6.0"},{"group":"dihedral group of order 12","fractal_assignment":["../images/ylw_pnk.png","../images/wht_red.png","../images/grn_blu.png","../images/blu_wht.png","../images/ylw_slt.png","../images/org_blu.png","../images/gry_blk.png","../images/cyn_red.png","../images/grn_prp.png","../images/pnk_blu.png","../images/grn_red.png","../images/red_prp.png"],"mutagen_generator_assignment":[0,1],"goal":6,"start":11,"action_noise":0.15,"location_history":"[11,10,4,10,4,5,11,5,0,1,2,3,9,8,2,3,9,3,4,5,11,10,9,3,4,10,4,5,11,5,11,5,0,1,2,3,9,8,2,8,7,1,7,1,7,1,7,1,7,6]","action_history":"[0,1,1,1,0,1,1,0,0,0,0,0,0,1,1,1,1,0,1,1,0,0,0,0,1,1,0,1,1,1,0,0,0,0,0,1,0,1,1,0,1,1,1,0,1,1,1,1,0]","mutagen_history":"[0,1,1,1,0,1,1,0,0,0,0,0,0,1,1,1,1,0,1,1,0,0,0,0,1,1,0,1,1,1,0,0,0,0,0,1,0,1,1,0,1,1,1,0,1,1,1,1,0]","location_rts":"[1318,1748,3483,1217,3675,1958,803,261,521,462,471,515,572,502,888,800,554,880,207,1178,1413,659,388,1706,1261,727,48,294,205,641,246,696,725,741,605,1421,483,583,425,584,506,460,246,422,561,597,511,467,350]","trial_type":"fractal-mutation","trial_index":46,"time_elapsed":1759640,"internal_node_id":"0.0-5.0-7.0"},{"group":"dihedral group of order 12","fractal_assignment":["../images/ylw_pnk.png","../images/wht_red.png","../images/grn_blu.png","../images/blu_wht.png","../images/ylw_slt.png","../images/org_blu.png","../images/gry_blk.png","../images/cyn_red.png","../images/grn_prp.png","../images/pnk_blu.png","../images/grn_red.png","../images/red_prp.png"],"mutagen_generator_assignment":[0,1],"goal":4,"start":6,"action_noise":0.15,"location_history":"[6,0,6,11,10,9,8,7,6,0,1,2,8,7,1,2,3,4]","action_history":"[1,1,0,0,0,0,0,0,0,0,1,1,0,1,1,0,1]","mutagen_history":"[1,1,0,0,0,0,0,0,0,0,1,1,0,1,1,0,1]","location_rts":"[1072,470,436,463,505,384,314,173,333,409,367,469,375,438,372,686,847]","trial_type":"fractal-mutation","trial_index":47,"time_elapsed":1789941,"internal_node_id":"0.0-5.0-8.0"},{"group":"dihedral group of order 12","fractal_assignment":["../images/ylw_pnk.png","../images/wht_red.png","../images/grn_blu.png","../images/blu_wht.png","../images/ylw_slt.png","../images/org_blu.png","../images/gry_blk.png","../images/cyn_red.png","../images/grn_prp.png","../images/pnk_blu.png","../images/grn_red.png","../images/red_prp.png"],"mutagen_generator_assignment":[0,1],"goal":1,"start":4,"action_noise":0.15,"location_history":"[4,5,0,1]","action_history":"[0,0,0]","mutagen_history":"[0,0,0]","location_rts":"[4688,445,460]","trial_type":"fractal-mutation","trial_index":48,"time_elapsed":1802113,"internal_node_id":"0.0-5.0-9.0"},{"group":"dihedral group of order 12","fractal_assignment":["../images/ylw_pnk.png","../images/wht_red.png","../images/grn_blu.png","../images/blu_wht.png","../images/ylw_slt.png","../images/org_blu.png","../images/gry_blk.png","../images/cyn_red.png","../images/grn_prp.png","../images/pnk_blu.png","../images/grn_red.png","../images/red_prp.png"],"mutagen_generator_assignment":[0,1],"goal":9,"start":1,"action_noise":0.15,"location_history":"[1,7,1,7,6,0,6,0,1,2,3,9]","action_history":"[1,1,1,0,1,1,1,0,0,0,1]","mutagen_history":"[1,1,1,0,1,1,1,0,0,0,1]","location_rts":"[1279,414,847,61,509,440,432,189,608,823,647]","trial_type":"fractal-mutation","trial_index":49,"time_elapsed":1824047,"internal_node_id":"0.0-5.0-10.0"},{"group":"dihedral group of order 12","fractal_assignment":["../images/ylw_pnk.png","../images/wht_red.png","../images/grn_blu.png","../images/blu_wht.png","../images/ylw_slt.png","../images/org_blu.png","../images/gry_blk.png","../images/cyn_red.png","../images/grn_prp.png","../images/pnk_blu.png","../images/grn_red.png","../images/red_prp.png"],"mutagen_generator_assignment":[0,1],"goal":10,"start":9,"action_noise":0.15,"location_history":"[9,8,7,6,11,10]","action_history":"[0,0,0,0,0]","mutagen_history":"[0,0,0,0,0]","location_rts":"[1157,583,448,958,705]","trial_type":"fractal-mutation","trial_index":50,"time_elapsed":1836533,"internal_node_id":"0.0-5.0-11.0"},{"group":"dihedral group of order 12","fractal_assignment":["../images/ylw_pnk.png","../images/wht_red.png","../images/grn_blu.png","../images/blu_wht.png","../images/ylw_slt.png","../images/org_blu.png","../images/gry_blk.png","../images/cyn_red.png","../images/grn_prp.png","../images/pnk_blu.png","../images/grn_red.png","../images/red_prp.png"],"mutagen_generator_assignment":[0,1],"goal":2,"start":10,"action_noise":0.15,"location_history":"[10,9,3,4,10,4,5,11,10,9,3,4,10,9,8,7,6,11,5,11,5,0,6,0,6,0,1,7,6,11,10,9,8,7,6,0,6,11,10,9,8,7,6,11,5,11,5,0,1,2]","action_history":"[0,1,1,1,1,0,1,0,0,1,0,1,0,0,0,0,0,0,0,1,0,1,1,1,1,0,1,0,0,0,0,0,0,1,1,1,0,1,0,0,0,0,0,1,1,1,0,0,0]","mutagen_history":"[0,1,1,1,1,0,1,0,0,1,0,1,0,0,0,0,0,0,0,1,0,1,1,1,1,0,1,0,0,0,0,0,0,1,1,1,0,1,0,0,0,0,0,1,1,1,0,0,0]","location_rts":"[422,750,396,634,546,676,371,329,936,703,1294,636,679,383,524,418,474,649,634,390,737,923,435,396,466,462,608,561,533,505,727,517,575,399,257,458,658,595,228,311,525,509,245,181,388,399,166,628,335]","trial_type":"fractal-mutation","trial_index":51,"time_elapsed":1919259,"internal_node_id":"0.0-5.0-12.0"},{"group":"dihedral group of order 12","fractal_assignment":["../images/ylw_pnk.png","../images/wht_red.png","../images/grn_blu.png","../images/blu_wht.png","../images/ylw_slt.png","../images/org_blu.png","../images/gry_blk.png","../images/cyn_red.png","../images/grn_prp.png","../images/pnk_blu.png","../images/grn_red.png","../images/red_prp.png"],"mutagen_generator_assignment":[0,1],"goal":0,"start":2,"action_noise":0.15,"location_history":"[2,8,2,3,4,10,9,8,7,1,2,3,4,5,0]","action_history":"[1,0,0,0,0,0,0,0,1,0,0,0,0,0]","mutagen_history":"[1,0,0,0,0,0,0,0,1,0,0,0,0,0]","location_rts":"[1140,110,151,836,112,97,111,72,225,234,434,40,40,325]","trial_type":"fractal-mutation","trial_index":52,"time_elapsed":1941916,"internal_node_id":"0.0-5.0-13.0"},{"group":"dihedral group of order 12","fractal_assignment":["../images/ylw_pnk.png","../images/wht_red.png","../images/grn_blu.png","../images/blu_wht.png","../images/ylw_slt.png","../images/org_blu.png","../images/gry_blk.png","../images/cyn_red.png","../images/grn_prp.png","../images/pnk_blu.png","../images/grn_red.png","../images/red_prp.png"],"mutagen_generator_assignment":[0,1],"goal":9,"start":0,"action_noise":0.15,"location_history":"[0,6,0,6,0,1,7,1,2,3,9]","action_history":"[1,1,1,1,0,1,1,0,0,1]","mutagen_history":"[1,1,1,1,0,1,1,0,0,1]","location_rts":"[1264,454,419,513,324,508,422,332,307,197]","trial_type":"fractal-mutation","trial_index":53,"time_elapsed":1961261,"internal_node_id":"0.0-5.0-14.0"},{"group":"dihedral group of order 12","fractal_assignment":["../images/ylw_pnk.png","../images/wht_red.png","../images/grn_blu.png","../images/blu_wht.png","../images/ylw_slt.png","../images/org_blu.png","../images/gry_blk.png","../images/cyn_red.png","../images/grn_prp.png","../images/pnk_blu.png","../images/grn_red.png","../images/red_prp.png"],"mutagen_generator_assignment":[0,1],"goal":8,"start":9,"action_noise":0.15,"location_history":"[9,8]","action_history":"[0]","mutagen_history":"[0]","location_rts":"[1094]","trial_type":"fractal-mutation","trial_index":54,"time_elapsed":1966884,"internal_node_id":"0.0-5.0-15.0"},{"group":"dihedral group of order 12","fractal_assignment":["../images/ylw_pnk.png","../images/wht_red.png","../images/grn_blu.png","../images/blu_wht.png","../images/ylw_slt.png","../images/org_blu.png","../images/gry_blk.png","../images/cyn_red.png","../images/grn_prp.png","../images/pnk_blu.png","../images/grn_red.png","../images/red_prp.png"],"mutagen_generator_assignment":[0,1],"goal":6,"start":8,"action_noise":0.15,"location_history":"[8,2,8,2,3,9,8,7,6]","action_history":"[1,1,1,0,1,0,0,0]","mutagen_history":"[1,1,1,0,1,0,0,0]","location_rts":"[856,642,625,725,1189,419,511,482]","trial_type":"fractal-mutation","trial_index":55,"time_elapsed":1984702,"internal_node_id":"0.0-5.0-16.0"},{"group":"dihedral group of order 12","fractal_assignment":["../images/ylw_pnk.png","../images/wht_red.png","../images/grn_blu.png","../images/blu_wht.png","../images/ylw_slt.png","../images/org_blu.png","../images/gry_blk.png","../images/cyn_red.png","../images/grn_prp.png","../images/pnk_blu.png","../images/grn_red.png","../images/red_prp.png"],"mutagen_generator_assignment":[0,1],"goal":1,"start":6,"action_noise":0.15,"location_history":"[6,11,10,9,8,7,1]","action_history":"[0,0,0,0,0,0]","mutagen_history":"[0,0,0,0,0,0]","location_rts":"[1006,288,408,426,430,444]","trial_type":"fractal-mutation","trial_index":56,"time_elapsed":1997356,"internal_node_id":"0.0-5.0-17.0"},{"group":"dihedral group of order 12","fractal_assignment":["../images/ylw_pnk.png","../images/wht_red.png","../images/grn_blu.png","../images/blu_wht.png","../images/ylw_slt.png","../images/org_blu.png","../images/gry_blk.png","../images/cyn_red.png","../images/grn_prp.png","../images/pnk_blu.png","../images/grn_red.png","../images/red_prp.png"],"mutagen_generator_assignment":[0,1],"goal":4,"start":1,"action_noise":0.15,"location_history":"[1,7,6,0,1,7,6,11,10,4]","action_history":"[1,0,1,1,1,1,0,0,0]","mutagen_history":"[1,0,1,1,1,1,0,0,0]","location_rts":"[1132,631,400,518,488,450,1158,1538,580]","trial_type":"fractal-mutation","trial_index":57,"time_elapsed":2017699,"internal_node_id":"0.0-5.0-18.0"},{"group":"dihedral group of order 12","fractal_assignment":["../images/ylw_pnk.png","../images/wht_red.png","../images/grn_blu.png","../images/blu_wht.png","../images/ylw_slt.png","../images/org_blu.png","../images/gry_blk.png","../images/cyn_red.png","../images/grn_prp.png","../images/pnk_blu.png","../images/grn_red.png","../images/red_prp.png"],"mutagen_generator_assignment":[0,1],"goal":11,"start":4,"action_noise":0.15,"location_history":"[4,10,4,10,4,5,11]","action_history":"[1,1,1,1,0,1]","mutagen_history":"[1,1,1,1,0,1]","location_rts":"[2661,587,499,531,495,462]","trial_type":"fractal-mutation","trial_index":58,"time_elapsed":2033141,"internal_node_id":"0.0-5.0-19.0"},{"group":"dihedral group of order 12","fractal_assignment":["../images/ylw_pnk.png","../images/wht_red.png","../images/grn_blu.png","../images/blu_wht.png","../images/ylw_slt.png","../images/org_blu.png","../images/gry_blk.png","../images/cyn_red.png","../images/grn_prp.png","../images/pnk_blu.png","../images/grn_red.png","../images/red_prp.png"],"mutagen_generator_assignment":[0,1],"goal":3,"start":11,"action_noise":0.15,"location_history":"[11,5,11,10,9,8,7,6,0,1,7,1,7,1,2,3]","action_history":"[1,0,0,1,0,0,0,0,0,1,0,1,1,0,0]","mutagen_history":"[1,0,0,1,0,0,0,0,0,1,0,1,1,0,0]","location_rts":"[3633,1269,959,1013,918,436,389,561,455,499,591,842,519,1189,665]","trial_type":"fractal-mutation","trial_index":59,"time_elapsed":2066968,"internal_node_id":"0.0-5.0-20.0"},{"group":"dihedral group of order 12","fractal_assignment":["../images/ylw_pnk.png","../images/wht_red.png","../images/grn_blu.png","../images/blu_wht.png","../images/ylw_slt.png","../images/org_blu.png","../images/gry_blk.png","../images/cyn_red.png","../images/grn_prp.png","../images/pnk_blu.png","../images/grn_red.png","../images/red_prp.png"],"mutagen_generator_assignment":[0,1],"goal":5,"start":3,"action_noise":0.15,"location_history":"[3,4,5]","action_history":"[0,0]","mutagen_history":"[0,0]","location_rts":"[2314,442]","trial_type":"fractal-mutation","trial_index":60,"time_elapsed":2075277,"internal_node_id":"0.0-5.0-21.0"},{"group":"dihedral group of order 12","fractal_assignment":["../images/ylw_pnk.png","../images/wht_red.png","../images/grn_blu.png","../images/blu_wht.png","../images/ylw_slt.png","../images/org_blu.png","../images/gry_blk.png","../images/cyn_red.png","../images/grn_prp.png","../images/pnk_blu.png","../images/grn_red.png","../images/red_prp.png"],"mutagen_generator_assignment":[0,1],"goal":7,"start":5,"action_noise":0.15,"location_history":"[5,0,1,7]","action_history":"[0,0,1]","mutagen_history":"[0,0,1]","location_rts":"[3186,1003,1051]","trial_type":"fractal-mutation","trial_index":61,"time_elapsed":2087206,"internal_node_id":"0.0-5.0-22.0"},{"group":"dihedral group of order 12","fractal_assignment":["../images/ylw_pnk.png","../images/wht_red.png","../images/grn_blu.png","../images/blu_wht.png","../images/ylw_slt.png","../images/org_blu.png","../images/gry_blk.png","../images/cyn_red.png","../images/grn_prp.png","../images/pnk_blu.png","../images/grn_red.png","../images/red_prp.png"],"mutagen_generator_assignment":[0,1],"goal":3,"start":7,"action_noise":0.15,"location_history":"[7,6,11,10,4,5,0,1,2,3]","action_history":"[0,0,0,0,0,0,1,0,0]","mutagen_history":"[0,0,0,0,0,0,1,0,0]","location_rts":"[1720,601,613,572,507,795,1091,775,577]","trial_type":"fractal-mutation","trial_index":62,"time_elapsed":2107418,"internal_node_id":"0.0-5.0-23.0"},{"group":"dihedral group of order 12","fractal_assignment":["../images/ylw_pnk.png","../images/wht_red.png","../images/grn_blu.png","../images/blu_wht.png","../images/ylw_slt.png","../images/org_blu.png","../images/gry_blk.png","../images/cyn_red.png","../images/grn_prp.png","../images/pnk_blu.png","../images/grn_red.png","../images/red_prp.png"],"mutagen_generator_assignment":[0,1],"goal":4,"start":3,"action_noise":0.15,"location_history":"[3,4]","action_history":"[0]","mutagen_history":"[0]","location_rts":"[1528]","trial_type":"fractal-mutation","trial_index":63,"time_elapsed":2113477,"internal_node_id":"0.0-5.0-24.0"},{"group":"dihedral group of order 12","fractal_assignment":["../images/ylw_pnk.png","../images/wht_red.png","../images/grn_blu.png","../images/blu_wht.png","../images/ylw_slt.png","../images/org_blu.png","../images/gry_blk.png","../images/cyn_red.png","../images/grn_prp.png","../images/pnk_blu.png","../images/grn_red.png","../images/red_prp.png"],"mutagen_generator_assignment":[0,1],"goal":8,"start":4,"action_noise":0.15,"location_history":"[4,5,11,5,0,6,11,10,9,8]","action_history":"[0,0,0,0,1,0,0,0,0]","mutagen_history":"[0,0,0,0,1,0,0,0,0]","location_rts":"[1568,1176,540,869,1764,669,401,595,563]","trial_type":"fractal-mutation","trial_index":64,"time_elapsed":2134680,"internal_node_id":"0.0-5.0-25.0"},{"group":"dihedral group of order 12","fractal_assignment":["../images/ylw_pnk.png","../images/wht_red.png","../images/grn_blu.png","../images/blu_wht.png","../images/ylw_slt.png","../images/org_blu.png","../images/gry_blk.png","../images/cyn_red.png","../images/grn_prp.png","../images/pnk_blu.png","../images/grn_red.png","../images/red_prp.png"],"mutagen_generator_assignment":[0,1],"goal":6,"start":8,"action_noise":0.15,"location_history":"[8,2,3,4,5,0,1,7,6]","action_history":"[1,1,0,0,0,0,1,0]","mutagen_history":"[1,1,0,0,0,0,1,0]","location_rts":"[1499,648,546,482,507,651,1003,450]","trial_type":"fractal-mutation","trial_index":65,"time_elapsed":2152764,"internal_node_id":"0.0-5.0-26.0"},{"group":"dihedral group of order 12","fractal_assignment":["../images/ylw_pnk.png","../images/wht_red.png","../images/grn_blu.png","../images/blu_wht.png","../images/ylw_slt.png","../images/org_blu.png","../images/gry_blk.png","../images/cyn_red.png","../images/grn_prp.png","../images/pnk_blu.png","../images/grn_red.png","../images/red_prp.png"],"mutagen_generator_assignment":[0,1],"goal":1,"start":6,"action_noise":0.15,"location_history":"[6,11,5,0,1]","action_history":"[0,0,0,0]","mutagen_history":"[0,0,0,0]","location_rts":"[947,696,420,499]","trial_type":"fractal-mutation","trial_index":66,"time_elapsed":2162927,"internal_node_id":"0.0-5.0-27.0"},{"group":"dihedral group of order 12","fractal_assignment":["../images/ylw_pnk.png","../images/wht_red.png","../images/grn_blu.png","../images/blu_wht.png","../images/ylw_slt.png","../images/org_blu.png","../images/gry_blk.png","../images/cyn_red.png","../images/grn_prp.png","../images/pnk_blu.png","../images/grn_red.png","../images/red_prp.png"],"mutagen_generator_assignment":[0,1],"goal":5,"start":1,"action_noise":0.15,"location_history":"[1,7,6,11,5]","action_history":"[0,0,0,1]","mutagen_history":"[0,0,0,1]","location_rts":"[1234,509,459,588]","trial_type":"fractal-mutation","trial_index":67,"time_elapsed":2173415,"internal_node_id":"0.0-5.0-28.0"},{"group":"dihedral group of order 12","fractal_assignment":["../images/ylw_pnk.png","../images/wht_red.png","../images/grn_blu.png","../images/blu_wht.png","../images/ylw_slt.png","../images/org_blu.png","../images/gry_blk.png","../images/cyn_red.png","../images/grn_prp.png","../images/pnk_blu.png","../images/grn_red.png","../images/red_prp.png"],"mutagen_generator_assignment":[0,1],"goal":9,"start":5,"action_noise":0.15,"location_history":"[5,11,10,4,5,11,10,4,10,9]","action_history":"[1,0,1,1,1,0,1,1,0]","mutagen_history":"[1,0,1,1,1,0,1,1,0]","location_rts":"[1981,291,408,472,656,1104,5120,1425,587]","trial_type":"fractal-mutation","trial_index":68,"time_elapsed":2198963,"internal_node_id":"0.0-5.0-29.0"},{"group":"dihedral group of order 12","fractal_assignment":["../images/ylw_pnk.png","../images/wht_red.png","../images/grn_blu.png","../images/blu_wht.png","../images/ylw_slt.png","../images/org_blu.png","../images/gry_blk.png","../images/cyn_red.png","../images/grn_prp.png","../images/pnk_blu.png","../images/grn_red.png","../images/red_prp.png"],"mutagen_generator_assignment":[0,1],"goal":10,"start":9,"action_noise":0.15,"location_history":"[9,8,7,6,11,10]","action_history":"[0,0,0,0,0]","mutagen_history":"[0,0,0,0,0]","location_rts":"[1832,587,638,432,409]","trial_type":"fractal-mutation","trial_index":69,"time_elapsed":2211488,"internal_node_id":"0.0-5.0-30.0"},{"group":"dihedral group of order 12","fractal_assignment":["../images/ylw_pnk.png","../images/wht_red.png","../images/grn_blu.png","../images/blu_wht.png","../images/ylw_slt.png","../images/org_blu.png","../images/gry_blk.png","../images/cyn_red.png","../images/grn_prp.png","../images/pnk_blu.png","../images/grn_red.png","../images/red_prp.png"],"mutagen_generator_assignment":[0,1],"goal":0,"start":10,"action_noise":0.15,"location_history":"[10,9,3,4,10,9,8,7,6,0]","action_history":"[0,0,0,0,0,0,0,0,1]","mutagen_history":"[0,0,0,0,0,0,0,0,1]","location_rts":"[980,3423,1538,397,324,398,416,461,401]","trial_type":"fractal-mutation","trial_index":70,"time_elapsed":2232652,"internal_node_id":"0.0-5.0-31.0"},{"group":"dihedral group of order 12","fractal_assignment":["../images/ylw_pnk.png","../images/wht_red.png","../images/grn_blu.png","../images/blu_wht.png","../images/ylw_slt.png","../images/org_blu.png","../images/gry_blk.png","../images/cyn_red.png","../images/grn_prp.png","../images/pnk_blu.png","../images/grn_red.png","../images/red_prp.png"],"mutagen_generator_assignment":[0,1],"goal":7,"start":0,"action_noise":0.15,"location_history":"[0,6,0,1,2,3,4,5,11,5,0,6,11,10,4,5,0,1,2,3,4,5,0,6,11,5,0,6,0,1,7]","action_history":"[0,0,0,0,0,0,0,1,0,0,1,0,0,1,0,0,0,0,0,0,0,0,1,1,1,0,1,1,0,0]","mutagen_history":"[0,0,0,0,0,0,0,1,0,0,1,0,0,1,0,0,0,0,0,0,0,0,1,1,1,0,1,1,0,0]","location_rts":"[1635,517,426,416,474,434,416,479,148,850,643,783,1667,909,783,444,461,501,478,681,458,857,763,413,822,142,351,560,584,630]","trial_type":"fractal-mutation","trial_index":71,"time_elapsed":2287245,"internal_node_id":"0.0-5.0-32.0"},{"group":"dihedral group of order 12","fractal_assignment":["../images/ylw_pnk.png","../images/wht_red.png","../images/grn_blu.png","../images/blu_wht.png","../images/ylw_slt.png","../images/org_blu.png","../images/gry_blk.png","../images/cyn_red.png","../images/grn_prp.png","../images/pnk_blu.png","../images/grn_red.png","../images/red_prp.png"],"mutagen_generator_assignment":[0,1],"goal":11,"start":7,"action_noise":0.15,"location_history":"[7,6,11]","action_history":"[0,0]","mutagen_history":"[0,0]","location_rts":"[1807,431]","trial_type":"fractal-mutation","trial_index":72,"time_elapsed":2295035,"internal_node_id":"0.0-5.0-33.0"},{"group":"dihedral group of order 12","fractal_assignment":["../images/ylw_pnk.png","../images/wht_red.png","../images/grn_blu.png","../images/blu_wht.png","../images/ylw_slt.png","../images/org_blu.png","../images/gry_blk.png","../images/cyn_red.png","../images/grn_prp.png","../images/pnk_blu.png","../images/grn_red.png","../images/red_prp.png"],"mutagen_generator_assignment":[0,1],"goal":2,"start":11,"action_noise":0.15,"location_history":"[11,10,9,3,4,5,0,1,2]","action_history":"[1,0,1,0,1,0,0,1]","mutagen_history":"[1,0,1,0,1,0,0,1]","location_rts":"[982,205,1136,1114,947,851,948,614]","trial_type":"fractal-mutation","trial_index":73,"time_elapsed":2314089,"internal_node_id":"0.0-5.0-34.0"},{"view_history":"[{\"page_index\":0,\"viewing_time\":2397}]","rt":2397,"trial_type":"instructions","trial_index":74,"time_elapsed":2317487,"internal_node_id":"0.0-6.0"},{"rt":27590,"responses":"{\"Q0\":\"I thought you were comparing the spatial navigation to the other to see which was easier to learn.\"}","trial_type":"survey-text","trial_index":75,"time_elapsed":2346082,"internal_node_id":"0.0-7.0-0.0"},{"rt":14168,"responses":"{\"Q0\":\"I thought you were comparing it with the spatial test on which was easier to learn.\"}","trial_type":"survey-text","trial_index":76,"time_elapsed":2361252,"internal_node_id":"0.0-7.0-1.0"},{"rt":8238,"responses":"{\"Q0\":\"3\"}","trial_type":"survey-likert","trial_index":77,"time_elapsed":2370495,"internal_node_id":"0.0-7.0-2.0"},{"rt":15132,"responses":"{\"Q0\":\"They both had tendencies that were sometimes broken.\"}","trial_type":"survey-text","trial_index":78,"time_elapsed":2386629,"internal_node_id":"0.0-7.0-3.0"},{"rt":5085,"responses":"{\"Q0\":\"No\"}","trial_type":"survey-multi-choice","trial_index":79,"time_elapsed":2392718,"internal_node_id":"0.0-7.0-4.0"},{"rt":12661,"responses":"{\"Q0\":\"During session 1\"}","trial_type":"survey-multi-choice","trial_index":80,"time_elapsed":2406383,"internal_node_id":"0.0-7.0-5.0"},{"rt":32969,"responses":"{\"Q0\":\"I don't think I found a correspondence. I just thought they were similar in that they both had general tendencies that were sometimes broken.\"}","trial_type":"survey-text","trial_index":81,"time_elapsed":2440355,"internal_node_id":"0.0-7.0-6.0"},{"rt":5932,"responses":"{\"Q0\":\"0\"}","trial_type":"survey-likert","trial_index":82,"time_elapsed":2447290,"internal_node_id":"0.0-7.0-7.0"},{"rt":6291,"responses":"{\"Q0\":\"Same structure\"}","trial_type":"survey-multi-choice","trial_index":83,"time_elapsed":2454583,"internal_node_id":"0.0-7.0-8.0"},{"rt":12896,"responses":"{\"Q0\":\"white door = acid, black door = ray\",\"Q1\":\"Slightly confident\"}","trial_type":"survey-multi-choice","trial_index":84,"time_elapsed":2468483,"internal_node_id":"0.0-7.0-9.0"},{"rt":7636,"responses":"{\"Q0\":\"35-45\",\"Q1\":\"Bachelor's degree\",\"Q2\":\"Male\",\"Q3\":\"White\"}","trial_type":"survey-multi-choice","trial_index":85,"time_elapsed":2477128,"internal_node_id":"0.0-8.0"},{"rt":2803,"responses":"{\"Q0\":\"\"}","trial_type":"survey-text","trial_index":86,"time_elapsed":2480932,"internal_node_id":"0.0-9.0"}]