[{"view_history":"[{\"page_index\":0,\"viewing_time\":10132},{\"page_index\":1,\"viewing_time\":34469},{\"page_index\":2,\"viewing_time\":68799},{\"page_index\":3,\"viewing_time\":9352}]","rt":122754,"trial_type":"instructions","trial_index":0,"time_elapsed":122756,"internal_node_id":"0.0-0.0"},{"view_history":"[{\"page_index\":0,\"viewing_time\":35787},{\"page_index\":1,\"viewing_time\":36802}]","rt":72590,"trial_type":"instructions","trial_index":1,"time_elapsed":196350,"internal_node_id":"0.0-1.0"},{"group":"dicyclic group of order 12","room_assignment":["purple","brown","ivory","olive","yellow","blue","red","cyan","pink","orange","grey","green"],"door_color_assignment":["white","black"],"door_generator_assignment":[0,1],"goal":4,"start":0,"action_noise":0.15,"location_history":"[0,1,5,9,1,2,6,10,2,6,10,7,8,5,9,1,2,6,11,3,0,4]","action_history":"[0,1,1,1,0,1,1,1,1,1,0,0,0,1,1,0,1,0,1,1,1]","door_history":"[0,1,1,1,0,1,1,1,1,1,0,0,0,1,1,0,1,0,1,1,1]","location_rts":"[5632,1976,1403,15374,748,922,444,381,420,569,591,456,522,558,392,1074,980,9663,369,316,312]","trial_type":"two-door-navigation","trial_index":2,"time_elapsed":264251,"internal_node_id":"0.0-2.0-0.0"},{"group":"dicyclic group of order 12","room_assignment":["purple","brown","ivory","olive","yellow","blue","red","cyan","pink","orange","grey","green"],"door_color_assignment":["white","black"],"door_generator_assignment":[0,1],"goal":9,"start":4,"action_noise":0.15,"location_history":"[4,9]","action_history":"[0]","door_history":"[0]","location_rts":"[1911]","trial_type":"two-door-navigation","trial_index":3,"time_elapsed":270678,"internal_node_id":"0.0-2.0-1.0"},{"group":"dicyclic group of order 12","room_assignment":["purple","brown","ivory","olive","yellow","blue","red","cyan","pink","orange","grey","green"],"door_color_assignment":["white","black"],"door_generator_assignment":[0,1],"goal":10,"start":9,"action_noise":0.15,"location_history":"[9,6,11,4,9,1,2,3,7,8,5,10]","action_history":"[0,0,0,1,1,1,1,1,0,0,0]","door_history":"[0,0,0,1,1,1,1,1,0,0,0]","location_rts":"[2201,1198,590,316,396,423,631,657,806,404,401]","trial_type":"two-door-navigation","trial_index":4,"time_elapsed":293342,"internal_node_id":"0.0-2.0-2.0"},{"group":"dicyclic group of order 12","room_assignment":["purple","brown","ivory","olive","yellow","blue","red","cyan","pink","orange","grey","green"],"door_color_assignment":["white","black"],"door_generator_assignment":[0,1],"goal":2,"start":10,"action_noise":0.15,"location_history":"[10,2]","action_history":"[0]","door_history":"[0]","location_rts":"[1641]","trial_type":"two-door-navigation","trial_index":5,"time_elapsed":299496,"internal_node_id":"0.0-2.0-3.0"},{"group":"dicyclic group of order 12","room_assignment":["purple","brown","ivory","olive","yellow","blue","red","cyan","pink","orange","grey","green"],"door_color_assignment":["white","black"],"door_generator_assignment":[0,1],"goal":5,"start":2,"action_noise":0.15,"location_history":"[2,6,10,2,3,0,1,2,3,7,11,3,7,11,4,9,6,11,3,0,1,2,3,7,11,3,7,11,3,7,11,3,0,1,2,6,11,4,9,1,2,6,11,3,0,4,9,1,2,6,10,2,6,10,7,11,3,7,8,5]","action_history":"[1,1,1,0,0,0,0,1,1,1,1,1,1,0,0,0,0,0,0,0,0,0,1,1,1,1,1,1,1,1,1,0,0,0,0,0,0,0,0,0,1,0,1,0,1,0,1,0,1,1,1,1,1,1,1,1,1,0,0]","door_history":"[1,1,1,0,0,0,0,1,1,1,1,1,1,0,0,0,0,0,0,0,0,0,1,1,1,1,1,1,1,1,1,0,0,0,0,0,0,0,0,0,1,0,1,0,1,0,1,0,1,1,1,1,1,1,1,1,1,0,0]","location_rts":"[1649,440,377,600,337,352,603,1707,442,1432,403,360,436,845,314,385,450,401,324,237,311,257,504,1557,291,266,632,344,305,321,350,350,374,459,286,436,336,411,367,447,146,1007,363,535,965,831,332,775,651,446,1086,323,360,420,345,390,315,992,397]","trial_type":"two-door-navigation","trial_index":6,"time_elapsed":394047,"internal_node_id":"0.0-2.0-4.0"},{"group":"dicyclic group of order 12","room_assignment":["purple","brown","ivory","olive","yellow","blue","red","cyan","pink","orange","grey","green"],"door_color_assignment":["white","black"],"door_generator_assignment":[0,1],"goal":11,"start":5,"action_noise":0.15,"location_history":"[5,9,1,5,10,2,6,10,2,3,0,1,2,3,0,1,2,3,7,11]","action_history":"[1,1,1,0,1,1,1,1,1,0,0,0,0,0,0,0,1,1,1]","door_history":"[1,1,1,0,1,1,1,1,1,0,0,0,0,0,0,0,1,1,1]","location_rts":"[1851,454,475,1560,710,370,503,747,346,720,811,569,319,434,658,350,367,2071,434]","trial_type":"two-door-navigation","trial_index":7,"time_elapsed":430498,"internal_node_id":"0.0-2.0-5.0"},{"group":"dicyclic group of order 12","room_assignment":["purple","brown","ivory","olive","yellow","blue","red","cyan","pink","orange","grey","green"],"door_color_assignment":["white","black"],"door_generator_assignment":[0,1],"goal":6,"start":11,"action_noise":0.15,"location_history":"[11,4,8,0,1,5,9,1,5,9,1,2,6]","action_history":"[0,1,1,0,1,1,1,1,1,0,0,1]","door_history":"[0,1,1,0,1,1,1,1,1,0,0,1]","location_rts":"[1897,813,782,725,857,583,542,534,1829,938,1000,892]","trial_type":"two-door-navigation","trial_index":8,"time_elapsed":457517,"internal_node_id":"0.0-2.0-6.0"},{"group":"dicyclic group of order 12","room_assignment":["purple","brown","ivory","olive","yellow","blue","red","cyan","pink","orange","grey","green"],"door_color_assignment":["white","black"],"door_generator_assignment":[0,1],"goal":3,"start":6,"action_noise":0.15,"location_history":"[6,11,3]","action_history":"[1,0]","door_history":"[1,0]","location_rts":"[1973,1278]","trial_type":"two-door-navigation","trial_index":9,"time_elapsed":466292,"internal_node_id":"0.0-2.0-7.0"},{"group":"dicyclic group of order 12","room_assignment":["purple","brown","ivory","olive","yellow","blue","red","cyan","pink","orange","grey","green"],"door_color_assignment":["white","black"],"door_generator_assignment":[0,1],"goal":8,"start":3,"action_noise":0.15,"location_history":"[3,0,1,2,6,11,4,9,6,11,3,7,11,4,8]","action_history":"[1,0,0,1,0,1,0,0,0,1,1,1,0,1]","door_history":"[1,0,0,1,0,1,0,0,0,1,1,1,0,1]","location_rts":"[1897,475,729,1120,866,730,722,585,860,721,1144,430,1622,706]","trial_type":"two-door-navigation","trial_index":10,"time_elapsed":496566,"internal_node_id":"0.0-2.0-8.0"},{"group":"dicyclic group of order 12","room_assignment":["purple","brown","ivory","olive","yellow","blue","red","cyan","pink","orange","grey","green"],"door_color_assignment":["white","black"],"door_generator_assignment":[0,1],"goal":1,"start":8,"action_noise":0.15,"location_history":"[8,0,1]","action_history":"[1,0]","door_history":"[1,0]","location_rts":"[4106,1228]","trial_type":"two-door-navigation","trial_index":11,"time_elapsed":507428,"internal_node_id":"0.0-2.0-9.0"},{"group":"dicyclic group of order 12","room_assignment":["purple","brown","ivory","olive","yellow","blue","red","cyan","pink","orange","grey","green"],"door_color_assignment":["white","black"],"door_generator_assignment":[0,1],"goal":7,"start":1,"action_noise":0.15,"location_history":"[1,2,6,10,7]","action_history":"[0,1,1,1]","door_history":"[0,1,1,1]","location_rts":"[2182,845,510,374]","trial_type":"two-door-navigation","trial_index":12,"time_elapsed":518885,"internal_node_id":"0.0-2.0-10.0"},{"group":"dicyclic group of order 12","room_assignment":["purple","brown","ivory","olive","yellow","blue","red","cyan","pink","orange","grey","green"],"door_color_assignment":["white","black"],"door_generator_assignment":[0,1],"goal":5,"start":7,"action_noise":0.15,"location_history":"[7,8,0,1,2,6,10,2,6,10,2,6,10,2,6,10,2,6,10,7,8,5]","action_history":"[1,1,1,0,1,1,1,1,1,0,1,1,1,1,0,1,1,1,0,0,0]","door_history":"[1,1,1,0,1,1,1,1,1,0,1,1,1,1,0,1,1,1,0,0,0]","location_rts":"[2173,1061,679,843,768,415,561,1396,527,1025,779,672,514,366,643,853,679,482,1425,595,417]","trial_type":"two-door-navigation","trial_index":13,"time_elapsed":560488,"internal_node_id":"0.0-2.0-11.0"},{"group":"dicyclic group of order 12","room_assignment":["purple","brown","ivory","olive","yellow","blue","red","cyan","pink","orange","grey","green"],"door_color_assignment":["white","black"],"door_generator_assignment":[0,1],"goal":8,"start":5,"action_noise":0.15,"location_history":"[5,9,6,11,3,0,1,5,9,6,10,7,8]","action_history":"[1,0,0,1,0,0,1,1,0,1,0,1]","door_history":"[1,0,0,1,0,0,1,1,0,1,0,1]","location_rts":"[2167,592,598,445,936,449,970,649,941,1521,1512,1581]","trial_type":"two-door-navigation","trial_index":14,"time_elapsed":588480,"internal_node_id":"0.0-2.0-12.0"},{"group":"dicyclic group of order 12","room_assignment":["purple","brown","ivory","olive","yellow","blue","red","cyan","pink","orange","grey","green"],"door_color_assignment":["white","black"],"door_generator_assignment":[0,1],"goal":11,"start":8,"action_noise":0.15,"location_history":"[8,0,4,8,5,9,1,5,9,6,10,7,8,0,4,8,0,1,2,6,10,2,6,10,2,3,0,1,2,3,7,11]","action_history":"[1,1,1,0,1,1,1,1,0,0,0,1,1,0,1,1,0,0,0,0,1,1,1,1,0,0,0,0,0,1,1]","door_history":"[1,1,1,0,1,1,1,1,0,0,0,1,1,0,1,1,0,0,0,0,1,1,1,1,0,0,0,0,0,1,1]","location_rts":"[2214,459,626,851,303,427,335,361,531,252,369,1067,396,1080,1215,401,644,257,586,301,874,385,383,532,365,1252,401,613,554,1011,346]","trial_type":"two-door-navigation","trial_index":15,"time_elapsed":642690,"internal_node_id":"0.0-2.0-13.0"},{"group":"dicyclic group of order 12","room_assignment":["purple","brown","ivory","olive","yellow","blue","red","cyan","pink","orange","grey","green"],"door_color_assignment":["white","black"],"door_generator_assignment":[0,1],"goal":6,"start":11,"action_noise":0.15,"location_history":"[11,3,0,1,5,9,1,2,3,7,8,0,1,5,9,6]","action_history":"[1,0,0,1,1,1,0,0,0,0,1,0,1,1,1]","door_history":"[1,0,0,1,1,1,0,0,0,0,1,0,1,1,1]","location_rts":"[1226,794,350,852,356,427,893,302,351,330,350,1192,712,449,689]","trial_type":"two-door-navigation","trial_index":16,"time_elapsed":670630,"internal_node_id":"0.0-2.0-14.0"},{"group":"dicyclic group of order 12","room_assignment":["purple","brown","ivory","olive","yellow","blue","red","cyan","pink","orange","grey","green"],"door_color_assignment":["white","black"],"door_generator_assignment":[0,1],"goal":7,"start":6,"action_noise":0.15,"location_history":"[6,11,3,0,4,8,0,4,9,6,11,3,0,4,8,5,10,2,6,10,7]","action_history":"[0,1,0,0,1,1,1,0,0,0,1,1,1,0,0,0,0,1,1,0]","door_history":"[0,1,0,0,1,1,1,0,0,0,1,1,1,0,0,0,0,1,1,0]","location_rts":"[2227,1192,1155,1349,812,660,487,703,328,515,630,362,332,631,417,440,355,389,290,620]","trial_type":"two-door-navigation","trial_index":17,"time_elapsed":708244,"internal_node_id":"0.0-2.0-15.0"},{"group":"dicyclic group of order 12","room_assignment":["purple","brown","ivory","olive","yellow","blue","red","cyan","pink","orange","grey","green"],"door_color_assignment":["white","black"],"door_generator_assignment":[0,1],"goal":10,"start":7,"action_noise":0.15,"location_history":"[7,11,3,0,1,2,3,7,11,3,7,8,5,10]","action_history":"[1,1,0,0,0,0,1,1,1,1,0,0,0]","door_history":"[1,1,0,0,0,0,1,1,1,1,0,0,0]","location_rts":"[1319,3152,542,340,387,567,1134,412,403,322,776,358,278]","trial_type":"two-door-navigation","trial_index":18,"time_elapsed":734877,"internal_node_id":"0.0-2.0-16.0"},{"group":"dicyclic group of order 12","room_assignment":["purple","brown","ivory","olive","yellow","blue","red","cyan","pink","orange","grey","green"],"door_color_assignment":["white","black"],"door_generator_assignment":[0,1],"goal":0,"start":10,"action_noise":0.15,"location_history":"[10,2,3,0]","action_history":"[0,0,0]","door_history":"[0,0,0]","location_rts":"[19960,377,459]","trial_type":"two-door-navigation","trial_index":19,"time_elapsed":762206,"internal_node_id":"0.0-2.0-17.0"},{"group":"dicyclic group of order 12","room_assignment":["purple","brown","ivory","olive","yellow","blue","red","cyan","pink","orange","grey","green"],"door_color_assignment":["white","black"],"door_generator_assignment":[0,1],"goal":9,"start":0,"action_noise":0.15,"location_history":"[0,4,8,0,1,2,3,0,1,5,10,2,6,10,2,3,7,11,4,9]","action_history":"[1,0,0,0,0,0,0,1,0,0,0,1,1,1,1,1,1,0,0]","door_history":"[1,0,0,0,0,0,0,1,0,0,0,1,1,1,1,1,1,0,0]","location_rts":"[1249,589,315,296,324,373,348,379,850,1101,282,521,357,355,345,339,355,1014,407]","trial_type":"two-door-navigation","trial_index":20,"time_elapsed":794720,"internal_node_id":"0.0-2.0-18.0"},{"group":"dicyclic group of order 12","room_assignment":["purple","brown","ivory","olive","yellow","blue","red","cyan","pink","orange","grey","green"],"door_color_assignment":["white","black"],"door_generator_assignment":[0,1],"goal":4,"start":9,"action_noise":0.15,"location_history":"[9,1,5,9,1,5,9,1,2,6,11,3,7,8,5,10,7,8,5,10,7,11,3,0,1,2,3,0,1,2,3,7,8,0,4]","action_history":"[0,1,1,1,1,0,0,0,1,1,1,1,0,0,0,0,0,0,0,0,1,1,1,1,1,0,0,0,0,0,1,0,1,0]","door_history":"[0,1,1,1,1,0,0,0,1,1,1,1,0,0,0,0,0,0,0,0,1,1,1,1,1,0,0,0,0,0,1,0,1,0]","location_rts":"[36754,504,316,291,358,328,736,327,1389,351,350,290,330,598,356,380,357,374,252,312,284,352,313,307,373,222,291,260,385,306,302,326,396,400]","trial_type":"two-door-navigation","trial_index":21,"time_elapsed":882074,"internal_node_id":"0.0-2.0-19.0"},{"group":"dicyclic group of order 12","room_assignment":["purple","brown","ivory","olive","yellow","blue","red","cyan","pink","orange","grey","green"],"door_color_assignment":["white","black"],"door_generator_assignment":[0,1],"goal":2,"start":4,"action_noise":0.15,"location_history":"[4,8,5,10,7,11,4,8,0,4,8,5,10,2]","action_history":"[1,0,0,0,1,0,1,1,1,1,0,0,1]","door_history":"[1,0,0,0,1,0,1,1,1,1,0,0,1]","location_rts":"[783,357,553,272,233,980,798,344,345,363,405,335,389]","trial_type":"two-door-navigation","trial_index":22,"time_elapsed":904869,"internal_node_id":"0.0-2.0-20.0"},{"group":"dicyclic group of order 12","room_assignment":["purple","brown","ivory","olive","yellow","blue","red","cyan","pink","orange","grey","green"],"door_color_assignment":["white","black"],"door_generator_assignment":[0,1],"goal":1,"start":2,"action_noise":0.15,"location_history":"[2,6,10,2,3,7,8,0,1]","action_history":"[1,0,1,0,1,0,1,0]","door_history":"[1,0,1,0,1,0,1,0]","location_rts":"[2877,431,545,320,365,341,340,296]","trial_type":"two-door-navigation","trial_index":23,"time_elapsed":921984,"internal_node_id":"0.0-2.0-21.0"},{"group":"dicyclic group of order 12","room_assignment":["purple","brown","ivory","olive","yellow","blue","red","cyan","pink","orange","grey","green"],"door_color_assignment":["white","black"],"door_generator_assignment":[0,1],"goal":3,"start":1,"action_noise":0.15,"location_history":"[1,5,10,2,3]","action_history":"[1,0,1,0]","door_history":"[1,0,1,0]","location_rts":"[995,344,373,308]","trial_type":"two-door-navigation","trial_index":24,"time_elapsed":931547,"internal_node_id":"0.0-2.0-22.0"},{"group":"dicyclic group of order 12","room_assignment":["purple","brown","ivory","olive","yellow","blue","red","cyan","pink","orange","grey","green"],"door_color_assignment":["white","black"],"door_generator_assignment":[0,1],"goal":7,"start":3,"action_noise":0.15,"location_history":"[3,0,1,2,6,10,7]","action_history":"[0,1,0,1,1,0]","door_history":"[0,1,0,1,1,0]","location_rts":"[1215,862,774,330,414,547]","trial_type":"two-door-navigation","trial_index":25,"time_elapsed":945252,"internal_node_id":"0.0-2.0-23.0"},{"group":"dicyclic group of order 12","room_assignment":["purple","brown","ivory","olive","yellow","blue","red","cyan","pink","orange","grey","green"],"door_color_assignment":["white","black"],"door_generator_assignment":[0,1],"goal":6,"start":7,"action_noise":0.15,"location_history":"[7,11,4,8,5,9,6]","action_history":"[1,0,1,0,1,0]","door_history":"[1,0,1,0,1,0]","location_rts":"[2406,1488,1504,1001,1331,806]","trial_type":"two-door-navigation","trial_index":26,"time_elapsed":963357,"internal_node_id":"0.0-2.0-24.0"},{"group":"dicyclic group of order 12","room_assignment":["purple","brown","ivory","olive","yellow","blue","red","cyan","pink","orange","grey","green"],"door_color_assignment":["white","black"],"door_generator_assignment":[0,1],"goal":2,"start":6,"action_noise":0.15,"location_history":"[6,11,3,0,4,9,1,2]","action_history":"[0,1,0,1,0,1,0]","door_history":"[0,1,0,1,0,1,0]","location_rts":"[909,1014,428,353,241,296,290]","trial_type":"two-door-navigation","trial_index":27,"time_elapsed":977488,"internal_node_id":"0.0-2.0-25.0"},{"group":"dicyclic group of order 12","room_assignment":["purple","brown","ivory","olive","yellow","blue","red","cyan","pink","orange","grey","green"],"door_color_assignment":["white","black"],"door_generator_assignment":[0,1],"goal":8,"start":2,"action_noise":0.15,"location_history":"[2,6,10,7,8]","action_history":"[0,1,1,0]","door_history":"[0,1,1,0]","location_rts":"[2398,1011,844,324]","trial_type":"two-door-navigation","trial_index":28,"time_elapsed":989603,"internal_node_id":"0.0-2.0-26.0"},{"group":"dicyclic group of order 12","room_assignment":["purple","brown","ivory","olive","yellow","blue","red","cyan","pink","orange","grey","green"],"door_color_assignment":["white","black"],"door_generator_assignment":[0,1],"goal":0,"start":8,"action_noise":0.15,"location_history":"[8,5,9,1,2,3,7,11,3,0]","action_history":"[0,1,1,0,0,1,0,1,0]","door_history":"[0,1,1,0,0,1,0,1,0]","location_rts":"[1223,754,516,703,723,328,511,296,332]","trial_type":"two-door-navigation","trial_index":29,"time_elapsed":1007585,"internal_node_id":"0.0-2.0-27.0"},{"group":"dicyclic group of order 12","room_assignment":["purple","brown","ivory","olive","yellow","blue","red","cyan","pink","orange","grey","green"],"door_color_assignment":["white","black"],"door_generator_assignment":[0,1],"goal":3,"start":0,"action_noise":0.15,"location_history":"[0,4,9,1,2,6,11,3]","action_history":"[1,0,1,0,1,0,1]","door_history":"[1,0,1,0,1,0,1]","location_rts":"[1283,464,646,679,644,349,354]","trial_type":"two-door-navigation","trial_index":30,"time_elapsed":1022583,"internal_node_id":"0.0-2.0-28.0"},{"group":"dicyclic group of order 12","room_assignment":["purple","brown","ivory","olive","yellow","blue","red","cyan","pink","orange","grey","green"],"door_color_assignment":["white","black"],"door_generator_assignment":[0,1],"goal":4,"start":3,"action_noise":0.15,"location_history":"[3,0,1,2,6,11,3,0,1,2,6,11,3,0,4]","action_history":"[0,1,0,1,0,1,0,1,0,1,0,1,0,1]","door_history":"[0,1,0,1,0,1,0,1,0,1,0,1,0,1]","location_rts":"[644,590,324,477,347,327,921,327,401,436,362,337,294,335]","trial_type":"two-door-navigation","trial_index":31,"time_elapsed":1046344,"internal_node_id":"0.0-2.0-29.0"},{"group":"dicyclic group of order 12","room_assignment":["purple","brown","ivory","olive","yellow","blue","red","cyan","pink","orange","grey","green"],"door_color_assignment":["white","black"],"door_generator_assignment":[0,1],"goal":10,"start":4,"action_noise":0.15,"location_history":"[4,9,1,5,9,6,11,3,0,4,9,1,2,6,11,3,7,11,3,0,1,2,3,7,8,0,1,5,10]","action_history":"[0,1,1,1,1,0,1,0,1,0,1,0,1,0,1,0,1,1,0,0,1,0,1,0,1,0,1,0]","door_history":"[0,1,1,1,1,0,1,0,1,0,1,0,1,0,1,0,1,1,0,0,1,0,1,0,1,0,1,0]","location_rts":"[1266,467,645,345,354,305,624,850,554,352,449,347,926,681,555,707,375,615,634,852,365,1673,416,339,317,421,423,675]","trial_type":"two-door-navigation","trial_index":32,"time_elapsed":1094697,"internal_node_id":"0.0-2.0-30.0"},{"group":"dicyclic group of order 12","room_assignment":["purple","brown","ivory","olive","yellow","blue","red","cyan","pink","orange","grey","green"],"door_color_assignment":["white","black"],"door_generator_assignment":[0,1],"goal":11,"start":10,"action_noise":0.15,"location_history":"[10,7,11]","action_history":"[0,1]","door_history":"[0,1]","location_rts":"[2976,792]","trial_type":"two-door-navigation","trial_index":33,"time_elapsed":1103985,"internal_node_id":"0.0-2.0-31.0"},{"group":"dicyclic group of order 12","room_assignment":["purple","brown","ivory","olive","yellow","blue","red","cyan","pink","orange","grey","green"],"door_color_assignment":["white","black"],"door_generator_assignment":[0,1],"goal":1,"start":11,"action_noise":0.15,"location_history":"[11,3,7,8,0,4,9,1]","action_history":"[1,0,1,1,1,0,1]","door_history":"[1,0,1,1,1,0,1]","location_rts":"[1540,916,1001,379,342,422,1141]","trial_type":"two-door-navigation","trial_index":34,"time_elapsed":1120297,"internal_node_id":"0.0-2.0-32.0"},{"group":"dicyclic group of order 12","room_assignment":["purple","brown","ivory","olive","yellow","blue","red","cyan","pink","orange","grey","green"],"door_color_assignment":["white","black"],"door_generator_assignment":[0,1],"goal":5,"start":1,"action_noise":0.15,"location_history":"[1,2,6,10,7,11,3,7,8,5]","action_history":"[0,1,1,1,1,1,1,0,1]","door_history":"[0,1,1,1,1,1,1,0,1]","location_rts":"[1481,828,418,610,1274,1147,1068,960,432]","trial_type":"two-door-navigation","trial_index":35,"time_elapsed":1141113,"internal_node_id":"0.0-2.0-33.0"},{"group":"dicyclic group of order 12","room_assignment":["purple","brown","ivory","olive","yellow","blue","red","cyan","pink","orange","grey","green"],"door_color_assignment":["white","black"],"door_generator_assignment":[0,1],"goal":9,"start":5,"action_noise":0.15,"location_history":"[5,10,7,11,3,7,8,5,9]","action_history":"[0,1,1,1,1,0,1,1]","door_history":"[0,1,1,1,1,0,1,1]","location_rts":"[2651,622,464,372,327,473,440,364]","trial_type":"two-door-navigation","trial_index":36,"time_elapsed":1158408,"internal_node_id":"0.0-2.0-34.0"},{"view_history":"[{\"page_index\":0,\"viewing_time\":4617}]","rt":4617,"trial_type":"instructions","trial_index":37,"time_elapsed":1164027,"internal_node_id":"0.0-3.0"},{"view_history":"[{\"page_index\":0,\"viewing_time\":3871},{\"page_index\":1,\"viewing_time\":31513}]","rt":35385,"trial_type":"instructions","trial_index":38,"time_elapsed":1200412,"internal_node_id":"0.0-4.0"},{"group":"dicyclic group of order 12","fractal_assignment":["../images/grn_red.png","../images/grn_blu.png","../images/grn_prp.png","../images/org_blu.png","../images/red_prp.png","../images/ylw_slt.png","../images/cyn_red.png","../images/wht_red.png","../images/ylw_pnk.png","../images/blu_wht.png","../images/gry_blk.png","../images/pnk_blu.png"],"mutagen_generator_assignment":[1,0],"goal":4,"start":0,"action_noise":0.15,"location_history":"[0,4]","action_history":"[1]","mutagen_history":"[0]","location_rts":"[7449]","trial_type":"fractal-mutation","trial_index":39,"time_elapsed":1212414,"internal_node_id":"0.0-5.0-0.0"},{"group":"dicyclic group of order 12","fractal_assignment":["../images/grn_red.png","../images/grn_blu.png","../images/grn_prp.png","../images/org_blu.png","../images/red_prp.png","../images/ylw_slt.png","../images/cyn_red.png","../images/wht_red.png","../images/ylw_pnk.png","../images/blu_wht.png","../images/gry_blk.png","../images/pnk_blu.png"],"mutagen_generator_assignment":[1,0],"goal":9,"start":4,"action_noise":0.15,"location_history":"[4,9]","action_history":"[0]","mutagen_history":"[1]","location_rts":"[1181]","trial_type":"fractal-mutation","trial_index":40,"time_elapsed":1218352,"internal_node_id":"0.0-5.0-1.0"},{"group":"dicyclic group of order 12","fractal_assignment":["../images/grn_red.png","../images/grn_blu.png","../images/grn_prp.png","../images/org_blu.png","../images/red_prp.png","../images/ylw_slt.png","../images/cyn_red.png","../images/wht_red.png","../images/ylw_pnk.png","../images/blu_wht.png","../images/gry_blk.png","../images/pnk_blu.png"],"mutagen_generator_assignment":[1,0],"goal":10,"start":9,"action_noise":0.15,"location_history":"[9,6,10]","action_history":"[0,1]","mutagen_history":"[1,0]","location_rts":"[815,1700]","trial_type":"fractal-mutation","trial_index":41,"time_elapsed":1226832,"internal_node_id":"0.0-5.0-2.0"},{"group":"dicyclic group of order 12","fractal_assignment":["../images/grn_red.png","../images/grn_blu.png","../images/grn_prp.png","../images/org_blu.png","../images/red_prp.png","../images/ylw_slt.png","../images/cyn_red.png","../images/wht_red.png","../images/ylw_pnk.png","../images/blu_wht.png","../images/gry_blk.png","../images/pnk_blu.png"],"mutagen_generator_assignment":[1,0],"goal":2,"start":10,"action_noise":0.15,"location_history":"[10,2]","action_history":"[1]","mutagen_history":"[0]","location_rts":"[763]","trial_type":"fractal-mutation","trial_index":42,"time_elapsed":1232136,"internal_node_id":"0.0-5.0-3.0"},{"group":"dicyclic group of order 12","fractal_assignment":["../images/grn_red.png","../images/grn_blu.png","../images/grn_prp.png","../images/org_blu.png","../images/red_prp.png","../images/ylw_slt.png","../images/cyn_red.png","../images/wht_red.png","../images/ylw_pnk.png","../images/blu_wht.png","../images/gry_blk.png","../images/pnk_blu.png"],"mutagen_generator_assignment":[1,0],"goal":5,"start":2,"action_noise":0.15,"location_history":"[2,6,11,3,0,4,8,5]","action_history":"[1,0,1,0,1,0,0]","mutagen_history":"[0,1,0,1,0,1,1]","location_rts":"[1223,1116,2148,960,564,399,675]","trial_type":"fractal-mutation","trial_index":43,"time_elapsed":1251051,"internal_node_id":"0.0-5.0-4.0"},{"group":"dicyclic group of order 12","fractal_assignment":["../images/grn_red.png","../images/grn_blu.png","../images/grn_prp.png","../images/org_blu.png","../images/red_prp.png","../images/ylw_slt.png","../images/cyn_red.png","../images/wht_red.png","../images/ylw_pnk.png","../images/blu_wht.png","../images/gry_blk.png","../images/pnk_blu.png"],"mutagen_generator_assignment":[1,0],"goal":11,"start":5,"action_noise":0.15,"location_history":"[5,9,6,11]","action_history":"[1,0,0]","mutagen_history":"[0,1,1]","location_rts":"[528,1000,863]","trial_type":"fractal-mutation","trial_index":44,"time_elapsed":1260461,"internal_node_id":"0.0-5.0-5.0"},{"group":"dicyclic group of order 12","fractal_assignment":["../images/grn_red.png","../images/grn_blu.png","../images/grn_prp.png","../images/org_blu.png","../images/red_prp.png","../images/ylw_slt.png","../images/cyn_red.png","../images/wht_red.png","../images/ylw_pnk.png","../images/blu_wht.png","../images/gry_blk.png","../images/pnk_blu.png"],"mutagen_generator_assignment":[1,0],"goal":6,"start":11,"action_noise":0.15,"location_history":"[11,3,7,11,4,9,6]","action_history":"[1,1,1,0,0,0]","mutagen_history":"[0,0,0,1,1,1]","location_rts":"[1562,684,695,950,781,685]","trial_type":"fractal-mutation","trial_index":45,"time_elapsed":1276136,"internal_node_id":"0.0-5.0-6.0"},{"group":"dicyclic group of order 12","fractal_assignment":["../images/grn_red.png","../images/grn_blu.png","../images/grn_prp.png","../images/org_blu.png","../images/red_prp.png","../images/ylw_slt.png","../images/cyn_red.png","../images/wht_red.png","../images/ylw_pnk.png","../images/blu_wht.png","../images/gry_blk.png","../images/pnk_blu.png"],"mutagen_generator_assignment":[1,0],"goal":3,"start":6,"action_noise":0.15,"location_history":"[6,11,4,8,0,4,9,6,11,4,8,5,9,6,11,3]","action_history":"[0,1,1,1,1,0,0,0,0,1,0,1,0,0,1]","mutagen_history":"[1,0,0,0,0,1,1,1,1,0,1,0,1,1,0]","location_rts":"[1949,594,532,569,568,381,457,702,600,723,457,915,545,936,484]","trial_type":"fractal-mutation","trial_index":46,"time_elapsed":1307944,"internal_node_id":"0.0-5.0-7.0"},{"group":"dicyclic group of order 12","fractal_assignment":["../images/grn_red.png","../images/grn_blu.png","../images/grn_prp.png","../images/org_blu.png","../images/red_prp.png","../images/ylw_slt.png","../images/cyn_red.png","../images/wht_red.png","../images/ylw_pnk.png","../images/blu_wht.png","../images/gry_blk.png","../images/pnk_blu.png"],"mutagen_generator_assignment":[1,0],"goal":8,"start":3,"action_noise":0.15,"location_history":"[3,0,1,2,6,10,2,3,7,8]","action_history":"[0,1,1,1,1,1,0,0,0]","mutagen_history":"[1,0,0,0,0,0,1,1,1]","location_rts":"[1633,917,716,464,529,411,325,592,736]","trial_type":"fractal-mutation","trial_index":47,"time_elapsed":1328452,"internal_node_id":"0.0-5.0-8.0"},{"group":"dicyclic group of order 12","fractal_assignment":["../images/grn_red.png","../images/grn_blu.png","../images/grn_prp.png","../images/org_blu.png","../images/red_prp.png","../images/ylw_slt.png","../images/cyn_red.png","../images/wht_red.png","../images/ylw_pnk.png","../images/blu_wht.png","../images/gry_blk.png","../images/pnk_blu.png"],"mutagen_generator_assignment":[1,0],"goal":1,"start":8,"action_noise":0.15,"location_history":"[8,5,10,7,8,0,1]","action_history":"[1,0,0,0,1,0]","mutagen_history":"[0,1,1,1,0,1]","location_rts":"[788,893,274,389,446,439]","trial_type":"fractal-mutation","trial_index":48,"time_elapsed":1342278,"internal_node_id":"0.0-5.0-9.0"},{"group":"dicyclic group of order 12","fractal_assignment":["../images/grn_red.png","../images/grn_blu.png","../images/grn_prp.png","../images/org_blu.png","../images/red_prp.png","../images/ylw_slt.png","../images/cyn_red.png","../images/wht_red.png","../images/ylw_pnk.png","../images/blu_wht.png","../images/gry_blk.png","../images/pnk_blu.png"],"mutagen_generator_assignment":[1,0],"goal":7,"start":1,"action_noise":0.15,"location_history":"[1,5,9,1,5,10,7]","action_history":"[1,1,1,0,0,0]","mutagen_history":"[0,0,0,1,1,1]","location_rts":"[1223,463,388,390,301,328]","trial_type":"fractal-mutation","trial_index":49,"time_elapsed":1355749,"internal_node_id":"0.0-5.0-10.0"},{"group":"dicyclic group of order 12","fractal_assignment":["../images/grn_red.png","../images/grn_blu.png","../images/grn_prp.png","../images/org_blu.png","../images/red_prp.png","../images/ylw_slt.png","../images/cyn_red.png","../images/wht_red.png","../images/ylw_pnk.png","../images/blu_wht.png","../images/gry_blk.png","../images/pnk_blu.png"],"mutagen_generator_assignment":[1,0],"goal":5,"start":7,"action_noise":0.15,"location_history":"[7,11,3,7,8,5]","action_history":"[1,1,1,1,0]","mutagen_history":"[0,0,0,0,1]","location_rts":"[1946,470,362,393,339]","trial_type":"fractal-mutation","trial_index":50,"time_elapsed":1368108,"internal_node_id":"0.0-5.0-11.0"},{"group":"dicyclic group of order 12","fractal_assignment":["../images/grn_red.png","../images/grn_blu.png","../images/grn_prp.png","../images/org_blu.png","../images/red_prp.png","../images/ylw_slt.png","../images/cyn_red.png","../images/wht_red.png","../images/ylw_pnk.png","../images/blu_wht.png","../images/gry_blk.png","../images/pnk_blu.png"],"mutagen_generator_assignment":[1,0],"goal":8,"start":5,"action_noise":0.15,"location_history":"[5,10,7,11,4,8]","action_history":"[0,0,0,0,1]","mutagen_history":"[1,1,1,1,0]","location_rts":"[1973,411,367,373,298]","trial_type":"fractal-mutation","trial_index":51,"time_elapsed":1381183,"internal_node_id":"0.0-5.0-12.0"},{"group":"dicyclic group of order 12","fractal_assignment":["../images/grn_red.png","../images/grn_blu.png","../images/grn_prp.png","../images/org_blu.png","../images/red_prp.png","../images/ylw_slt.png","../images/cyn_red.png","../images/wht_red.png","../images/ylw_pnk.png","../images/blu_wht.png","../images/gry_blk.png","../images/pnk_blu.png"],"mutagen_generator_assignment":[1,0],"goal":11,"start":8,"action_noise":0.15,"location_history":"[8,5,9,6,10,7,11]","action_history":"[0,1,1,1,0,1]","mutagen_history":"[1,0,0,0,1,0]","location_rts":"[939,585,658,511,453,388]","trial_type":"fractal-mutation","trial_index":52,"time_elapsed":1395260,"internal_node_id":"0.0-5.0-13.0"},{"group":"dicyclic group of order 12","fractal_assignment":["../images/grn_red.png","../images/grn_blu.png","../images/grn_prp.png","../images/org_blu.png","../images/red_prp.png","../images/ylw_slt.png","../images/cyn_red.png","../images/wht_red.png","../images/ylw_pnk.png","../images/blu_wht.png","../images/gry_blk.png","../images/pnk_blu.png"],"mutagen_generator_assignment":[1,0],"goal":6,"start":11,"action_noise":0.15,"location_history":"[11,4,8,0,4,8,5,9,1,2,3,0,1,5,9,1,2,6]","action_history":"[0,1,1,1,1,0,1,1,0,0,0,0,1,0,1,0,1]","mutagen_history":"[1,0,0,0,0,1,0,0,1,1,1,1,0,1,0,1,0]","location_rts":"[988,944,624,466,423,511,767,694,322,447,410,478,454,436,382,361,460]","trial_type":"fractal-mutation","trial_index":53,"time_elapsed":1428269,"internal_node_id":"0.0-5.0-14.0"},{"group":"dicyclic group of order 12","fractal_assignment":["../images/grn_red.png","../images/grn_blu.png","../images/grn_prp.png","../images/org_blu.png","../images/red_prp.png","../images/ylw_slt.png","../images/cyn_red.png","../images/wht_red.png","../images/ylw_pnk.png","../images/blu_wht.png","../images/gry_blk.png","../images/pnk_blu.png"],"mutagen_generator_assignment":[1,0],"goal":7,"start":6,"action_noise":0.15,"location_history":"[6,11,3,0,4,8,0,1,5,10,7]","action_history":"[0,1,0,1,0,1,0,1,0,1]","mutagen_history":"[1,0,1,0,1,0,1,0,1,0]","location_rts":"[1071,931,1035,406,517,492,450,392,418,675]","trial_type":"fractal-mutation","trial_index":54,"time_elapsed":1450179,"internal_node_id":"0.0-5.0-15.0"},{"group":"dicyclic group of order 12","fractal_assignment":["../images/grn_red.png","../images/grn_blu.png","../images/grn_prp.png","../images/org_blu.png","../images/red_prp.png","../images/ylw_slt.png","../images/cyn_red.png","../images/wht_red.png","../images/ylw_pnk.png","../images/blu_wht.png","../images/gry_blk.png","../images/pnk_blu.png"],"mutagen_generator_assignment":[1,0],"goal":10,"start":7,"action_noise":0.15,"location_history":"[7,8,5,9,1,2,3,0,4,8,5,10]","action_history":"[0,0,0,1,0,0,0,0,1,0,0]","mutagen_history":"[1,1,1,0,1,1,1,1,0,1,1]","location_rts":"[1616,355,326,1002,637,494,339,523,304,840,499]","trial_type":"fractal-mutation","trial_index":55,"time_elapsed":1474090,"internal_node_id":"0.0-5.0-16.0"},{"group":"dicyclic group of order 12","fractal_assignment":["../images/grn_red.png","../images/grn_blu.png","../images/grn_prp.png","../images/org_blu.png","../images/red_prp.png","../images/ylw_slt.png","../images/cyn_red.png","../images/wht_red.png","../images/ylw_pnk.png","../images/blu_wht.png","../images/gry_blk.png","../images/pnk_blu.png"],"mutagen_generator_assignment":[1,0],"goal":0,"start":10,"action_noise":0.15,"location_history":"[10,2,6,11,3,0]","action_history":"[0,1,1,1,0]","mutagen_history":"[1,0,0,0,1]","location_rts":"[902,562,840,535,552]","trial_type":"fractal-mutation","trial_index":56,"time_elapsed":1486923,"internal_node_id":"0.0-5.0-17.0"},{"group":"dicyclic group of order 12","fractal_assignment":["../images/grn_red.png","../images/grn_blu.png","../images/grn_prp.png","../images/org_blu.png","../images/red_prp.png","../images/ylw_slt.png","../images/cyn_red.png","../images/wht_red.png","../images/ylw_pnk.png","../images/blu_wht.png","../images/gry_blk.png","../images/pnk_blu.png"],"mutagen_generator_assignment":[1,0],"goal":9,"start":0,"action_noise":0.15,"location_history":"[0,4,8,5,10,7,11,4,8,0,1,5,10,2,3,0,4,8,0,4,8,0,4,9]","action_history":"[1,0,0,0,0,1,1,1,1,0,1,0,1,0,1,1,1,1,0,1,1,1,0]","mutagen_history":"[0,1,1,1,1,0,0,0,0,1,0,1,0,1,0,0,0,0,1,0,0,0,1]","location_rts":"[692,987,356,307,397,522,576,318,419,523,476,768,309,479,411,931,528,414,797,337,533,544,344]","trial_type":"fractal-mutation","trial_index":57,"time_elapsed":1529551,"internal_node_id":"0.0-5.0-18.0"},{"group":"dicyclic group of order 12","fractal_assignment":["../images/grn_red.png","../images/grn_blu.png","../images/grn_prp.png","../images/org_blu.png","../images/red_prp.png","../images/ylw_slt.png","../images/cyn_red.png","../images/wht_red.png","../images/ylw_pnk.png","../images/blu_wht.png","../images/gry_blk.png","../images/pnk_blu.png"],"mutagen_generator_assignment":[1,0],"goal":4,"start":9,"action_noise":0.15,"location_history":"[9,6,10,2,6,10,7,8,5,10,7,8,5,10,2,6,11,3,0,4]","action_history":"[0,1,1,1,1,0,0,0,0,1,0,0,0,1,1,0,1,0,1]","mutagen_history":"[1,0,0,0,0,1,1,1,1,0,1,1,1,0,0,1,0,1,0]","location_rts":"[671,1157,544,424,501,371,478,306,323,348,776,486,386,331,125115,257,440,523,482]","trial_type":"fractal-mutation","trial_index":58,"time_elapsed":1689861,"internal_node_id":"0.0-5.0-19.0"},{"group":"dicyclic group of order 12","fractal_assignment":["../images/grn_red.png","../images/grn_blu.png","../images/grn_prp.png","../images/org_blu.png","../images/red_prp.png","../images/ylw_slt.png","../images/cyn_red.png","../images/wht_red.png","../images/ylw_pnk.png","../images/blu_wht.png","../images/gry_blk.png","../images/pnk_blu.png"],"mutagen_generator_assignment":[1,0],"goal":2,"start":4,"action_noise":0.15,"location_history":"[4,9,1,5,9,6,10,7,8,0,1,5,9,6,11,4,9,6,11,4,9,6,10,2]","action_history":"[0,1,0,1,0,0,0,0,1,1,1,1,0,0,0,0,1,0,0,0,0,1,1]","mutagen_history":"[1,0,1,0,1,1,1,1,0,0,0,0,1,1,1,1,0,1,1,1,1,0,0]","location_rts":"[1138,414,1011,378,341,338,353,348,334,403,535,432,288,337,353,372,383,453,907,382,489,324,456]","trial_type":"fractal-mutation","trial_index":59,"time_elapsed":1732160,"internal_node_id":"0.0-5.0-20.0"},{"group":"dicyclic group of order 12","fractal_assignment":["../images/grn_red.png","../images/grn_blu.png","../images/grn_prp.png","../images/org_blu.png","../images/red_prp.png","../images/ylw_slt.png","../images/cyn_red.png","../images/wht_red.png","../images/ylw_pnk.png","../images/blu_wht.png","../images/gry_blk.png","../images/pnk_blu.png"],"mutagen_generator_assignment":[1,0],"goal":1,"start":2,"action_noise":0.15,"location_history":"[2,3,0,1]","action_history":"[0,0,0]","mutagen_history":"[1,1,1]","location_rts":"[1076,597,384]","trial_type":"fractal-mutation","trial_index":60,"time_elapsed":1741486,"internal_node_id":"0.0-5.0-21.0"},{"group":"dicyclic group of order 12","fractal_assignment":["../images/grn_red.png","../images/grn_blu.png","../images/grn_prp.png","../images/org_blu.png","../images/red_prp.png","../images/ylw_slt.png","../images/cyn_red.png","../images/wht_red.png","../images/ylw_pnk.png","../images/blu_wht.png","../images/gry_blk.png","../images/pnk_blu.png"],"mutagen_generator_assignment":[1,0],"goal":3,"start":1,"action_noise":0.15,"location_history":"[1,2,6,11,3]","action_history":"[0,1,1,1]","mutagen_history":"[1,0,0,0]","location_rts":"[439,542,558,321]","trial_type":"fractal-mutation","trial_index":61,"time_elapsed":1751519,"internal_node_id":"0.0-5.0-22.0"},{"group":"dicyclic group of order 12","fractal_assignment":["../images/grn_red.png","../images/grn_blu.png","../images/grn_prp.png","../images/org_blu.png","../images/red_prp.png","../images/ylw_slt.png","../images/cyn_red.png","../images/wht_red.png","../images/ylw_pnk.png","../images/blu_wht.png","../images/gry_blk.png","../images/pnk_blu.png"],"mutagen_generator_assignment":[1,0],"goal":7,"start":3,"action_noise":0.15,"location_history":"[3,7]","action_history":"[0]","mutagen_history":"[1]","location_rts":"[1580]","trial_type":"fractal-mutation","trial_index":62,"time_elapsed":1757846,"internal_node_id":"0.0-5.0-23.0"},{"group":"dicyclic group of order 12","fractal_assignment":["../images/grn_red.png","../images/grn_blu.png","../images/grn_prp.png","../images/org_blu.png","../images/red_prp.png","../images/ylw_slt.png","../images/cyn_red.png","../images/wht_red.png","../images/ylw_pnk.png","../images/blu_wht.png","../images/gry_blk.png","../images/pnk_blu.png"],"mutagen_generator_assignment":[1,0],"goal":6,"start":7,"action_noise":0.15,"location_history":"[7,8,0,4,8,5,9,1,5,10,2,6]","action_history":"[0,1,1,1,0,1,1,1,0,1,1]","mutagen_history":"[1,0,0,0,1,0,0,0,1,0,0]","location_rts":"[2081,353,328,345,422,398,384,445,405,372,654]","trial_type":"fractal-mutation","trial_index":63,"time_elapsed":1780539,"internal_node_id":"0.0-5.0-24.0"},{"group":"dicyclic group of order 12","fractal_assignment":["../images/grn_red.png","../images/grn_blu.png","../images/grn_prp.png","../images/org_blu.png","../images/red_prp.png","../images/ylw_slt.png","../images/cyn_red.png","../images/wht_red.png","../images/ylw_pnk.png","../images/blu_wht.png","../images/gry_blk.png","../images/pnk_blu.png"],"mutagen_generator_assignment":[1,0],"goal":2,"start":6,"action_noise":0.15,"location_history":"[6,10,2]","action_history":"[0,1]","mutagen_history":"[1,0]","location_rts":"[1833,372]","trial_type":"fractal-mutation","trial_index":64,"time_elapsed":1788700,"internal_node_id":"0.0-5.0-25.0"},{"group":"dicyclic group of order 12","fractal_assignment":["../images/grn_red.png","../images/grn_blu.png","../images/grn_prp.png","../images/org_blu.png","../images/red_prp.png","../images/ylw_slt.png","../images/cyn_red.png","../images/wht_red.png","../images/ylw_pnk.png","../images/blu_wht.png","../images/gry_blk.png","../images/pnk_blu.png"],"mutagen_generator_assignment":[1,0],"goal":8,"start":2,"action_noise":0.15,"location_history":"[2,3,7,11,3,0,4,9,1,2,6,10,2,3,0,1,5,10,7,8]","action_history":"[0,1,1,1,0,1,1,1,0,1,1,1,0,0,0,1,0,0,0]","mutagen_history":"[1,0,0,0,1,0,0,0,1,0,0,0,1,1,1,0,1,1,1]","location_rts":"[653,465,839,365,415,436,383,379,313,540,426,303,520,523,386,386,293,289,382]","trial_type":"fractal-mutation","trial_index":65,"time_elapsed":1823222,"internal_node_id":"0.0-5.0-26.0"},{"group":"dicyclic group of order 12","fractal_assignment":["../images/grn_red.png","../images/grn_blu.png","../images/grn_prp.png","../images/org_blu.png","../images/red_prp.png","../images/ylw_slt.png","../images/cyn_red.png","../images/wht_red.png","../images/ylw_pnk.png","../images/blu_wht.png","../images/gry_blk.png","../images/pnk_blu.png"],"mutagen_generator_assignment":[1,0],"goal":0,"start":8,"action_noise":0.15,"location_history":"[8,0]","action_history":"[1]","mutagen_history":"[0]","location_rts":"[523]","trial_type":"fractal-mutation","trial_index":66,"time_elapsed":1828278,"internal_node_id":"0.0-5.0-27.0"},{"group":"dicyclic group of order 12","fractal_assignment":["../images/grn_red.png","../images/grn_blu.png","../images/grn_prp.png","../images/org_blu.png","../images/red_prp.png","../images/ylw_slt.png","../images/cyn_red.png","../images/wht_red.png","../images/ylw_pnk.png","../images/blu_wht.png","../images/gry_blk.png","../images/pnk_blu.png"],"mutagen_generator_assignment":[1,0],"goal":3,"start":0,"action_noise":0.15,"location_history":"[0,1,5,9,6,11,3]","action_history":"[0,1,1,1,0,1]","mutagen_history":"[1,0,0,0,1,0]","location_rts":"[1072,525,309,384,298,242]","trial_type":"fractal-mutation","trial_index":67,"time_elapsed":1841738,"internal_node_id":"0.0-5.0-28.0"},{"group":"dicyclic group of order 12","fractal_assignment":["../images/grn_red.png","../images/grn_blu.png","../images/grn_prp.png","../images/org_blu.png","../images/red_prp.png","../images/ylw_slt.png","../images/cyn_red.png","../images/wht_red.png","../images/ylw_pnk.png","../images/blu_wht.png","../images/gry_blk.png","../images/pnk_blu.png"],"mutagen_generator_assignment":[1,0],"goal":4,"start":3,"action_noise":0.15,"location_history":"[3,0,4]","action_history":"[0,1]","mutagen_history":"[1,0]","location_rts":"[557,424]","trial_type":"fractal-mutation","trial_index":68,"time_elapsed":1848603,"internal_node_id":"0.0-5.0-29.0"},{"group":"dicyclic group of order 12","fractal_assignment":["../images/grn_red.png","../images/grn_blu.png","../images/grn_prp.png","../images/org_blu.png","../images/red_prp.png","../images/ylw_slt.png","../images/cyn_red.png","../images/wht_red.png","../images/ylw_pnk.png","../images/blu_wht.png","../images/gry_blk.png","../images/pnk_blu.png"],"mutagen_generator_assignment":[1,0],"goal":10,"start":4,"action_noise":0.15,"location_history":"[4,9,1,2,6,11,3,0,4,9,1,2,6,11,3,0,1,2,3,0,1,5,9,6,10]","action_history":"[0,1,0,0,0,1,0,0,0,1,1,1,0,1,1,1,0,0,0,1,0,0,0,1]","mutagen_history":"[1,0,1,1,1,0,1,1,1,0,0,0,1,0,0,0,1,1,1,0,1,1,1,0]","location_rts":"[515,458,1228,350,333,541,294,418,536,58775,687,350,452,385,288,305,295,541,327,356,267,315,327,424]","trial_type":"fractal-mutation","trial_index":69,"time_elapsed":1949855,"internal_node_id":"0.0-5.0-30.0"},{"group":"dicyclic group of order 12","fractal_assignment":["../images/grn_red.png","../images/grn_blu.png","../images/grn_prp.png","../images/org_blu.png","../images/red_prp.png","../images/ylw_slt.png","../images/cyn_red.png","../images/wht_red.png","../images/ylw_pnk.png","../images/blu_wht.png","../images/gry_blk.png","../images/pnk_blu.png"],"mutagen_generator_assignment":[1,0],"goal":11,"start":10,"action_noise":0.15,"location_history":"[10,2,6,11]","action_history":"[1,1,0]","mutagen_history":"[0,0,1]","location_rts":"[6748,13282,389]","trial_type":"fractal-mutation","trial_index":70,"time_elapsed":1977092,"internal_node_id":"0.0-5.0-31.0"},{"group":"dicyclic group of order 12","fractal_assignment":["../images/grn_red.png","../images/grn_blu.png","../images/grn_prp.png","../images/org_blu.png","../images/red_prp.png","../images/ylw_slt.png","../images/cyn_red.png","../images/wht_red.png","../images/ylw_pnk.png","../images/blu_wht.png","../images/gry_blk.png","../images/pnk_blu.png"],"mutagen_generator_assignment":[1,0],"goal":1,"start":11,"action_noise":0.15,"location_history":"[11,3,7,11,4,8,5,9,6,10,7,11,4,9,6,11,3,7,11,4,9,6,10,2,3,0,4,9,6,11,4,9,1]","action_history":"[1,1,1,0,1,0,1,0,1,0,1,0,0,0,1,1,1,1,0,0,0,1,0,0,0,1,0,0,0,0,0,1]","mutagen_history":"[0,0,0,1,0,1,0,1,0,1,0,1,1,1,0,0,0,0,1,1,1,0,1,1,1,0,1,1,1,1,1,0]","location_rts":"[349,437,283,555,309,330,282,323,386,247,269,232,221,250,325,402,340,522,258,288,264,372,236,371,313,526,312,331,216,393,224,247]","trial_type":"fractal-mutation","trial_index":71,"time_elapsed":2029110,"internal_node_id":"0.0-5.0-32.0"},{"group":"dicyclic group of order 12","fractal_assignment":["../images/grn_red.png","../images/grn_blu.png","../images/grn_prp.png","../images/org_blu.png","../images/red_prp.png","../images/ylw_slt.png","../images/cyn_red.png","../images/wht_red.png","../images/ylw_pnk.png","../images/blu_wht.png","../images/gry_blk.png","../images/pnk_blu.png"],"mutagen_generator_assignment":[1,0],"goal":5,"start":1,"action_noise":0.15,"location_history":"[1,5]","action_history":"[1]","mutagen_history":"[0]","location_rts":"[588]","trial_type":"fractal-mutation","trial_index":72,"time_elapsed":2034226,"internal_node_id":"0.0-5.0-33.0"},{"group":"dicyclic group of order 12","fractal_assignment":["../images/grn_red.png","../images/grn_blu.png","../images/grn_prp.png","../images/org_blu.png","../images/red_prp.png","../images/ylw_slt.png","../images/cyn_red.png","../images/wht_red.png","../images/ylw_pnk.png","../images/blu_wht.png","../images/gry_blk.png","../images/pnk_blu.png"],"mutagen_generator_assignment":[1,0],"goal":9,"start":5,"action_noise":0.15,"location_history":"[5,9]","action_history":"[1]","mutagen_history":"[0]","location_rts":"[528]","trial_type":"fractal-mutation","trial_index":73,"time_elapsed":2039282,"internal_node_id":"0.0-5.0-34.0"},{"view_history":"[{\"page_index\":0,\"viewing_time\":13860}]","rt":13861,"trial_type":"instructions","trial_index":74,"time_elapsed":2054143,"internal_node_id":"0.0-6.0"},{"rt":4371,"responses":"{\"Q0\":\"\"}","trial_type":"survey-text","trial_index":75,"time_elapsed":2059522,"internal_node_id":"0.0-7.0"}]