[{"view_history":"[{\"page_index\":0,\"viewing_time\":7881},{\"page_index\":1,\"viewing_time\":879},{\"page_index\":2,\"viewing_time\":804},{\"page_index\":3,\"viewing_time\":708}]","rt":10273,"trial_type":"instructions","trial_index":0,"time_elapsed":10276,"internal_node_id":"0.0-0.0"},{"view_history":"[{\"page_index\":0,\"viewing_time\":1360},{\"page_index\":1,\"viewing_time\":943}]","rt":2304,"trial_type":"instructions","trial_index":1,"time_elapsed":13581,"internal_node_id":"0.0-1.0"},{"group":"dihedral group of order 12","room_assignment":["green","yellow","red","brown","orange","olive","ivory","purple","grey","pink","cyan","blue"],"door_color_assignment":["white","black"],"door_generator_assignment":[0,1],"goal":4,"start":0,"action_noise":0.15,"location_history":"[0,6,11,10,9,3,4]","action_history":"[1,0,1,0,1,0]","door_history":"[1,0,1,0,1,0]","location_rts":"[1209,25,501,897,796,340]","trial_type":"two-door-navigation","trial_index":2,"time_elapsed":27007,"internal_node_id":"0.0-2.0-0.0"},{"group":"dihedral group of order 12","room_assignment":["green","yellow","red","brown","orange","olive","ivory","purple","grey","pink","cyan","blue"],"door_color_assignment":["white","black"],"door_generator_assignment":[0,1],"goal":9,"start":4,"action_noise":0.15,"location_history":"[4,5,0,1,7,6,0,1,7,1,7,6,11,5,0,6,11,5,0,6,11,5,11,5,11,10,4,10,4,5,11,5,11,10,9]","action_history":"[0,1,0,1,0,1,0,1,0,1,0,0,1,0,1,0,1,0,1,0,1,1,0,1,0,1,0,1,0,1,0,1,0,1]","door_history":"[0,1,0,1,0,1,0,1,0,1,0,0,1,0,1,0,1,0,1,0,1,1,0,1,0,1,0,1,0,1,0,1,0,1]","location_rts":"[2957,408,779,429,398,391,1147,73678,422,359,3374,6677,420,4201,471,158,369,380,233,63,309,8027,4209,2447,359,2125,300,767,344,140,347,341,379,321]","trial_type":"two-door-navigation","trial_index":3,"time_elapsed":183092,"internal_node_id":"0.0-2.0-1.0"},{"group":"dihedral group of order 12","room_assignment":["green","yellow","red","brown","orange","olive","ivory","purple","grey","pink","cyan","blue"],"door_color_assignment":["white","black"],"door_generator_assignment":[0,1],"goal":10,"start":9,"action_noise":0.15,"location_history":"[9,8,2,3,4,5,11,10]","action_history":"[0,1,0,1,0,1,0]","door_history":"[0,1,0,1,0,1,0]","location_rts":"[62537,578,33,43,342,98,131]","trial_type":"two-door-navigation","trial_index":4,"time_elapsed":257546,"internal_node_id":"0.0-2.0-2.0"},{"group":"dihedral group of order 12","room_assignment":["green","yellow","red","brown","orange","olive","ivory","purple","grey","pink","cyan","blue"],"door_color_assignment":["white","black"],"door_generator_assignment":[0,1],"goal":2,"start":10,"action_noise":0.15,"location_history":"[10,9,3,4,10,9,8,2]","action_history":"[0,1,0,1,1,0,1]","door_history":"[0,1,0,1,1,0,1]","location_rts":"[1287,516,322,346,669,75,164]","trial_type":"two-door-navigation","trial_index":5,"time_elapsed":271593,"internal_node_id":"0.0-2.0-3.0"},{"group":"dihedral group of order 12","room_assignment":["green","yellow","red","brown","orange","olive","ivory","purple","grey","pink","cyan","blue"],"door_color_assignment":["white","black"],"door_generator_assignment":[0,1],"goal":5,"start":2,"action_noise":0.15,"location_history":"[2,3,9,8,2,3,9,3,4,10,9,3,4,10,4,5]","action_history":"[0,1,0,1,0,1,0,1,1,0,1,0,1,1,0]","door_history":"[0,1,0,1,0,1,0,1,1,0,1,0,1,1,0]","location_rts":"[1548,338,538,311,305,232,1635,246,625,193,298,210,305,681,87]","trial_type":"two-door-navigation","trial_index":6,"time_elapsed":297991,"internal_node_id":"0.0-2.0-4.0"},{"group":"dihedral group of order 12","room_assignment":["green","yellow","red","brown","orange","olive","ivory","purple","grey","pink","cyan","blue"],"door_color_assignment":["white","black"],"door_generator_assignment":[0,1],"goal":11,"start":5,"action_noise":0.15,"location_history":"[5,0,6,11]","action_history":"[0,1,0]","door_history":"[0,1,0]","location_rts":"[1244,358,64]","trial_type":"two-door-navigation","trial_index":7,"time_elapsed":306237,"internal_node_id":"0.0-2.0-5.0"},{"group":"dihedral group of order 12","room_assignment":["green","yellow","red","brown","orange","olive","ivory","purple","grey","pink","cyan","blue"],"door_color_assignment":["white","black"],"door_generator_assignment":[0,1],"goal":6,"start":11,"action_noise":0.15,"location_history":"[11,10,4,5,11,5,0,6]","action_history":"[0,1,0,1,1,0,1]","door_history":"[0,1,0,1,1,0,1]","location_rts":"[7079,535,550,397,567,87,3298]","trial_type":"two-door-navigation","trial_index":8,"time_elapsed":329409,"internal_node_id":"0.0-2.0-6.0"},{"group":"dihedral group of order 12","room_assignment":["green","yellow","red","brown","orange","olive","ivory","purple","grey","pink","cyan","blue"],"door_color_assignment":["white","black"],"door_generator_assignment":[0,1],"goal":3,"start":6,"action_noise":0.15,"location_history":"[6,0,1,7,6,0,6,11,5,11,5,0,6,11,10,4,5,11,10,4,5,11,10,4,5,11,5,0,6,0,6,11,10,4,5,11,10,9,3]","action_history":"[1,0,1,0,1,0,0,1,0,1,0,1,0,0,1,0,1,0,1,0,1,0,1,0,1,1,0,1,0,1,0,0,1,0,1,0,1,0]","door_history":"[1,0,1,0,1,0,0,1,0,1,0,1,0,0,1,0,1,0,1,0,1,0,1,0,1,1,0,1,0,1,0,0,1,0,1,0,1,0]","location_rts":"[1352,14,152,405,1500,40,34190,10307,171,165,444,168,30,19964,520,42,298,460,50,81,140,408,31,414,311,1110,99,788,456,177,2826,40526,589,738,35,117,176,319]","trial_type":"two-door-navigation","trial_index":9,"time_elapsed":491384,"internal_node_id":"0.0-2.0-7.0"},{"group":"dihedral group of order 12","room_assignment":["green","yellow","red","brown","orange","olive","ivory","purple","grey","pink","cyan","blue"],"door_color_assignment":["white","black"],"door_generator_assignment":[0,1],"goal":8,"start":3,"action_noise":0.15,"location_history":"[3,9,8]","action_history":"[1,0]","door_history":"[1,0]","location_rts":"[1164,82]","trial_type":"two-door-navigation","trial_index":10,"time_elapsed":498193,"internal_node_id":"0.0-2.0-8.0"},{"group":"dihedral group of order 12","room_assignment":["green","yellow","red","brown","orange","olive","ivory","purple","grey","pink","cyan","blue"],"door_color_assignment":["white","black"],"door_generator_assignment":[0,1],"goal":1,"start":8,"action_noise":0.15,"location_history":"[8,2,8,7,1]","action_history":"[1,1,0,1]","door_history":"[1,1,0,1]","location_rts":"[992,505,123,390]","trial_type":"two-door-navigation","trial_index":11,"time_elapsed":509592,"internal_node_id":"0.0-2.0-9.0"},{"group":"dihedral group of order 12","room_assignment":["green","yellow","red","brown","orange","olive","ivory","purple","grey","pink","cyan","blue"],"door_color_assignment":["white","black"],"door_generator_assignment":[0,1],"goal":7,"start":1,"action_noise":0.15,"location_history":"[1,2,8,2,8,7]","action_history":"[0,1,0,1,0]","door_history":"[0,1,0,1,0]","location_rts":"[15065,142,259,337,38]","trial_type":"two-door-navigation","trial_index":12,"time_elapsed":534076,"internal_node_id":"0.0-2.0-10.0"},{"group":"dihedral group of order 12","room_assignment":["green","yellow","red","brown","orange","olive","ivory","purple","grey","pink","cyan","blue"],"door_color_assignment":["white","black"],"door_generator_assignment":[0,1],"goal":5,"start":7,"action_noise":0.15,"location_history":"[7,1,2,8,7,6,0,6,0,1,7,1,2,3,9,3,9,8,2,8,2,8,7,1,2,8,7,1,2,8,7,1,2,3,9,3,4,10,9,3,4,10,9,3,4,5]","action_history":"[1,0,1,0,1,0,1,1,0,1,1,0,1,1,0,1,0,1,0,1,1,0,1,0,1,0,1,0,1,0,1,0,0,1,1,0,1,0,1,0,1,0,1,0,1]","door_history":"[1,0,1,0,1,0,1,1,0,1,1,0,1,1,0,1,0,1,0,1,1,0,1,0,1,0,1,0,1,0,1,0,0,1,1,0,1,0,1,0,1,0,1,0,1]","location_rts":"[620,308,112,23,315,323,290,521,389,239,6976,224,86,222,12,20,530,4809,225,592,384,327,202,12,306,65,479,307,240,464,33,177,591,54,672,352,115,60,252,617,73,93,315,787,197]","trial_type":"two-door-navigation","trial_index":13,"time_elapsed":610594,"internal_node_id":"0.0-2.0-11.0"},{"group":"dihedral group of order 12","room_assignment":["green","yellow","red","brown","orange","olive","ivory","purple","grey","pink","cyan","blue"],"door_color_assignment":["white","black"],"door_generator_assignment":[0,1],"goal":8,"start":5,"action_noise":0.15,"location_history":"[5,11,10,4,10,4,5,11,10,4,5,11,10,9,3,4,10,4,5,11,10,9,8]","action_history":"[1,0,1,0,1,0,1,0,1,0,1,1,0,1,0,1,1,0,1,0,0,1]","door_history":"[1,0,1,0,1,0,1,0,1,0,1,1,0,1,0,1,1,0,1,0,0,1]","location_rts":"[2960,487,744,374,47,256,380,176,42,125,438,436,188,100,85,207,191,230,343,198,254,306]","trial_type":"two-door-navigation","trial_index":14,"time_elapsed":646253,"internal_node_id":"0.0-2.0-12.0"},{"group":"dihedral group of order 12","room_assignment":["green","yellow","red","brown","orange","olive","ivory","purple","grey","pink","cyan","blue"],"door_color_assignment":["white","black"],"door_generator_assignment":[0,1],"goal":11,"start":8,"action_noise":0.15,"location_history":"[8,7,1,7,6,0,6,0,6,11]","action_history":"[1,1,1,0,1,0,1,0,1]","door_history":"[1,1,1,0,1,0,1,0,1]","location_rts":"[602,862,634,197,290,240,438,319,273]","trial_type":"two-door-navigation","trial_index":15,"time_elapsed":662832,"internal_node_id":"0.0-2.0-13.0"},{"group":"dihedral group of order 12","room_assignment":["green","yellow","red","brown","orange","olive","ivory","purple","grey","pink","cyan","blue"],"door_color_assignment":["white","black"],"door_generator_assignment":[0,1],"goal":6,"start":11,"action_noise":0.15,"location_history":"[11,10,9,8,7,1,7,1,7,1,2,8,7,6]","action_history":"[1,0,1,0,1,1,0,1,0,0,1,0,0]","door_history":"[1,0,1,0,1,1,0,1,0,0,1,0,0]","location_rts":"[490,189,250,623,322,452,433,777,554,432,393,1529,460]","trial_type":"two-door-navigation","trial_index":16,"time_elapsed":686544,"internal_node_id":"0.0-2.0-14.0"},{"group":"dihedral group of order 12","room_assignment":["green","yellow","red","brown","orange","olive","ivory","purple","grey","pink","cyan","blue"],"door_color_assignment":["white","black"],"door_generator_assignment":[0,1],"goal":7,"start":6,"action_noise":0.15,"location_history":"[6,11,10,9,3,4,5,0,1,7]","action_history":"[0,0,0,1,0,0,0,0,1]","door_history":"[0,0,0,1,0,0,0,0,1]","location_rts":"[563,614,621,750,482,381,529,4264,304]","trial_type":"two-door-navigation","trial_index":17,"time_elapsed":707760,"internal_node_id":"0.0-2.0-15.0"},{"group":"dihedral group of order 12","room_assignment":["green","yellow","red","brown","orange","olive","ivory","purple","grey","pink","cyan","blue"],"door_color_assignment":["white","black"],"door_generator_assignment":[0,1],"goal":10,"start":7,"action_noise":0.15,"location_history":"[7,6,11,10]","action_history":"[0,0,1]","door_history":"[0,0,1]","location_rts":"[529,1327,813]","trial_type":"two-door-navigation","trial_index":18,"time_elapsed":717013,"internal_node_id":"0.0-2.0-16.0"},{"group":"dihedral group of order 12","room_assignment":["green","yellow","red","brown","orange","olive","ivory","purple","grey","pink","cyan","blue"],"door_color_assignment":["white","black"],"door_generator_assignment":[0,1],"goal":0,"start":10,"action_noise":0.15,"location_history":"[10,9,3,4,5,11,5,11,10,9,3,9,3,4,5,11,5,11,10,4,5,11,5,0]","action_history":"[0,1,0,0,1,0,0,0,0,1,1,1,0,0,1,0,0,0,1,0,1,1,0]","door_history":"[0,1,0,0,1,0,0,0,0,1,1,1,0,0,1,0,0,0,1,0,1,1,0]","location_rts":"[796,629,513,380,505,624,306,684,307,217,227,222,334,349,294,545,3,328,266,323,222,200,1028]","trial_type":"two-door-navigation","trial_index":19,"time_elapsed":753442,"internal_node_id":"0.0-2.0-17.0"},{"group":"dihedral group of order 12","room_assignment":["green","yellow","red","brown","orange","olive","ivory","purple","grey","pink","cyan","blue"],"door_color_assignment":["white","black"],"door_generator_assignment":[0,1],"goal":9,"start":0,"action_noise":0.15,"location_history":"[0,6,11,10,4,10,9]","action_history":"[1,0,0,1,0,0]","door_history":"[1,0,0,1,0,0]","location_rts":"[1484,526,412,472,344,274]","trial_type":"two-door-navigation","trial_index":20,"time_elapsed":766595,"internal_node_id":"0.0-2.0-18.0"},{"group":"dihedral group of order 12","room_assignment":["green","yellow","red","brown","orange","olive","ivory","purple","grey","pink","cyan","blue"],"door_color_assignment":["white","black"],"door_generator_assignment":[0,1],"goal":4,"start":9,"action_noise":0.15,"location_history":"[9,3,9,8,2,3,9,3,4]","action_history":"[1,1,0,1,0,1,1,0]","door_history":"[1,1,0,1,0,1,1,0]","location_rts":"[1160,1127,364,300,67,229,317,400]","trial_type":"two-door-navigation","trial_index":21,"time_elapsed":783080,"internal_node_id":"0.0-2.0-19.0"},{"group":"dihedral group of order 12","room_assignment":["green","yellow","red","brown","orange","olive","ivory","purple","grey","pink","cyan","blue"],"door_color_assignment":["white","black"],"door_generator_assignment":[0,1],"goal":2,"start":4,"action_noise":0.15,"location_history":"[4,5,11,10,4,5,11,10,4,5,0,1,7,6,11,10,9,3,4,10,9,8,7,6,0,6,11,10,4,5,0,6,11,5,0,6,11,5,0,1,7,1,2]","action_history":"[0,1,0,1,0,1,0,1,0,1,0,1,0,1,0,1,1,0,1,0,1,0,0,1,1,0,1,1,0,1,1,0,1,0,1,0,1,1,0,0,1,0]","door_history":"[0,1,0,1,0,1,0,1,0,1,0,1,0,1,0,1,1,0,1,0,1,0,0,1,1,0,1,1,0,1,1,0,1,0,1,0,1,1,0,0,1,0]","location_rts":"[667,296,535,42,193,267,81,60,100,97,248,332,352,427,124,322,273,1288,243,137,20,1439,145,180,44044,342,320,171,165,334,487,341,219,38,10437,120,197,1175,371,363,298,512]","trial_type":"two-door-navigation","trial_index":22,"time_elapsed":897432,"internal_node_id":"0.0-2.0-20.0"},{"group":"dihedral group of order 12","room_assignment":["green","yellow","red","brown","orange","olive","ivory","purple","grey","pink","cyan","blue"],"door_color_assignment":["white","black"],"door_generator_assignment":[0,1],"goal":1,"start":2,"action_noise":0.15,"location_history":"[2,8,7,6,0,1]","action_history":"[1,0,0,1,0]","door_history":"[1,0,0,1,0]","location_rts":"[658,376,21519,25409,666]","trial_type":"two-door-navigation","trial_index":23,"time_elapsed":954713,"internal_node_id":"0.0-2.0-21.0"},{"group":"dihedral group of order 12","room_assignment":["green","yellow","red","brown","orange","olive","ivory","purple","grey","pink","cyan","blue"],"door_color_assignment":["white","black"],"door_generator_assignment":[0,1],"goal":3,"start":1,"action_noise":0.15,"location_history":"[1,7,1,7,1,2,8,7,1,2,8,7,6,11,5,0,1,2,8,7,6,11,5,0,1,7,6,11,10,4,10,9,8,2,3]","action_history":"[1,0,1,1,0,1,0,1,0,1,0,1,0,1,0,1,0,1,0,1,0,1,0,1,1,0,0,0,1,1,0,0,1,0]","door_history":"[1,0,1,1,0,1,0,1,0,1,0,1,0,1,0,1,0,1,0,1,0,1,0,1,1,0,0,0,1,1,0,0,1,0]","location_rts":"[434,340,701,519,239,202,109,73,264,30,197,273,318,102,22,324,808,382,619,363,300,298,217,358,239,64,239,214,313,298,298,250,344,302]","trial_type":"two-door-navigation","trial_index":24,"time_elapsed":1003085,"internal_node_id":"0.0-2.0-22.0"},{"group":"dihedral group of order 12","room_assignment":["green","yellow","red","brown","orange","olive","ivory","purple","grey","pink","cyan","blue"],"door_color_assignment":["white","black"],"door_generator_assignment":[0,1],"goal":7,"start":3,"action_noise":0.15,"location_history":"[3,4,5,0,1,7]","action_history":"[1,0,0,0,1]","door_history":"[1,0,0,0,1]","location_rts":"[1012,131,231,256,142]","trial_type":"two-door-navigation","trial_index":25,"time_elapsed":1013474,"internal_node_id":"0.0-2.0-23.0"},{"group":"dihedral group of order 12","room_assignment":["green","yellow","red","brown","orange","olive","ivory","purple","grey","pink","cyan","blue"],"door_color_assignment":["white","black"],"door_generator_assignment":[0,1],"goal":6,"start":7,"action_noise":0.15,"location_history":"[7,1,2,3,4,5,11,10,9,8,7,6]","action_history":"[1,0,0,1,0,1,0,0,0,0,0]","door_history":"[1,0,0,1,0,1,0,0,0,0,0]","location_rts":"[433,200,184,563,93,201,297,314,324,269,292]","trial_type":"two-door-navigation","trial_index":26,"time_elapsed":1031413,"internal_node_id":"0.0-2.0-24.0"},{"group":"dihedral group of order 12","room_assignment":["green","yellow","red","brown","orange","olive","ivory","purple","grey","pink","cyan","blue"],"door_color_assignment":["white","black"],"door_generator_assignment":[0,1],"goal":2,"start":6,"action_noise":0.15,"location_history":"[6,11,5,0,6,11,10,9,8,2]","action_history":"[0,1,0,1,0,1,0,0,1]","door_history":"[0,1,0,1,0,1,0,0,1]","location_rts":"[59318,418,677,146,202,27,105,195,530]","trial_type":"two-door-navigation","trial_index":27,"time_elapsed":1105750,"internal_node_id":"0.0-2.0-25.0"},{"group":"dihedral group of order 12","room_assignment":["green","yellow","red","brown","orange","olive","ivory","purple","grey","pink","cyan","blue"],"door_color_assignment":["white","black"],"door_generator_assignment":[0,1],"goal":8,"start":2,"action_noise":0.15,"location_history":"[2,3,9,8]","action_history":"[0,1,0]","door_history":"[0,1,0]","location_rts":"[387,1021,74199]","trial_type":"two-door-navigation","trial_index":28,"time_elapsed":1188346,"internal_node_id":"0.0-2.0-26.0"},{"group":"dihedral group of order 12","room_assignment":["green","yellow","red","brown","orange","olive","ivory","purple","grey","pink","cyan","blue"],"door_color_assignment":["white","black"],"door_generator_assignment":[0,1],"goal":0,"start":8,"action_noise":0.15,"location_history":"[8,2,3,9,3,4,10,9,3,9,8,7,6,0]","action_history":"[1,0,1,1,0,1,0,1,1,0,1,0,1]","door_history":"[1,0,1,1,0,1,0,1,1,0,1,0,1]","location_rts":"[29773,208,146,614,167,103,44,15,544,283,513,831,132]","trial_type":"two-door-navigation","trial_index":29,"time_elapsed":1238552,"internal_node_id":"0.0-2.0-27.0"},{"group":"dihedral group of order 12","room_assignment":["green","yellow","red","brown","orange","olive","ivory","purple","grey","pink","cyan","blue"],"door_color_assignment":["white","black"],"door_generator_assignment":[0,1],"goal":3,"start":0,"action_noise":0.15,"location_history":"[0,1,7,1,2,3]","action_history":"[0,1,1,0,1]","door_history":"[0,1,1,0,1]","location_rts":"[878,202,44313,952,83]","trial_type":"two-door-navigation","trial_index":30,"time_elapsed":1293609,"internal_node_id":"0.0-2.0-28.0"},{"group":"dihedral group of order 12","room_assignment":["green","yellow","red","brown","orange","olive","ivory","purple","grey","pink","cyan","blue"],"door_color_assignment":["white","black"],"door_generator_assignment":[0,1],"goal":4,"start":3,"action_noise":0.15,"location_history":"[3,9,3,9,8,2,3,9,8,2,8,2,3,9,3,9,3,4]","action_history":"[1,0,1,0,1,0,1,0,1,0,1,0,1,0,1,1,0]","door_history":"[1,0,1,0,1,0,1,0,1,0,1,0,1,0,1,1,0]","location_rts":"[11228,62,367,186,2711,110,9,211,91,415,372,163,2241,117,198,291,607]","trial_type":"two-door-navigation","trial_index":31,"time_elapsed":1333869,"internal_node_id":"0.0-2.0-29.0"},{"group":"dihedral group of order 12","room_assignment":["green","yellow","red","brown","orange","olive","ivory","purple","grey","pink","cyan","blue"],"door_color_assignment":["white","black"],"door_generator_assignment":[0,1],"goal":10,"start":4,"action_noise":0.15,"location_history":"[4,10]","action_history":"[1]","door_history":"[1]","location_rts":"[17828]","trial_type":"two-door-navigation","trial_index":32,"time_elapsed":1356240,"internal_node_id":"0.0-2.0-30.0"},{"group":"dihedral group of order 12","room_assignment":["green","yellow","red","brown","orange","olive","ivory","purple","grey","pink","cyan","blue"],"door_color_assignment":["white","black"],"door_generator_assignment":[0,1],"goal":11,"start":10,"action_noise":0.15,"location_history":"[10,9,8,2,3,4,5,11]","action_history":"[0,0,1,0,1,0,1]","door_history":"[0,0,1,0,1,0,1]","location_rts":"[8103,11659,4826,869,188,115,2134]","trial_type":"two-door-navigation","trial_index":33,"time_elapsed":1394787,"internal_node_id":"0.0-2.0-31.0"},{"group":"dihedral group of order 12","room_assignment":["green","yellow","red","brown","orange","olive","ivory","purple","grey","pink","cyan","blue"],"door_color_assignment":["white","black"],"door_generator_assignment":[0,1],"goal":1,"start":11,"action_noise":0.15,"location_history":"[11,5,0,6,0,6,0,6,0,6,11,10,4,5,11,10,4,10,9,8,2,3,4,10,9,8,7,6,11,5,0,6,0,1]","action_history":"[1,0,1,0,1,1,1,1,1,1,0,1,0,1,0,1,0,1,0,1,0,0,0,1,0,0,1,0,1,0,1,1,0]","door_history":"[1,0,1,0,1,1,1,1,1,1,0,1,0,1,0,1,0,1,0,1,0,0,0,1,0,0,1,0,1,0,1,1,0]","location_rts":"[861,215,149,27,442,214,57,203,188,132,147,54,408,34,358,6233,198,432,286,41,115,668,674,238,535,550,337,77,104,190,100,496,67]","trial_type":"two-door-navigation","trial_index":34,"time_elapsed":1447009,"internal_node_id":"0.0-2.0-32.0"},{"group":"dihedral group of order 12","room_assignment":["green","yellow","red","brown","orange","olive","ivory","purple","grey","pink","cyan","blue"],"door_color_assignment":["white","black"],"door_generator_assignment":[0,1],"goal":5,"start":1,"action_noise":0.15,"location_history":"[1,7,1,7,6,11,5]","action_history":"[1,0,1,0,0,1]","door_history":"[1,0,1,0,0,1]","location_rts":"[15472,346,1025,19,21830,199]","trial_type":"two-door-navigation","trial_index":35,"time_elapsed":1495569,"internal_node_id":"0.0-2.0-33.0"},{"group":"dihedral group of order 12","room_assignment":["green","yellow","red","brown","orange","olive","ivory","purple","grey","pink","cyan","blue"],"door_color_assignment":["white","black"],"door_generator_assignment":[0,1],"goal":9,"start":5,"action_noise":0.15,"location_history":"[5,11,10,4,5,11,10,9]","action_history":"[1,0,1,0,1,0,1]","door_history":"[1,0,1,0,1,0,1]","location_rts":"[447,352,582,2384,267,122,738]","trial_type":"two-door-navigation","trial_index":36,"time_elapsed":1511128,"internal_node_id":"0.0-2.0-34.0"},{"view_history":"[{\"page_index\":0,\"viewing_time\":16857}]","rt":16858,"trial_type":"instructions","trial_index":37,"time_elapsed":1528987,"internal_node_id":"0.0-3.0"},{"view_history":"[{\"page_index\":0,\"viewing_time\":699},{\"page_index\":1,\"viewing_time\":898}]","rt":1598,"trial_type":"instructions","trial_index":38,"time_elapsed":1531585,"internal_node_id":"0.0-4.0"},{"group":"dihedral group of order 12","fractal_assignment":["../images/blu_wht.png","../images/red_prp.png","../images/pnk_blu.png","../images/ylw_slt.png","../images/grn_prp.png","../images/ylw_pnk.png","../images/gry_blk.png","../images/grn_red.png","../images/cyn_red.png","../images/wht_red.png","../images/org_blu.png","../images/grn_blu.png"],"mutagen_generator_assignment":[1,0],"goal":4,"start":0,"action_noise":0.15,"location_history":"[0,6,0,1,2,3,4]","action_history":"[1,0,1,0,0,0]","mutagen_history":"[0,1,0,1,1,1]","location_rts":"[5755,1009,528,496,484,739]","trial_type":"fractal-mutation","trial_index":39,"time_elapsed":1550991,"internal_node_id":"0.0-5.0-0.0"},{"group":"dihedral group of order 12","fractal_assignment":["../images/blu_wht.png","../images/red_prp.png","../images/pnk_blu.png","../images/ylw_slt.png","../images/grn_prp.png","../images/ylw_pnk.png","../images/gry_blk.png","../images/grn_red.png","../images/cyn_red.png","../images/wht_red.png","../images/org_blu.png","../images/grn_blu.png"],"mutagen_generator_assignment":[1,0],"goal":9,"start":4,"action_noise":0.15,"location_history":"[4,10,4,5,0,6,0,1,2,8,7,1,7,1,7,1,7,6,11,5,11,5,11,5,11,5,0,1,2,3,4,5,0,1,2,8,2,3,4,5,0,6,0,1,2,3,4,10,4,10,9]","action_history":"[1,0,0,0,1,1,1,0,0,0,1,1,1,0,0,0,0,0,1,1,1,1,1,1,1,0,0,0,0,1,0,0,0,0,1,1,1,0,0,0,1,1,0,0,0,0,1,1,1,0]","mutagen_history":"[0,1,1,1,0,0,0,1,1,1,0,0,0,1,1,1,1,1,0,0,0,0,0,0,0,1,1,1,1,0,1,1,1,1,0,0,0,1,1,1,0,0,1,1,1,1,0,0,0,1]","location_rts":"[4222,416,446,1570,379,400,1550,1824,4244,10408,283,582,350,448,6364,529,141,133,346,194,24,1146,1407,972,25,5826,1423,266,264,240,250,400,212,357,448,394,313,66,284,573,676,110,4462,324,3170,1985,305,309,18,295]","trial_type":"fractal-mutation","trial_index":40,"time_elapsed":1673135,"internal_node_id":"0.0-5.0-1.0"},{"group":"dihedral group of order 12","fractal_assignment":["../images/blu_wht.png","../images/red_prp.png","../images/pnk_blu.png","../images/ylw_slt.png","../images/grn_prp.png","../images/ylw_pnk.png","../images/gry_blk.png","../images/grn_red.png","../images/cyn_red.png","../images/wht_red.png","../images/org_blu.png","../images/grn_blu.png"],"mutagen_generator_assignment":[1,0],"goal":10,"start":9,"action_noise":0.15,"location_history":"[9,8,7,1,7,1,2,3,4,10]","action_history":"[0,0,1,1,1,0,0,0,0]","mutagen_history":"[1,1,0,0,0,1,1,1,1]","location_rts":"[568,173,131,3166,371,1026,354,9833,680]","trial_type":"fractal-mutation","trial_index":41,"time_elapsed":1703312,"internal_node_id":"0.0-5.0-2.0"},{"group":"dihedral group of order 12","fractal_assignment":["../images/blu_wht.png","../images/red_prp.png","../images/pnk_blu.png","../images/ylw_slt.png","../images/grn_prp.png","../images/ylw_pnk.png","../images/gry_blk.png","../images/grn_red.png","../images/cyn_red.png","../images/wht_red.png","../images/org_blu.png","../images/grn_blu.png"],"mutagen_generator_assignment":[1,0],"goal":2,"start":10,"action_noise":0.15,"location_history":"[10,9,8,2]","action_history":"[0,0,1]","mutagen_history":"[1,1,0]","location_rts":"[548,5632,118]","trial_type":"fractal-mutation","trial_index":42,"time_elapsed":1716575,"internal_node_id":"0.0-5.0-3.0"},{"group":"dihedral group of order 12","fractal_assignment":["../images/blu_wht.png","../images/red_prp.png","../images/pnk_blu.png","../images/ylw_slt.png","../images/grn_prp.png","../images/ylw_pnk.png","../images/gry_blk.png","../images/grn_red.png","../images/cyn_red.png","../images/wht_red.png","../images/org_blu.png","../images/grn_blu.png"],"mutagen_generator_assignment":[1,0],"goal":5,"start":2,"action_noise":0.15,"location_history":"[2,3,4,5]","action_history":"[0,1,0]","mutagen_history":"[1,0,1]","location_rts":"[454,448,243]","trial_type":"fractal-mutation","trial_index":43,"time_elapsed":1724679,"internal_node_id":"0.0-5.0-4.0"},{"group":"dihedral group of order 12","fractal_assignment":["../images/blu_wht.png","../images/red_prp.png","../images/pnk_blu.png","../images/ylw_slt.png","../images/grn_prp.png","../images/ylw_pnk.png","../images/gry_blk.png","../images/grn_red.png","../images/cyn_red.png","../images/wht_red.png","../images/org_blu.png","../images/grn_blu.png"],"mutagen_generator_assignment":[1,0],"goal":11,"start":5,"action_noise":0.15,"location_history":"[5,0,6,0,6,11]","action_history":"[0,1,1,1,0]","mutagen_history":"[1,0,0,0,1]","location_rts":"[704,287,347,1161,46]","trial_type":"fractal-mutation","trial_index":44,"time_elapsed":1736402,"internal_node_id":"0.0-5.0-5.0"},{"group":"dihedral group of order 12","fractal_assignment":["../images/blu_wht.png","../images/red_prp.png","../images/pnk_blu.png","../images/ylw_slt.png","../images/grn_prp.png","../images/ylw_pnk.png","../images/gry_blk.png","../images/grn_red.png","../images/cyn_red.png","../images/wht_red.png","../images/org_blu.png","../images/grn_blu.png"],"mutagen_generator_assignment":[1,0],"goal":6,"start":11,"action_noise":0.15,"location_history":"[11,10,4,10,4,5,11,5,0,1,2,8,2,3,9,8,2,3,4,10,4,10,4,10,4,10,4,10,4,10,4,5,0,1,2,3,4,5,11,10,9,8,2,3,4,5,0,6]","action_history":"[0,1,1,1,0,1,1,0,0,0,1,1,0,1,0,0,0,0,1,1,1,1,1,1,1,1,1,1,1,1,1,0,0,0,0,0,0,1,0,0,0,1,1,0,1,0,1]","mutagen_history":"[1,0,0,0,1,0,0,1,1,1,0,0,1,0,1,1,1,1,0,0,0,0,0,0,0,0,0,0,0,0,0,1,1,1,1,1,1,0,1,1,1,0,0,1,0,1,0]","location_rts":"[489,489,289,196,469,456,539,423,241,444,31,317,268,310,479,403,352,283,259,308,36,274,193,112,236,123,56,380,237,258,141,132,273,187,116,236,283,132,325,62,461,1084,570,286,260,391,263]","trial_type":"fractal-mutation","trial_index":45,"time_elapsed":1807656,"internal_node_id":"0.0-5.0-6.0"},{"group":"dihedral group of order 12","fractal_assignment":["../images/blu_wht.png","../images/red_prp.png","../images/pnk_blu.png","../images/ylw_slt.png","../images/grn_prp.png","../images/ylw_pnk.png","../images/gry_blk.png","../images/grn_red.png","../images/cyn_red.png","../images/wht_red.png","../images/org_blu.png","../images/grn_blu.png"],"mutagen_generator_assignment":[1,0],"goal":3,"start":6,"action_noise":0.15,"location_history":"[6,11,10,4,10,4,5,11,5,0,6,11,10,9,3]","action_history":"[0,0,1,1,0,0,1,1,0,0,0,0,0,1]","mutagen_history":"[1,1,0,0,1,1,0,0,1,1,1,1,1,0]","location_rts":"[786,269,179,687,193,480,556,953,415,405,725,639,527,454]","trial_type":"fractal-mutation","trial_index":46,"time_elapsed":1834477,"internal_node_id":"0.0-5.0-7.0"},{"group":"dihedral group of order 12","fractal_assignment":["../images/blu_wht.png","../images/red_prp.png","../images/pnk_blu.png","../images/ylw_slt.png","../images/grn_prp.png","../images/ylw_pnk.png","../images/gry_blk.png","../images/grn_red.png","../images/cyn_red.png","../images/wht_red.png","../images/org_blu.png","../images/grn_blu.png"],"mutagen_generator_assignment":[1,0],"goal":8,"start":3,"action_noise":0.15,"location_history":"[3,4,5,0,6,0,1,7,1,2,8]","action_history":"[0,0,0,1,1,1,1,0,0,1]","mutagen_history":"[1,1,1,0,0,0,0,1,1,0]","location_rts":"[1301,2062,183,380,167,232,297,260,640,181]","trial_type":"fractal-mutation","trial_index":47,"time_elapsed":1855165,"internal_node_id":"0.0-5.0-8.0"},{"group":"dihedral group of order 12","fractal_assignment":["../images/blu_wht.png","../images/red_prp.png","../images/pnk_blu.png","../images/ylw_slt.png","../images/grn_prp.png","../images/ylw_pnk.png","../images/gry_blk.png","../images/grn_red.png","../images/cyn_red.png","../images/wht_red.png","../images/org_blu.png","../images/grn_blu.png"],"mutagen_generator_assignment":[1,0],"goal":1,"start":8,"action_noise":0.15,"location_history":"[8,2,3,4,5,0,6,11,10,9,3,9,3,4,5,0,1]","action_history":"[1,0,0,0,0,1,0,0,0,1,1,1,0,0,0,0]","mutagen_history":"[0,1,1,1,1,0,1,1,1,0,0,0,1,1,1,1]","location_rts":"[1245,394,334,202,298,719,465,603,4952,310,416,511,229,697,526,418]","trial_type":"fractal-mutation","trial_index":48,"time_elapsed":1889384,"internal_node_id":"0.0-5.0-9.0"},{"group":"dihedral group of order 12","fractal_assignment":["../images/blu_wht.png","../images/red_prp.png","../images/pnk_blu.png","../images/ylw_slt.png","../images/grn_prp.png","../images/ylw_pnk.png","../images/gry_blk.png","../images/grn_red.png","../images/cyn_red.png","../images/wht_red.png","../images/org_blu.png","../images/grn_blu.png"],"mutagen_generator_assignment":[1,0],"goal":7,"start":1,"action_noise":0.15,"location_history":"[1,2,3,9,3,9,8,2,8,2,8,7]","action_history":"[0,0,1,1,1,0,1,1,1,1,0]","mutagen_history":"[1,1,0,0,0,1,0,0,0,0,1]","location_rts":"[3005,477,253,537,315,368,887,635,498,440,390]","trial_type":"fractal-mutation","trial_index":49,"time_elapsed":1913202,"internal_node_id":"0.0-5.0-10.0"},{"group":"dihedral group of order 12","fractal_assignment":["../images/blu_wht.png","../images/red_prp.png","../images/pnk_blu.png","../images/ylw_slt.png","../images/grn_prp.png","../images/ylw_pnk.png","../images/gry_blk.png","../images/grn_red.png","../images/cyn_red.png","../images/wht_red.png","../images/org_blu.png","../images/grn_blu.png"],"mutagen_generator_assignment":[1,0],"goal":5,"start":7,"action_noise":0.15,"location_history":"[7,1,7,6,11,5]","action_history":"[0,1,0,0,0]","mutagen_history":"[1,0,1,1,1]","location_rts":"[1006,341,492,495,605]","trial_type":"fractal-mutation","trial_index":50,"time_elapsed":1925452,"internal_node_id":"0.0-5.0-11.0"},{"group":"dihedral group of order 12","fractal_assignment":["../images/blu_wht.png","../images/red_prp.png","../images/pnk_blu.png","../images/ylw_slt.png","../images/grn_prp.png","../images/ylw_pnk.png","../images/gry_blk.png","../images/grn_red.png","../images/cyn_red.png","../images/wht_red.png","../images/org_blu.png","../images/grn_blu.png"],"mutagen_generator_assignment":[1,0],"goal":8,"start":5,"action_noise":0.15,"location_history":"[5,0,6,0,1,2,3,9,8]","action_history":"[0,1,1,0,0,0,1,0]","mutagen_history":"[1,0,0,1,1,1,0,1]","location_rts":"[823,399,359,417,255,476,473,991]","trial_type":"fractal-mutation","trial_index":51,"time_elapsed":1942375,"internal_node_id":"0.0-5.0-12.0"},{"group":"dihedral group of order 12","fractal_assignment":["../images/blu_wht.png","../images/red_prp.png","../images/pnk_blu.png","../images/ylw_slt.png","../images/grn_prp.png","../images/ylw_pnk.png","../images/gry_blk.png","../images/grn_red.png","../images/cyn_red.png","../images/wht_red.png","../images/org_blu.png","../images/grn_blu.png"],"mutagen_generator_assignment":[1,0],"goal":11,"start":8,"action_noise":0.15,"location_history":"[8,7,1,7,6,11]","action_history":"[0,1,1,0,0]","mutagen_history":"[1,0,0,1,1]","location_rts":"[1650,1401,641,289,568]","trial_type":"fractal-mutation","trial_index":52,"time_elapsed":1956180,"internal_node_id":"0.0-5.0-13.0"},{"group":"dihedral group of order 12","fractal_assignment":["../images/blu_wht.png","../images/red_prp.png","../images/pnk_blu.png","../images/ylw_slt.png","../images/grn_prp.png","../images/ylw_pnk.png","../images/gry_blk.png","../images/grn_red.png","../images/cyn_red.png","../images/wht_red.png","../images/org_blu.png","../images/grn_blu.png"],"mutagen_generator_assignment":[1,0],"goal":6,"start":11,"action_noise":0.15,"location_history":"[11,10,4,10,9,8,2,3,4,5,0,6]","action_history":"[0,1,1,0,0,1,1,0,0,0,1]","mutagen_history":"[1,0,0,1,1,0,0,1,1,1,0]","location_rts":"[2303,470,395,290,337,756,499,337,475,439,410]","trial_type":"fractal-mutation","trial_index":53,"time_elapsed":1978977,"internal_node_id":"0.0-5.0-14.0"},{"group":"dihedral group of order 12","fractal_assignment":["../images/blu_wht.png","../images/red_prp.png","../images/pnk_blu.png","../images/ylw_slt.png","../images/grn_prp.png","../images/ylw_pnk.png","../images/gry_blk.png","../images/grn_red.png","../images/cyn_red.png","../images/wht_red.png","../images/org_blu.png","../images/grn_blu.png"],"mutagen_generator_assignment":[1,0],"goal":7,"start":6,"action_noise":0.15,"location_history":"[6,11,5,11,5,0,6,0,1,2,3,9,3,4,10,9,3,4,5,11,5,11,10,9,3,9,3,9,3,9,8,7]","action_history":"[0,1,1,1,0,0,1,0,0,0,1,1,0,1,1,1,0,0,1,1,1,0,0,1,1,1,1,1,1,0,0]","mutagen_history":"[1,0,0,0,1,1,0,1,1,1,0,0,1,0,0,0,1,1,0,0,0,1,1,0,0,0,0,0,0,1,1]","location_rts":"[1185,268,118,280,205,483,589,1062,606,474,523,616,464,822,2392,1413,266,22333,698,498,956,2066,226,134,269,292,371,1632,319,1044,7537]","trial_type":"fractal-mutation","trial_index":54,"time_elapsed":2067852,"internal_node_id":"0.0-5.0-15.0"},{"group":"dihedral group of order 12","fractal_assignment":["../images/blu_wht.png","../images/red_prp.png","../images/pnk_blu.png","../images/ylw_slt.png","../images/grn_prp.png","../images/ylw_pnk.png","../images/gry_blk.png","../images/grn_red.png","../images/cyn_red.png","../images/wht_red.png","../images/org_blu.png","../images/grn_blu.png"],"mutagen_generator_assignment":[1,0],"goal":10,"start":7,"action_noise":0.15,"location_history":"[7,6,0,6,11,5,11,5,0,1,2,3,4,5,11,5,0,1,7,6,11,5,11,10]","action_history":"[0,1,1,0,1,1,1,0,0,0,0,0,0,0,1,1,1,1,1,0,1,1,0]","mutagen_history":"[1,0,0,1,0,0,0,1,1,1,1,1,1,1,0,0,0,0,0,1,0,0,1]","location_rts":"[4467,515,411,11553,184,3751,3283,1261,139,3025,700,49,82,667,1226,279,1079,423,982,432,52,312,4985]","trial_type":"fractal-mutation","trial_index":55,"time_elapsed":2137459,"internal_node_id":"0.0-5.0-16.0"},{"group":"dihedral group of order 12","fractal_assignment":["../images/blu_wht.png","../images/red_prp.png","../images/pnk_blu.png","../images/ylw_slt.png","../images/grn_prp.png","../images/ylw_pnk.png","../images/gry_blk.png","../images/grn_red.png","../images/cyn_red.png","../images/wht_red.png","../images/org_blu.png","../images/grn_blu.png"],"mutagen_generator_assignment":[1,0],"goal":0,"start":10,"action_noise":0.15,"location_history":"[10,9,8,7,1,7,1,7,6,11,10,4,10,9,3,9,3,4,10,9,8,7,1,2,8,2,8,7,6,11,5,11,5,11,10,9,8,2,8,7,6,11,5,0]","action_history":"[1,0,0,1,1,1,1,0,0,0,1,1,0,0,1,1,1,1,0,0,0,1,1,1,1,0,0,0,0,1,1,1,1,0,0,0,1,1,0,0,0,1,1]","mutagen_history":"[0,1,1,0,0,0,0,1,1,1,0,0,1,1,0,0,0,0,1,1,1,0,0,0,0,1,1,1,1,0,0,0,0,1,1,1,0,0,1,1,1,0,0]","location_rts":"[7689,218,409,489,204,318,317,536,319,402,7591,248,101,231,291,259,166,249,167,200,325,129,233,312,638,815,561,276,445,220,208,303,148,485,228,136,282,169,291,317,62,342,347]","trial_type":"fractal-mutation","trial_index":56,"time_elapsed":2217540,"internal_node_id":"0.0-5.0-17.0"},{"group":"dihedral group of order 12","fractal_assignment":["../images/blu_wht.png","../images/red_prp.png","../images/pnk_blu.png","../images/ylw_slt.png","../images/grn_prp.png","../images/ylw_pnk.png","../images/gry_blk.png","../images/grn_red.png","../images/cyn_red.png","../images/wht_red.png","../images/org_blu.png","../images/grn_blu.png"],"mutagen_generator_assignment":[1,0],"goal":9,"start":0,"action_noise":0.15,"location_history":"[0,1,2,3,4,10,4,10,9]","action_history":"[1,0,0,0,1,1,1,0]","mutagen_history":"[0,1,1,1,0,0,0,1]","location_rts":"[825,309,306,342,188,322,177,535]","trial_type":"fractal-mutation","trial_index":57,"time_elapsed":2233075,"internal_node_id":"0.0-5.0-18.0"},{"group":"dihedral group of order 12","fractal_assignment":["../images/blu_wht.png","../images/red_prp.png","../images/pnk_blu.png","../images/ylw_slt.png","../images/grn_prp.png","../images/ylw_pnk.png","../images/gry_blk.png","../images/grn_red.png","../images/cyn_red.png","../images/wht_red.png","../images/org_blu.png","../images/grn_blu.png"],"mutagen_generator_assignment":[1,0],"goal":4,"start":9,"action_noise":0.15,"location_history":"[9,3,9,3,9,8,7,1,2,8,2,8,2,8,2,8,2,8,7,6,0,6,11,10,9,3,4]","action_history":"[1,1,1,1,0,0,1,0,1,1,1,1,1,1,0,1,0,0,0,1,0,0,0,0,1,1]","mutagen_history":"[0,0,0,0,1,1,0,1,0,0,0,0,0,0,1,0,1,1,1,0,1,1,1,1,0,0]","location_rts":"[794,239,525,153,366,599,231,500,425,325,260,251,166,30,154,335,314,229,1243,943,569,370,239,506,55,532]","trial_type":"fractal-mutation","trial_index":58,"time_elapsed":2276099,"internal_node_id":"0.0-5.0-19.0"},{"group":"dihedral group of order 12","fractal_assignment":["../images/blu_wht.png","../images/red_prp.png","../images/pnk_blu.png","../images/ylw_slt.png","../images/grn_prp.png","../images/ylw_pnk.png","../images/gry_blk.png","../images/grn_red.png","../images/cyn_red.png","../images/wht_red.png","../images/org_blu.png","../images/grn_blu.png"],"mutagen_generator_assignment":[1,0],"goal":2,"start":4,"action_noise":0.15,"location_history":"[4,10,9,8,2]","action_history":"[0,1,1,1]","mutagen_history":"[1,0,0,0]","location_rts":"[649,365,40,604]","trial_type":"fractal-mutation","trial_index":59,"time_elapsed":2285762,"internal_node_id":"0.0-5.0-20.0"},{"group":"dihedral group of order 12","fractal_assignment":["../images/blu_wht.png","../images/red_prp.png","../images/pnk_blu.png","../images/ylw_slt.png","../images/grn_prp.png","../images/ylw_pnk.png","../images/gry_blk.png","../images/grn_red.png","../images/cyn_red.png","../images/wht_red.png","../images/org_blu.png","../images/grn_blu.png"],"mutagen_generator_assignment":[1,0],"goal":1,"start":2,"action_noise":0.15,"location_history":"[2,3,9,3,9,8,2,8,7,6,11,10,4,5,0,6,11,10,4,5,0,1]","action_history":"[0,1,1,1,0,1,1,1,0,0,0,1,0,0,1,0,0,1,1,0,0]","mutagen_history":"[1,0,0,0,1,0,0,0,1,1,1,0,1,1,0,1,1,0,0,1,1]","location_rts":"[670,327,67,515,160,680,463,242,315,424,456,1209,382,469,626,168,546,270,295,301,296]","trial_type":"fractal-mutation","trial_index":60,"time_elapsed":2322111,"internal_node_id":"0.0-5.0-21.0"},{"group":"dihedral group of order 12","fractal_assignment":["../images/blu_wht.png","../images/red_prp.png","../images/pnk_blu.png","../images/ylw_slt.png","../images/grn_prp.png","../images/ylw_pnk.png","../images/gry_blk.png","../images/grn_red.png","../images/cyn_red.png","../images/wht_red.png","../images/org_blu.png","../images/grn_blu.png"],"mutagen_generator_assignment":[1,0],"goal":3,"start":1,"action_noise":0.15,"location_history":"[1,2,8,7,6,0,6,11,10,4,10,9,3]","action_history":"[1,1,0,0,1,1,0,0,1,1,0,0]","mutagen_history":"[0,0,1,1,0,0,1,1,0,0,1,1]","location_rts":"[827,275,113,251,266,861,561,163,418,585,413,289]","trial_type":"fractal-mutation","trial_index":61,"time_elapsed":2344222,"internal_node_id":"0.0-5.0-22.0"},{"group":"dihedral group of order 12","fractal_assignment":["../images/blu_wht.png","../images/red_prp.png","../images/pnk_blu.png","../images/ylw_slt.png","../images/grn_prp.png","../images/ylw_pnk.png","../images/gry_blk.png","../images/grn_red.png","../images/cyn_red.png","../images/wht_red.png","../images/org_blu.png","../images/grn_blu.png"],"mutagen_generator_assignment":[1,0],"goal":7,"start":3,"action_noise":0.15,"location_history":"[3,9,8,7]","action_history":"[1,0,0]","mutagen_history":"[0,1,1]","location_rts":"[864,3120,499]","trial_type":"fractal-mutation","trial_index":62,"time_elapsed":2355585,"internal_node_id":"0.0-5.0-23.0"},{"group":"dihedral group of order 12","fractal_assignment":["../images/blu_wht.png","../images/red_prp.png","../images/pnk_blu.png","../images/ylw_slt.png","../images/grn_prp.png","../images/ylw_pnk.png","../images/gry_blk.png","../images/grn_red.png","../images/cyn_red.png","../images/wht_red.png","../images/org_blu.png","../images/grn_blu.png"],"mutagen_generator_assignment":[1,0],"goal":6,"start":7,"action_noise":0.15,"location_history":"[7,6]","action_history":"[1]","mutagen_history":"[0]","location_rts":"[38]","trial_type":"fractal-mutation","trial_index":63,"time_elapsed":2360150,"internal_node_id":"0.0-5.0-24.0"},{"group":"dihedral group of order 12","fractal_assignment":["../images/blu_wht.png","../images/red_prp.png","../images/pnk_blu.png","../images/ylw_slt.png","../images/grn_prp.png","../images/ylw_pnk.png","../images/gry_blk.png","../images/grn_red.png","../images/cyn_red.png","../images/wht_red.png","../images/org_blu.png","../images/grn_blu.png"],"mutagen_generator_assignment":[1,0],"goal":2,"start":6,"action_noise":0.15,"location_history":"[6,11,10,9,8,2]","action_history":"[0,0,0,0,0]","mutagen_history":"[1,1,1,1,1]","location_rts":"[11288,848,10786,462,241]","trial_type":"fractal-mutation","trial_index":64,"time_elapsed":2393166,"internal_node_id":"0.0-5.0-25.0"},{"group":"dihedral group of order 12","fractal_assignment":["../images/blu_wht.png","../images/red_prp.png","../images/pnk_blu.png","../images/ylw_slt.png","../images/grn_prp.png","../images/ylw_pnk.png","../images/gry_blk.png","../images/grn_red.png","../images/cyn_red.png","../images/wht_red.png","../images/org_blu.png","../images/grn_blu.png"],"mutagen_generator_assignment":[1,0],"goal":8,"start":2,"action_noise":0.15,"location_history":"[2,8]","action_history":"[0]","mutagen_history":"[1]","location_rts":"[393]","trial_type":"fractal-mutation","trial_index":65,"time_elapsed":2398227,"internal_node_id":"0.0-5.0-26.0"},{"group":"dihedral group of order 12","fractal_assignment":["../images/blu_wht.png","../images/red_prp.png","../images/pnk_blu.png","../images/ylw_slt.png","../images/grn_prp.png","../images/ylw_pnk.png","../images/gry_blk.png","../images/grn_red.png","../images/cyn_red.png","../images/wht_red.png","../images/org_blu.png","../images/grn_blu.png"],"mutagen_generator_assignment":[1,0],"goal":0,"start":8,"action_noise":0.15,"location_history":"[8,7,6,11,5,11,10,9,3,9,8,2,8,7,6,11,10,9,8,7,6,0]","action_history":"[1,0,0,1,1,0,0,1,1,0,1,1,0,0,0,0,0,0,0,1,1]","mutagen_history":"[0,1,1,0,0,1,1,0,0,1,0,0,1,1,1,1,1,1,1,0,0]","location_rts":"[477,778,180,143,204,296,220,198,116,157,280,407,236,211,175,298,348,258,532,255,151]","trial_type":"fractal-mutation","trial_index":66,"time_elapsed":2431677,"internal_node_id":"0.0-5.0-27.0"},{"group":"dihedral group of order 12","fractal_assignment":["../images/blu_wht.png","../images/red_prp.png","../images/pnk_blu.png","../images/ylw_slt.png","../images/grn_prp.png","../images/ylw_pnk.png","../images/gry_blk.png","../images/grn_red.png","../images/cyn_red.png","../images/wht_red.png","../images/org_blu.png","../images/grn_blu.png"],"mutagen_generator_assignment":[1,0],"goal":3,"start":0,"action_noise":0.15,"location_history":"[0,1,7,6,0,6,11,10,4,5,0,6,0,1,2,8,7,1,2,8,2,8,2,3]","action_history":"[0,1,0,1,1,0,0,1,0,1,1,0,0,0,1,0,1,1,1,1,0,0,0]","mutagen_history":"[1,0,1,0,0,1,1,0,1,0,0,1,1,1,0,1,0,0,0,0,1,1,1]","location_rts":"[1095,243,4555,534,134,33,125,309,385,443,117,64,200,176,153,810,58,206,337,217,188,725,936]","trial_type":"fractal-mutation","trial_index":67,"time_elapsed":2473573,"internal_node_id":"0.0-5.0-28.0"},{"group":"dihedral group of order 12","fractal_assignment":["../images/blu_wht.png","../images/red_prp.png","../images/pnk_blu.png","../images/ylw_slt.png","../images/grn_prp.png","../images/ylw_pnk.png","../images/gry_blk.png","../images/grn_red.png","../images/cyn_red.png","../images/wht_red.png","../images/org_blu.png","../images/grn_blu.png"],"mutagen_generator_assignment":[1,0],"goal":4,"start":3,"action_noise":0.15,"location_history":"[3,9,8,7,6,0,1,2,3,4]","action_history":"[0,0,1,0,0,1,1,0,0]","mutagen_history":"[1,1,0,1,1,0,0,1,1]","location_rts":"[1073,191,357,37,188,101,292,361,422]","trial_type":"fractal-mutation","trial_index":68,"time_elapsed":2490461,"internal_node_id":"0.0-5.0-29.0"},{"group":"dihedral group of order 12","fractal_assignment":["../images/blu_wht.png","../images/red_prp.png","../images/pnk_blu.png","../images/ylw_slt.png","../images/grn_prp.png","../images/ylw_pnk.png","../images/gry_blk.png","../images/grn_red.png","../images/cyn_red.png","../images/wht_red.png","../images/org_blu.png","../images/grn_blu.png"],"mutagen_generator_assignment":[1,0],"goal":10,"start":4,"action_noise":0.15,"location_history":"[4,10]","action_history":"[1]","mutagen_history":"[0]","location_rts":"[1092]","trial_type":"fractal-mutation","trial_index":69,"time_elapsed":2497561,"internal_node_id":"0.0-5.0-30.0"},{"group":"dihedral group of order 12","fractal_assignment":["../images/blu_wht.png","../images/red_prp.png","../images/pnk_blu.png","../images/ylw_slt.png","../images/grn_prp.png","../images/ylw_pnk.png","../images/gry_blk.png","../images/grn_red.png","../images/cyn_red.png","../images/wht_red.png","../images/org_blu.png","../images/grn_blu.png"],"mutagen_generator_assignment":[1,0],"goal":11,"start":10,"action_noise":0.15,"location_history":"[10,9,3,4,10,9,8,7,1,2,8,7,6,0,1,7,6,0,6,0,6,0,6,11]","action_history":"[0,1,1,1,0,0,0,1,1,1,0,0,1,1,1,0,1,1,1,1,1,1,0]","mutagen_history":"[1,0,0,0,1,1,1,0,0,0,1,1,0,0,0,1,0,0,0,0,0,0,1]","location_rts":"[6490,190,57,68,158,307,242,232,236,421,215,249,751,152,263,89,156,227,94,544,254,502,192]","trial_type":"fractal-mutation","trial_index":70,"time_elapsed":2539298,"internal_node_id":"0.0-5.0-31.0"},{"group":"dihedral group of order 12","fractal_assignment":["../images/blu_wht.png","../images/red_prp.png","../images/pnk_blu.png","../images/ylw_slt.png","../images/grn_prp.png","../images/ylw_pnk.png","../images/gry_blk.png","../images/grn_red.png","../images/cyn_red.png","../images/wht_red.png","../images/org_blu.png","../images/grn_blu.png"],"mutagen_generator_assignment":[1,0],"goal":1,"start":11,"action_noise":0.15,"location_history":"[11,10,9,3,9,3,9,8,2,3,4,10,4,5,0,6,11,10,4,5,0,6,0,6,11,10,4,10,4,10,9,8,7,6,0,6,0,1]","action_history":"[0,0,1,1,1,1,0,1,0,0,1,1,1,0,1,0,1,1,0,0,1,1,1,0,0,1,1,1,1,0,0,0,1,1,1,1,0]","mutagen_history":"[1,1,0,0,0,0,1,0,1,1,0,0,0,1,0,1,0,0,1,1,0,0,0,1,1,0,0,0,0,1,1,1,0,0,0,0,1]","location_rts":"[559,302,23,467,94,80,213,212,696,281,31,271,404,284,210,238,169,48,274,108,312,188,98,46,186,112,355,270,313,271,584,133,163,298,781,326,174]","trial_type":"fractal-mutation","trial_index":71,"time_elapsed":2594486,"internal_node_id":"0.0-5.0-32.0"},{"group":"dihedral group of order 12","fractal_assignment":["../images/blu_wht.png","../images/red_prp.png","../images/pnk_blu.png","../images/ylw_slt.png","../images/grn_prp.png","../images/ylw_pnk.png","../images/gry_blk.png","../images/grn_red.png","../images/cyn_red.png","../images/wht_red.png","../images/org_blu.png","../images/grn_blu.png"],"mutagen_generator_assignment":[1,0],"goal":5,"start":1,"action_noise":0.15,"location_history":"[1,7,1,2,8,2,8,7,1,2,3,4,10,4,5]","action_history":"[1,1,0,1,1,1,1,1,0,0,0,0,1,0]","mutagen_history":"[0,0,1,0,0,0,0,0,1,1,1,1,0,1]","location_rts":"[636,70,118,113,534,79,411,200,476,59,160,41,377,7626]","trial_type":"fractal-mutation","trial_index":72,"time_elapsed":2624603,"internal_node_id":"0.0-5.0-33.0"},{"group":"dihedral group of order 12","fractal_assignment":["../images/blu_wht.png","../images/red_prp.png","../images/pnk_blu.png","../images/ylw_slt.png","../images/grn_prp.png","../images/ylw_pnk.png","../images/gry_blk.png","../images/grn_red.png","../images/cyn_red.png","../images/wht_red.png","../images/org_blu.png","../images/grn_blu.png"],"mutagen_generator_assignment":[1,0],"goal":9,"start":5,"action_noise":0.15,"location_history":"[5,11,5,11,10,9]","action_history":"[1,1,1,0,0]","mutagen_history":"[0,0,0,1,1]","location_rts":"[1490,2301,2405,1293,163]","trial_type":"fractal-mutation","trial_index":73,"time_elapsed":2641648,"internal_node_id":"0.0-5.0-34.0"},{"view_history":"[{\"page_index\":0,\"viewing_time\":30978}]","rt":30979,"trial_type":"instructions","trial_index":74,"time_elapsed":2674626,"internal_node_id":"0.0-6.0"},{"rt":3513,"responses":"{\"Q0\":\"no\"}","trial_type":"survey-text","trial_index":75,"time_elapsed":2679147,"internal_node_id":"0.0-7.0"}]