[{"view_history":"[{\"page_index\":0,\"viewing_time\":52537},{\"page_index\":1,\"viewing_time\":71851},{\"page_index\":2,\"viewing_time\":39873},{\"page_index\":3,\"viewing_time\":22440}]","rt":186706,"trial_type":"instructions","trial_index":0,"time_elapsed":186711,"internal_node_id":"0.0-0.0"},{"view_history":"[{\"page_index\":0,\"viewing_time\":3325},{\"page_index\":1,\"viewing_time\":48153}]","rt":51480,"trial_type":"instructions","trial_index":1,"time_elapsed":239198,"internal_node_id":"0.0-1.0"},{"group":"dicyclic group of order 12","room_assignment":["cyan","orange","grey","green","pink","purple","red","brown","blue","ivory","yellow","olive"],"door_color_assignment":["white","black"],"door_generator_assignment":[1,0],"goal":4,"start":0,"action_noise":0.15,"location_history":"[0,1,5,10,7,8,5,9,6,10,2,6,11,3,0,4]","action_history":"[0,0,0,0,0,0,1,0,1,1,1,0,1,0,1]","door_history":"[1,1,1,1,1,1,0,1,0,0,0,1,0,1,0]","location_rts":"[3048,2035,2217,1668,2008,1651,1269,2085,1660,1120,1678,1265,1646,1072,1148]","trial_type":"two-door-navigation","trial_index":2,"time_elapsed":285079,"internal_node_id":"0.0-2.0-0.0"},{"group":"dicyclic group of order 12","room_assignment":["cyan","orange","grey","green","pink","purple","red","brown","blue","ivory","yellow","olive"],"door_color_assignment":["white","black"],"door_generator_assignment":[1,0],"goal":9,"start":4,"action_noise":0.15,"location_history":"[4,9]","action_history":"[0]","door_history":"[1]","location_rts":"[4716]","trial_type":"two-door-navigation","trial_index":3,"time_elapsed":294439,"internal_node_id":"0.0-2.0-1.0"},{"group":"dicyclic group of order 12","room_assignment":["cyan","orange","grey","green","pink","purple","red","brown","blue","ivory","yellow","olive"],"door_color_assignment":["white","black"],"door_generator_assignment":[1,0],"goal":10,"start":9,"action_noise":0.15,"location_history":"[9,6,11,4,9,1,2,6,10]","action_history":"[0,0,0,0,0,1,1,1]","door_history":"[1,1,1,1,1,0,0,0]","location_rts":"[3731,843,1467,1774,1091,9385,1047,1134]","trial_type":"two-door-navigation","trial_index":4,"time_elapsed":327409,"internal_node_id":"0.0-2.0-2.0"},{"group":"dicyclic group of order 12","room_assignment":["cyan","orange","grey","green","pink","purple","red","brown","blue","ivory","yellow","olive"],"door_color_assignment":["white","black"],"door_generator_assignment":[1,0],"goal":2,"start":10,"action_noise":0.15,"location_history":"[10,2]","action_history":"[1]","door_history":"[0]","location_rts":"[2673]","trial_type":"two-door-navigation","trial_index":5,"time_elapsed":334729,"internal_node_id":"0.0-2.0-3.0"},{"group":"dicyclic group of order 12","room_assignment":["cyan","orange","grey","green","pink","purple","red","brown","blue","ivory","yellow","olive"],"door_color_assignment":["white","black"],"door_generator_assignment":[1,0],"goal":5,"start":2,"action_noise":0.15,"location_history":"[2,3,7,8,5]","action_history":"[0,0,0,0]","door_history":"[1,1,1,1]","location_rts":"[1723,1016,1142,1014]","trial_type":"two-door-navigation","trial_index":6,"time_elapsed":347649,"internal_node_id":"0.0-2.0-4.0"},{"group":"dicyclic group of order 12","room_assignment":["cyan","orange","grey","green","pink","purple","red","brown","blue","ivory","yellow","olive"],"door_color_assignment":["white","black"],"door_generator_assignment":[1,0],"goal":11,"start":5,"action_noise":0.15,"location_history":"[5,9,1,5,10,7,11]","action_history":"[1,1,1,0,0,1]","door_history":"[0,0,0,1,1,0]","location_rts":"[2098,1005,952,1495,942,1092]","trial_type":"two-door-navigation","trial_index":7,"time_elapsed":365470,"internal_node_id":"0.0-2.0-5.0"},{"group":"dicyclic group of order 12","room_assignment":["cyan","orange","grey","green","pink","purple","red","brown","blue","ivory","yellow","olive"],"door_color_assignment":["white","black"],"door_generator_assignment":[1,0],"goal":6,"start":11,"action_noise":0.15,"location_history":"[11,4,8,0,4,9,6]","action_history":"[0,1,1,1,0,0]","door_history":"[1,0,0,0,1,1]","location_rts":"[1775,1474,831,1583,1526,973]","trial_type":"two-door-navigation","trial_index":8,"time_elapsed":383839,"internal_node_id":"0.0-2.0-6.0"},{"group":"dicyclic group of order 12","room_assignment":["cyan","orange","grey","green","pink","purple","red","brown","blue","ivory","yellow","olive"],"door_color_assignment":["white","black"],"door_generator_assignment":[1,0],"goal":3,"start":6,"action_noise":0.15,"location_history":"[6,10,2,6,10,2,3]","action_history":"[1,1,1,1,1,0]","door_history":"[0,0,0,0,0,1]","location_rts":"[2902,1601,2857,1067,2288,1348]","trial_type":"two-door-navigation","trial_index":9,"time_elapsed":406238,"internal_node_id":"0.0-2.0-7.0"},{"group":"dicyclic group of order 12","room_assignment":["cyan","orange","grey","green","pink","purple","red","brown","blue","ivory","yellow","olive"],"door_color_assignment":["white","black"],"door_generator_assignment":[1,0],"goal":8,"start":3,"action_noise":0.15,"location_history":"[3,0,1,5,9,6,11,4,9,1,2,6,10,7,8]","action_history":"[0,0,1,1,0,0,0,0,1,1,0,0,0,1]","door_history":"[1,1,0,0,1,1,1,1,0,0,1,1,1,0]","location_rts":"[1311,1048,1996,1278,1159,990,930,2629,1039,818,1143,2099,847,1000]","trial_type":"two-door-navigation","trial_index":10,"time_elapsed":443785,"internal_node_id":"0.0-2.0-8.0"},{"group":"dicyclic group of order 12","room_assignment":["cyan","orange","grey","green","pink","purple","red","brown","blue","ivory","yellow","olive"],"door_color_assignment":["white","black"],"door_generator_assignment":[1,0],"goal":1,"start":8,"action_noise":0.15,"location_history":"[8,5,10,2,6,11,3,0,1]","action_history":"[0,0,1,1,1,1,0,0]","door_history":"[1,1,0,0,0,0,1,1]","location_rts":"[7019,2844,1612,886,824,947,1514,1175]","trial_type":"two-door-navigation","trial_index":11,"time_elapsed":473138,"internal_node_id":"0.0-2.0-9.0"},{"group":"dicyclic group of order 12","room_assignment":["cyan","orange","grey","green","pink","purple","red","brown","blue","ivory","yellow","olive"],"door_color_assignment":["white","black"],"door_generator_assignment":[1,0],"goal":7,"start":1,"action_noise":0.15,"location_history":"[1,2,3,0,4,8,5,10,7]","action_history":"[0,0,0,1,1,0,0,1]","door_history":"[1,1,1,0,0,1,1,0]","location_rts":"[1336,1011,1075,1198,939,1141,1528,942]","trial_type":"two-door-navigation","trial_index":12,"time_elapsed":494763,"internal_node_id":"0.0-2.0-10.0"},{"group":"dicyclic group of order 12","room_assignment":["cyan","orange","grey","green","pink","purple","red","brown","blue","ivory","yellow","olive"],"door_color_assignment":["white","black"],"door_generator_assignment":[1,0],"goal":5,"start":7,"action_noise":0.15,"location_history":"[7,11,3,0,1,5]","action_history":"[1,1,0,0,0]","door_history":"[0,0,1,1,1]","location_rts":"[1146,865,1165,788,974]","trial_type":"two-door-navigation","trial_index":13,"time_elapsed":508839,"internal_node_id":"0.0-2.0-11.0"},{"group":"dicyclic group of order 12","room_assignment":["cyan","orange","grey","green","pink","purple","red","brown","blue","ivory","yellow","olive"],"door_color_assignment":["white","black"],"door_generator_assignment":[1,0],"goal":8,"start":5,"action_noise":0.15,"location_history":"[5,9,1,5,9,6,11,3,0,4,8]","action_history":"[1,1,1,0,0,0,0,1,1,1]","door_history":"[0,0,0,1,1,1,1,0,0,0]","location_rts":"[951,815,820,1540,807,1015,898,1068,787,838]","trial_type":"two-door-navigation","trial_index":14,"time_elapsed":533139,"internal_node_id":"0.0-2.0-12.0"},{"group":"dicyclic group of order 12","room_assignment":["cyan","orange","grey","green","pink","purple","red","brown","blue","ivory","yellow","olive"],"door_color_assignment":["white","black"],"door_generator_assignment":[1,0],"goal":11,"start":8,"action_noise":0.15,"location_history":"[8,0,4,8,0,1,2,6,11]","action_history":"[1,1,1,1,0,0,1,1]","door_history":"[0,0,0,0,1,1,0,0]","location_rts":"[827,840,879,1114,1134,874,1159,1040]","trial_type":"two-door-navigation","trial_index":15,"time_elapsed":553489,"internal_node_id":"0.0-2.0-13.0"},{"group":"dicyclic group of order 12","room_assignment":["cyan","orange","grey","green","pink","purple","red","brown","blue","ivory","yellow","olive"],"door_color_assignment":["white","black"],"door_generator_assignment":[1,0],"goal":6,"start":11,"action_noise":0.15,"location_history":"[11,4,8,0,1,2,3,0,4,8,0,1,2,6]","action_history":"[0,1,1,0,0,0,0,1,1,1,0,0,0]","door_history":"[1,0,0,1,1,1,1,0,0,0,1,1,1]","location_rts":"[2588,2208,623,971,1229,1190,671,1025,962,933,1321,825,4831]","trial_type":"two-door-navigation","trial_index":16,"time_elapsed":590909,"internal_node_id":"0.0-2.0-14.0"},{"group":"dicyclic group of order 12","room_assignment":["cyan","orange","grey","green","pink","purple","red","brown","blue","ivory","yellow","olive"],"door_color_assignment":["white","black"],"door_generator_assignment":[1,0],"goal":7,"start":6,"action_noise":0.15,"location_history":"[6,10,7]","action_history":"[1,1]","door_history":"[0,0]","location_rts":"[5675,760]","trial_type":"two-door-navigation","trial_index":17,"time_elapsed":603149,"internal_node_id":"0.0-2.0-15.0"},{"group":"dicyclic group of order 12","room_assignment":["cyan","orange","grey","green","pink","purple","red","brown","blue","ivory","yellow","olive"],"door_color_assignment":["white","black"],"door_generator_assignment":[1,0],"goal":10,"start":7,"action_noise":0.15,"location_history":"[7,8,5,9,1,5,9,6,11,3,7,11,4,8,5,10]","action_history":"[0,0,1,1,1,1,0,0,1,1,1,0,0,0,1]","door_history":"[1,1,0,0,0,0,1,1,0,0,0,1,1,1,0]","location_rts":"[1789,705,795,1091,2060,2860,1807,742,2289,810,1801,1156,1140,654,941]","trial_type":"two-door-navigation","trial_index":18,"time_elapsed":644090,"internal_node_id":"0.0-2.0-16.0"},{"group":"dicyclic group of order 12","room_assignment":["cyan","orange","grey","green","pink","purple","red","brown","blue","ivory","yellow","olive"],"door_color_assignment":["white","black"],"door_generator_assignment":[1,0],"goal":0,"start":10,"action_noise":0.15,"location_history":"[10,7,8,0]","action_history":"[0,0,1]","door_history":"[1,1,0]","location_rts":"[2259,985,1196]","trial_type":"two-door-navigation","trial_index":19,"time_elapsed":655480,"internal_node_id":"0.0-2.0-17.0"},{"group":"dicyclic group of order 12","room_assignment":["cyan","orange","grey","green","pink","purple","red","brown","blue","ivory","yellow","olive"],"door_color_assignment":["white","black"],"door_generator_assignment":[1,0],"goal":9,"start":0,"action_noise":0.15,"location_history":"[0,1,2,3,0,4,8,0,1,5,9]","action_history":"[0,0,0,1,1,1,1,0,0,0]","door_history":"[1,1,1,0,0,0,0,1,1,1]","location_rts":"[1725,3063,1454,1430,1331,1307,1270,1420,670,562]","trial_type":"two-door-navigation","trial_index":20,"time_elapsed":684490,"internal_node_id":"0.0-2.0-18.0"},{"group":"dicyclic group of order 12","room_assignment":["cyan","orange","grey","green","pink","purple","red","brown","blue","ivory","yellow","olive"],"door_color_assignment":["white","black"],"door_generator_assignment":[1,0],"goal":4,"start":9,"action_noise":0.15,"location_history":"[9,1,5,10,7,8,0,4]","action_history":"[1,1,0,0,0,1,1]","door_history":"[0,0,1,1,1,0,0]","location_rts":"[2660,1718,1051,859,683,1032,1044]","trial_type":"two-door-navigation","trial_index":21,"time_elapsed":704951,"internal_node_id":"0.0-2.0-19.0"},{"group":"dicyclic group of order 12","room_assignment":["cyan","orange","grey","green","pink","purple","red","brown","blue","ivory","yellow","olive"],"door_color_assignment":["white","black"],"door_generator_assignment":[1,0],"goal":2,"start":4,"action_noise":0.15,"location_history":"[4,8,0,4,9,6,10,2]","action_history":"[1,1,1,0,0,1,1]","door_history":"[0,0,0,1,1,0,0]","location_rts":"[1020,584,736,1194,1024,1007,1571]","trial_type":"two-door-navigation","trial_index":22,"time_elapsed":723449,"internal_node_id":"0.0-2.0-20.0"},{"group":"dicyclic group of order 12","room_assignment":["cyan","orange","grey","green","pink","purple","red","brown","blue","ivory","yellow","olive"],"door_color_assignment":["white","black"],"door_generator_assignment":[1,0],"goal":1,"start":2,"action_noise":0.15,"location_history":"[2,3,0,4,8,5,10,2,3,7,11,3,7,8,0,4,9,1]","action_history":"[0,0,0,1,1,0,0,0,1,1,1,1,0,1,1,1,1]","door_history":"[1,1,1,0,0,1,1,1,0,0,0,0,1,0,0,0,0]","location_rts":"[1364,707,1237,968,651,1028,827,832,1085,801,7147,7494,804,931,1229,794,879]","trial_type":"two-door-navigation","trial_index":23,"time_elapsed":774727,"internal_node_id":"0.0-2.0-21.0"},{"group":"dicyclic group of order 12","room_assignment":["cyan","orange","grey","green","pink","purple","red","brown","blue","ivory","yellow","olive"],"door_color_assignment":["white","black"],"door_generator_assignment":[1,0],"goal":3,"start":1,"action_noise":0.15,"location_history":"[1,2,6,11,4,9,1,5,9,6,11,4,9,6,10,2,6,10,7,8,5,10,7,8,5,9,6,11,3]","action_history":"[1,1,0,0,0,1,1,1,0,0,0,0,0,1,1,1,1,0,0,0,0,0,0,0,1,0,0,1]","door_history":"[0,0,1,1,1,0,0,0,1,1,1,1,1,0,0,0,0,1,1,1,1,1,1,1,0,1,1,0]","location_rts":"[1085,1241,995,731,789,1045,926,784,1065,735,899,555,527,1426,609,586,603,809,491,814,562,528,662,854,1220,1207,673,535]","trial_type":"two-door-navigation","trial_index":24,"time_elapsed":832460,"internal_node_id":"0.0-2.0-22.0"},{"group":"dicyclic group of order 12","room_assignment":["cyan","orange","grey","green","pink","purple","red","brown","blue","ivory","yellow","olive"],"door_color_assignment":["white","black"],"door_generator_assignment":[1,0],"goal":7,"start":3,"action_noise":0.15,"location_history":"[3,0,4,8,5,10,2,6,10,2,6,10,7]","action_history":"[0,1,1,0,0,1,0,0,1,1,1,0]","door_history":"[1,0,0,1,1,0,1,1,0,0,0,1]","location_rts":"[1905,1271,548,945,692,1144,6283,1098,1137,1492,885,1512]","trial_type":"two-door-navigation","trial_index":25,"time_elapsed":868300,"internal_node_id":"0.0-2.0-23.0"},{"group":"dicyclic group of order 12","room_assignment":["cyan","orange","grey","green","pink","purple","red","brown","blue","ivory","yellow","olive"],"door_color_assignment":["white","black"],"door_generator_assignment":[1,0],"goal":6,"start":7,"action_noise":0.15,"location_history":"[7,11,4,9,6]","action_history":"[1,1,0,0]","door_history":"[0,0,1,1]","location_rts":"[3782,683,965,1080]","trial_type":"two-door-navigation","trial_index":26,"time_elapsed":882842,"internal_node_id":"0.0-2.0-24.0"},{"group":"dicyclic group of order 12","room_assignment":["cyan","orange","grey","green","pink","purple","red","brown","blue","ivory","yellow","olive"],"door_color_assignment":["white","black"],"door_generator_assignment":[1,0],"goal":2,"start":6,"action_noise":0.15,"location_history":"[6,11,3,0,1,2]","action_history":"[1,1,0,0,0]","door_history":"[0,0,1,1,1]","location_rts":"[853,666,1164,2959,626]","trial_type":"two-door-navigation","trial_index":27,"time_elapsed":898236,"internal_node_id":"0.0-2.0-25.0"},{"group":"dicyclic group of order 12","room_assignment":["cyan","orange","grey","green","pink","purple","red","brown","blue","ivory","yellow","olive"],"door_color_assignment":["white","black"],"door_generator_assignment":[1,0],"goal":8,"start":2,"action_noise":0.15,"location_history":"[2,6,11,4,9,1,5,10,7,11,3,0,1,2,3,0,1,2,3,7,8]","action_history":"[1,0,0,0,1,1,0,0,1,1,0,0,0,0,1,1,1,1,1,0]","door_history":"[0,1,1,1,0,0,1,1,0,0,1,1,1,1,0,0,0,0,0,1]","location_rts":"[1253,533,590,725,1150,599,768,536,1017,747,437,531,483,659,1140,544,531,583,811,929]","trial_type":"two-door-navigation","trial_index":28,"time_elapsed":938862,"internal_node_id":"0.0-2.0-26.0"},{"group":"dicyclic group of order 12","room_assignment":["cyan","orange","grey","green","pink","purple","red","brown","blue","ivory","yellow","olive"],"door_color_assignment":["white","black"],"door_generator_assignment":[1,0],"goal":0,"start":8,"action_noise":0.15,"location_history":"[8,5,9,6,11,4,9,6,11,3,7,11,4,9,6,11,4,9,1,5,10,7,11,3,0]","action_history":"[0,0,0,0,0,0,0,0,1,1,1,0,0,0,0,0,1,1,1,0,0,1,1,0]","door_history":"[1,1,1,1,1,1,1,1,0,0,0,1,1,1,1,1,0,0,0,1,1,0,0,1]","location_rts":"[5119,754,1276,610,789,607,685,732,830,537,1061,611,3067,2128,531,610,735,628,597,571,482,1050,547,1126]","trial_type":"two-door-navigation","trial_index":29,"time_elapsed":994894,"internal_node_id":"0.0-2.0-27.0"},{"group":"dicyclic group of order 12","room_assignment":["cyan","orange","grey","green","pink","purple","red","brown","blue","ivory","yellow","olive"],"door_color_assignment":["white","black"],"door_generator_assignment":[1,0],"goal":3,"start":0,"action_noise":0.15,"location_history":"[0,1,2,3]","action_history":"[0,0,0]","door_history":"[1,1,1]","location_rts":"[679,552,783]","trial_type":"two-door-navigation","trial_index":30,"time_elapsed":1003766,"internal_node_id":"0.0-2.0-28.0"},{"group":"dicyclic group of order 12","room_assignment":["cyan","orange","grey","green","pink","purple","red","brown","blue","ivory","yellow","olive"],"door_color_assignment":["white","black"],"door_generator_assignment":[1,0],"goal":4,"start":3,"action_noise":0.15,"location_history":"[3,7,8,5,9,1,5,9,6,10,7,8,5,10,2,6,10,7,8,5,9,6,11,4]","action_history":"[0,0,0,1,1,1,1,1,1,0,0,0,0,1,1,1,0,0,0,1,0,0,0]","door_history":"[1,1,1,0,0,0,0,0,0,1,1,1,1,0,0,0,1,1,1,0,1,1,1]","location_rts":"[905,694,505,670,567,602,633,698,2074,1354,493,542,609,870,444,472,958,554,592,833,1163,478,599]","trial_type":"two-door-navigation","trial_index":31,"time_elapsed":1050325,"internal_node_id":"0.0-2.0-29.0"},{"group":"dicyclic group of order 12","room_assignment":["cyan","orange","grey","green","pink","purple","red","brown","blue","ivory","yellow","olive"],"door_color_assignment":["white","black"],"door_generator_assignment":[1,0],"goal":10,"start":4,"action_noise":0.15,"location_history":"[4,8,5,10]","action_history":"[0,0,0]","door_history":"[1,1,1]","location_rts":"[776,410,542]","trial_type":"two-door-navigation","trial_index":32,"time_elapsed":1058913,"internal_node_id":"0.0-2.0-30.0"},{"group":"dicyclic group of order 12","room_assignment":["cyan","orange","grey","green","pink","purple","red","brown","blue","ivory","yellow","olive"],"door_color_assignment":["white","black"],"door_generator_assignment":[1,0],"goal":11,"start":10,"action_noise":0.15,"location_history":"[10,7,8,5,9,6,10,2,3,0,1,5,9,6,10,2,6,10,7,8,5,9,1,2,6,11]","action_history":"[0,0,0,1,0,1,1,0,0,0,1,1,0,0,1,1,1,0,0,0,0,1,1,1,0]","door_history":"[1,1,1,0,1,0,0,1,1,1,0,0,1,1,0,0,0,1,1,1,1,0,0,0,1]","location_rts":"[994,431,566,1121,1345,793,536,1734,761,492,876,481,718,448,978,532,579,594,625,546,496,819,594,577,813]","trial_type":"two-door-navigation","trial_index":33,"time_elapsed":1108743,"internal_node_id":"0.0-2.0-31.0"},{"group":"dicyclic group of order 12","room_assignment":["cyan","orange","grey","green","pink","purple","red","brown","blue","ivory","yellow","olive"],"door_color_assignment":["white","black"],"door_generator_assignment":[1,0],"goal":1,"start":11,"action_noise":0.15,"location_history":"[11,3,0,1]","action_history":"[0,0,0]","door_history":"[1,1,1]","location_rts":"[957,676,501]","trial_type":"two-door-navigation","trial_index":34,"time_elapsed":1117773,"internal_node_id":"0.0-2.0-32.0"},{"group":"dicyclic group of order 12","room_assignment":["cyan","orange","grey","green","pink","purple","red","brown","blue","ivory","yellow","olive"],"door_color_assignment":["white","black"],"door_generator_assignment":[1,0],"goal":5,"start":1,"action_noise":0.15,"location_history":"[1,2,3,0,4,9,6,11,4,8,0,4,9,6,10,2,3,0,1,5]","action_history":"[0,0,0,1,0,0,0,0,1,1,0,0,0,1,1,0,0,0,1]","door_history":"[1,1,1,0,1,1,1,1,0,0,1,1,1,0,0,1,1,1,0]","location_rts":"[565,463,404,778,487,374,458,508,699,442,843,517,384,412,462,561,661,499,809]","trial_type":"two-door-navigation","trial_index":35,"time_elapsed":1152944,"internal_node_id":"0.0-2.0-33.0"},{"group":"dicyclic group of order 12","room_assignment":["cyan","orange","grey","green","pink","purple","red","brown","blue","ivory","yellow","olive"],"door_color_assignment":["white","black"],"door_generator_assignment":[1,0],"goal":9,"start":5,"action_noise":0.15,"location_history":"[5,9]","action_history":"[1]","door_history":"[0]","location_rts":"[773]","trial_type":"two-door-navigation","trial_index":36,"time_elapsed":1158360,"internal_node_id":"0.0-2.0-34.0"},{"view_history":"[{\"page_index\":0,\"viewing_time\":165043}]","rt":165043,"trial_type":"instructions","trial_index":37,"time_elapsed":1324412,"internal_node_id":"0.0-3.0"},{"view_history":"[{\"page_index\":0,\"viewing_time\":11394},{\"page_index\":1,\"viewing_time\":30913}]","rt":42307,"trial_type":"instructions","trial_index":38,"time_elapsed":1367724,"internal_node_id":"0.0-4.0"},{"group":"dihedral group of order 12","fractal_assignment":["../images/ylw_pnk.png","../images/grn_prp.png","../images/cyn_red.png","../images/pnk_blu.png","../images/gry_blk.png","../images/ylw_slt.png","../images/wht_red.png","../images/grn_red.png","../images/red_prp.png","../images/grn_blu.png","../images/blu_wht.png","../images/org_blu.png"],"mutagen_generator_assignment":[0,1],"goal":4,"start":0,"action_noise":0.15,"location_history":"[0,1,7,1,2,3,4]","action_history":"[0,1,1,0,0,0]","mutagen_history":"[0,1,1,0,0,0]","location_rts":"[6147,7446,3376,2999,1695,2111]","trial_type":"fractal-mutation","trial_index":39,"time_elapsed":1404323,"internal_node_id":"0.0-5.0-0.0"},{"group":"dihedral group of order 12","fractal_assignment":["../images/ylw_pnk.png","../images/grn_prp.png","../images/cyn_red.png","../images/pnk_blu.png","../images/gry_blk.png","../images/ylw_slt.png","../images/wht_red.png","../images/grn_red.png","../images/red_prp.png","../images/grn_blu.png","../images/blu_wht.png","../images/org_blu.png"],"mutagen_generator_assignment":[0,1],"goal":9,"start":4,"action_noise":0.15,"location_history":"[4,10,4,5,11,5,0,1,2,8,2,8,7,1,2,3,4,10,4,10,4,10,4,5,11,10,4,10,9]","action_history":"[1,1,0,0,0,0,0,0,1,1,1,0,1,0,0,0,1,1,1,1,1,1,0,1,0,1,1,1]","mutagen_history":"[1,1,0,0,0,0,0,0,1,1,1,0,1,0,0,0,1,1,1,1,1,1,0,1,0,1,1,1]","location_rts":"[4481,2889,1792,2382,1868,1351,1446,1154,954,1107,929,799,1497,1312,1004,782,1320,937,898,1733,919,743,1052,1136,1051,736,1313,699]","trial_type":"fractal-mutation","trial_index":40,"time_elapsed":1490531,"internal_node_id":"0.0-5.0-1.0"},{"group":"dihedral group of order 12","fractal_assignment":["../images/ylw_pnk.png","../images/grn_prp.png","../images/cyn_red.png","../images/pnk_blu.png","../images/gry_blk.png","../images/ylw_slt.png","../images/wht_red.png","../images/grn_red.png","../images/red_prp.png","../images/grn_blu.png","../images/blu_wht.png","../images/org_blu.png"],"mutagen_generator_assignment":[0,1],"goal":10,"start":9,"action_noise":0.15,"location_history":"[9,8,2,8,2,8,7,1,2,8,7,6,11,5,11,5,0,1,2,8,2,8,2,3,9,3,4,5,11,5,11,5,0,6,0,1,7,1,7,6,0,6,0,6,0,6,11,5,0,6,0,6,0,6,0,6,0,6,11,10]","action_history":"[0,1,1,1,1,0,1,0,1,1,0,0,1,1,1,1,0,1,1,1,1,1,0,1,1,0,0,0,1,1,0,0,1,1,0,1,1,0,0,1,1,1,1,1,1,0,1,0,0,1,0,1,1,0,1,1,1,0,0]","mutagen_history":"[0,1,1,1,1,0,1,0,1,1,0,0,1,1,1,1,0,1,1,1,1,1,0,1,1,0,0,0,1,1,0,0,1,1,0,1,1,0,0,1,1,1,1,1,1,0,1,0,0,1,0,1,1,0,1,1,1,0,0]","location_rts":"[3857,1409,1235,1057,791,571,1329,989,845,1075,759,746,1050,728,650,687,654,753,712,600,615,647,688,1186,1052,539,654,575,633,722,497,572,517,663,762,633,452,600,912,798,555,665,557,560,529,666,916,779,725,996,709,1071,650,882,607,551,596,825,1248]","trial_type":"fractal-mutation","trial_index":41,"time_elapsed":1636024,"internal_node_id":"0.0-5.0-2.0"},{"group":"dihedral group of order 12","fractal_assignment":["../images/ylw_pnk.png","../images/grn_prp.png","../images/cyn_red.png","../images/pnk_blu.png","../images/gry_blk.png","../images/ylw_slt.png","../images/wht_red.png","../images/grn_red.png","../images/red_prp.png","../images/grn_blu.png","../images/blu_wht.png","../images/org_blu.png"],"mutagen_generator_assignment":[0,1],"goal":2,"start":10,"action_noise":0.15,"location_history":"[10,9,8,7,1,7,1,2]","action_history":"[0,0,0,1,1,1,0]","mutagen_history":"[0,0,0,1,1,1,0]","location_rts":"[2184,1084,743,661,551,687,598]","trial_type":"fractal-mutation","trial_index":42,"time_elapsed":1656776,"internal_node_id":"0.0-5.0-3.0"},{"group":"dihedral group of order 12","fractal_assignment":["../images/ylw_pnk.png","../images/grn_prp.png","../images/cyn_red.png","../images/pnk_blu.png","../images/gry_blk.png","../images/ylw_slt.png","../images/wht_red.png","../images/grn_red.png","../images/red_prp.png","../images/grn_blu.png","../images/blu_wht.png","../images/org_blu.png"],"mutagen_generator_assignment":[0,1],"goal":5,"start":2,"action_noise":0.15,"location_history":"[2,3,9,8,2,8,2,3,4,5]","action_history":"[0,0,0,1,0,1,0,0,0]","mutagen_history":"[0,0,0,1,0,1,0,0,0]","location_rts":"[1455,772,1130,686,1669,716,969,736,975]","trial_type":"fractal-mutation","trial_index":43,"time_elapsed":1682844,"internal_node_id":"0.0-5.0-4.0"},{"group":"dihedral group of order 12","fractal_assignment":["../images/ylw_pnk.png","../images/grn_prp.png","../images/cyn_red.png","../images/pnk_blu.png","../images/gry_blk.png","../images/ylw_slt.png","../images/wht_red.png","../images/grn_red.png","../images/red_prp.png","../images/grn_blu.png","../images/blu_wht.png","../images/org_blu.png"],"mutagen_generator_assignment":[0,1],"goal":11,"start":5,"action_noise":0.15,"location_history":"[5,11]","action_history":"[1]","mutagen_history":"[1]","location_rts":"[2219]","trial_type":"fractal-mutation","trial_index":44,"time_elapsed":1690264,"internal_node_id":"0.0-5.0-5.0"},{"group":"dihedral group of order 12","fractal_assignment":["../images/ylw_pnk.png","../images/grn_prp.png","../images/cyn_red.png","../images/pnk_blu.png","../images/gry_blk.png","../images/ylw_slt.png","../images/wht_red.png","../images/grn_red.png","../images/red_prp.png","../images/grn_blu.png","../images/blu_wht.png","../images/org_blu.png"],"mutagen_generator_assignment":[0,1],"goal":6,"start":11,"action_noise":0.15,"location_history":"[11,10,9,8,2,8,7,6]","action_history":"[0,0,0,1,1,0,0]","mutagen_history":"[0,0,0,1,1,0,0]","location_rts":"[1183,617,770,555,808,879,828]","trial_type":"fractal-mutation","trial_index":45,"time_elapsed":1709914,"internal_node_id":"0.0-5.0-6.0"},{"group":"dihedral group of order 12","fractal_assignment":["../images/ylw_pnk.png","../images/grn_prp.png","../images/cyn_red.png","../images/pnk_blu.png","../images/gry_blk.png","../images/ylw_slt.png","../images/wht_red.png","../images/grn_red.png","../images/red_prp.png","../images/grn_blu.png","../images/blu_wht.png","../images/org_blu.png"],"mutagen_generator_assignment":[0,1],"goal":3,"start":6,"action_noise":0.15,"location_history":"[6,0,6,11,10,4,10,4,5,11,5,11,10,4,5,11,5,11,10,4,5,0,1,7,1,2,8,2,8,2,8,7,1,7,6,0,6,11,10,4,10,4,10,4,10,9,8,7,1,7,1,7,1,7,1,2,3]","action_history":"[1,1,1,1,1,1,1,1,1,0,0,0,0,0,1,1,1,1,1,1,0,0,1,1,0,1,1,1,1,1,1,1,1,0,1,1,0,0,1,1,1,1,1,1,0,0,0,1,1,1,1,1,1,1,0,0]","mutagen_history":"[1,1,1,1,1,1,1,1,1,0,0,0,0,0,1,1,1,1,1,1,0,0,1,1,0,1,1,1,1,1,1,1,1,0,1,1,0,0,1,1,1,1,1,1,0,0,0,1,1,1,1,1,1,1,0,0]","location_rts":"[1022,683,860,619,710,554,545,606,1005,989,1244,912,768,753,780,738,864,584,548,565,1446,533,524,565,975,1280,647,836,872,829,698,610,1016,923,1306,621,283,913,912,570,515,544,714,742,663,1037,791,600,897,461,687,471,882,607,1115,786]","trial_type":"fractal-mutation","trial_index":46,"time_elapsed":1845330,"internal_node_id":"0.0-5.0-7.0"},{"group":"dihedral group of order 12","fractal_assignment":["../images/ylw_pnk.png","../images/grn_prp.png","../images/cyn_red.png","../images/pnk_blu.png","../images/gry_blk.png","../images/ylw_slt.png","../images/wht_red.png","../images/grn_red.png","../images/red_prp.png","../images/grn_blu.png","../images/blu_wht.png","../images/org_blu.png"],"mutagen_generator_assignment":[0,1],"goal":8,"start":3,"action_noise":0.15,"location_history":"[3,4,10,4,5,0,6,0,6,0,6,11,10,9,3,9,3,9,3,4,5,11,10,9,8]","action_history":"[0,1,1,0,0,0,1,1,1,1,0,0,0,0,1,1,1,1,0,0,0,0,0,0]","mutagen_history":"[0,1,1,0,0,0,1,1,1,1,0,0,0,0,1,1,1,1,0,0,0,0,0,0]","location_rts":"[7621,1445,2076,1244,1069,1000,2084,1835,715,3804,8585,617,453,675,1037,503,466,514,477,530,646,877,471,650]","trial_type":"fractal-mutation","trial_index":47,"time_elapsed":1924821,"internal_node_id":"0.0-5.0-8.0"},{"group":"dihedral group of order 12","fractal_assignment":["../images/ylw_pnk.png","../images/grn_prp.png","../images/cyn_red.png","../images/pnk_blu.png","../images/gry_blk.png","../images/ylw_slt.png","../images/wht_red.png","../images/grn_red.png","../images/red_prp.png","../images/grn_blu.png","../images/blu_wht.png","../images/org_blu.png"],"mutagen_generator_assignment":[0,1],"goal":1,"start":8,"action_noise":0.15,"location_history":"[8,2,8,7,1]","action_history":"[1,1,0,1]","mutagen_history":"[1,1,0,1]","location_rts":"[1031,520,1168,601]","trial_type":"fractal-mutation","trial_index":48,"time_elapsed":1938002,"internal_node_id":"0.0-5.0-9.0"},{"group":"dihedral group of order 12","fractal_assignment":["../images/ylw_pnk.png","../images/grn_prp.png","../images/cyn_red.png","../images/pnk_blu.png","../images/gry_blk.png","../images/ylw_slt.png","../images/wht_red.png","../images/grn_red.png","../images/red_prp.png","../images/grn_blu.png","../images/blu_wht.png","../images/org_blu.png"],"mutagen_generator_assignment":[0,1],"goal":7,"start":1,"action_noise":0.15,"location_history":"[1,2,8,2,8,2,3,9,3,9,3,4,5,11,5,0,1,2,8,2,8,2,3,4,5,0,1,2,8,2,8,2,3,9,8,2,8,2,8,7]","action_history":"[0,0,1,1,0,1,1,1,1,1,0,0,1,1,0,0,0,1,1,0,1,0,0,0,0,0,0,1,1,1,1,1,1,0,1,1,1,1,0]","mutagen_history":"[0,0,1,1,0,1,1,1,1,1,0,0,1,1,0,0,0,1,1,0,1,0,0,0,0,0,0,1,1,1,1,1,1,0,1,1,1,1,0]","location_rts":"[1255,1593,767,490,859,1009,797,591,660,604,593,517,647,519,507,546,651,505,574,1063,875,809,603,579,636,843,574,928,733,758,514,797,892,846,2278,546,501,748,469]","trial_type":"fractal-mutation","trial_index":49,"time_elapsed":2032688,"internal_node_id":"0.0-5.0-10.0"},{"group":"dihedral group of order 12","fractal_assignment":["../images/ylw_pnk.png","../images/grn_prp.png","../images/cyn_red.png","../images/pnk_blu.png","../images/gry_blk.png","../images/ylw_slt.png","../images/wht_red.png","../images/grn_red.png","../images/red_prp.png","../images/grn_blu.png","../images/blu_wht.png","../images/org_blu.png"],"mutagen_generator_assignment":[0,1],"goal":5,"start":7,"action_noise":0.15,"location_history":"[7,6,11,10,9,3,4,10,4,10,4,10,9,3,9,8,7,6,11,10,4,5]","action_history":"[0,0,0,1,1,1,0,1,1,1,1,0,0,1,1,0,0,0,0,1,1]","mutagen_history":"[0,0,0,1,1,1,0,1,1,1,1,0,0,1,1,0,0,0,0,1,1]","location_rts":"[988,536,508,506,941,851,531,567,561,544,582,569,1159,1022,853,428,613,761,589,603,622]","trial_type":"fractal-mutation","trial_index":50,"time_elapsed":2083378,"internal_node_id":"0.0-5.0-11.0"},{"group":"dihedral group of order 12","fractal_assignment":["../images/ylw_pnk.png","../images/grn_prp.png","../images/cyn_red.png","../images/pnk_blu.png","../images/gry_blk.png","../images/ylw_slt.png","../images/wht_red.png","../images/grn_red.png","../images/red_prp.png","../images/grn_blu.png","../images/blu_wht.png","../images/org_blu.png"],"mutagen_generator_assignment":[0,1],"goal":8,"start":5,"action_noise":0.15,"location_history":"[5,11,5,11,5,11,5,11,10,9,3,4,5,11,5,0,1,7,6,11,10,4,10,9,3,9,3,9,8]","action_history":"[1,1,1,1,1,1,1,0,0,1,0,0,1,1,0,0,1,0,0,0,0,1,0,1,1,1,1,1]","mutagen_history":"[1,1,1,1,1,1,1,0,0,1,0,0,1,1,0,0,1,0,0,0,0,1,0,1,1,1,1,1]","location_rts":"[703,530,444,834,518,904,548,591,908,1212,586,661,549,1084,532,655,742,1020,720,1254,662,466,1086,944,598,664,607,688]","trial_type":"fractal-mutation","trial_index":51,"time_elapsed":2151797,"internal_node_id":"0.0-5.0-12.0"},{"group":"dihedral group of order 12","fractal_assignment":["../images/ylw_pnk.png","../images/grn_prp.png","../images/cyn_red.png","../images/pnk_blu.png","../images/gry_blk.png","../images/ylw_slt.png","../images/wht_red.png","../images/grn_red.png","../images/red_prp.png","../images/grn_blu.png","../images/blu_wht.png","../images/org_blu.png"],"mutagen_generator_assignment":[0,1],"goal":11,"start":8,"action_noise":0.15,"location_history":"[8,7,6,11]","action_history":"[0,0,0]","mutagen_history":"[0,0,0]","location_rts":"[1946,563,882]","trial_type":"fractal-mutation","trial_index":52,"time_elapsed":2162817,"internal_node_id":"0.0-5.0-13.0"},{"group":"dihedral group of order 12","fractal_assignment":["../images/ylw_pnk.png","../images/grn_prp.png","../images/cyn_red.png","../images/pnk_blu.png","../images/gry_blk.png","../images/ylw_slt.png","../images/wht_red.png","../images/grn_red.png","../images/red_prp.png","../images/grn_blu.png","../images/blu_wht.png","../images/org_blu.png"],"mutagen_generator_assignment":[0,1],"goal":6,"start":11,"action_noise":0.15,"location_history":"[11,10,9,8,7,6]","action_history":"[0,0,0,0,0]","mutagen_history":"[0,0,0,0,0]","location_rts":"[1047,582,563,547,505]","trial_type":"fractal-mutation","trial_index":53,"time_elapsed":2176499,"internal_node_id":"0.0-5.0-14.0"},{"group":"dihedral group of order 12","fractal_assignment":["../images/ylw_pnk.png","../images/grn_prp.png","../images/cyn_red.png","../images/pnk_blu.png","../images/gry_blk.png","../images/ylw_slt.png","../images/wht_red.png","../images/grn_red.png","../images/red_prp.png","../images/grn_blu.png","../images/blu_wht.png","../images/org_blu.png"],"mutagen_generator_assignment":[0,1],"goal":7,"start":6,"action_noise":0.15,"location_history":"[6,11,10,9,3,4,5,11,5,0,1,2,8,7]","action_history":"[0,0,0,0,0,1,1,1,0,0,0,1,1]","mutagen_history":"[0,0,0,0,0,1,1,1,0,0,0,1,1]","location_rts":"[783,601,507,696,660,493,583,529,515,598,802,733,703]","trial_type":"fractal-mutation","trial_index":54,"time_elapsed":2208031,"internal_node_id":"0.0-5.0-15.0"},{"group":"dihedral group of order 12","fractal_assignment":["../images/ylw_pnk.png","../images/grn_prp.png","../images/cyn_red.png","../images/pnk_blu.png","../images/gry_blk.png","../images/ylw_slt.png","../images/wht_red.png","../images/grn_red.png","../images/red_prp.png","../images/grn_blu.png","../images/blu_wht.png","../images/org_blu.png"],"mutagen_generator_assignment":[0,1],"goal":10,"start":7,"action_noise":0.15,"location_history":"[7,6,11,10]","action_history":"[0,0,0]","mutagen_history":"[0,0,0]","location_rts":"[621,583,725]","trial_type":"fractal-mutation","trial_index":55,"time_elapsed":2217598,"internal_node_id":"0.0-5.0-16.0"},{"group":"dihedral group of order 12","fractal_assignment":["../images/ylw_pnk.png","../images/grn_prp.png","../images/cyn_red.png","../images/pnk_blu.png","../images/gry_blk.png","../images/ylw_slt.png","../images/wht_red.png","../images/grn_red.png","../images/red_prp.png","../images/grn_blu.png","../images/blu_wht.png","../images/org_blu.png"],"mutagen_generator_assignment":[0,1],"goal":0,"start":10,"action_noise":0.15,"location_history":"[10,4,5,0]","action_history":"[1,0,0]","mutagen_history":"[1,0,0]","location_rts":"[1390,1057,601]","trial_type":"fractal-mutation","trial_index":56,"time_elapsed":2228648,"internal_node_id":"0.0-5.0-17.0"},{"group":"dihedral group of order 12","fractal_assignment":["../images/ylw_pnk.png","../images/grn_prp.png","../images/cyn_red.png","../images/pnk_blu.png","../images/gry_blk.png","../images/ylw_slt.png","../images/wht_red.png","../images/grn_red.png","../images/red_prp.png","../images/grn_blu.png","../images/blu_wht.png","../images/org_blu.png"],"mutagen_generator_assignment":[0,1],"goal":9,"start":0,"action_noise":0.15,"location_history":"[0,6,0,6,0,6,0,1,7,1,2,3,4,5,11,10,9]","action_history":"[1,1,1,1,1,0,0,1,1,0,0,0,0,1,0,0]","mutagen_history":"[1,1,1,1,1,0,0,1,1,0,0,0,0,1,0,0]","location_rts":"[935,449,658,540,630,654,669,764,599,732,601,594,549,854,442,528]","trial_type":"fractal-mutation","trial_index":57,"time_elapsed":2267208,"internal_node_id":"0.0-5.0-18.0"},{"group":"dihedral group of order 12","fractal_assignment":["../images/ylw_pnk.png","../images/grn_prp.png","../images/cyn_red.png","../images/pnk_blu.png","../images/gry_blk.png","../images/ylw_slt.png","../images/wht_red.png","../images/grn_red.png","../images/red_prp.png","../images/grn_blu.png","../images/blu_wht.png","../images/org_blu.png"],"mutagen_generator_assignment":[0,1],"goal":4,"start":9,"action_noise":0.15,"location_history":"[9,3,4]","action_history":"[0,0]","mutagen_history":"[0,0]","location_rts":"[1422,566]","trial_type":"fractal-mutation","trial_index":58,"time_elapsed":2275574,"internal_node_id":"0.0-5.0-19.0"},{"group":"dihedral group of order 12","fractal_assignment":["../images/ylw_pnk.png","../images/grn_prp.png","../images/cyn_red.png","../images/pnk_blu.png","../images/gry_blk.png","../images/ylw_slt.png","../images/wht_red.png","../images/grn_red.png","../images/red_prp.png","../images/grn_blu.png","../images/blu_wht.png","../images/org_blu.png"],"mutagen_generator_assignment":[0,1],"goal":2,"start":4,"action_noise":0.15,"location_history":"[4,10,9,3,4,5,0,1,7,1,7,1,7,6,11,10,9,3,4,5,11,10,4,5,11,5,11,5,0,1,7,6,11,10,4,5,11,10,4,10,4,5,11,5,0,6,0,6,0,6,0,6,0,6,11,10,9,8,7,1,2]","action_history":"[1,1,1,1,0,0,0,0,1,1,1,1,0,0,0,0,1,1,0,1,1,0,0,1,1,1,1,0,0,0,0,0,0,1,1,1,1,1,1,1,0,1,1,0,1,1,1,0,1,1,1,1,1,0,0,0,0,0,1,0]","mutagen_history":"[1,1,1,1,0,0,0,0,1,1,1,1,0,0,0,0,1,1,0,1,1,0,0,1,1,1,1,0,0,0,0,0,0,1,1,1,1,1,1,1,0,1,1,0,1,1,1,0,1,1,1,1,1,0,0,0,0,0,1,0]","location_rts":"[951,408,387,595,554,491,522,650,477,526,452,563,395,448,565,541,478,462,370,401,692,425,476,480,705,372,674,455,592,506,767,494,796,441,365,432,610,429,482,444,431,381,481,379,405,409,459,561,544,481,536,483,450,318,410,487,390,481,319,538]","trial_type":"fractal-mutation","trial_index":59,"time_elapsed":2402071,"internal_node_id":"0.0-5.0-20.0"},{"group":"dihedral group of order 12","fractal_assignment":["../images/ylw_pnk.png","../images/grn_prp.png","../images/cyn_red.png","../images/pnk_blu.png","../images/gry_blk.png","../images/ylw_slt.png","../images/wht_red.png","../images/grn_red.png","../images/red_prp.png","../images/grn_blu.png","../images/blu_wht.png","../images/org_blu.png"],"mutagen_generator_assignment":[0,1],"goal":1,"start":2,"action_noise":0.15,"location_history":"[2,3,9,3,9,8,2,3,9,8,2,8,7,6,11,5,11,5,11,5,0,1]","action_history":"[0,1,1,1,0,1,1,1,0,1,1,0,0,0,1,1,1,1,1,0,0]","mutagen_history":"[0,1,1,1,0,1,1,1,0,1,1,0,0,0,1,1,1,1,1,0,0]","location_rts":"[1301,376,323,389,424,392,349,469,606,418,475,360,342,408,469,474,348,465,422,445,320]","trial_type":"fractal-mutation","trial_index":60,"time_elapsed":2448418,"internal_node_id":"0.0-5.0-21.0"},{"group":"dihedral group of order 12","fractal_assignment":["../images/ylw_pnk.png","../images/grn_prp.png","../images/cyn_red.png","../images/pnk_blu.png","../images/gry_blk.png","../images/ylw_slt.png","../images/wht_red.png","../images/grn_red.png","../images/red_prp.png","../images/grn_blu.png","../images/blu_wht.png","../images/org_blu.png"],"mutagen_generator_assignment":[0,1],"goal":3,"start":1,"action_noise":0.15,"location_history":"[1,7,1,2,8,2,8,2,3]","action_history":"[1,1,1,1,1,1,1,0]","mutagen_history":"[1,1,1,1,1,1,1,0]","location_rts":"[466,324,900,313,1831,439,372,418]","trial_type":"fractal-mutation","trial_index":61,"time_elapsed":2470334,"internal_node_id":"0.0-5.0-22.0"},{"group":"dihedral group of order 12","fractal_assignment":["../images/ylw_pnk.png","../images/grn_prp.png","../images/cyn_red.png","../images/pnk_blu.png","../images/gry_blk.png","../images/ylw_slt.png","../images/wht_red.png","../images/grn_red.png","../images/red_prp.png","../images/grn_blu.png","../images/blu_wht.png","../images/org_blu.png"],"mutagen_generator_assignment":[0,1],"goal":7,"start":3,"action_noise":0.15,"location_history":"[3,4,5,11,10,9,3,4,10,4,10,4,5,11,5,11,5,0,6,0,6,11,5,0,6,11,5,11,5,0,6,0,6,11,10,4,5,11,10,9,8,7]","action_history":"[0,0,0,0,0,1,0,1,1,1,1,1,1,1,1,1,0,0,1,1,1,1,0,1,1,1,1,1,0,1,1,1,0,0,1,1,1,0,0,0,0]","mutagen_history":"[0,0,0,0,0,1,0,1,1,1,1,1,1,1,1,1,0,0,1,1,1,1,0,1,1,1,1,1,0,1,1,1,0,0,1,1,1,0,0,0,0]","location_rts":"[431,418,303,311,387,318,11,341,735,4603,3024,3803,491,4562,2780,595,1887,442,424,643,711,391,1911,605,364,417,429,378,330,1350,300,4322,425,387,439,360,323,250,358,383,454]","trial_type":"fractal-mutation","trial_index":62,"time_elapsed":2580160,"internal_node_id":"0.0-5.0-23.0"},{"group":"dihedral group of order 12","fractal_assignment":["../images/ylw_pnk.png","../images/grn_prp.png","../images/cyn_red.png","../images/pnk_blu.png","../images/gry_blk.png","../images/ylw_slt.png","../images/wht_red.png","../images/grn_red.png","../images/red_prp.png","../images/grn_blu.png","../images/blu_wht.png","../images/org_blu.png"],"mutagen_generator_assignment":[0,1],"goal":6,"start":7,"action_noise":0.15,"location_history":"[7,1,2,8,7,6]","action_history":"[0,0,1,1,1]","mutagen_history":"[0,0,1,1,1]","location_rts":"[656,543,439,272,1937]","trial_type":"fractal-mutation","trial_index":63,"time_elapsed":2595493,"internal_node_id":"0.0-5.0-24.0"},{"group":"dihedral group of order 12","fractal_assignment":["../images/ylw_pnk.png","../images/grn_prp.png","../images/cyn_red.png","../images/pnk_blu.png","../images/gry_blk.png","../images/ylw_slt.png","../images/wht_red.png","../images/grn_red.png","../images/red_prp.png","../images/grn_blu.png","../images/blu_wht.png","../images/org_blu.png"],"mutagen_generator_assignment":[0,1],"goal":2,"start":6,"action_noise":0.15,"location_history":"[6,11,10,9,3,4,10,4,5,0,6,11,5,11,10,9,8,2]","action_history":"[0,0,0,1,0,1,1,0,0,1,0,1,1,1,0,0,1]","mutagen_history":"[0,0,0,1,0,1,1,0,0,1,0,1,1,1,0,0,1]","location_rts":"[562,940,2511,541,360,1126,1437,644,288,1055,506,2847,339,1085,394,573,1139]","trial_type":"fractal-mutation","trial_index":64,"time_elapsed":2641859,"internal_node_id":"0.0-5.0-25.0"},{"group":"dihedral group of order 12","fractal_assignment":["../images/ylw_pnk.png","../images/grn_prp.png","../images/cyn_red.png","../images/pnk_blu.png","../images/gry_blk.png","../images/ylw_slt.png","../images/wht_red.png","../images/grn_red.png","../images/red_prp.png","../images/grn_blu.png","../images/blu_wht.png","../images/org_blu.png"],"mutagen_generator_assignment":[0,1],"goal":8,"start":2,"action_noise":0.15,"location_history":"[2,3,9,8]","action_history":"[0,1,0]","mutagen_history":"[0,1,0]","location_rts":"[480,687,158]","trial_type":"fractal-mutation","trial_index":65,"time_elapsed":2651321,"internal_node_id":"0.0-5.0-26.0"},{"group":"dihedral group of order 12","fractal_assignment":["../images/ylw_pnk.png","../images/grn_prp.png","../images/cyn_red.png","../images/pnk_blu.png","../images/gry_blk.png","../images/ylw_slt.png","../images/wht_red.png","../images/grn_red.png","../images/red_prp.png","../images/grn_blu.png","../images/blu_wht.png","../images/org_blu.png"],"mutagen_generator_assignment":[0,1],"goal":0,"start":8,"action_noise":0.15,"location_history":"[8,7,6,11,5,11,5,0]","action_history":"[0,0,1,1,1,1,0]","mutagen_history":"[0,0,1,1,1,1,0]","location_rts":"[625,402,1078,728,129,288,387]","trial_type":"fractal-mutation","trial_index":66,"time_elapsed":2669387,"internal_node_id":"0.0-5.0-27.0"},{"group":"dihedral group of order 12","fractal_assignment":["../images/ylw_pnk.png","../images/grn_prp.png","../images/cyn_red.png","../images/pnk_blu.png","../images/gry_blk.png","../images/ylw_slt.png","../images/wht_red.png","../images/grn_red.png","../images/red_prp.png","../images/grn_blu.png","../images/blu_wht.png","../images/org_blu.png"],"mutagen_generator_assignment":[0,1],"goal":3,"start":0,"action_noise":0.15,"location_history":"[0,1,2,8,7,6,11,5,0,6,11,10,4,10,4,10,9,3]","action_history":"[0,0,1,0,1,0,1,1,1,0,0,1,1,1,1,0,1]","mutagen_history":"[0,0,1,0,1,0,1,1,1,0,0,1,1,1,1,0,1]","location_rts":"[495,460,1070,340,433,344,1255,328,865,83,301,1069,327,819,464,801,1640]","trial_type":"fractal-mutation","trial_index":67,"time_elapsed":2711127,"internal_node_id":"0.0-5.0-28.0"},{"group":"dihedral group of order 12","fractal_assignment":["../images/ylw_pnk.png","../images/grn_prp.png","../images/cyn_red.png","../images/pnk_blu.png","../images/gry_blk.png","../images/ylw_slt.png","../images/wht_red.png","../images/grn_red.png","../images/red_prp.png","../images/grn_blu.png","../images/blu_wht.png","../images/org_blu.png"],"mutagen_generator_assignment":[0,1],"goal":4,"start":3,"action_noise":0.15,"location_history":"[3,4]","action_history":"[0]","mutagen_history":"[0]","location_rts":"[445]","trial_type":"fractal-mutation","trial_index":68,"time_elapsed":2716490,"internal_node_id":"0.0-5.0-29.0"},{"group":"dihedral group of order 12","fractal_assignment":["../images/ylw_pnk.png","../images/grn_prp.png","../images/cyn_red.png","../images/pnk_blu.png","../images/gry_blk.png","../images/ylw_slt.png","../images/wht_red.png","../images/grn_red.png","../images/red_prp.png","../images/grn_blu.png","../images/blu_wht.png","../images/org_blu.png"],"mutagen_generator_assignment":[0,1],"goal":10,"start":4,"action_noise":0.15,"location_history":"[4,10]","action_history":"[1]","mutagen_history":"[1]","location_rts":"[426]","trial_type":"fractal-mutation","trial_index":69,"time_elapsed":2722142,"internal_node_id":"0.0-5.0-30.0"},{"group":"dihedral group of order 12","fractal_assignment":["../images/ylw_pnk.png","../images/grn_prp.png","../images/cyn_red.png","../images/pnk_blu.png","../images/gry_blk.png","../images/ylw_slt.png","../images/wht_red.png","../images/grn_red.png","../images/red_prp.png","../images/grn_blu.png","../images/blu_wht.png","../images/org_blu.png"],"mutagen_generator_assignment":[0,1],"goal":11,"start":10,"action_noise":0.15,"location_history":"[10,4,10,4,5,11]","action_history":"[1,1,1,0,1]","mutagen_history":"[1,1,1,0,1]","location_rts":"[1149,951,411,597,744]","trial_type":"fractal-mutation","trial_index":70,"time_elapsed":2737682,"internal_node_id":"0.0-5.0-31.0"},{"group":"dihedral group of order 12","fractal_assignment":["../images/ylw_pnk.png","../images/grn_prp.png","../images/cyn_red.png","../images/pnk_blu.png","../images/gry_blk.png","../images/ylw_slt.png","../images/wht_red.png","../images/grn_red.png","../images/red_prp.png","../images/grn_blu.png","../images/blu_wht.png","../images/org_blu.png"],"mutagen_generator_assignment":[0,1],"goal":1,"start":11,"action_noise":0.15,"location_history":"[11,5,11,5,11,5,11,10,4,10,4,5,11,5,0,6,11,10,9,3,9,3,4,10,9,8,2,8,7,6,11,10,9,3,9,3,4,10,4,10,9,3,9,3,9,8,7,6,11,10,4,10,4,10,4,5,0,6,11,5,11,10,4,5,0,6,0,6,0,6,11,5,0,6,11,5,0,6,0,6,0,6,0,6,11,5,11,5,11,10,4,10,9,8,2,8,7,6,11,5,11,5,0,6,0,6,0,6,0,6,0,6,0,6,0,1]","action_history":"[1,1,1,1,1,0,0,1,1,0,1,0,0,0,1,1,0,1,1,1,1,0,1,0,0,1,1,0,0,0,0,0,1,1,1,0,1,1,1,1,0,1,1,1,1,0,0,0,0,1,1,0,1,1,0,0,1,1,1,1,1,1,0,0,1,1,1,1,1,0,1,1,1,0,0,1,1,1,1,1,1,1,1,1,1,0,0,1,1,1,0,0,0,1,1,1,0,0,1,1,1,0,1,1,1,1,1,1,1,1,1,1,1,0,0]","mutagen_history":"[1,1,1,1,1,0,0,1,1,0,1,0,0,0,1,1,0,1,1,1,1,0,1,0,0,1,1,0,0,0,0,0,1,1,1,0,1,1,1,1,0,1,1,1,1,0,0,0,0,1,1,0,1,1,0,0,1,1,1,1,1,1,0,0,1,1,1,1,1,0,1,1,1,0,0,1,1,1,1,1,1,1,1,1,1,0,0,1,1,1,0,0,0,1,1,1,0,0,1,1,1,0,1,1,1,1,1,1,1,1,1,1,1,0,0]","location_rts":"[514,2984,965,354,560,568,838,1062,369,280,851,767,821,2993,359,323,1292,963,419,402,140,256,1257,443,696,420,368,386,338,352,473,319,620,715,381,685,975,1345,353,457,295,472,470,333,352,334,837,354,1032,433,788,372,599,904,388,328,519,899,323,395,344,233,360,434,587,381,875,427,830,405,750,333,398,331,310,563,476,627,353,1489,308,300,438,1041,361,711,441,500,279,338,296,429,623,513,942,477,714,684,1425,702,283,316,1434,854,116,840,324,1229,736,630,938,385,608,363,1027]","trial_type":"fractal-mutation","trial_index":71,"time_elapsed":2996643,"internal_node_id":"0.0-5.0-32.0"},{"group":"dihedral group of order 12","fractal_assignment":["../images/ylw_pnk.png","../images/grn_prp.png","../images/cyn_red.png","../images/pnk_blu.png","../images/gry_blk.png","../images/ylw_slt.png","../images/wht_red.png","../images/grn_red.png","../images/red_prp.png","../images/grn_blu.png","../images/blu_wht.png","../images/org_blu.png"],"mutagen_generator_assignment":[0,1],"goal":5,"start":1,"action_noise":0.15,"location_history":"[1,2,8,2,8,2,8,7,1,2,3,4,5]","action_history":"[0,0,1,1,1,1,0,1,0,1,1,1]","mutagen_history":"[0,0,1,1,1,1,0,1,0,1,1,1]","location_rts":"[486,354,392,597,618,319,498,367,899,550,749,366]","trial_type":"fractal-mutation","trial_index":72,"time_elapsed":3025339,"internal_node_id":"0.0-5.0-33.0"},{"group":"dihedral group of order 12","fractal_assignment":["../images/ylw_pnk.png","../images/grn_prp.png","../images/cyn_red.png","../images/pnk_blu.png","../images/gry_blk.png","../images/ylw_slt.png","../images/wht_red.png","../images/grn_red.png","../images/red_prp.png","../images/grn_blu.png","../images/blu_wht.png","../images/org_blu.png"],"mutagen_generator_assignment":[0,1],"goal":9,"start":5,"action_noise":0.15,"location_history":"[5,0,6,0,6,11,5,11,5,11,10,4,10,4,10,4,5,0,1,2,8,2,8,2,8,2,3,9]","action_history":"[0,1,1,1,0,1,1,1,1,0,1,1,1,1,1,0,0,0,1,1,1,1,1,1,1,0,1]","mutagen_history":"[0,1,1,1,0,1,1,1,1,0,1,1,1,1,1,0,0,0,1,1,1,1,1,1,1,0,1]","location_rts":"[396,1076,561,1000,2175,2734,967,380,1224,294,765,321,414,307,545,301,628,452,450,865,527,469,508,961,743,1028,505]","trial_type":"fractal-mutation","trial_index":73,"time_elapsed":3093282,"internal_node_id":"0.0-5.0-34.0"},{"view_history":"[{\"page_index\":0,\"viewing_time\":27969}]","rt":27970,"trial_type":"instructions","trial_index":74,"time_elapsed":3122261,"internal_node_id":"0.0-6.0"},{"rt":21615,"responses":"{\"Q0\":\"The second part went on way too long when it was obvious I wasn't learning.\"}","trial_type":"survey-text","trial_index":75,"time_elapsed":3144903,"internal_node_id":"0.0-7.0"}]