[{"view_history":"[{\"page_index\":0,\"viewing_time\":255544},{\"page_index\":1,\"viewing_time\":12176},{\"page_index\":2,\"viewing_time\":13820},{\"page_index\":3,\"viewing_time\":4683}]","rt":286224,"trial_type":"instructions","trial_index":0,"time_elapsed":286225,"internal_node_id":"0.0-0.0"},{"view_history":"[{\"page_index\":0,\"viewing_time\":2231},{\"page_index\":1,\"viewing_time\":26815}]","rt":29047,"trial_type":"instructions","trial_index":1,"time_elapsed":316274,"internal_node_id":"0.0-1.0"},{"group":"dihedral group of order 12","room_assignment":["ivory","olive","pink","orange","brown","yellow","purple","blue","cyan","grey","green","red"],"door_color_assignment":["black","white"],"door_generator_assignment":[1,0],"goal":4,"start":0,"action_noise":0.15,"location_history":"[0,6,0,6,11,10,4]","action_history":"[1,1,1,0,0,1]","door_history":"[0,0,0,1,1,0]","location_rts":"[1867,1287,1853,623,1404,1229]","trial_type":"two-door-navigation","trial_index":2,"time_elapsed":334146,"internal_node_id":"0.0-2.0-0.0"},{"group":"dihedral group of order 12","room_assignment":["ivory","olive","pink","orange","brown","yellow","purple","blue","cyan","grey","green","red"],"door_color_assignment":["black","white"],"door_generator_assignment":[1,0],"goal":9,"start":4,"action_noise":0.15,"location_history":"[4,10,4,5,11,10,9]","action_history":"[1,1,0,1,0,0]","door_history":"[0,0,1,0,1,1]","location_rts":"[1754,1430,1309,1760,1241,856]","trial_type":"two-door-navigation","trial_index":3,"time_elapsed":352092,"internal_node_id":"0.0-2.0-1.0"},{"group":"dihedral group of order 12","room_assignment":["ivory","olive","pink","orange","brown","yellow","purple","blue","cyan","grey","green","red"],"door_color_assignment":["black","white"],"door_generator_assignment":[1,0],"goal":10,"start":9,"action_noise":0.15,"location_history":"[9,8,2,8,2,3,9,3,4,10]","action_history":"[0,1,1,1,0,1,1,0,1]","door_history":"[1,0,0,0,1,0,0,1,0]","location_rts":"[2451,1011,962,1003,1647,894,1086,937,1314]","trial_type":"two-door-navigation","trial_index":4,"time_elapsed":376051,"internal_node_id":"0.0-2.0-2.0"},{"group":"dihedral group of order 12","room_assignment":["ivory","olive","pink","orange","brown","yellow","purple","blue","cyan","grey","green","red"],"door_color_assignment":["black","white"],"door_generator_assignment":[1,0],"goal":2,"start":10,"action_noise":0.15,"location_history":"[10,9,3,9,8,2]","action_history":"[0,1,0,0,1]","door_history":"[1,0,1,1,0]","location_rts":"[1789,911,1404,1512,966]","trial_type":"two-door-navigation","trial_index":5,"time_elapsed":391273,"internal_node_id":"0.0-2.0-3.0"},{"group":"dihedral group of order 12","room_assignment":["ivory","olive","pink","orange","brown","yellow","purple","blue","cyan","grey","green","red"],"door_color_assignment":["black","white"],"door_generator_assignment":[1,0],"goal":5,"start":2,"action_noise":0.15,"location_history":"[2,8,2,3,9,3,4,5]","action_history":"[0,0,1,0,1,1,1]","door_history":"[1,1,0,1,0,0,0]","location_rts":"[2871,1694,1419,3226,864,757,1520]","trial_type":"two-door-navigation","trial_index":6,"time_elapsed":414249,"internal_node_id":"0.0-2.0-4.0"},{"group":"dihedral group of order 12","room_assignment":["ivory","olive","pink","orange","brown","yellow","purple","blue","cyan","grey","green","red"],"door_color_assignment":["black","white"],"door_generator_assignment":[1,0],"goal":11,"start":5,"action_noise":0.15,"location_history":"[5,0,1,2,3,9,3,9,3,9,8,7,1,2,3,4,5,11]","action_history":"[1,0,0,0,1,1,1,1,1,0,1,1,0,0,0,0,1]","door_history":"[0,1,1,1,0,0,0,0,0,1,0,0,1,1,1,1,0]","location_rts":"[2313,1883,1099,1401,1084,860,933,625,562,2657,760,1706,808,694,670,826,1514]","trial_type":"two-door-navigation","trial_index":7,"time_elapsed":455530,"internal_node_id":"0.0-2.0-5.0"},{"group":"dihedral group of order 12","room_assignment":["ivory","olive","pink","orange","brown","yellow","purple","blue","cyan","grey","green","red"],"door_color_assignment":["black","white"],"door_generator_assignment":[1,0],"goal":6,"start":11,"action_noise":0.15,"location_history":"[11,5,11,5,0,6]","action_history":"[1,1,1,1,1]","door_history":"[0,0,0,0,0]","location_rts":"[1423,1309,948,618,1524]","trial_type":"two-door-navigation","trial_index":8,"time_elapsed":469983,"internal_node_id":"0.0-2.0-6.0"},{"group":"dihedral group of order 12","room_assignment":["ivory","olive","pink","orange","brown","yellow","purple","blue","cyan","grey","green","red"],"door_color_assignment":["black","white"],"door_generator_assignment":[1,0],"goal":3,"start":6,"action_noise":0.15,"location_history":"[6,11,10,9,8,7,1,2,3]","action_history":"[0,0,0,0,0,0,0,0]","door_history":"[1,1,1,1,1,1,1,1]","location_rts":"[1109,739,1069,732,622,651,715,749]","trial_type":"two-door-navigation","trial_index":9,"time_elapsed":487994,"internal_node_id":"0.0-2.0-7.0"},{"group":"dihedral group of order 12","room_assignment":["ivory","olive","pink","orange","brown","yellow","purple","blue","cyan","grey","green","red"],"door_color_assignment":["black","white"],"door_generator_assignment":[1,0],"goal":8,"start":3,"action_noise":0.15,"location_history":"[3,9,3,4,10,9,3,9,8]","action_history":"[1,1,0,1,1,1,1,0]","door_history":"[0,0,1,0,0,0,0,1]","location_rts":"[1233,881,1193,959,819,892,840,712]","trial_type":"two-door-navigation","trial_index":10,"time_elapsed":507141,"internal_node_id":"0.0-2.0-8.0"},{"group":"dihedral group of order 12","room_assignment":["ivory","olive","pink","orange","brown","yellow","purple","blue","cyan","grey","green","red"],"door_color_assignment":["black","white"],"door_generator_assignment":[1,0],"goal":1,"start":8,"action_noise":0.15,"location_history":"[8,2,8,7,1]","action_history":"[1,1,1,1]","door_history":"[0,0,0,0]","location_rts":"[1167,528,483,430]","trial_type":"two-door-navigation","trial_index":11,"time_elapsed":517312,"internal_node_id":"0.0-2.0-9.0"},{"group":"dihedral group of order 12","room_assignment":["ivory","olive","pink","orange","brown","yellow","purple","blue","cyan","grey","green","red"],"door_color_assignment":["black","white"],"door_generator_assignment":[1,0],"goal":7,"start":1,"action_noise":0.15,"location_history":"[1,7]","action_history":"[1]","door_history":"[0]","location_rts":"[2129]","trial_type":"two-door-navigation","trial_index":12,"time_elapsed":523964,"internal_node_id":"0.0-2.0-10.0"},{"group":"dihedral group of order 12","room_assignment":["ivory","olive","pink","orange","brown","yellow","purple","blue","cyan","grey","green","red"],"door_color_assignment":["black","white"],"door_generator_assignment":[1,0],"goal":5,"start":7,"action_noise":0.15,"location_history":"[7,6,11,10,9,8,7,6,0,1,2,8,2,8,2,3,4,5]","action_history":"[0,0,0,0,0,0,0,0,0,0,0,1,1,1,0,1,0]","door_history":"[1,1,1,1,1,1,1,1,1,1,1,0,0,0,1,0,1]","location_rts":"[1136,590,624,610,589,517,765,600,800,684,768,524,561,886,647,1005,1043]","trial_type":"two-door-navigation","trial_index":13,"time_elapsed":557120,"internal_node_id":"0.0-2.0-11.0"},{"group":"dihedral group of order 12","room_assignment":["ivory","olive","pink","orange","brown","yellow","purple","blue","cyan","grey","green","red"],"door_color_assignment":["black","white"],"door_generator_assignment":[1,0],"goal":8,"start":5,"action_noise":0.15,"location_history":"[5,0,6,11,10,4,5,11,10,9,8]","action_history":"[0,1,0,1,1,0,1,1,0,1]","door_history":"[1,0,1,0,0,1,0,0,1,0]","location_rts":"[1165,1244,601,780,752,1515,905,628,795,1176]","trial_type":"two-door-navigation","trial_index":14,"time_elapsed":580357,"internal_node_id":"0.0-2.0-12.0"},{"group":"dihedral group of order 12","room_assignment":["ivory","olive","pink","orange","brown","yellow","purple","blue","cyan","grey","green","red"],"door_color_assignment":["black","white"],"door_generator_assignment":[1,0],"goal":11,"start":8,"action_noise":0.15,"location_history":"[8,2,3,4,10,9,3,4,5,0,6,11]","action_history":"[1,0,0,1,0,1,1,0,0,1,0]","door_history":"[0,1,1,0,1,0,0,1,1,0,1]","location_rts":"[1314,4928,596,1293,592,905,1333,1026,569,1032,1034]","trial_type":"two-door-navigation","trial_index":15,"time_elapsed":609720,"internal_node_id":"0.0-2.0-13.0"},{"group":"dihedral group of order 12","room_assignment":["ivory","olive","pink","orange","brown","yellow","purple","blue","cyan","grey","green","red"],"door_color_assignment":["black","white"],"door_generator_assignment":[1,0],"goal":6,"start":11,"action_noise":0.15,"location_history":"[11,5,11,10,9,3,9,8,7,1,2,8,2,3,9,8,2,3,9,8,7,6]","action_history":"[1,1,0,0,1,1,0,0,0,0,1,1,0,1,0,1,0,0,0,0,0]","door_history":"[0,0,1,1,0,0,1,1,1,1,0,0,1,0,1,0,1,1,1,1,1]","location_rts":"[1001,1215,721,923,1716,1711,1236,643,800,892,1036,1133,631,884,1038,880,727,485,519,596,534]","trial_type":"two-door-navigation","trial_index":16,"time_elapsed":653850,"internal_node_id":"0.0-2.0-14.0"},{"group":"dihedral group of order 12","room_assignment":["ivory","olive","pink","orange","brown","yellow","purple","blue","cyan","grey","green","red"],"door_color_assignment":["black","white"],"door_generator_assignment":[1,0],"goal":7,"start":6,"action_noise":0.15,"location_history":"[6,0,6,11,5,0,1,2,8,2,8,2,3,9,3,4,10,9,3,9,3,4,10,4,5,11,5,11,5,11,10,9,3,4,5,0,6,0,6,0,1,2,8,2,3,4,5,11,10,9,8,7]","action_history":"[1,1,1,1,0,0,0,1,1,1,1,0,1,0,0,1,0,1,1,1,0,0,1,0,1,1,1,1,1,0,0,0,1,0,1,1,1,1,1,1,0,1,1,0,0,0,0,0,0,0,0]","door_history":"[0,0,0,0,1,1,1,0,0,0,0,1,0,1,1,0,1,0,0,0,1,1,0,1,0,0,0,0,0,1,1,1,0,1,0,0,0,0,0,0,1,0,0,1,1,1,1,1,1,1,1]","location_rts":"[2464,418,1007,517,1235,764,1056,725,748,638,451,1657,665,937,724,1185,768,762,681,618,709,597,1090,1261,725,492,628,425,477,644,1012,1051,966,850,656,437,570,595,305,293,60,719,888,648,540,361,620,597,356,410,838]","trial_type":"two-door-navigation","trial_index":17,"time_elapsed":746970,"internal_node_id":"0.0-2.0-15.0"},{"group":"dihedral group of order 12","room_assignment":["ivory","olive","pink","orange","brown","yellow","purple","blue","cyan","grey","green","red"],"door_color_assignment":["black","white"],"door_generator_assignment":[1,0],"goal":10,"start":7,"action_noise":0.15,"location_history":"[7,1,2,3,4,10]","action_history":"[1,0,1,1,1]","door_history":"[0,1,0,0,0]","location_rts":"[1086,1625,1451,774,575]","trial_type":"two-door-navigation","trial_index":18,"time_elapsed":761053,"internal_node_id":"0.0-2.0-16.0"},{"group":"dihedral group of order 12","room_assignment":["ivory","olive","pink","orange","brown","yellow","purple","blue","cyan","grey","green","red"],"door_color_assignment":["black","white"],"door_generator_assignment":[1,0],"goal":0,"start":10,"action_noise":0.15,"location_history":"[10,9,8,7,6,11,5,0]","action_history":"[0,0,0,0,0,0,1]","door_history":"[1,1,1,1,1,1,0]","location_rts":"[1008,883,496,1148,616,1012,560]","trial_type":"two-door-navigation","trial_index":19,"time_elapsed":777393,"internal_node_id":"0.0-2.0-17.0"},{"group":"dihedral group of order 12","room_assignment":["ivory","olive","pink","orange","brown","yellow","purple","blue","cyan","grey","green","red"],"door_color_assignment":["black","white"],"door_generator_assignment":[1,0],"goal":9,"start":0,"action_noise":0.15,"location_history":"[0,1,7,1,7,1,7,1,2,8,2,8,2,3,9]","action_history":"[0,1,1,1,1,1,1,0,1,1,1,1,0,1]","door_history":"[1,0,0,0,0,0,0,1,0,0,0,0,1,0]","location_rts":"[932,728,710,453,416,507,377,648,484,615,568,452,580,511]","trial_type":"two-door-navigation","trial_index":20,"time_elapsed":803406,"internal_node_id":"0.0-2.0-18.0"},{"group":"dihedral group of order 12","room_assignment":["ivory","olive","pink","orange","brown","yellow","purple","blue","cyan","grey","green","red"],"door_color_assignment":["black","white"],"door_generator_assignment":[1,0],"goal":4,"start":9,"action_noise":0.15,"location_history":"[9,8,7,6,11,10,9,8,2,8,7,6,0,6,0,1,7,6,11,10,9,3,4]","action_history":"[0,0,0,0,0,0,0,0,1,0,1,1,1,1,1,1,0,0,0,0,1,1]","door_history":"[1,1,1,1,1,1,1,1,0,1,0,0,0,0,0,0,1,1,1,1,0,0]","location_rts":"[932,831,617,347,430,1037,1350,910,713,964,595,716,693,360,528,553,556,679,556,436,691,511]","trial_type":"two-door-navigation","trial_index":21,"time_elapsed":844295,"internal_node_id":"0.0-2.0-19.0"},{"group":"dihedral group of order 12","room_assignment":["ivory","olive","pink","orange","brown","yellow","purple","blue","cyan","grey","green","red"],"door_color_assignment":["black","white"],"door_generator_assignment":[1,0],"goal":2,"start":4,"action_noise":0.15,"location_history":"[4,5,0,1,2]","action_history":"[0,0,0,0]","door_history":"[1,1,1,1]","location_rts":"[866,627,829,537]","trial_type":"two-door-navigation","trial_index":22,"time_elapsed":854814,"internal_node_id":"0.0-2.0-20.0"},{"group":"dihedral group of order 12","room_assignment":["ivory","olive","pink","orange","brown","yellow","purple","blue","cyan","grey","green","red"],"door_color_assignment":["black","white"],"door_generator_assignment":[1,0],"goal":1,"start":2,"action_noise":0.15,"location_history":"[2,8,7,6,11,10,9,8,7,1]","action_history":"[1,0,0,0,1,0,0,1,1]","door_history":"[0,1,1,1,0,1,1,0,0]","location_rts":"[953,524,649,626,710,857,676,681,502]","trial_type":"two-door-navigation","trial_index":23,"time_elapsed":873666,"internal_node_id":"0.0-2.0-21.0"},{"group":"dihedral group of order 12","room_assignment":["ivory","olive","pink","orange","brown","yellow","purple","blue","cyan","grey","green","red"],"door_color_assignment":["black","white"],"door_generator_assignment":[1,0],"goal":3,"start":1,"action_noise":0.15,"location_history":"[1,7,6,0,1,2,8,2,3]","action_history":"[1,0,1,0,0,1,1,0]","door_history":"[0,1,0,1,1,0,0,1]","location_rts":"[619,446,422,475,332,553,499,696]","trial_type":"two-door-navigation","trial_index":24,"time_elapsed":889343,"internal_node_id":"0.0-2.0-22.0"},{"group":"dihedral group of order 12","room_assignment":["ivory","olive","pink","orange","brown","yellow","purple","blue","cyan","grey","green","red"],"door_color_assignment":["black","white"],"door_generator_assignment":[1,0],"goal":7,"start":3,"action_noise":0.15,"location_history":"[3,4,10,4,10,4,10,9,3,9,3,4,5,11,10,4,5,0,6,0,1,7]","action_history":"[1,1,1,1,1,1,0,1,1,1,0,0,1,0,1,0,0,1,0,1,1]","door_history":"[0,0,0,0,0,0,1,0,0,0,1,1,0,1,0,1,1,0,1,0,0]","location_rts":"[1508,462,733,747,681,437,670,526,386,506,1167,864,497,944,555,633,565,688,820,564,965]","trial_type":"two-door-navigation","trial_index":25,"time_elapsed":929265,"internal_node_id":"0.0-2.0-23.0"},{"group":"dihedral group of order 12","room_assignment":["ivory","olive","pink","orange","brown","yellow","purple","blue","cyan","grey","green","red"],"door_color_assignment":["black","white"],"door_generator_assignment":[1,0],"goal":6,"start":7,"action_noise":0.15,"location_history":"[7,6]","action_history":"[0]","door_history":"[1]","location_rts":"[914]","trial_type":"two-door-navigation","trial_index":26,"time_elapsed":934698,"internal_node_id":"0.0-2.0-24.0"},{"group":"dihedral group of order 12","room_assignment":["ivory","olive","pink","orange","brown","yellow","purple","blue","cyan","grey","green","red"],"door_color_assignment":["black","white"],"door_generator_assignment":[1,0],"goal":2,"start":6,"action_noise":0.15,"location_history":"[6,0,1,7,6,11,10,9,8,7,6,0,1,7,1,2]","action_history":"[1,0,0,0,0,0,0,0,0,0,1,1,1,1,0]","door_history":"[0,1,1,1,1,1,1,1,1,1,0,0,0,0,1]","location_rts":"[1012,682,796,716,647,620,590,690,613,624,872,672,767,618,499]","trial_type":"two-door-navigation","trial_index":27,"time_elapsed":963856,"internal_node_id":"0.0-2.0-25.0"},{"group":"dihedral group of order 12","room_assignment":["ivory","olive","pink","orange","brown","yellow","purple","blue","cyan","grey","green","red"],"door_color_assignment":["black","white"],"door_generator_assignment":[1,0],"goal":8,"start":2,"action_noise":0.15,"location_history":"[2,8]","action_history":"[1]","door_history":"[0]","location_rts":"[789]","trial_type":"two-door-navigation","trial_index":28,"time_elapsed":969170,"internal_node_id":"0.0-2.0-26.0"},{"group":"dihedral group of order 12","room_assignment":["ivory","olive","pink","orange","brown","yellow","purple","blue","cyan","grey","green","red"],"door_color_assignment":["black","white"],"door_generator_assignment":[1,0],"goal":0,"start":8,"action_noise":0.15,"location_history":"[8,7,6,0]","action_history":"[0,0,1]","door_history":"[1,1,0]","location_rts":"[1098,1200,663]","trial_type":"two-door-navigation","trial_index":29,"time_elapsed":978676,"internal_node_id":"0.0-2.0-27.0"},{"group":"dihedral group of order 12","room_assignment":["ivory","olive","pink","orange","brown","yellow","purple","blue","cyan","grey","green","red"],"door_color_assignment":["black","white"],"door_generator_assignment":[1,0],"goal":3,"start":0,"action_noise":0.15,"location_history":"[0,1,7,1,2,3]","action_history":"[0,1,1,1,0]","door_history":"[1,0,0,0,1]","location_rts":"[877,588,374,616,661]","trial_type":"two-door-navigation","trial_index":30,"time_elapsed":990378,"internal_node_id":"0.0-2.0-28.0"},{"group":"dihedral group of order 12","room_assignment":["ivory","olive","pink","orange","brown","yellow","purple","blue","cyan","grey","green","red"],"door_color_assignment":["black","white"],"door_generator_assignment":[1,0],"goal":4,"start":3,"action_noise":0.15,"location_history":"[3,9,3,9,3,4]","action_history":"[1,1,1,1,0]","door_history":"[0,0,0,0,1]","location_rts":"[780,571,498,443,451]","trial_type":"two-door-navigation","trial_index":31,"time_elapsed":1001786,"internal_node_id":"0.0-2.0-29.0"},{"group":"dihedral group of order 12","room_assignment":["ivory","olive","pink","orange","brown","yellow","purple","blue","cyan","grey","green","red"],"door_color_assignment":["black","white"],"door_generator_assignment":[1,0],"goal":10,"start":4,"action_noise":0.15,"location_history":"[4,5,11,5,0,6,11,10]","action_history":"[0,1,1,0,1,0,0]","door_history":"[1,0,0,1,0,1,1]","location_rts":"[720,523,407,610,715,521,550]","trial_type":"two-door-navigation","trial_index":32,"time_elapsed":1016477,"internal_node_id":"0.0-2.0-30.0"},{"group":"dihedral group of order 12","room_assignment":["ivory","olive","pink","orange","brown","yellow","purple","blue","cyan","grey","green","red"],"door_color_assignment":["black","white"],"door_generator_assignment":[1,0],"goal":11,"start":10,"action_noise":0.15,"location_history":"[10,9,8,2,3,4,5,0,1,2,3,4,5,0,1,7,6,0,1,2,8,7,1,2,8,2,8,2,8,7,1,7,1,7,6,0,6,0,6,11]","action_history":"[0,0,0,0,0,0,1,0,0,0,0,0,0,0,1,0,1,0,0,1,0,1,0,1,1,1,1,1,0,1,0,1,1,1,1,1,0,0,0]","door_history":"[1,1,1,1,1,1,0,1,1,1,1,1,1,1,0,1,0,1,1,0,1,0,1,0,0,0,0,0,1,0,1,0,0,0,0,0,1,1,1]","location_rts":"[729,405,275,379,378,455,608,429,367,403,330,381,386,354,872,427,826,442,468,810,434,525,577,529,294,356,919,262,514,601,537,442,298,431,563,472,619,810,615]","trial_type":"two-door-navigation","trial_index":33,"time_elapsed":1079222,"internal_node_id":"0.0-2.0-31.0"},{"group":"dihedral group of order 12","room_assignment":["ivory","olive","pink","orange","brown","yellow","purple","blue","cyan","grey","green","red"],"door_color_assignment":["black","white"],"door_generator_assignment":[1,0],"goal":1,"start":11,"action_noise":0.15,"location_history":"[11,5,0,6,0,6,0,6,11,5,0,1]","action_history":"[1,0,1,1,1,1,1,0,1,0,0]","door_history":"[0,1,0,0,0,0,0,1,0,1,1]","location_rts":"[863,535,573,581,681,401,371,12,1248,749,815]","trial_type":"two-door-navigation","trial_index":34,"time_elapsed":1100751,"internal_node_id":"0.0-2.0-32.0"},{"group":"dihedral group of order 12","room_assignment":["ivory","olive","pink","orange","brown","yellow","purple","blue","cyan","grey","green","red"],"door_color_assignment":["black","white"],"door_generator_assignment":[1,0],"goal":5,"start":1,"action_noise":0.15,"location_history":"[1,2,3,4,10,9,8,7,6,11,10,9,8,7,6,11,5]","action_history":"[1,0,0,1,0,1,0,0,0,0,0,0,0,0,0,1]","door_history":"[0,1,1,0,1,0,1,1,1,1,1,1,1,1,1,0]","location_rts":"[1002,479,820,964,1099,1039,1063,726,448,513,583,523,504,495,469,849]","trial_type":"two-door-navigation","trial_index":35,"time_elapsed":1132093,"internal_node_id":"0.0-2.0-33.0"},{"group":"dihedral group of order 12","room_assignment":["ivory","olive","pink","orange","brown","yellow","purple","blue","cyan","grey","green","red"],"door_color_assignment":["black","white"],"door_generator_assignment":[1,0],"goal":9,"start":5,"action_noise":0.15,"location_history":"[5,0,6,0,1,7,6,11,5,0,6,0,6,0,6,11,5,0,1,7,1,2,3,4,10,9]","action_history":"[0,1,1,0,1,0,0,1,0,1,1,1,1,1,0,1,1,0,1,0,0,0,0,1,0]","door_history":"[1,0,0,1,0,1,1,0,1,0,0,0,0,0,1,0,0,1,0,1,1,1,1,0,1]","location_rts":"[1114,991,880,1342,890,528,406,743,1066,767,867,556,366,441,346,807,519,755,777,590,657,682,483,928,744]","trial_type":"two-door-navigation","trial_index":36,"time_elapsed":1179285,"internal_node_id":"0.0-2.0-34.0"},{"view_history":"[{\"page_index\":0,\"viewing_time\":2713}]","rt":2713,"trial_type":"instructions","trial_index":37,"time_elapsed":1182999,"internal_node_id":"0.0-3.0"},{"view_history":"[{\"page_index\":0,\"viewing_time\":1976},{\"page_index\":1,\"viewing_time\":15129}]","rt":17106,"trial_type":"instructions","trial_index":38,"time_elapsed":1201107,"internal_node_id":"0.0-4.0"},{"group":"dihedral group of order 12","fractal_assignment":["../images/wht_red.png","../images/gry_blk.png","../images/cyn_red.png","../images/grn_blu.png","../images/pnk_blu.png","../images/grn_red.png","../images/org_blu.png","../images/ylw_slt.png","../images/grn_prp.png","../images/red_prp.png","../images/ylw_pnk.png","../images/blu_wht.png"],"mutagen_generator_assignment":[0,1],"goal":4,"start":0,"action_noise":0.15,"location_history":"[0,1,7,6,0,6,0,6,0,6,0,1,2,8,2,3,9,8,2,8,2,8,2,3,9,8,7,1,2,3,4]","action_history":"[0,1,1,1,0,1,1,1,1,1,0,0,1,1,0,1,0,1,1,1,1,1,0,1,0,1,1,0,0,0]","mutagen_history":"[0,1,1,1,0,1,1,1,1,1,0,0,1,1,0,1,0,1,1,1,1,1,0,1,0,1,1,0,0,0]","location_rts":"[4411,2698,1236,710,582,817,570,529,611,728,523,327,534,916,566,757,1260,627,496,490,518,424,468,401,504,1163,775,782,746,491]","trial_type":"fractal-mutation","trial_index":39,"time_elapsed":1261528,"internal_node_id":"0.0-5.0-0.0"},{"group":"dihedral group of order 12","fractal_assignment":["../images/wht_red.png","../images/gry_blk.png","../images/cyn_red.png","../images/grn_blu.png","../images/pnk_blu.png","../images/grn_red.png","../images/org_blu.png","../images/ylw_slt.png","../images/grn_prp.png","../images/red_prp.png","../images/ylw_pnk.png","../images/blu_wht.png"],"mutagen_generator_assignment":[0,1],"goal":9,"start":4,"action_noise":0.15,"location_history":"[4,10,9]","action_history":"[1,0]","mutagen_history":"[1,0]","location_rts":"[1375,843]","trial_type":"fractal-mutation","trial_index":40,"time_elapsed":1269323,"internal_node_id":"0.0-5.0-1.0"},{"group":"dihedral group of order 12","fractal_assignment":["../images/wht_red.png","../images/gry_blk.png","../images/cyn_red.png","../images/grn_blu.png","../images/pnk_blu.png","../images/grn_red.png","../images/org_blu.png","../images/ylw_slt.png","../images/grn_prp.png","../images/red_prp.png","../images/ylw_pnk.png","../images/blu_wht.png"],"mutagen_generator_assignment":[0,1],"goal":10,"start":9,"action_noise":0.15,"location_history":"[9,8,7,1,7,1,2,3,4,5,0,1,2,3,4,10]","action_history":"[0,0,0,1,0,0,0,0,0,0,0,0,0,1,1]","mutagen_history":"[0,0,0,1,0,0,0,0,0,0,0,0,0,1,1]","location_rts":"[1465,437,453,417,298,403,538,323,417,595,555,400,803,252,274]","trial_type":"fractal-mutation","trial_index":41,"time_elapsed":1296031,"internal_node_id":"0.0-5.0-2.0"},{"group":"dihedral group of order 12","fractal_assignment":["../images/wht_red.png","../images/gry_blk.png","../images/cyn_red.png","../images/grn_blu.png","../images/pnk_blu.png","../images/grn_red.png","../images/org_blu.png","../images/ylw_slt.png","../images/grn_prp.png","../images/red_prp.png","../images/ylw_pnk.png","../images/blu_wht.png"],"mutagen_generator_assignment":[0,1],"goal":2,"start":10,"action_noise":0.15,"location_history":"[10,9,3,9,3,9,8,2]","action_history":"[1,1,0,0,1,0,1]","mutagen_history":"[1,1,0,0,1,0,1]","location_rts":"[929,676,336,381,381,485,454]","trial_type":"fractal-mutation","trial_index":42,"time_elapsed":1310527,"internal_node_id":"0.0-5.0-3.0"},{"group":"dihedral group of order 12","fractal_assignment":["../images/wht_red.png","../images/gry_blk.png","../images/cyn_red.png","../images/grn_blu.png","../images/pnk_blu.png","../images/grn_red.png","../images/org_blu.png","../images/ylw_slt.png","../images/grn_prp.png","../images/red_prp.png","../images/ylw_pnk.png","../images/blu_wht.png"],"mutagen_generator_assignment":[0,1],"goal":5,"start":2,"action_noise":0.15,"location_history":"[2,3,9,8,7,6,0,6,11,5]","action_history":"[0,1,0,0,0,0,0,0,1]","mutagen_history":"[0,1,0,0,0,0,0,0,1]","location_rts":"[1055,883,407,221,305,312,337,326,1839]","trial_type":"fractal-mutation","trial_index":43,"time_elapsed":1329055,"internal_node_id":"0.0-5.0-4.0"},{"group":"dihedral group of order 12","fractal_assignment":["../images/wht_red.png","../images/gry_blk.png","../images/cyn_red.png","../images/grn_blu.png","../images/pnk_blu.png","../images/grn_red.png","../images/org_blu.png","../images/ylw_slt.png","../images/grn_prp.png","../images/red_prp.png","../images/ylw_pnk.png","../images/blu_wht.png"],"mutagen_generator_assignment":[0,1],"goal":11,"start":5,"action_noise":0.15,"location_history":"[5,11]","action_history":"[1]","mutagen_history":"[1]","location_rts":"[1462]","trial_type":"fractal-mutation","trial_index":44,"time_elapsed":1335068,"internal_node_id":"0.0-5.0-5.0"},{"group":"dihedral group of order 12","fractal_assignment":["../images/wht_red.png","../images/gry_blk.png","../images/cyn_red.png","../images/grn_blu.png","../images/pnk_blu.png","../images/grn_red.png","../images/org_blu.png","../images/ylw_slt.png","../images/grn_prp.png","../images/red_prp.png","../images/ylw_pnk.png","../images/blu_wht.png"],"mutagen_generator_assignment":[0,1],"goal":6,"start":11,"action_noise":0.15,"location_history":"[11,10,9,8,7,6]","action_history":"[0,0,0,0,0]","mutagen_history":"[0,0,0,0,0]","location_rts":"[1623,340,400,383,373]","trial_type":"fractal-mutation","trial_index":45,"time_elapsed":1346890,"internal_node_id":"0.0-5.0-6.0"},{"group":"dihedral group of order 12","fractal_assignment":["../images/wht_red.png","../images/gry_blk.png","../images/cyn_red.png","../images/grn_blu.png","../images/pnk_blu.png","../images/grn_red.png","../images/org_blu.png","../images/ylw_slt.png","../images/grn_prp.png","../images/red_prp.png","../images/ylw_pnk.png","../images/blu_wht.png"],"mutagen_generator_assignment":[0,1],"goal":3,"start":6,"action_noise":0.15,"location_history":"[6,11,5,0,6,0,1,2,3]","action_history":"[1,1,1,1,1,0,0,0]","mutagen_history":"[1,1,1,1,1,0,0,0]","location_rts":"[1187,521,605,428,458,579,463,289]","trial_type":"fractal-mutation","trial_index":46,"time_elapsed":1363242,"internal_node_id":"0.0-5.0-7.0"},{"group":"dihedral group of order 12","fractal_assignment":["../images/wht_red.png","../images/gry_blk.png","../images/cyn_red.png","../images/grn_blu.png","../images/pnk_blu.png","../images/grn_red.png","../images/org_blu.png","../images/ylw_slt.png","../images/grn_prp.png","../images/red_prp.png","../images/ylw_pnk.png","../images/blu_wht.png"],"mutagen_generator_assignment":[0,1],"goal":8,"start":3,"action_noise":0.15,"location_history":"[3,9,3,4,10,4,5,0,1,2,3,4,5,0,1,7,1,7,6,0,6,0,6,11,10,4,10,4,5,0,1,7,1,2,8]","action_history":"[1,1,1,1,1,0,0,1,0,0,0,0,0,0,0,1,1,1,1,1,1,1,0,0,1,0,1,0,0,1,0,1,0,0]","mutagen_history":"[1,1,1,1,1,0,0,1,0,0,0,0,0,0,0,1,1,1,1,1,1,1,0,0,1,0,1,0,0,1,0,1,0,0]","location_rts":"[369,299,517,320,337,297,477,390,463,488,379,534,440,374,1348,642,418,400,369,367,354,336,486,317,417,734,711,892,926,410,757,557,631,275]","trial_type":"fractal-mutation","trial_index":47,"time_elapsed":1419136,"internal_node_id":"0.0-5.0-8.0"},{"group":"dihedral group of order 12","fractal_assignment":["../images/wht_red.png","../images/gry_blk.png","../images/cyn_red.png","../images/grn_blu.png","../images/pnk_blu.png","../images/grn_red.png","../images/org_blu.png","../images/ylw_slt.png","../images/grn_prp.png","../images/red_prp.png","../images/ylw_pnk.png","../images/blu_wht.png"],"mutagen_generator_assignment":[0,1],"goal":1,"start":8,"action_noise":0.15,"location_history":"[8,2,8,2,8,2,8,7,1]","action_history":"[1,1,1,1,1,1,0,1]","mutagen_history":"[1,1,1,1,1,1,0,1]","location_rts":"[1122,334,375,428,338,444,144,364]","trial_type":"fractal-mutation","trial_index":48,"time_elapsed":1434507,"internal_node_id":"0.0-5.0-9.0"},{"group":"dihedral group of order 12","fractal_assignment":["../images/wht_red.png","../images/gry_blk.png","../images/cyn_red.png","../images/grn_blu.png","../images/pnk_blu.png","../images/grn_red.png","../images/org_blu.png","../images/ylw_slt.png","../images/grn_prp.png","../images/red_prp.png","../images/ylw_pnk.png","../images/blu_wht.png"],"mutagen_generator_assignment":[0,1],"goal":7,"start":1,"action_noise":0.15,"location_history":"[1,2,3,4,5,0,1,7]","action_history":"[0,0,0,0,0,0,0]","mutagen_history":"[0,0,0,0,0,0,0]","location_rts":"[1194,225,213,483,404,580,436]","trial_type":"fractal-mutation","trial_index":49,"time_elapsed":1448858,"internal_node_id":"0.0-5.0-10.0"},{"group":"dihedral group of order 12","fractal_assignment":["../images/wht_red.png","../images/gry_blk.png","../images/cyn_red.png","../images/grn_blu.png","../images/pnk_blu.png","../images/grn_red.png","../images/org_blu.png","../images/ylw_slt.png","../images/grn_prp.png","../images/red_prp.png","../images/ylw_pnk.png","../images/blu_wht.png"],"mutagen_generator_assignment":[0,1],"goal":5,"start":7,"action_noise":0.15,"location_history":"[7,1,2,3,4,5]","action_history":"[0,0,0,0,0]","mutagen_history":"[0,0,0,0,0]","location_rts":"[1688,313,260,394,345]","trial_type":"fractal-mutation","trial_index":50,"time_elapsed":1460518,"internal_node_id":"0.0-5.0-11.0"},{"group":"dihedral group of order 12","fractal_assignment":["../images/wht_red.png","../images/gry_blk.png","../images/cyn_red.png","../images/grn_blu.png","../images/pnk_blu.png","../images/grn_red.png","../images/org_blu.png","../images/ylw_slt.png","../images/grn_prp.png","../images/red_prp.png","../images/ylw_pnk.png","../images/blu_wht.png"],"mutagen_generator_assignment":[0,1],"goal":8,"start":5,"action_noise":0.15,"location_history":"[5,0,1,2,3,4,5,11,10,9,8]","action_history":"[1,0,0,0,0,0,0,0,0,0]","mutagen_history":"[1,0,0,0,0,0,0,0,0,0]","location_rts":"[1077,410,263,156,399,324,454,383,334,448]","trial_type":"fractal-mutation","trial_index":51,"time_elapsed":1478618,"internal_node_id":"0.0-5.0-12.0"},{"group":"dihedral group of order 12","fractal_assignment":["../images/wht_red.png","../images/gry_blk.png","../images/cyn_red.png","../images/grn_blu.png","../images/pnk_blu.png","../images/grn_red.png","../images/org_blu.png","../images/ylw_slt.png","../images/grn_prp.png","../images/red_prp.png","../images/ylw_pnk.png","../images/blu_wht.png"],"mutagen_generator_assignment":[0,1],"goal":11,"start":8,"action_noise":0.15,"location_history":"[8,7,6,0,1,2,3,4,5,11]","action_history":"[0,0,0,0,0,0,0,0,0]","mutagen_history":"[0,0,0,0,0,0,0,0,0]","location_rts":"[873,288,310,417,265,311,279,129,291]","trial_type":"fractal-mutation","trial_index":52,"time_elapsed":1494568,"internal_node_id":"0.0-5.0-13.0"},{"group":"dihedral group of order 12","fractal_assignment":["../images/wht_red.png","../images/gry_blk.png","../images/cyn_red.png","../images/grn_blu.png","../images/pnk_blu.png","../images/grn_red.png","../images/org_blu.png","../images/ylw_slt.png","../images/grn_prp.png","../images/red_prp.png","../images/ylw_pnk.png","../images/blu_wht.png"],"mutagen_generator_assignment":[0,1],"goal":6,"start":11,"action_noise":0.15,"location_history":"[11,5,11,5,0,1,2,3,4,10,9,8,2,3,4,10,9,3,4,10,4,10,9,8,7,1,2,3,4,10,9,8,2,8,7,6]","action_history":"[1,1,1,0,1,0,0,0,1,0,0,1,0,0,0,0,1,0,1,1,1,0,1,0,1,0,1,1,1,0,0,1,1,0,0]","mutagen_history":"[1,1,1,0,1,0,0,0,1,0,0,1,0,0,0,0,1,0,1,1,1,0,1,0,1,0,1,1,1,0,0,1,1,0,0]","location_rts":"[1233,427,842,215,435,282,442,248,269,465,686,592,356,312,486,287,943,663,380,945,526,375,845,431,661,827,900,756,470,517,1250,1104,1133,446,249]","trial_type":"fractal-mutation","trial_index":53,"time_elapsed":1555475,"internal_node_id":"0.0-5.0-14.0"},{"group":"dihedral group of order 12","fractal_assignment":["../images/wht_red.png","../images/gry_blk.png","../images/cyn_red.png","../images/grn_blu.png","../images/pnk_blu.png","../images/grn_red.png","../images/org_blu.png","../images/ylw_slt.png","../images/grn_prp.png","../images/red_prp.png","../images/ylw_pnk.png","../images/blu_wht.png"],"mutagen_generator_assignment":[0,1],"goal":7,"start":6,"action_noise":0.15,"location_history":"[6,11,10,9,8,7]","action_history":"[0,0,0,0,0]","mutagen_history":"[0,0,0,0,0]","location_rts":"[966,211,270,321,289]","trial_type":"fractal-mutation","trial_index":54,"time_elapsed":1566165,"internal_node_id":"0.0-5.0-15.0"},{"group":"dihedral group of order 12","fractal_assignment":["../images/wht_red.png","../images/gry_blk.png","../images/cyn_red.png","../images/grn_blu.png","../images/pnk_blu.png","../images/grn_red.png","../images/org_blu.png","../images/ylw_slt.png","../images/grn_prp.png","../images/red_prp.png","../images/ylw_pnk.png","../images/blu_wht.png"],"mutagen_generator_assignment":[0,1],"goal":10,"start":7,"action_noise":0.15,"location_history":"[7,1,2,3,4,5,0,1,2,3,4,5,0,1,2,8,7,6,11,5,11,10]","action_history":"[1,0,0,0,0,0,0,0,0,0,0,0,0,0,1,0,0,0,1,1,0]","mutagen_history":"[1,0,0,0,0,0,0,0,0,0,0,0,0,0,1,0,0,0,1,1,0]","location_rts":"[1535,309,245,399,466,492,324,364,332,436,299,471,445,333,286,251,365,1146,379,489,497]","trial_type":"fractal-mutation","trial_index":55,"time_elapsed":1601379,"internal_node_id":"0.0-5.0-16.0"},{"group":"dihedral group of order 12","fractal_assignment":["../images/wht_red.png","../images/gry_blk.png","../images/cyn_red.png","../images/grn_blu.png","../images/pnk_blu.png","../images/grn_red.png","../images/org_blu.png","../images/ylw_slt.png","../images/grn_prp.png","../images/red_prp.png","../images/ylw_pnk.png","../images/blu_wht.png"],"mutagen_generator_assignment":[0,1],"goal":0,"start":10,"action_noise":0.15,"location_history":"[10,4,10,4,5,0]","action_history":"[1,1,1,0,0]","mutagen_history":"[1,1,1,0,0]","location_rts":"[925,286,655,389,238]","trial_type":"fractal-mutation","trial_index":56,"time_elapsed":1612576,"internal_node_id":"0.0-5.0-17.0"},{"group":"dihedral group of order 12","fractal_assignment":["../images/wht_red.png","../images/gry_blk.png","../images/cyn_red.png","../images/grn_blu.png","../images/pnk_blu.png","../images/grn_red.png","../images/org_blu.png","../images/ylw_slt.png","../images/grn_prp.png","../images/red_prp.png","../images/ylw_pnk.png","../images/blu_wht.png"],"mutagen_generator_assignment":[0,1],"goal":9,"start":0,"action_noise":0.15,"location_history":"[0,6,0,6,11,10,9]","action_history":"[1,1,1,0,0,0]","mutagen_history":"[1,1,1,0,0,0]","location_rts":"[938,920,370,242,230,102]","trial_type":"fractal-mutation","trial_index":57,"time_elapsed":1625115,"internal_node_id":"0.0-5.0-18.0"},{"group":"dihedral group of order 12","fractal_assignment":["../images/wht_red.png","../images/gry_blk.png","../images/cyn_red.png","../images/grn_blu.png","../images/pnk_blu.png","../images/grn_red.png","../images/org_blu.png","../images/ylw_slt.png","../images/grn_prp.png","../images/red_prp.png","../images/ylw_pnk.png","../images/blu_wht.png"],"mutagen_generator_assignment":[0,1],"goal":4,"start":9,"action_noise":0.15,"location_history":"[9,3,9,3,4]","action_history":"[1,1,1,0]","mutagen_history":"[1,1,1,0]","location_rts":"[1214,375,289,267]","trial_type":"fractal-mutation","trial_index":58,"time_elapsed":1634928,"internal_node_id":"0.0-5.0-19.0"},{"group":"dihedral group of order 12","fractal_assignment":["../images/wht_red.png","../images/gry_blk.png","../images/cyn_red.png","../images/grn_blu.png","../images/pnk_blu.png","../images/grn_red.png","../images/org_blu.png","../images/ylw_slt.png","../images/grn_prp.png","../images/red_prp.png","../images/ylw_pnk.png","../images/blu_wht.png"],"mutagen_generator_assignment":[0,1],"goal":2,"start":4,"action_noise":0.15,"location_history":"[4,5,0,1,7,6,11,10,9,3,9,8,2]","action_history":"[1,0,0,0,0,0,0,0,0,0,0,0]","mutagen_history":"[1,0,0,0,0,0,0,0,0,0,0,0]","location_rts":"[858,137,120,89,264,294,249,241,280,234,181,272]","trial_type":"fractal-mutation","trial_index":59,"time_elapsed":1654090,"internal_node_id":"0.0-5.0-20.0"},{"group":"dihedral group of order 12","fractal_assignment":["../images/wht_red.png","../images/gry_blk.png","../images/cyn_red.png","../images/grn_blu.png","../images/pnk_blu.png","../images/grn_red.png","../images/org_blu.png","../images/ylw_slt.png","../images/grn_prp.png","../images/red_prp.png","../images/ylw_pnk.png","../images/blu_wht.png"],"mutagen_generator_assignment":[0,1],"goal":1,"start":2,"action_noise":0.15,"location_history":"[2,8,2,8,7,1]","action_history":"[1,0,1,0,1]","mutagen_history":"[1,0,1,0,1]","location_rts":"[833,382,581,292,625]","trial_type":"fractal-mutation","trial_index":60,"time_elapsed":1665480,"internal_node_id":"0.0-5.0-21.0"},{"group":"dihedral group of order 12","fractal_assignment":["../images/wht_red.png","../images/gry_blk.png","../images/cyn_red.png","../images/grn_blu.png","../images/pnk_blu.png","../images/grn_red.png","../images/org_blu.png","../images/ylw_slt.png","../images/grn_prp.png","../images/red_prp.png","../images/ylw_pnk.png","../images/blu_wht.png"],"mutagen_generator_assignment":[0,1],"goal":3,"start":1,"action_noise":0.15,"location_history":"[1,7,6,11,10,9,8,7,6,0,1,2,3]","action_history":"[1,0,0,0,0,0,0,0,0,0,0,0]","mutagen_history":"[1,0,0,0,0,0,0,0,0,0,0,0]","location_rts":"[627,195,50,63,101,85,174,99,267,217,206,92]","trial_type":"fractal-mutation","trial_index":61,"time_elapsed":1683576,"internal_node_id":"0.0-5.0-22.0"},{"group":"dihedral group of order 12","fractal_assignment":["../images/wht_red.png","../images/gry_blk.png","../images/cyn_red.png","../images/grn_blu.png","../images/pnk_blu.png","../images/grn_red.png","../images/org_blu.png","../images/ylw_slt.png","../images/grn_prp.png","../images/red_prp.png","../images/ylw_pnk.png","../images/blu_wht.png"],"mutagen_generator_assignment":[0,1],"goal":7,"start":3,"action_noise":0.15,"location_history":"[3,9,8,7]","action_history":"[1,0,0]","mutagen_history":"[1,0,0]","location_rts":"[490,78,177]","trial_type":"fractal-mutation","trial_index":62,"time_elapsed":1690918,"internal_node_id":"0.0-5.0-23.0"},{"group":"dihedral group of order 12","fractal_assignment":["../images/wht_red.png","../images/gry_blk.png","../images/cyn_red.png","../images/grn_blu.png","../images/pnk_blu.png","../images/grn_red.png","../images/org_blu.png","../images/ylw_slt.png","../images/grn_prp.png","../images/red_prp.png","../images/ylw_pnk.png","../images/blu_wht.png"],"mutagen_generator_assignment":[0,1],"goal":6,"start":7,"action_noise":0.15,"location_history":"[7,1,7,6]","action_history":"[1,0,0]","mutagen_history":"[1,0,0]","location_rts":"[267,163,221]","trial_type":"fractal-mutation","trial_index":63,"time_elapsed":1698167,"internal_node_id":"0.0-5.0-24.0"},{"group":"dihedral group of order 12","fractal_assignment":["../images/wht_red.png","../images/gry_blk.png","../images/cyn_red.png","../images/grn_blu.png","../images/pnk_blu.png","../images/grn_red.png","../images/org_blu.png","../images/ylw_slt.png","../images/grn_prp.png","../images/red_prp.png","../images/ylw_pnk.png","../images/blu_wht.png"],"mutagen_generator_assignment":[0,1],"goal":2,"start":6,"action_noise":0.15,"location_history":"[6,0,1,2]","action_history":"[1,0,0]","mutagen_history":"[1,0,0]","location_rts":"[581,97,205]","trial_type":"fractal-mutation","trial_index":64,"time_elapsed":1705648,"internal_node_id":"0.0-5.0-25.0"},{"group":"dihedral group of order 12","fractal_assignment":["../images/wht_red.png","../images/gry_blk.png","../images/cyn_red.png","../images/grn_blu.png","../images/pnk_blu.png","../images/grn_red.png","../images/org_blu.png","../images/ylw_slt.png","../images/grn_prp.png","../images/red_prp.png","../images/ylw_pnk.png","../images/blu_wht.png"],"mutagen_generator_assignment":[0,1],"goal":8,"start":2,"action_noise":0.15,"location_history":"[2,8]","action_history":"[1]","mutagen_history":"[1]","location_rts":"[1243]","trial_type":"fractal-mutation","trial_index":65,"time_elapsed":1711432,"internal_node_id":"0.0-5.0-26.0"},{"group":"dihedral group of order 12","fractal_assignment":["../images/wht_red.png","../images/gry_blk.png","../images/cyn_red.png","../images/grn_blu.png","../images/pnk_blu.png","../images/grn_red.png","../images/org_blu.png","../images/ylw_slt.png","../images/grn_prp.png","../images/red_prp.png","../images/ylw_pnk.png","../images/blu_wht.png"],"mutagen_generator_assignment":[0,1],"goal":0,"start":8,"action_noise":0.15,"location_history":"[8,7,6,11,10,4,5,0]","action_history":"[0,0,0,0,1,0,0]","mutagen_history":"[0,0,0,0,1,0,0]","location_rts":"[1052,328,87,270,354,70,305]","trial_type":"fractal-mutation","trial_index":66,"time_elapsed":1724627,"internal_node_id":"0.0-5.0-27.0"},{"group":"dihedral group of order 12","fractal_assignment":["../images/wht_red.png","../images/gry_blk.png","../images/cyn_red.png","../images/grn_blu.png","../images/pnk_blu.png","../images/grn_red.png","../images/org_blu.png","../images/ylw_slt.png","../images/grn_prp.png","../images/red_prp.png","../images/ylw_pnk.png","../images/blu_wht.png"],"mutagen_generator_assignment":[0,1],"goal":3,"start":0,"action_noise":0.15,"location_history":"[0,6,11,5,11,10,9,8,2,8,7,6,11,10,4,10,4,5,11,5,0,6,0,1,2,8,7,6,0,1,2,3]","action_history":"[1,0,0,0,0,0,0,0,0,0,0,0,0,0,1,0,0,0,0,0,1,0,0,0,0,0,0,0,0,0,0]","mutagen_history":"[1,0,0,0,0,0,0,0,0,0,0,0,0,0,1,0,0,0,0,0,1,0,0,0,0,0,0,0,0,0,0]","location_rts":"[318,85,28,140,201,65,33,150,241,222,218,41,100,69,1127,155,541,64,111,354,844,39,61,75,119,95,44,84,5,12,82]","trial_type":"fractal-mutation","trial_index":67,"time_elapsed":1765880,"internal_node_id":"0.0-5.0-28.0"},{"group":"dihedral group of order 12","fractal_assignment":["../images/wht_red.png","../images/gry_blk.png","../images/cyn_red.png","../images/grn_blu.png","../images/pnk_blu.png","../images/grn_red.png","../images/org_blu.png","../images/ylw_slt.png","../images/grn_prp.png","../images/red_prp.png","../images/ylw_pnk.png","../images/blu_wht.png"],"mutagen_generator_assignment":[0,1],"goal":4,"start":3,"action_noise":0.15,"location_history":"[3,9,8,2,8,2,8,2,3,4]","action_history":"[1,0,1,0,1,1,1,0,0]","mutagen_history":"[1,0,1,0,1,1,1,0,0]","location_rts":"[321,150,93,510,60,138,357,528,156]","trial_type":"fractal-mutation","trial_index":68,"time_elapsed":1781027,"internal_node_id":"0.0-5.0-29.0"},{"group":"dihedral group of order 12","fractal_assignment":["../images/wht_red.png","../images/gry_blk.png","../images/cyn_red.png","../images/grn_blu.png","../images/pnk_blu.png","../images/grn_red.png","../images/org_blu.png","../images/ylw_slt.png","../images/grn_prp.png","../images/red_prp.png","../images/ylw_pnk.png","../images/blu_wht.png"],"mutagen_generator_assignment":[0,1],"goal":10,"start":4,"action_noise":0.15,"location_history":"[4,10]","action_history":"[1]","mutagen_history":"[1]","location_rts":"[990]","trial_type":"fractal-mutation","trial_index":69,"time_elapsed":1786574,"internal_node_id":"0.0-5.0-30.0"},{"group":"dihedral group of order 12","fractal_assignment":["../images/wht_red.png","../images/gry_blk.png","../images/cyn_red.png","../images/grn_blu.png","../images/pnk_blu.png","../images/grn_red.png","../images/org_blu.png","../images/ylw_slt.png","../images/grn_prp.png","../images/red_prp.png","../images/ylw_pnk.png","../images/blu_wht.png"],"mutagen_generator_assignment":[0,1],"goal":11,"start":10,"action_noise":0.15,"location_history":"[10,4,5,0,1,7,6,11]","action_history":"[1,0,0,0,0,0,0]","mutagen_history":"[1,0,0,0,0,0,0]","location_rts":"[627,41,49,160,196,5,31]","trial_type":"fractal-mutation","trial_index":70,"time_elapsed":1798427,"internal_node_id":"0.0-5.0-31.0"},{"group":"dihedral group of order 12","fractal_assignment":["../images/wht_red.png","../images/gry_blk.png","../images/cyn_red.png","../images/grn_blu.png","../images/pnk_blu.png","../images/grn_red.png","../images/org_blu.png","../images/ylw_slt.png","../images/grn_prp.png","../images/red_prp.png","../images/ylw_pnk.png","../images/blu_wht.png"],"mutagen_generator_assignment":[0,1],"goal":1,"start":11,"action_noise":0.15,"location_history":"[11,10,9,3,9,3,9,8,7,1]","action_history":"[1,0,1,1,0,1,0,0,1]","mutagen_history":"[1,0,1,1,0,1,0,0,1]","location_rts":"[367,296,115,315,152,105,317,148,80]","trial_type":"fractal-mutation","trial_index":71,"time_elapsed":1813185,"internal_node_id":"0.0-5.0-32.0"},{"group":"dihedral group of order 12","fractal_assignment":["../images/wht_red.png","../images/gry_blk.png","../images/cyn_red.png","../images/grn_blu.png","../images/pnk_blu.png","../images/grn_red.png","../images/org_blu.png","../images/ylw_slt.png","../images/grn_prp.png","../images/red_prp.png","../images/ylw_pnk.png","../images/blu_wht.png"],"mutagen_generator_assignment":[0,1],"goal":5,"start":1,"action_noise":0.15,"location_history":"[1,7,1,2,3,4,5]","action_history":"[1,0,0,0,0,0]","mutagen_history":"[1,0,0,0,0,0]","location_rts":"[791,49,42,489,367,206]","trial_type":"fractal-mutation","trial_index":72,"time_elapsed":1824874,"internal_node_id":"0.0-5.0-33.0"},{"group":"dihedral group of order 12","fractal_assignment":["../images/wht_red.png","../images/gry_blk.png","../images/cyn_red.png","../images/grn_blu.png","../images/pnk_blu.png","../images/grn_red.png","../images/org_blu.png","../images/ylw_slt.png","../images/grn_prp.png","../images/red_prp.png","../images/ylw_pnk.png","../images/blu_wht.png"],"mutagen_generator_assignment":[0,1],"goal":9,"start":5,"action_noise":0.15,"location_history":"[5,11,10,4,5,11,10,9]","action_history":"[1,0,1,0,1,0,0]","mutagen_history":"[1,0,1,0,1,0,0]","location_rts":"[264,112,148,182,339,238,266]","trial_type":"fractal-mutation","trial_index":73,"time_elapsed":1837452,"internal_node_id":"0.0-5.0-34.0"},{"view_history":"[{\"page_index\":0,\"viewing_time\":7853}]","rt":7853,"trial_type":"instructions","trial_index":74,"time_elapsed":1846306,"internal_node_id":"0.0-6.0"},{"rt":7931,"responses":"{\"Q0\":\"Everything worked fine.\"}","trial_type":"survey-text","trial_index":75,"time_elapsed":1855244,"internal_node_id":"0.0-7.0"}]