[{"view_history":"[{\"page_index\":0,\"viewing_time\":29915},{\"page_index\":1,\"viewing_time\":13723},{\"page_index\":2,\"viewing_time\":15247},{\"page_index\":3,\"viewing_time\":4887}]","rt":63773,"trial_type":"instructions","trial_index":0,"time_elapsed":63773,"internal_node_id":"0.0-0.0"},{"view_history":"[{\"page_index\":0,\"viewing_time\":4262},{\"page_index\":1,\"viewing_time\":30759}]","rt":35022,"trial_type":"instructions","trial_index":1,"time_elapsed":99796,"internal_node_id":"0.0-1.0"},{"group":"dicyclic group of order 12","room_assignment":["brown","cyan","purple","yellow","red","orange","blue","green","olive","ivory","pink","grey"],"door_color_assignment":["white","black"],"door_generator_assignment":[0,1],"goal":4,"start":0,"action_noise":0.15,"location_history":"[0,4]","action_history":"[0]","door_history":"[0]","location_rts":"[4218]","trial_type":"two-door-navigation","trial_index":2,"time_elapsed":108544,"internal_node_id":"0.0-2.0-0.0"},{"group":"dicyclic group of order 12","room_assignment":["brown","cyan","purple","yellow","red","orange","blue","green","olive","ivory","pink","grey"],"door_color_assignment":["white","black"],"door_generator_assignment":[0,1],"goal":9,"start":4,"action_noise":0.15,"location_history":"[4,9]","action_history":"[0]","door_history":"[0]","location_rts":"[2592]","trial_type":"two-door-navigation","trial_index":3,"time_elapsed":115659,"internal_node_id":"0.0-2.0-1.0"},{"group":"dicyclic group of order 12","room_assignment":["brown","cyan","purple","yellow","red","orange","blue","green","olive","ivory","pink","grey"],"door_color_assignment":["white","black"],"door_generator_assignment":[0,1],"goal":10,"start":9,"action_noise":0.15,"location_history":"[9,6,11,3,0,1,2,3,0,1,5,10]","action_history":"[0,0,0,0,0,0,0,0,0,0,0]","door_history":"[0,0,0,0,0,0,0,0,0,0,0]","location_rts":"[1676,1340,1060,851,1163,1195,580,1843,541,428,459]","trial_type":"two-door-navigation","trial_index":4,"time_elapsed":141522,"internal_node_id":"0.0-2.0-2.0"},{"group":"dicyclic group of order 12","room_assignment":["brown","cyan","purple","yellow","red","orange","blue","green","olive","ivory","pink","grey"],"door_color_assignment":["white","black"],"door_generator_assignment":[0,1],"goal":2,"start":10,"action_noise":0.15,"location_history":"[10,7,11,3,7,11,4,8,0,4,8,0,1,2]","action_history":"[0,1,1,1,1,0,1,1,1,1,1,0,0]","door_history":"[0,1,1,1,1,0,1,1,1,1,1,0,0]","location_rts":"[1789,633,669,1906,787,1062,652,763,668,603,532,515,524]","trial_type":"two-door-navigation","trial_index":5,"time_elapsed":169436,"internal_node_id":"0.0-2.0-3.0"},{"group":"dicyclic group of order 12","room_assignment":["brown","cyan","purple","yellow","red","orange","blue","green","olive","ivory","pink","grey"],"door_color_assignment":["white","black"],"door_generator_assignment":[0,1],"goal":5,"start":2,"action_noise":0.15,"location_history":"[2,6,11,3,0,1,2,3,7,11,3,7,8,0,4,9,1,5]","action_history":"[0,0,0,0,0,0,1,1,1,1,1,0,0,1,0,1,1]","door_history":"[0,0,0,0,0,0,1,1,1,1,1,0,0,1,0,1,1]","location_rts":"[1444,428,331,412,375,619,1147,504,363,535,404,291,427,395,978,315,484]","trial_type":"two-door-navigation","trial_index":6,"time_elapsed":199761,"internal_node_id":"0.0-2.0-4.0"},{"group":"dicyclic group of order 12","room_assignment":["brown","cyan","purple","yellow","red","orange","blue","green","olive","ivory","pink","grey"],"door_color_assignment":["white","black"],"door_generator_assignment":[0,1],"goal":11,"start":5,"action_noise":0.15,"location_history":"[5,10,7,11]","action_history":"[0,0,1]","door_history":"[0,0,1]","location_rts":"[1415,612,979]","trial_type":"two-door-navigation","trial_index":7,"time_elapsed":209331,"internal_node_id":"0.0-2.0-5.0"},{"group":"dicyclic group of order 12","room_assignment":["brown","cyan","purple","yellow","red","orange","blue","green","olive","ivory","pink","grey"],"door_color_assignment":["white","black"],"door_generator_assignment":[0,1],"goal":6,"start":11,"action_noise":0.15,"location_history":"[11,3,7,8,5,10,7,11,4,8,0,1,5,10,7,8,5,9,6]","action_history":"[1,1,0,0,0,0,0,0,1,1,0,0,0,0,0,0,1,1]","door_history":"[1,1,0,0,0,0,0,0,1,1,0,0,0,0,0,0,1,1]","location_rts":"[2014,363,316,332,341,332,314,371,451,595,398,739,308,340,380,397,331,427]","trial_type":"two-door-navigation","trial_index":8,"time_elapsed":239979,"internal_node_id":"0.0-2.0-6.0"},{"group":"dicyclic group of order 12","room_assignment":["brown","cyan","purple","yellow","red","orange","blue","green","olive","ivory","pink","grey"],"door_color_assignment":["white","black"],"door_generator_assignment":[0,1],"goal":3,"start":6,"action_noise":0.15,"location_history":"[6,10,7,8,5,10,7,8,0,4,9,6,11,4,9,1,5,9,6,11,4,8,5,9,6,11,4,9,1,5,10,7,8,0,4,8,0,1,2,3]","action_history":"[1,0,0,0,0,0,0,1,0,0,0,0,0,0,1,1,1,0,0,0,1,0,1,0,0,0,0,1,1,0,0,0,0,1,1,0,0,0,0]","door_history":"[1,0,0,0,0,0,0,1,0,0,0,0,0,0,1,1,1,0,0,0,1,0,1,0,0,0,0,1,1,0,0,0,0,1,1,0,0,0,0]","location_rts":"[1945,798,371,307,338,332,363,540,384,398,236,235,347,325,339,308,716,348,412,418,308,221,460,797,486,411,355,245,349,161,268,339,281,180,309,180,213,284,84]","trial_type":"two-door-navigation","trial_index":9,"time_elapsed":298684,"internal_node_id":"0.0-2.0-7.0"},{"group":"dicyclic group of order 12","room_assignment":["brown","cyan","purple","yellow","red","orange","blue","green","olive","ivory","pink","grey"],"door_color_assignment":["white","black"],"door_generator_assignment":[0,1],"goal":8,"start":3,"action_noise":0.15,"location_history":"[3,7,8]","action_history":"[1,1]","door_history":"[1,1]","location_rts":"[1564,417]","trial_type":"two-door-navigation","trial_index":10,"time_elapsed":306212,"internal_node_id":"0.0-2.0-8.0"},{"group":"dicyclic group of order 12","room_assignment":["brown","cyan","purple","yellow","red","orange","blue","green","olive","ivory","pink","grey"],"door_color_assignment":["white","black"],"door_generator_assignment":[0,1],"goal":1,"start":8,"action_noise":0.15,"location_history":"[8,0,4,9,6,10,2,3,0,1]","action_history":"[1,1,0,0,0,0,0,0,0]","door_history":"[1,1,0,0,0,0,0,0,0]","location_rts":"[1643,347,548,404,491,332,347,348,364]","trial_type":"two-door-navigation","trial_index":11,"time_elapsed":323724,"internal_node_id":"0.0-2.0-9.0"},{"group":"dicyclic group of order 12","room_assignment":["brown","cyan","purple","yellow","red","orange","blue","green","olive","ivory","pink","grey"],"door_color_assignment":["white","black"],"door_generator_assignment":[0,1],"goal":7,"start":1,"action_noise":0.15,"location_history":"[1,5,10,2,3,7]","action_history":"[1,0,0,1,1]","door_history":"[1,0,0,1,1]","location_rts":"[1331,594,259,1075,708]","trial_type":"two-door-navigation","trial_index":12,"time_elapsed":336298,"internal_node_id":"0.0-2.0-10.0"},{"group":"dicyclic group of order 12","room_assignment":["brown","cyan","purple","yellow","red","orange","blue","green","olive","ivory","pink","grey"],"door_color_assignment":["white","black"],"door_generator_assignment":[0,1],"goal":5,"start":7,"action_noise":0.15,"location_history":"[7,11,3,7,11,4,9,1,5]","action_history":"[1,0,1,1,1,1,1,1]","door_history":"[1,0,1,1,1,1,1,1]","location_rts":"[1181,531,364,308,339,340,323,291]","trial_type":"two-door-navigation","trial_index":13,"time_elapsed":351681,"internal_node_id":"0.0-2.0-11.0"},{"group":"dicyclic group of order 12","room_assignment":["brown","cyan","purple","yellow","red","orange","blue","green","olive","ivory","pink","grey"],"door_color_assignment":["white","black"],"door_generator_assignment":[0,1],"goal":8,"start":5,"action_noise":0.15,"location_history":"[5,9,1,5,10,7,11,3,7,11,3,7,8]","action_history":"[1,1,1,0,0,1,1,1,1,1,1,0]","door_history":"[1,1,1,0,0,1,1,1,1,1,1,0]","location_rts":"[954,116,348,107,699,212,427,324,348,396,235,249]","trial_type":"two-door-navigation","trial_index":14,"time_elapsed":371847,"internal_node_id":"0.0-2.0-12.0"},{"group":"dicyclic group of order 12","room_assignment":["brown","cyan","purple","yellow","red","orange","blue","green","olive","ivory","pink","grey"],"door_color_assignment":["white","black"],"door_generator_assignment":[0,1],"goal":11,"start":8,"action_noise":0.15,"location_history":"[8,5,9,1,2,3,7,8,0,1,5,10,7,8,0,1,2,3,0,1,2,3,0,4,9,6,11]","action_history":"[1,1,1,0,0,0,0,1,0,0,0,0,0,1,1,0,1,0,0,0,0,0,1,0,0,0]","door_history":"[1,1,1,0,0,0,0,1,0,0,0,0,0,1,1,0,1,0,0,0,0,0,1,0,0,0]","location_rts":"[1387,276,346,227,332,323,348,260,245,268,242,332,315,468,460,141,262,244,179,212,83,83,460,15,188,187]","trial_type":"two-door-navigation","trial_index":15,"time_elapsed":409774,"internal_node_id":"0.0-2.0-13.0"},{"group":"dicyclic group of order 12","room_assignment":["brown","cyan","purple","yellow","red","orange","blue","green","olive","ivory","pink","grey"],"door_color_assignment":["white","black"],"door_generator_assignment":[0,1],"goal":6,"start":11,"action_noise":0.15,"location_history":"[11,3,7,11,3,7,11,4,9,6]","action_history":"[1,1,1,1,1,1,0,0,0]","door_history":"[1,1,1,1,1,1,0,0,0]","location_rts":"[4827,356,388,426,467,44,93,148,308]","trial_type":"two-door-navigation","trial_index":16,"time_elapsed":429518,"internal_node_id":"0.0-2.0-14.0"},{"group":"dicyclic group of order 12","room_assignment":["brown","cyan","purple","yellow","red","orange","blue","green","olive","ivory","pink","grey"],"door_color_assignment":["white","black"],"door_generator_assignment":[0,1],"goal":7,"start":6,"action_noise":0.15,"location_history":"[6,10,7]","action_history":"[1,1]","door_history":"[1,1]","location_rts":"[1565,361]","trial_type":"two-door-navigation","trial_index":17,"time_elapsed":436989,"internal_node_id":"0.0-2.0-15.0"},{"group":"dicyclic group of order 12","room_assignment":["brown","cyan","purple","yellow","red","orange","blue","green","olive","ivory","pink","grey"],"door_color_assignment":["white","black"],"door_generator_assignment":[0,1],"goal":10,"start":7,"action_noise":0.15,"location_history":"[7,11,4,9,6,11,4,8,5,10]","action_history":"[1,0,0,0,0,0,1,0,0]","door_history":"[1,0,0,0,0,0,1,0,0]","location_rts":"[1660,812,363,398,403,580,6,210,315]","trial_type":"two-door-navigation","trial_index":18,"time_elapsed":454427,"internal_node_id":"0.0-2.0-16.0"},{"group":"dicyclic group of order 12","room_assignment":["brown","cyan","purple","yellow","red","orange","blue","green","olive","ivory","pink","grey"],"door_color_assignment":["white","black"],"door_generator_assignment":[0,1],"goal":0,"start":10,"action_noise":0.15,"location_history":"[10,2,6,10,7,8,0]","action_history":"[1,1,1,0,0,1]","door_history":"[1,1,1,0,0,1]","location_rts":"[1342,529,411,68,323,171]","trial_type":"two-door-navigation","trial_index":19,"time_elapsed":466903,"internal_node_id":"0.0-2.0-17.0"},{"group":"dicyclic group of order 12","room_assignment":["brown","cyan","purple","yellow","red","orange","blue","green","olive","ivory","pink","grey"],"door_color_assignment":["white","black"],"door_generator_assignment":[0,1],"goal":9,"start":0,"action_noise":0.15,"location_history":"[0,4,9]","action_history":"[1,0]","door_history":"[1,0]","location_rts":"[1199,395]","trial_type":"two-door-navigation","trial_index":20,"time_elapsed":474039,"internal_node_id":"0.0-2.0-18.0"},{"group":"dicyclic group of order 12","room_assignment":["brown","cyan","purple","yellow","red","orange","blue","green","olive","ivory","pink","grey"],"door_color_assignment":["white","black"],"door_generator_assignment":[0,1],"goal":4,"start":9,"action_noise":0.15,"location_history":"[9,6,10,7,8,5,9,1,5,10,7,8,0,1,2,6,11,4]","action_history":"[0,0,0,0,0,1,1,1,0,0,0,1,0,0,1,0,0]","door_history":"[0,0,0,0,0,1,1,1,0,0,0,1,0,0,1,0,0]","location_rts":"[1350,345,349,355,306,212,317,389,51,1333,458,173,267,274,197,220,200]","trial_type":"two-door-navigation","trial_index":21,"time_elapsed":501694,"internal_node_id":"0.0-2.0-19.0"},{"group":"dicyclic group of order 12","room_assignment":["brown","cyan","purple","yellow","red","orange","blue","green","olive","ivory","pink","grey"],"door_color_assignment":["white","black"],"door_generator_assignment":[0,1],"goal":2,"start":4,"action_noise":0.15,"location_history":"[4,8,0,1,2]","action_history":"[1,1,0,0]","door_history":"[1,1,0,0]","location_rts":"[2950,388,370,307]","trial_type":"two-door-navigation","trial_index":22,"time_elapsed":513299,"internal_node_id":"0.0-2.0-20.0"},{"group":"dicyclic group of order 12","room_assignment":["brown","cyan","purple","yellow","red","orange","blue","green","olive","ivory","pink","grey"],"door_color_assignment":["white","black"],"door_generator_assignment":[0,1],"goal":1,"start":2,"action_noise":0.15,"location_history":"[2,6,11,4,9,6,11,3,0,1]","action_history":"[1,0,0,0,0,0,1,0,0]","door_history":"[1,0,0,0,0,0,1,0,0]","location_rts":"[1542,262,195,130,388,498,442,259,345]","trial_type":"two-door-navigation","trial_index":23,"time_elapsed":530056,"internal_node_id":"0.0-2.0-21.0"},{"group":"dicyclic group of order 12","room_assignment":["brown","cyan","purple","yellow","red","orange","blue","green","olive","ivory","pink","grey"],"door_color_assignment":["white","black"],"door_generator_assignment":[0,1],"goal":3,"start":1,"action_noise":0.15,"location_history":"[1,5,9,1,2,3]","action_history":"[1,1,1,0,0]","door_history":"[1,1,1,0,0]","location_rts":"[1137,467,372,29,60]","trial_type":"two-door-navigation","trial_index":24,"time_elapsed":540724,"internal_node_id":"0.0-2.0-22.0"},{"group":"dicyclic group of order 12","room_assignment":["brown","cyan","purple","yellow","red","orange","blue","green","olive","ivory","pink","grey"],"door_color_assignment":["white","black"],"door_generator_assignment":[0,1],"goal":7,"start":3,"action_noise":0.15,"location_history":"[3,7]","action_history":"[1]","door_history":"[1]","location_rts":"[1454]","trial_type":"two-door-navigation","trial_index":25,"time_elapsed":546700,"internal_node_id":"0.0-2.0-23.0"},{"group":"dicyclic group of order 12","room_assignment":["brown","cyan","purple","yellow","red","orange","blue","green","olive","ivory","pink","grey"],"door_color_assignment":["white","black"],"door_generator_assignment":[0,1],"goal":6,"start":7,"action_noise":0.15,"location_history":"[7,11,3,7,11,4,9,6]","action_history":"[1,1,1,1,0,0,0]","door_history":"[1,1,1,1,0,0,0]","location_rts":"[1301,652,404,414,498,267,285]","trial_type":"two-door-navigation","trial_index":26,"time_elapsed":561173,"internal_node_id":"0.0-2.0-24.0"},{"group":"dicyclic group of order 12","room_assignment":["brown","cyan","purple","yellow","red","orange","blue","green","olive","ivory","pink","grey"],"door_color_assignment":["white","black"],"door_generator_assignment":[0,1],"goal":2,"start":6,"action_noise":0.15,"location_history":"[6,10,2]","action_history":"[1,1]","door_history":"[1,1]","location_rts":"[1060,295]","trial_type":"two-door-navigation","trial_index":27,"time_elapsed":568069,"internal_node_id":"0.0-2.0-25.0"},{"group":"dicyclic group of order 12","room_assignment":["brown","cyan","purple","yellow","red","orange","blue","green","olive","ivory","pink","grey"],"door_color_assignment":["white","black"],"door_generator_assignment":[0,1],"goal":8,"start":2,"action_noise":0.15,"location_history":"[2,6,10,7,8]","action_history":"[1,1,1,0]","door_history":"[1,1,1,0]","location_rts":"[1227,573,434,157]","trial_type":"two-door-navigation","trial_index":28,"time_elapsed":578047,"internal_node_id":"0.0-2.0-26.0"},{"group":"dicyclic group of order 12","room_assignment":["brown","cyan","purple","yellow","red","orange","blue","green","olive","ivory","pink","grey"],"door_color_assignment":["white","black"],"door_generator_assignment":[0,1],"goal":0,"start":8,"action_noise":0.15,"location_history":"[8,0]","action_history":"[1]","door_history":"[1]","location_rts":"[944]","trial_type":"two-door-navigation","trial_index":29,"time_elapsed":583515,"internal_node_id":"0.0-2.0-27.0"},{"group":"dicyclic group of order 12","room_assignment":["brown","cyan","purple","yellow","red","orange","blue","green","olive","ivory","pink","grey"],"door_color_assignment":["white","black"],"door_generator_assignment":[0,1],"goal":3,"start":0,"action_noise":0.15,"location_history":"[0,1,5,10,7,8,5,10,7,8,5,10,2,6,10,7,11,4,8,5,10,2,3]","action_history":"[1,1,0,0,0,0,0,0,0,0,1,0,0,0,0,1,0,0,0,0,1,0]","door_history":"[1,1,0,0,0,0,0,0,0,0,1,0,0,0,0,1,0,0,0,0,1,0]","location_rts":"[926,355,137,243,366,462,429,266,500,181,196,116,162,285,261,643,315,317,333,320,192,156]","trial_type":"two-door-navigation","trial_index":30,"time_elapsed":616612,"internal_node_id":"0.0-2.0-28.0"},{"group":"dicyclic group of order 12","room_assignment":["brown","cyan","purple","yellow","red","orange","blue","green","olive","ivory","pink","grey"],"door_color_assignment":["white","black"],"door_generator_assignment":[0,1],"goal":4,"start":3,"action_noise":0.15,"location_history":"[3,0,1,5,9,6,10,7,8,5,9,1,2,6,10,7,8,5,10,2,3,0,1,2,3,7,8,5,10,7,11,4]","action_history":"[1,1,1,1,0,0,0,0,0,1,0,0,0,1,0,0,0,0,1,0,0,0,0,0,1,0,0,0,0,1,0]","door_history":"[1,1,1,1,0,0,0,0,0,1,0,0,0,1,0,0,0,0,1,0,0,0,0,0,1,0,0,0,0,1,0]","location_rts":"[1669,388,390,730,349,344,379,317,372,107,11,107,164,249,101,404,220,220,168,93,94,139,225,467,125,118,127,112,84,114,148]","trial_type":"two-door-navigation","trial_index":31,"time_elapsed":660265,"internal_node_id":"0.0-2.0-29.0"},{"group":"dicyclic group of order 12","room_assignment":["brown","cyan","purple","yellow","red","orange","blue","green","olive","ivory","pink","grey"],"door_color_assignment":["white","black"],"door_generator_assignment":[0,1],"goal":10,"start":4,"action_noise":0.15,"location_history":"[4,8,5,10]","action_history":"[1,0,0]","door_history":"[1,0,0]","location_rts":"[1071,174,155]","trial_type":"two-door-navigation","trial_index":32,"time_elapsed":668227,"internal_node_id":"0.0-2.0-30.0"},{"group":"dicyclic group of order 12","room_assignment":["brown","cyan","purple","yellow","red","orange","blue","green","olive","ivory","pink","grey"],"door_color_assignment":["white","black"],"door_generator_assignment":[0,1],"goal":11,"start":10,"action_noise":0.15,"location_history":"[10,2,3,0,1,2,6,11]","action_history":"[1,0,0,0,0,1,0]","door_history":"[1,0,0,0,0,1,0]","location_rts":"[1107,18,112,102,108,38,195]","trial_type":"two-door-navigation","trial_index":33,"time_elapsed":680557,"internal_node_id":"0.0-2.0-31.0"},{"group":"dicyclic group of order 12","room_assignment":["brown","cyan","purple","yellow","red","orange","blue","green","olive","ivory","pink","grey"],"door_color_assignment":["white","black"],"door_generator_assignment":[0,1],"goal":1,"start":11,"action_noise":0.15,"location_history":"[11,4,9,6,11,4,8,5,10,7,8,0,1]","action_history":"[1,0,0,0,0,1,0,0,0,0,1,0]","door_history":"[1,0,0,0,0,1,0,0,0,0,1,0]","location_rts":"[13688,222,27,91,395,251,63,75,140,74,31,435]","trial_type":"two-door-navigation","trial_index":34,"time_elapsed":711786,"internal_node_id":"0.0-2.0-32.0"},{"group":"dicyclic group of order 12","room_assignment":["brown","cyan","purple","yellow","red","orange","blue","green","olive","ivory","pink","grey"],"door_color_assignment":["white","black"],"door_generator_assignment":[0,1],"goal":5,"start":1,"action_noise":0.15,"location_history":"[1,2,3,0,1,5]","action_history":"[0,0,0,0,1]","door_history":"[0,0,0,0,1]","location_rts":"[5861,86,91,144,173]","trial_type":"two-door-navigation","trial_index":35,"time_elapsed":726749,"internal_node_id":"0.0-2.0-33.0"},{"group":"dicyclic group of order 12","room_assignment":["brown","cyan","purple","yellow","red","orange","blue","green","olive","ivory","pink","grey"],"door_color_assignment":["white","black"],"door_generator_assignment":[0,1],"goal":9,"start":5,"action_noise":0.15,"location_history":"[5,10,7,8,0,4,9]","action_history":"[0,0,0,0,1,0]","door_history":"[0,0,0,0,1,0]","location_rts":"[1200,192,68,59,206,188]","trial_type":"two-door-navigation","trial_index":36,"time_elapsed":738313,"internal_node_id":"0.0-2.0-34.0"},{"view_history":"[{\"page_index\":0,\"viewing_time\":8740}]","rt":8740,"trial_type":"instructions","trial_index":37,"time_elapsed":748054,"internal_node_id":"0.0-3.0"},{"view_history":"[{\"page_index\":0,\"viewing_time\":2327},{\"page_index\":1,\"viewing_time\":16282}]","rt":18609,"trial_type":"instructions","trial_index":38,"time_elapsed":767663,"internal_node_id":"0.0-4.0"},{"group":"dihedral group of order 12","fractal_assignment":["../images/gry_blk.png","../images/blu_wht.png","../images/grn_red.png","../images/org_blu.png","../images/pnk_blu.png","../images/ylw_pnk.png","../images/grn_blu.png","../images/red_prp.png","../images/grn_prp.png","../images/wht_red.png","../images/cyn_red.png","../images/ylw_slt.png"],"mutagen_generator_assignment":[0,1],"goal":4,"start":0,"action_noise":0.15,"location_history":"[0,1,7,6,11,5,11,5,11,5,11,5,11,10,9,8,7,1,7,6,11,5,0,6,0,6,11,5,0,6,0,1,7,1,2,3,9,3,9,3,4]","action_history":"[0,0,0,0,1,1,1,1,0,1,1,1,0,1,1,0,1,1,1,0,1,0,1,1,1,0,1,0,1,1,0,1,1,1,0,1,1,1,1,0]","mutagen_history":"[0,0,0,0,1,1,1,1,0,1,1,1,0,1,1,0,1,1,1,0,1,0,1,1,1,0,1,0,1,1,0,1,1,1,0,1,1,1,1,0]","location_rts":"[5191,1234,1164,641,467,678,60,554,517,406,437,374,400,226,564,362,243,456,452,18,276,280,362,394,591,523,213,202,304,494,566,164,282,648,39,307,440,331,348,73]","trial_type":"fractal-mutation","trial_index":39,"time_elapsed":836189,"internal_node_id":"0.0-5.0-0.0"},{"group":"dihedral group of order 12","fractal_assignment":["../images/gry_blk.png","../images/blu_wht.png","../images/grn_red.png","../images/org_blu.png","../images/pnk_blu.png","../images/ylw_pnk.png","../images/grn_blu.png","../images/red_prp.png","../images/grn_prp.png","../images/wht_red.png","../images/cyn_red.png","../images/ylw_slt.png"],"mutagen_generator_assignment":[0,1],"goal":9,"start":4,"action_noise":0.15,"location_history":"[4,5,0,1,2,8,2,8,7,1,2,8,2,3,9]","action_history":"[0,0,0,0,1,1,1,0,1,0,1,1,0,1]","mutagen_history":"[0,0,0,0,1,1,1,0,1,0,1,1,0,1]","location_rts":"[1027,706,516,513,226,424,394,124,435,325,308,336,120,332]","trial_type":"fractal-mutation","trial_index":40,"time_elapsed":860677,"internal_node_id":"0.0-5.0-1.0"},{"group":"dihedral group of order 12","fractal_assignment":["../images/gry_blk.png","../images/blu_wht.png","../images/grn_red.png","../images/org_blu.png","../images/pnk_blu.png","../images/ylw_pnk.png","../images/grn_blu.png","../images/red_prp.png","../images/grn_prp.png","../images/wht_red.png","../images/cyn_red.png","../images/ylw_slt.png"],"mutagen_generator_assignment":[0,1],"goal":10,"start":9,"action_noise":0.15,"location_history":"[9,8,2,3,9,3,9,8,2,8,7,6,0,6,0,1,7,1,7,6,11,5,11,10]","action_history":"[0,1,0,1,1,0,0,1,1,0,0,1,1,1,0,1,1,0,0,0,1,1,0]","mutagen_history":"[0,1,0,1,1,0,0,1,1,0,0,1,1,1,0,1,1,0,0,0,1,1,0]","location_rts":"[827,578,678,596,135,154,614,743,347,234,621,211,431,155,139,611,490,57,501,612,659,460,85]","trial_type":"fractal-mutation","trial_index":41,"time_elapsed":899165,"internal_node_id":"0.0-5.0-2.0"},{"group":"dihedral group of order 12","fractal_assignment":["../images/gry_blk.png","../images/blu_wht.png","../images/grn_red.png","../images/org_blu.png","../images/pnk_blu.png","../images/ylw_pnk.png","../images/grn_blu.png","../images/red_prp.png","../images/grn_prp.png","../images/wht_red.png","../images/cyn_red.png","../images/ylw_slt.png"],"mutagen_generator_assignment":[0,1],"goal":2,"start":10,"action_noise":0.15,"location_history":"[10,9,8,2]","action_history":"[0,0,1]","mutagen_history":"[0,0,1]","location_rts":"[1254,483,626]","trial_type":"fractal-mutation","trial_index":42,"time_elapsed":908183,"internal_node_id":"0.0-5.0-3.0"},{"group":"dihedral group of order 12","fractal_assignment":["../images/gry_blk.png","../images/blu_wht.png","../images/grn_red.png","../images/org_blu.png","../images/pnk_blu.png","../images/ylw_pnk.png","../images/grn_blu.png","../images/red_prp.png","../images/grn_prp.png","../images/wht_red.png","../images/cyn_red.png","../images/ylw_slt.png"],"mutagen_generator_assignment":[0,1],"goal":5,"start":2,"action_noise":0.15,"location_history":"[2,3,4,5]","action_history":"[0,0,0]","mutagen_history":"[0,0,0]","location_rts":"[925,578,595]","trial_type":"fractal-mutation","trial_index":43,"time_elapsed":916851,"internal_node_id":"0.0-5.0-4.0"},{"group":"dihedral group of order 12","fractal_assignment":["../images/gry_blk.png","../images/blu_wht.png","../images/grn_red.png","../images/org_blu.png","../images/pnk_blu.png","../images/ylw_pnk.png","../images/grn_blu.png","../images/red_prp.png","../images/grn_prp.png","../images/wht_red.png","../images/cyn_red.png","../images/ylw_slt.png"],"mutagen_generator_assignment":[0,1],"goal":11,"start":5,"action_noise":0.15,"location_history":"[5,11]","action_history":"[1]","mutagen_history":"[1]","location_rts":"[1104]","trial_type":"fractal-mutation","trial_index":44,"time_elapsed":922567,"internal_node_id":"0.0-5.0-5.0"},{"group":"dihedral group of order 12","fractal_assignment":["../images/gry_blk.png","../images/blu_wht.png","../images/grn_red.png","../images/org_blu.png","../images/pnk_blu.png","../images/ylw_pnk.png","../images/grn_blu.png","../images/red_prp.png","../images/grn_prp.png","../images/wht_red.png","../images/cyn_red.png","../images/ylw_slt.png"],"mutagen_generator_assignment":[0,1],"goal":6,"start":11,"action_noise":0.15,"location_history":"[11,10,9,8,7,1,7,6]","action_history":"[0,0,0,0,1,1,1]","mutagen_history":"[0,0,0,0,1,1,1]","location_rts":"[908,625,610,850,482,553,525]","trial_type":"fractal-mutation","trial_index":45,"time_elapsed":938039,"internal_node_id":"0.0-5.0-6.0"},{"group":"dihedral group of order 12","fractal_assignment":["../images/gry_blk.png","../images/blu_wht.png","../images/grn_red.png","../images/org_blu.png","../images/pnk_blu.png","../images/ylw_pnk.png","../images/grn_blu.png","../images/red_prp.png","../images/grn_prp.png","../images/wht_red.png","../images/cyn_red.png","../images/ylw_slt.png"],"mutagen_generator_assignment":[0,1],"goal":3,"start":6,"action_noise":0.15,"location_history":"[6,0,6,11,10,4,5,11,5,0,1,7,6,11,5,11,5,0,1,7,1,7,1,2,8,2,8,7,6,11,10,4,5,11,5,11,5,0,6,0,6,0,6,0,6,11,10,9,8,2,8,2,3]","action_history":"[1,0,0,0,1,0,1,1,0,0,1,0,0,0,0,1,0,0,1,1,1,1,0,1,1,1,0,1,0,0,1,1,1,1,1,0,0,1,1,1,1,0,1,1,0,0,0,1,1,1,1,0]","mutagen_history":"[1,0,0,0,1,0,1,1,0,0,1,0,0,0,0,1,0,0,1,1,1,1,0,1,1,1,0,1,0,0,1,1,1,1,1,0,0,1,1,1,1,0,1,1,0,0,0,1,1,1,1,0]","location_rts":"[1003,90,295,517,292,315,1214,334,184,515,565,75,255,438,722,343,247,421,262,266,232,581,126,259,380,263,399,230,262,259,757,235,232,237,413,167,534,670,232,379,239,188,181,458,121,1253,723,643,392,412,395,42]","trial_type":"fractal-mutation","trial_index":46,"time_elapsed":1018591,"internal_node_id":"0.0-5.0-7.0"},{"group":"dihedral group of order 12","fractal_assignment":["../images/gry_blk.png","../images/blu_wht.png","../images/grn_red.png","../images/org_blu.png","../images/pnk_blu.png","../images/ylw_pnk.png","../images/grn_blu.png","../images/red_prp.png","../images/grn_prp.png","../images/wht_red.png","../images/cyn_red.png","../images/ylw_slt.png"],"mutagen_generator_assignment":[0,1],"goal":8,"start":3,"action_noise":0.15,"location_history":"[3,4,5,11,5,0,1,7,6,0,6,11,10,4,10,4,10,9,3,9,3,4,5,0,1,2,3,9,8]","action_history":"[0,1,1,0,0,0,1,0,1,0,0,0,1,1,1,1,0,1,1,1,1,0,0,0,0,0,1,0]","mutagen_history":"[0,1,1,0,0,0,1,0,1,0,0,0,1,1,1,1,0,1,1,1,1,0,0,0,0,0,1,0]","location_rts":"[1094,260,375,20,293,915,260,219,644,176,245,532,418,482,452,104,71,353,168,358,216,123,467,259,365,388,341,120]","trial_type":"fractal-mutation","trial_index":47,"time_elapsed":1062304,"internal_node_id":"0.0-5.0-8.0"},{"group":"dihedral group of order 12","fractal_assignment":["../images/gry_blk.png","../images/blu_wht.png","../images/grn_red.png","../images/org_blu.png","../images/pnk_blu.png","../images/ylw_pnk.png","../images/grn_blu.png","../images/red_prp.png","../images/grn_prp.png","../images/wht_red.png","../images/cyn_red.png","../images/ylw_slt.png"],"mutagen_generator_assignment":[0,1],"goal":1,"start":8,"action_noise":0.15,"location_history":"[8,2,3,4,5,0,1]","action_history":"[1,0,0,0,0,0]","mutagen_history":"[1,0,0,0,0,0]","location_rts":"[917,105,213,100,147,65]","trial_type":"fractal-mutation","trial_index":48,"time_elapsed":1073807,"internal_node_id":"0.0-5.0-9.0"},{"group":"dihedral group of order 12","fractal_assignment":["../images/gry_blk.png","../images/blu_wht.png","../images/grn_red.png","../images/org_blu.png","../images/pnk_blu.png","../images/ylw_pnk.png","../images/grn_blu.png","../images/red_prp.png","../images/grn_prp.png","../images/wht_red.png","../images/cyn_red.png","../images/ylw_slt.png"],"mutagen_generator_assignment":[0,1],"goal":7,"start":1,"action_noise":0.15,"location_history":"[1,2,8,7]","action_history":"[0,1,0]","mutagen_history":"[0,1,0]","location_rts":"[680,111,139]","trial_type":"fractal-mutation","trial_index":49,"time_elapsed":1081439,"internal_node_id":"0.0-5.0-10.0"},{"group":"dihedral group of order 12","fractal_assignment":["../images/gry_blk.png","../images/blu_wht.png","../images/grn_red.png","../images/org_blu.png","../images/pnk_blu.png","../images/ylw_pnk.png","../images/grn_blu.png","../images/red_prp.png","../images/grn_prp.png","../images/wht_red.png","../images/cyn_red.png","../images/ylw_slt.png"],"mutagen_generator_assignment":[0,1],"goal":5,"start":7,"action_noise":0.15,"location_history":"[7,6,0,1,2,8,7,1,2,3,4,10,4,5]","action_history":"[0,1,0,1,1,0,1,0,0,0,1,1,0]","mutagen_history":"[0,1,0,1,1,0,1,0,0,0,1,1,0]","location_rts":"[630,66,235,150,169,110,438,106,198,243,147,234,139]","trial_type":"fractal-mutation","trial_index":50,"time_elapsed":1101887,"internal_node_id":"0.0-5.0-11.0"},{"group":"dihedral group of order 12","fractal_assignment":["../images/gry_blk.png","../images/blu_wht.png","../images/grn_red.png","../images/org_blu.png","../images/pnk_blu.png","../images/ylw_pnk.png","../images/grn_blu.png","../images/red_prp.png","../images/grn_prp.png","../images/wht_red.png","../images/cyn_red.png","../images/ylw_slt.png"],"mutagen_generator_assignment":[0,1],"goal":8,"start":5,"action_noise":0.15,"location_history":"[5,0,6,11,10,4,5,11,5,0,6,11,10,4,5,0,1,7,6,11,5,11,5,0,1,7,6,0,6,11,10,9,8]","action_history":"[0,1,0,0,0,0,1,1,0,1,0,0,1,0,0,1,1,0,0,0,1,1,0,1,1,0,0,1,0,1,0,0]","mutagen_history":"[0,1,0,0,0,0,1,1,0,1,0,0,1,0,0,1,1,0,0,0,1,1,0,1,1,0,0,1,0,1,0,0]","location_rts":"[1204,542,60,400,180,133,134,174,445,226,122,197,228,43,423,151,105,82,228,244,183,174,105,212,172,119,243,102,91,148,103,323]","trial_type":"fractal-mutation","trial_index":51,"time_elapsed":1147375,"internal_node_id":"0.0-5.0-12.0"},{"group":"dihedral group of order 12","fractal_assignment":["../images/gry_blk.png","../images/blu_wht.png","../images/grn_red.png","../images/org_blu.png","../images/pnk_blu.png","../images/ylw_pnk.png","../images/grn_blu.png","../images/red_prp.png","../images/grn_prp.png","../images/wht_red.png","../images/cyn_red.png","../images/ylw_slt.png"],"mutagen_generator_assignment":[0,1],"goal":11,"start":8,"action_noise":0.15,"location_history":"[8,7,6,0,6,11]","action_history":"[0,0,1,1,0]","mutagen_history":"[0,0,1,1,0]","location_rts":"[1256,977,179,346,169]","trial_type":"fractal-mutation","trial_index":52,"time_elapsed":1159134,"internal_node_id":"0.0-5.0-13.0"},{"group":"dihedral group of order 12","fractal_assignment":["../images/gry_blk.png","../images/blu_wht.png","../images/grn_red.png","../images/org_blu.png","../images/pnk_blu.png","../images/ylw_pnk.png","../images/grn_blu.png","../images/red_prp.png","../images/grn_prp.png","../images/wht_red.png","../images/cyn_red.png","../images/ylw_slt.png"],"mutagen_generator_assignment":[0,1],"goal":6,"start":11,"action_noise":0.15,"location_history":"[11,5,11,10,4,10,4,5,11,10,9,3,4,5,0,6]","action_history":"[0,0,1,1,1,1,0,1,0,0,1,1,0,0,1]","mutagen_history":"[0,0,1,1,1,1,0,1,0,0,1,1,0,0,1]","location_rts":"[1063,738,450,295,442,331,126,387,53,211,129,183,142,374,179]","trial_type":"fractal-mutation","trial_index":53,"time_elapsed":1184015,"internal_node_id":"0.0-5.0-14.0"},{"group":"dihedral group of order 12","fractal_assignment":["../images/gry_blk.png","../images/blu_wht.png","../images/grn_red.png","../images/org_blu.png","../images/pnk_blu.png","../images/ylw_pnk.png","../images/grn_blu.png","../images/red_prp.png","../images/grn_prp.png","../images/wht_red.png","../images/cyn_red.png","../images/ylw_slt.png"],"mutagen_generator_assignment":[0,1],"goal":7,"start":6,"action_noise":0.15,"location_history":"[6,0,6,11,5,0,6,11,10,4,10,9,3,4,10,9,3,9,3,4,10,4,10,4,10,9,8,7]","action_history":"[1,0,0,1,0,1,0,0,1,1,0,1,0,1,0,1,1,0,0,0,1,1,1,1,0,0,0]","mutagen_history":"[1,0,0,1,0,1,0,0,1,1,0,1,0,1,0,1,1,0,0,0,1,1,1,1,0,0,0]","location_rts":"[837,92,195,195,231,502,185,423,178,363,283,142,170,342,267,581,219,121,454,468,213,172,296,202,109,243,196]","trial_type":"fractal-mutation","trial_index":54,"time_elapsed":1224612,"internal_node_id":"0.0-5.0-15.0"},{"group":"dihedral group of order 12","fractal_assignment":["../images/gry_blk.png","../images/blu_wht.png","../images/grn_red.png","../images/org_blu.png","../images/pnk_blu.png","../images/ylw_pnk.png","../images/grn_blu.png","../images/red_prp.png","../images/grn_prp.png","../images/wht_red.png","../images/cyn_red.png","../images/ylw_slt.png"],"mutagen_generator_assignment":[0,1],"goal":10,"start":7,"action_noise":0.15,"location_history":"[7,6,0,6,0,6,0,6,0,6,11,10]","action_history":"[0,1,1,1,1,0,1,1,1,0,0]","mutagen_history":"[0,1,1,1,1,0,1,1,1,0,0]","location_rts":"[406,143,169,186,229,169,166,219,269,85,244]","trial_type":"fractal-mutation","trial_index":55,"time_elapsed":1242402,"internal_node_id":"0.0-5.0-16.0"},{"group":"dihedral group of order 12","fractal_assignment":["../images/gry_blk.png","../images/blu_wht.png","../images/grn_red.png","../images/org_blu.png","../images/pnk_blu.png","../images/ylw_pnk.png","../images/grn_blu.png","../images/red_prp.png","../images/grn_prp.png","../images/wht_red.png","../images/cyn_red.png","../images/ylw_slt.png"],"mutagen_generator_assignment":[0,1],"goal":0,"start":10,"action_noise":0.15,"location_history":"[10,9,3,4,5,0]","action_history":"[0,1,0,0,0]","mutagen_history":"[0,1,0,0,0]","location_rts":"[166,212,77,213,260]","trial_type":"fractal-mutation","trial_index":56,"time_elapsed":1252165,"internal_node_id":"0.0-5.0-17.0"},{"group":"dihedral group of order 12","fractal_assignment":["../images/gry_blk.png","../images/blu_wht.png","../images/grn_red.png","../images/org_blu.png","../images/pnk_blu.png","../images/ylw_pnk.png","../images/grn_blu.png","../images/red_prp.png","../images/grn_prp.png","../images/wht_red.png","../images/cyn_red.png","../images/ylw_slt.png"],"mutagen_generator_assignment":[0,1],"goal":9,"start":0,"action_noise":0.15,"location_history":"[0,1,7,6,0,1,2,8,7,1,7,6,11,5,11,5,0,6,0,6,11,10,4,10,9]","action_history":"[0,0,1,1,0,0,0,0,1,1,0,0,1,0,0,0,1,1,1,0,0,1,1,0]","mutagen_history":"[0,0,1,1,0,0,0,0,1,1,0,0,1,0,0,0,1,1,1,0,0,1,1,0]","location_rts":"[1413,386,590,480,434,88,295,520,477,392,369,343,110,217,538,1317,35,381,282,110,503,185,317,558]","trial_type":"fractal-mutation","trial_index":57,"time_elapsed":1292443,"internal_node_id":"0.0-5.0-18.0"},{"group":"dihedral group of order 12","fractal_assignment":["../images/gry_blk.png","../images/blu_wht.png","../images/grn_red.png","../images/org_blu.png","../images/pnk_blu.png","../images/ylw_pnk.png","../images/grn_blu.png","../images/red_prp.png","../images/grn_prp.png","../images/wht_red.png","../images/cyn_red.png","../images/ylw_slt.png"],"mutagen_generator_assignment":[0,1],"goal":4,"start":9,"action_noise":0.15,"location_history":"[9,8,2,8,7,1,7,1,2,8,2,3,9,8,2,8,2,3,9,3,4]","action_history":"[0,0,1,0,0,1,1,0,0,1,1,0,0,0,1,1,0,1,1,0]","mutagen_history":"[0,0,1,0,0,1,1,0,0,1,1,0,0,0,1,1,0,1,1,0]","location_rts":"[1390,355,926,84,716,569,447,144,304,185,448,178,445,621,321,519,451,88,157,225]","trial_type":"fractal-mutation","trial_index":58,"time_elapsed":1326521,"internal_node_id":"0.0-5.0-19.0"},{"group":"dihedral group of order 12","fractal_assignment":["../images/gry_blk.png","../images/blu_wht.png","../images/grn_red.png","../images/org_blu.png","../images/pnk_blu.png","../images/ylw_pnk.png","../images/grn_blu.png","../images/red_prp.png","../images/grn_prp.png","../images/wht_red.png","../images/cyn_red.png","../images/ylw_slt.png"],"mutagen_generator_assignment":[0,1],"goal":2,"start":4,"action_noise":0.15,"location_history":"[4,5,0,1,7,6,11,10,9,3,9,3,4,10,4,5,0,1,7,6,0,6,11,10,4,10,9,8,7,1,7,1,7,6,11,10,9,3,4,5,11,5,0,1,7,1,7,6,11,5,0,1,7,1,2]","action_history":"[0,0,0,0,0,1,0,0,1,1,1,0,1,1,0,0,0,1,0,1,0,0,1,1,1,0,0,1,1,1,1,1,0,0,0,0,1,0,0,1,1,0,0,1,1,0,0,0,1,0,0,1,1,0]","mutagen_history":"[0,0,0,0,0,1,0,0,1,1,1,0,1,1,0,0,0,1,0,1,0,0,1,1,1,0,0,1,1,1,1,1,0,0,0,0,1,0,0,1,1,0,0,1,1,0,0,0,1,0,0,1,1,0]","location_rts":"[1101,464,450,688,737,252,291,474,553,539,379,12,505,567,393,646,714,524,280,436,249,147,826,476,576,463,763,143,660,519,660,352,80,715,857,793,129,165,735,215,136,307,503,302,188,74,494,751,95,640,575,136,327,35]","trial_type":"fractal-mutation","trial_index":59,"time_elapsed":1413691,"internal_node_id":"0.0-5.0-20.0"},{"group":"dihedral group of order 12","fractal_assignment":["../images/gry_blk.png","../images/blu_wht.png","../images/grn_red.png","../images/org_blu.png","../images/pnk_blu.png","../images/ylw_pnk.png","../images/grn_blu.png","../images/red_prp.png","../images/grn_prp.png","../images/wht_red.png","../images/cyn_red.png","../images/ylw_slt.png"],"mutagen_generator_assignment":[0,1],"goal":1,"start":2,"action_noise":0.15,"location_history":"[2,3,9,3,9,8,7,6,11,5,0,1]","action_history":"[0,1,1,1,0,0,0,0,0,0,0]","mutagen_history":"[0,1,1,1,0,0,0,0,0,0,0]","location_rts":"[992,47,176,109,77,200,71,210,302,166,89]","trial_type":"fractal-mutation","trial_index":60,"time_elapsed":1431651,"internal_node_id":"0.0-5.0-21.0"},{"group":"dihedral group of order 12","fractal_assignment":["../images/gry_blk.png","../images/blu_wht.png","../images/grn_red.png","../images/org_blu.png","../images/pnk_blu.png","../images/ylw_pnk.png","../images/grn_blu.png","../images/red_prp.png","../images/grn_prp.png","../images/wht_red.png","../images/cyn_red.png","../images/ylw_slt.png"],"mutagen_generator_assignment":[0,1],"goal":3,"start":1,"action_noise":0.15,"location_history":"[1,2,8,2,8,7,1,2,8,7,1,2,3]","action_history":"[0,0,1,1,0,1,1,0,0,1,1,0]","mutagen_history":"[0,0,1,1,0,1,1,0,0,1,1,0]","location_rts":"[1233,260,667,593,422,125,309,81,539,109,404,181]","trial_type":"fractal-mutation","trial_index":61,"time_elapsed":1453267,"internal_node_id":"0.0-5.0-22.0"},{"group":"dihedral group of order 12","fractal_assignment":["../images/gry_blk.png","../images/blu_wht.png","../images/grn_red.png","../images/org_blu.png","../images/pnk_blu.png","../images/ylw_pnk.png","../images/grn_blu.png","../images/red_prp.png","../images/grn_prp.png","../images/wht_red.png","../images/cyn_red.png","../images/ylw_slt.png"],"mutagen_generator_assignment":[0,1],"goal":7,"start":3,"action_noise":0.15,"location_history":"[3,4,10,9,3,4,5,11,5,0,6,11,10,4,10,9,3,4,5,11,10,4,10,4,5,0,1,7]","action_history":"[0,1,1,0,0,0,1,0,0,1,1,0,1,1,0,0,0,0,1,0,0,1,1,0,0,1,0]","mutagen_history":"[0,1,1,0,0,0,1,0,0,1,1,0,1,1,0,0,0,0,1,0,0,1,1,0,0,1,0]","location_rts":"[897,95,275,110,543,540,347,182,350,62,191,20,472,128,174,266,75,298,172,60,259,203,104,150,147,74,70]","trial_type":"fractal-mutation","trial_index":62,"time_elapsed":1492800,"internal_node_id":"0.0-5.0-23.0"},{"group":"dihedral group of order 12","fractal_assignment":["../images/gry_blk.png","../images/blu_wht.png","../images/grn_red.png","../images/org_blu.png","../images/pnk_blu.png","../images/ylw_pnk.png","../images/grn_blu.png","../images/red_prp.png","../images/grn_prp.png","../images/wht_red.png","../images/cyn_red.png","../images/ylw_slt.png"],"mutagen_generator_assignment":[0,1],"goal":6,"start":7,"action_noise":0.15,"location_history":"[7,6]","action_history":"[0]","mutagen_history":"[0]","location_rts":"[841]","trial_type":"fractal-mutation","trial_index":63,"time_elapsed":1498168,"internal_node_id":"0.0-5.0-24.0"},{"group":"dihedral group of order 12","fractal_assignment":["../images/gry_blk.png","../images/blu_wht.png","../images/grn_red.png","../images/org_blu.png","../images/pnk_blu.png","../images/ylw_pnk.png","../images/grn_blu.png","../images/red_prp.png","../images/grn_prp.png","../images/wht_red.png","../images/cyn_red.png","../images/ylw_slt.png"],"mutagen_generator_assignment":[0,1],"goal":2,"start":6,"action_noise":0.15,"location_history":"[6,11,5,0,1,2]","action_history":"[0,0,0,0,0]","mutagen_history":"[0,0,0,0,0]","location_rts":"[784,226,496,431,194]","trial_type":"fractal-mutation","trial_index":64,"time_elapsed":1508932,"internal_node_id":"0.0-5.0-25.0"},{"group":"dihedral group of order 12","fractal_assignment":["../images/gry_blk.png","../images/blu_wht.png","../images/grn_red.png","../images/org_blu.png","../images/pnk_blu.png","../images/ylw_pnk.png","../images/grn_blu.png","../images/red_prp.png","../images/grn_prp.png","../images/wht_red.png","../images/cyn_red.png","../images/ylw_slt.png"],"mutagen_generator_assignment":[0,1],"goal":8,"start":2,"action_noise":0.15,"location_history":"[2,8]","action_history":"[1]","mutagen_history":"[1]","location_rts":"[1395]","trial_type":"fractal-mutation","trial_index":65,"time_elapsed":1514987,"internal_node_id":"0.0-5.0-26.0"},{"group":"dihedral group of order 12","fractal_assignment":["../images/gry_blk.png","../images/blu_wht.png","../images/grn_red.png","../images/org_blu.png","../images/pnk_blu.png","../images/ylw_pnk.png","../images/grn_blu.png","../images/red_prp.png","../images/grn_prp.png","../images/wht_red.png","../images/cyn_red.png","../images/ylw_slt.png"],"mutagen_generator_assignment":[0,1],"goal":0,"start":8,"action_noise":0.15,"location_history":"[8,2,3,4,10,4,10,4,10,9,8,2,8,7,6,0]","action_history":"[1,0,0,0,0,0,1,1,0,0,1,1,0,0,1]","mutagen_history":"[1,0,0,0,0,0,1,1,0,0,1,1,0,0,1]","location_rts":"[1293,66,459,391,373,2524,107,445,124,467,251,257,643,220,172]","trial_type":"fractal-mutation","trial_index":66,"time_elapsed":1542827,"internal_node_id":"0.0-5.0-27.0"},{"group":"dihedral group of order 12","fractal_assignment":["../images/gry_blk.png","../images/blu_wht.png","../images/grn_red.png","../images/org_blu.png","../images/pnk_blu.png","../images/ylw_pnk.png","../images/grn_blu.png","../images/red_prp.png","../images/grn_prp.png","../images/wht_red.png","../images/cyn_red.png","../images/ylw_slt.png"],"mutagen_generator_assignment":[0,1],"goal":3,"start":0,"action_noise":0.15,"location_history":"[0,1,7,1,7,1,2,3]","action_history":"[0,0,0,1,1,0,0]","mutagen_history":"[0,0,0,1,1,0,0]","location_rts":"[603,177,304,115,204,126,245]","trial_type":"fractal-mutation","trial_index":67,"time_elapsed":1555584,"internal_node_id":"0.0-5.0-28.0"},{"group":"dihedral group of order 12","fractal_assignment":["../images/gry_blk.png","../images/blu_wht.png","../images/grn_red.png","../images/org_blu.png","../images/pnk_blu.png","../images/ylw_pnk.png","../images/grn_blu.png","../images/red_prp.png","../images/grn_prp.png","../images/wht_red.png","../images/cyn_red.png","../images/ylw_slt.png"],"mutagen_generator_assignment":[0,1],"goal":4,"start":3,"action_noise":0.15,"location_history":"[3,4]","action_history":"[0]","mutagen_history":"[0]","location_rts":"[1505]","trial_type":"fractal-mutation","trial_index":68,"time_elapsed":1561616,"internal_node_id":"0.0-5.0-29.0"},{"group":"dihedral group of order 12","fractal_assignment":["../images/gry_blk.png","../images/blu_wht.png","../images/grn_red.png","../images/org_blu.png","../images/pnk_blu.png","../images/ylw_pnk.png","../images/grn_blu.png","../images/red_prp.png","../images/grn_prp.png","../images/wht_red.png","../images/cyn_red.png","../images/ylw_slt.png"],"mutagen_generator_assignment":[0,1],"goal":10,"start":4,"action_noise":0.15,"location_history":"[4,5,11,5,0,6,0,6,0,1,2,8,7,6,11,5,11,5,11,5,11,10]","action_history":"[0,0,1,0,0,0,1,1,0,0,1,0,0,0,1,0,0,1,1,0,0]","mutagen_history":"[0,0,1,0,0,0,1,1,0,0,1,0,0,0,1,0,0,1,1,0,0]","location_rts":"[897,415,191,142,348,138,140,131,52,267,337,24,715,553,45,99,81,133,389,73,616]","trial_type":"fractal-mutation","trial_index":69,"time_elapsed":1593914,"internal_node_id":"0.0-5.0-30.0"},{"group":"dihedral group of order 12","fractal_assignment":["../images/gry_blk.png","../images/blu_wht.png","../images/grn_red.png","../images/org_blu.png","../images/pnk_blu.png","../images/ylw_pnk.png","../images/grn_blu.png","../images/red_prp.png","../images/grn_prp.png","../images/wht_red.png","../images/cyn_red.png","../images/ylw_slt.png"],"mutagen_generator_assignment":[0,1],"goal":11,"start":10,"action_noise":0.15,"location_history":"[10,9,3,4,10,9,8,2,8,7,1,7,6,11]","action_history":"[1,1,0,1,0,0,1,1,0,1,1,0,0]","mutagen_history":"[1,1,0,1,0,0,1,1,0,1,1,0,0]","location_rts":"[2135,596,64,156,142,216,120,182,83,263,141,105,126]","trial_type":"fractal-mutation","trial_index":70,"time_elapsed":1616195,"internal_node_id":"0.0-5.0-31.0"},{"group":"dihedral group of order 12","fractal_assignment":["../images/gry_blk.png","../images/blu_wht.png","../images/grn_red.png","../images/org_blu.png","../images/pnk_blu.png","../images/ylw_pnk.png","../images/grn_blu.png","../images/red_prp.png","../images/grn_prp.png","../images/wht_red.png","../images/cyn_red.png","../images/ylw_slt.png"],"mutagen_generator_assignment":[0,1],"goal":1,"start":11,"action_noise":0.15,"location_history":"[11,5,0,6,11,10,9,3,9,3,9,8,2,8,7,6,0,1]","action_history":"[0,0,0,0,0,0,0,1,1,1,0,1,1,0,0,1,0]","mutagen_history":"[0,0,0,0,0,0,0,1,1,1,0,1,1,0,0,1,0]","location_rts":"[867,321,273,349,385,384,562,146,195,223,311,295,320,22,301,172,266]","trial_type":"fractal-mutation","trial_index":71,"time_elapsed":1643417,"internal_node_id":"0.0-5.0-32.0"},{"group":"dihedral group of order 12","fractal_assignment":["../images/gry_blk.png","../images/blu_wht.png","../images/grn_red.png","../images/org_blu.png","../images/pnk_blu.png","../images/ylw_pnk.png","../images/grn_blu.png","../images/red_prp.png","../images/grn_prp.png","../images/wht_red.png","../images/cyn_red.png","../images/ylw_slt.png"],"mutagen_generator_assignment":[0,1],"goal":5,"start":1,"action_noise":0.15,"location_history":"[1,7,6,11,10,4,10,9,3,4,5]","action_history":"[1,0,0,0,1,0,0,1,0,0]","mutagen_history":"[1,0,0,0,1,0,0,1,0,0]","location_rts":"[1134,499,126,227,295,35,354,125,116,323]","trial_type":"fractal-mutation","trial_index":72,"time_elapsed":1661169,"internal_node_id":"0.0-5.0-33.0"},{"group":"dihedral group of order 12","fractal_assignment":["../images/gry_blk.png","../images/blu_wht.png","../images/grn_red.png","../images/org_blu.png","../images/pnk_blu.png","../images/ylw_pnk.png","../images/grn_blu.png","../images/red_prp.png","../images/grn_prp.png","../images/wht_red.png","../images/cyn_red.png","../images/ylw_slt.png"],"mutagen_generator_assignment":[0,1],"goal":9,"start":5,"action_noise":0.15,"location_history":"[5,0,1,7,1,2,3,9]","action_history":"[0,0,0,1,0,0,1]","mutagen_history":"[0,0,0,1,0,0,1]","location_rts":"[2486,576,126,176,60,154,219]","trial_type":"fractal-mutation","trial_index":73,"time_elapsed":1675952,"internal_node_id":"0.0-5.0-34.0"},{"view_history":"[{\"page_index\":0,\"viewing_time\":9389}]","rt":9390,"trial_type":"instructions","trial_index":74,"time_elapsed":1686343,"internal_node_id":"0.0-6.0"},{"rt":5557,"responses":"{\"Q0\":\"No\"}","trial_type":"survey-text","trial_index":75,"time_elapsed":1692904,"internal_node_id":"0.0-7.0"}]