[{"view_history":"[{\"page_index\":0,\"viewing_time\":9924},{\"page_index\":1,\"viewing_time\":71315},{\"page_index\":2,\"viewing_time\":19760},{\"page_index\":3,\"viewing_time\":4886}]","rt":105886,"trial_type":"instructions","trial_index":0,"time_elapsed":105887,"internal_node_id":"0.0-0.0"},{"view_history":"[{\"page_index\":0,\"viewing_time\":3144},{\"page_index\":1,\"viewing_time\":93790}]","rt":96935,"trial_type":"instructions","trial_index":1,"time_elapsed":203823,"internal_node_id":"0.0-1.0"},{"group":"dicyclic group of order 12","room_assignment":["brown","purple","olive","red","orange","pink","ivory","green","cyan","yellow","grey","blue"],"door_color_assignment":["white","black"],"door_generator_assignment":[0,1],"goal":4,"start":0,"action_noise":0.15,"location_history":"[0,1,5,10,2,3,0,1,2,6,10,2,3,7,8,0,1,5,9,1,5,10,2,6,11,4]","action_history":"[0,1,0,0,0,0,0,0,1,1,1,1,1,0,1,1,1,1,1,1,1,1,1,0,0]","door_history":"[0,1,0,0,0,0,0,0,1,1,1,1,1,0,1,1,1,1,1,1,1,1,1,0,0]","location_rts":"[2607,7684,1255,552,905,2656,2259,648,606,888,616,539,1437,1041,1096,3281,555,1444,3070,781,12729,12940,1604,3742,1152]","trial_type":"two-door-navigation","trial_index":2,"time_elapsed":299508,"internal_node_id":"0.0-2.0-0.0"},{"group":"dicyclic group of order 12","room_assignment":["brown","purple","olive","red","orange","pink","ivory","green","cyan","yellow","grey","blue"],"door_color_assignment":["white","black"],"door_generator_assignment":[0,1],"goal":9,"start":4,"action_noise":0.15,"location_history":"[4,9]","action_history":"[1]","door_history":"[1]","location_rts":"[3570]","trial_type":"two-door-navigation","trial_index":3,"time_elapsed":307600,"internal_node_id":"0.0-2.0-1.0"},{"group":"dicyclic group of order 12","room_assignment":["brown","purple","olive","red","orange","pink","ivory","green","cyan","yellow","grey","blue"],"door_color_assignment":["white","black"],"door_generator_assignment":[0,1],"goal":10,"start":9,"action_noise":0.15,"location_history":"[9,1,2,3,7,11,4,9,1,2,6,10]","action_history":"[1,0,0,1,1,1,0,0,0,1,1]","door_history":"[1,0,0,1,1,1,0,0,0,1,1]","location_rts":"[1736,724,492,690,643,1220,921,878,1749,1145,1579]","trial_type":"two-door-navigation","trial_index":4,"time_elapsed":334308,"internal_node_id":"0.0-2.0-2.0"},{"group":"dicyclic group of order 12","room_assignment":["brown","purple","olive","red","orange","pink","ivory","green","cyan","yellow","grey","blue"],"door_color_assignment":["white","black"],"door_generator_assignment":[0,1],"goal":2,"start":10,"action_noise":0.15,"location_history":"[10,7,11,3,7,11,3,7,11,3,0,1,2]","action_history":"[0,1,1,1,1,1,1,1,1,0,0,0]","door_history":"[0,1,1,1,1,1,1,1,1,0,0,0]","location_rts":"[1376,974,2334,940,2547,986,1239,942,599,393,309,465]","trial_type":"two-door-navigation","trial_index":5,"time_elapsed":363395,"internal_node_id":"0.0-2.0-3.0"},{"group":"dicyclic group of order 12","room_assignment":["brown","purple","olive","red","orange","pink","ivory","green","cyan","yellow","grey","blue"],"door_color_assignment":["white","black"],"door_generator_assignment":[0,1],"goal":5,"start":2,"action_noise":0.15,"location_history":"[2,3,7,11,4,9,6,10,2,3,7,8,5]","action_history":"[0,1,1,0,0,0,1,1,1,1,1,0]","door_history":"[0,1,1,0,0,0,1,1,1,1,1,0]","location_rts":"[1312,852,700,1217,1358,5305,638,612,465,1034,962,763]","trial_type":"two-door-navigation","trial_index":6,"time_elapsed":394515,"internal_node_id":"0.0-2.0-4.0"},{"group":"dicyclic group of order 12","room_assignment":["brown","purple","olive","red","orange","pink","ivory","green","cyan","yellow","grey","blue"],"door_color_assignment":["white","black"],"door_generator_assignment":[0,1],"goal":11,"start":5,"action_noise":0.15,"location_history":"[5,10,2,6,10,7,8,0,1,2,6,11]","action_history":"[0,1,1,1,0,0,1,0,0,0,0]","door_history":"[0,1,1,1,0,0,1,0,0,0,0]","location_rts":"[1109,800,1030,611,786,4590,818,821,548,701,571]","trial_type":"two-door-navigation","trial_index":7,"time_elapsed":421693,"internal_node_id":"0.0-2.0-5.0"},{"group":"dicyclic group of order 12","room_assignment":["brown","purple","olive","red","orange","pink","ivory","green","cyan","yellow","grey","blue"],"door_color_assignment":["white","black"],"door_generator_assignment":[0,1],"goal":6,"start":11,"action_noise":0.15,"location_history":"[11,3,7,8,0,4,8,0,4,8,0,1,2,3,0,4,9,6]","action_history":"[1,1,0,1,1,1,1,1,1,1,0,0,0,0,0,0,0]","door_history":"[1,1,0,1,1,1,1,1,1,1,0,0,0,0,0,0,0]","location_rts":"[1565,512,813,2550,332,768,490,433,402,1023,424,378,353,676,745,784,790]","trial_type":"two-door-navigation","trial_index":8,"time_elapsed":455992,"internal_node_id":"0.0-2.0-6.0"},{"group":"dicyclic group of order 12","room_assignment":["brown","purple","olive","red","orange","pink","ivory","green","cyan","yellow","grey","blue"],"door_color_assignment":["white","black"],"door_generator_assignment":[0,1],"goal":3,"start":6,"action_noise":0.15,"location_history":"[6,11,4,9,6,10,7,11,3]","action_history":"[0,0,0,0,0,0,1,1]","door_history":"[0,0,0,0,0,0,1,1]","location_rts":"[5934,482,5030,774,656,447,343,1222]","trial_type":"two-door-navigation","trial_index":9,"time_elapsed":482751,"internal_node_id":"0.0-2.0-7.0"},{"group":"dicyclic group of order 12","room_assignment":["brown","purple","olive","red","orange","pink","ivory","green","cyan","yellow","grey","blue"],"door_color_assignment":["white","black"],"door_generator_assignment":[0,1],"goal":8,"start":3,"action_noise":0.15,"location_history":"[3,0,1,2,3,0,4,8]","action_history":"[0,1,1,0,0,0,1]","door_history":"[0,1,1,0,0,0,1]","location_rts":"[980,955,1176,821,865,1461,447]","trial_type":"two-door-navigation","trial_index":10,"time_elapsed":500365,"internal_node_id":"0.0-2.0-8.0"},{"group":"dicyclic group of order 12","room_assignment":["brown","purple","olive","red","orange","pink","ivory","green","cyan","yellow","grey","blue"],"door_color_assignment":["white","black"],"door_generator_assignment":[0,1],"goal":1,"start":8,"action_noise":0.15,"location_history":"[8,0,4,9,1]","action_history":"[0,1,0,1]","door_history":"[0,1,0,1]","location_rts":"[784,393,727,375]","trial_type":"two-door-navigation","trial_index":11,"time_elapsed":510344,"internal_node_id":"0.0-2.0-9.0"},{"group":"dicyclic group of order 12","room_assignment":["brown","purple","olive","red","orange","pink","ivory","green","cyan","yellow","grey","blue"],"door_color_assignment":["white","black"],"door_generator_assignment":[0,1],"goal":7,"start":1,"action_noise":0.15,"location_history":"[1,2,6,11,3,0,4,8,0,1,2,6,11,3,7]","action_history":"[0,1,0,1,0,1,0,1,0,0,1,0,1,0]","door_history":"[0,1,0,1,0,1,0,1,0,0,1,0,1,0]","location_rts":"[1187,306,673,325,477,967,180,276,149,611,567,52,186,101]","trial_type":"two-door-navigation","trial_index":12,"time_elapsed":534293,"internal_node_id":"0.0-2.0-10.0"},{"group":"dicyclic group of order 12","room_assignment":["brown","purple","olive","red","orange","pink","ivory","green","cyan","yellow","grey","blue"],"door_color_assignment":["white","black"],"door_generator_assignment":[0,1],"goal":5,"start":7,"action_noise":0.15,"location_history":"[7,8,5]","action_history":"[0,0]","door_history":"[0,0]","location_rts":"[1902,736]","trial_type":"two-door-navigation","trial_index":13,"time_elapsed":542464,"internal_node_id":"0.0-2.0-11.0"},{"group":"dicyclic group of order 12","room_assignment":["brown","purple","olive","red","orange","pink","ivory","green","cyan","yellow","grey","blue"],"door_color_assignment":["white","black"],"door_generator_assignment":[0,1],"goal":8,"start":5,"action_noise":0.15,"location_history":"[5,9,6,10,7,11,3,7,11,4,9,6,10,2,6,11,3,0,1,5,9,1,5,9,1,5,9,6,11,3,7,11,4,9,1,5,9,6,10,7,11,4,8]","action_history":"[1,0,0,0,0,1,1,1,0,0,0,1,1,1,0,1,0,0,1,1,0,1,1,1,1,0,0,0,1,1,1,0,0,1,1,1,0,1,0,0,1,1]","door_history":"[1,0,0,0,0,1,1,1,0,0,0,1,1,1,0,1,0,0,1,1,0,1,1,1,1,0,0,0,1,1,1,0,0,1,1,1,0,1,0,0,1,1]","location_rts":"[17570,996,1015,1185,2144,356,586,447,1325,1603,1031,521,1119,16102,894,1445,863,885,439,648,1856,832,968,898,1197,915,770,1129,1134,1385,1062,528,505,283,531,906,828,7405,685,854,1620,1288]","trial_type":"two-door-navigation","trial_index":14,"time_elapsed":668152,"internal_node_id":"0.0-2.0-12.0"},{"group":"dicyclic group of order 12","room_assignment":["brown","purple","olive","red","orange","pink","ivory","green","cyan","yellow","grey","blue"],"door_color_assignment":["white","black"],"door_generator_assignment":[0,1],"goal":11,"start":8,"action_noise":0.15,"location_history":"[8,5,9,6,11]","action_history":"[0,1,0,1]","door_history":"[0,1,0,1]","location_rts":"[12452,537,544,937]","trial_type":"two-door-navigation","trial_index":15,"time_elapsed":690242,"internal_node_id":"0.0-2.0-13.0"},{"group":"dicyclic group of order 12","room_assignment":["brown","purple","olive","red","orange","pink","ivory","green","cyan","yellow","grey","blue"],"door_color_assignment":["white","black"],"door_generator_assignment":[0,1],"goal":6,"start":11,"action_noise":0.15,"location_history":"[11,4,8,5,9,6]","action_history":"[0,1,0,1,0]","door_history":"[0,1,0,1,0]","location_rts":"[934,566,717,825,811]","trial_type":"two-door-navigation","trial_index":16,"time_elapsed":702682,"internal_node_id":"0.0-2.0-14.0"},{"group":"dicyclic group of order 12","room_assignment":["brown","purple","olive","red","orange","pink","ivory","green","cyan","yellow","grey","blue"],"door_color_assignment":["white","black"],"door_generator_assignment":[0,1],"goal":7,"start":6,"action_noise":0.15,"location_history":"[6,11,3,0,4,9,6,10,2,3,7]","action_history":"[0,1,0,1,1,0,1,0,0,1]","door_history":"[0,1,0,1,1,0,1,0,0,1]","location_rts":"[1548,289,50,51,678,323,4044,258,354,2904]","trial_type":"two-door-navigation","trial_index":17,"time_elapsed":727196,"internal_node_id":"0.0-2.0-15.0"},{"group":"dicyclic group of order 12","room_assignment":["brown","purple","olive","red","orange","pink","ivory","green","cyan","yellow","grey","blue"],"door_color_assignment":["white","black"],"door_generator_assignment":[0,1],"goal":10,"start":7,"action_noise":0.15,"location_history":"[7,8,5,9,6,10]","action_history":"[0,1,1,1,1]","door_history":"[0,1,1,1,1]","location_rts":"[7344,372,1169,1164,6389]","trial_type":"two-door-navigation","trial_index":18,"time_elapsed":752231,"internal_node_id":"0.0-2.0-16.0"},{"group":"dicyclic group of order 12","room_assignment":["brown","purple","olive","red","orange","pink","ivory","green","cyan","yellow","grey","blue"],"door_color_assignment":["white","black"],"door_generator_assignment":[0,1],"goal":0,"start":10,"action_noise":0.15,"location_history":"[10,7,8,0]","action_history":"[0,0,0]","door_history":"[0,0,0]","location_rts":"[1254,578,1566]","trial_type":"two-door-navigation","trial_index":19,"time_elapsed":762287,"internal_node_id":"0.0-2.0-17.0"},{"group":"dicyclic group of order 12","room_assignment":["brown","purple","olive","red","orange","pink","ivory","green","cyan","yellow","grey","blue"],"door_color_assignment":["white","black"],"door_generator_assignment":[0,1],"goal":9,"start":0,"action_noise":0.15,"location_history":"[0,1,5,10,7,11,4,9]","action_history":"[0,1,0,0,1,0,0]","door_history":"[0,1,0,0,1,0,0]","location_rts":"[4261,488,502,501,471,1043,1041]","trial_type":"two-door-navigation","trial_index":20,"time_elapsed":781440,"internal_node_id":"0.0-2.0-18.0"},{"group":"dicyclic group of order 12","room_assignment":["brown","purple","olive","red","orange","pink","ivory","green","cyan","yellow","grey","blue"],"door_color_assignment":["white","black"],"door_generator_assignment":[0,1],"goal":4,"start":9,"action_noise":0.15,"location_history":"[9,6,10,7,11,3,7,8,5,10,7,11,4]","action_history":"[0,1,0,1,1,0,0,0,0,0,1,1]","door_history":"[0,1,0,1,1,0,0,0,0,0,1,1]","location_rts":"[3166,722,3280,961,2803,808,533,1639,1013,394,526,965]","trial_type":"two-door-navigation","trial_index":21,"time_elapsed":814264,"internal_node_id":"0.0-2.0-19.0"},{"group":"dicyclic group of order 12","room_assignment":["brown","purple","olive","red","orange","pink","ivory","green","cyan","yellow","grey","blue"],"door_color_assignment":["white","black"],"door_generator_assignment":[0,1],"goal":2,"start":4,"action_noise":0.15,"location_history":"[4,9,6,10,2]","action_history":"[0,0,1,1]","door_history":"[0,0,1,1]","location_rts":"[1295,700,635,657]","trial_type":"two-door-navigation","trial_index":22,"time_elapsed":825155,"internal_node_id":"0.0-2.0-20.0"},{"group":"dicyclic group of order 12","room_assignment":["brown","purple","olive","red","orange","pink","ivory","green","cyan","yellow","grey","blue"],"door_color_assignment":["white","black"],"door_generator_assignment":[0,1],"goal":1,"start":2,"action_noise":0.15,"location_history":"[2,6,11,4,9,1]","action_history":"[1,0,0,0,1]","door_history":"[1,0,0,0,1]","location_rts":"[1298,3191,2309,1136,1203]","trial_type":"two-door-navigation","trial_index":23,"time_elapsed":842971,"internal_node_id":"0.0-2.0-21.0"},{"group":"dicyclic group of order 12","room_assignment":["brown","purple","olive","red","orange","pink","ivory","green","cyan","yellow","grey","blue"],"door_color_assignment":["white","black"],"door_generator_assignment":[0,1],"goal":3,"start":1,"action_noise":0.15,"location_history":"[1,2,6,10,2,3]","action_history":"[0,1,1,0,0]","door_history":"[0,1,1,0,0]","location_rts":"[646,286,194,195,164]","trial_type":"two-door-navigation","trial_index":24,"time_elapsed":853120,"internal_node_id":"0.0-2.0-22.0"},{"group":"dicyclic group of order 12","room_assignment":["brown","purple","olive","red","orange","pink","ivory","green","cyan","yellow","grey","blue"],"door_color_assignment":["white","black"],"door_generator_assignment":[0,1],"goal":7,"start":3,"action_noise":0.15,"location_history":"[3,0,4,9,6,10,7]","action_history":"[0,1,0,0,1,0]","door_history":"[0,1,0,0,1,0]","location_rts":"[2219,9719,191,454,3814,362]","trial_type":"two-door-navigation","trial_index":25,"time_elapsed":879634,"internal_node_id":"0.0-2.0-23.0"},{"group":"dicyclic group of order 12","room_assignment":["brown","purple","olive","red","orange","pink","ivory","green","cyan","yellow","grey","blue"],"door_color_assignment":["white","black"],"door_generator_assignment":[0,1],"goal":6,"start":7,"action_noise":0.15,"location_history":"[7,8,5,9,1,5,10,7,11,3,7,11,4,9,1,2,3,0,1,2,3,0,1,5,9,6]","action_history":"[0,0,1,1,1,0,0,1,1,1,0,0,0,1,1,1,0,0,0,0,0,1,1,1,1]","door_history":"[0,0,1,1,1,0,0,1,1,1,0,0,0,1,1,1,0,0,0,0,0,1,1,1,1]","location_rts":"[1032,719,642,383,491,1375,1941,580,101,582,417,461,236,352,717,1197,1239,1195,682,1043,231,396,291,280,461]","trial_type":"two-door-navigation","trial_index":26,"time_elapsed":926318,"internal_node_id":"0.0-2.0-24.0"},{"group":"dicyclic group of order 12","room_assignment":["brown","purple","olive","red","orange","pink","ivory","green","cyan","yellow","grey","blue"],"door_color_assignment":["white","black"],"door_generator_assignment":[0,1],"goal":2,"start":6,"action_noise":0.15,"location_history":"[6,11,4,9,1,5,10,7,8,5,10,2]","action_history":"[1,0,0,1,1,0,0,0,0,0,0]","door_history":"[1,0,0,1,1,0,0,0,0,0,0]","location_rts":"[892,420,111,225,281,464,449,1851,506,6037,447]","trial_type":"two-door-navigation","trial_index":27,"time_elapsed":953080,"internal_node_id":"0.0-2.0-25.0"},{"group":"dicyclic group of order 12","room_assignment":["brown","purple","olive","red","orange","pink","ivory","green","cyan","yellow","grey","blue"],"door_color_assignment":["white","black"],"door_generator_assignment":[0,1],"goal":8,"start":2,"action_noise":0.15,"location_history":"[2,6,10,7,11,3,7,8]","action_history":"[1,1,0,0,1,1,0]","door_history":"[1,1,0,0,1,1,0]","location_rts":"[1313,623,1444,388,687,410,493]","trial_type":"two-door-navigation","trial_index":28,"time_elapsed":969242,"internal_node_id":"0.0-2.0-26.0"},{"group":"dicyclic group of order 12","room_assignment":["brown","purple","olive","red","orange","pink","ivory","green","cyan","yellow","grey","blue"],"door_color_assignment":["white","black"],"door_generator_assignment":[0,1],"goal":0,"start":8,"action_noise":0.15,"location_history":"[8,5,9,6,10,7,11,4,8,5,10,7,8,0]","action_history":"[0,1,0,1,0,1,0,0,0,0,0,0,0]","door_history":"[0,1,0,1,0,1,0,0,0,0,0,0,0]","location_rts":"[921,329,265,649,827,1206,177,1025,515,509,885,432,710]","trial_type":"two-door-navigation","trial_index":29,"time_elapsed":994925,"internal_node_id":"0.0-2.0-27.0"},{"group":"dicyclic group of order 12","room_assignment":["brown","purple","olive","red","orange","pink","ivory","green","cyan","yellow","grey","blue"],"door_color_assignment":["white","black"],"door_generator_assignment":[0,1],"goal":3,"start":0,"action_noise":0.15,"location_history":"[0,4,9,1,5,10,2,6,10,2,3]","action_history":"[0,0,1,1,1,1,1,1,1,1]","door_history":"[0,0,1,1,1,1,1,1,1,1]","location_rts":"[6128,1435,407,663,389,3031,1543,422,433,681]","trial_type":"two-door-navigation","trial_index":30,"time_elapsed":1023846,"internal_node_id":"0.0-2.0-28.0"},{"group":"dicyclic group of order 12","room_assignment":["brown","purple","olive","red","orange","pink","ivory","green","cyan","yellow","grey","blue"],"door_color_assignment":["white","black"],"door_generator_assignment":[0,1],"goal":4,"start":3,"action_noise":0.15,"location_history":"[3,7,11,3,7,8,0,1,5,10,7,8,5,10,7,11,4]","action_history":"[0,1,1,1,0,0,0,1,0,0,1,1,0,0,1,0]","door_history":"[0,1,1,1,0,0,0,1,0,0,1,1,0,0,1,0]","location_rts":"[5170,573,385,1273,415,341,814,726,718,572,487,433,394,845,357,277]","trial_type":"two-door-navigation","trial_index":31,"time_elapsed":1058150,"internal_node_id":"0.0-2.0-29.0"},{"group":"dicyclic group of order 12","room_assignment":["brown","purple","olive","red","orange","pink","ivory","green","cyan","yellow","grey","blue"],"door_color_assignment":["white","black"],"door_generator_assignment":[0,1],"goal":10,"start":4,"action_noise":0.15,"location_history":"[4,9,1,5,10]","action_history":"[0,1,1,0]","door_history":"[0,1,1,0]","location_rts":"[540,396,459,342]","trial_type":"two-door-navigation","trial_index":32,"time_elapsed":1067463,"internal_node_id":"0.0-2.0-30.0"},{"group":"dicyclic group of order 12","room_assignment":["brown","purple","olive","red","orange","pink","ivory","green","cyan","yellow","grey","blue"],"door_color_assignment":["white","black"],"door_generator_assignment":[0,1],"goal":11,"start":10,"action_noise":0.15,"location_history":"[10,7,11]","action_history":"[0,1]","door_history":"[0,1]","location_rts":"[882,593]","trial_type":"two-door-navigation","trial_index":33,"time_elapsed":1074467,"internal_node_id":"0.0-2.0-31.0"},{"group":"dicyclic group of order 12","room_assignment":["brown","purple","olive","red","orange","pink","ivory","green","cyan","yellow","grey","blue"],"door_color_assignment":["white","black"],"door_generator_assignment":[0,1],"goal":1,"start":11,"action_noise":0.15,"location_history":"[11,4,9,1]","action_history":"[0,0,1]","door_history":"[0,0,1]","location_rts":"[848,335,371]","trial_type":"two-door-navigation","trial_index":34,"time_elapsed":1082590,"internal_node_id":"0.0-2.0-32.0"},{"group":"dicyclic group of order 12","room_assignment":["brown","purple","olive","red","orange","pink","ivory","green","cyan","yellow","grey","blue"],"door_color_assignment":["white","black"],"door_generator_assignment":[0,1],"goal":5,"start":1,"action_noise":0.15,"location_history":"[1,5]","action_history":"[0]","door_history":"[0]","location_rts":"[674]","trial_type":"two-door-navigation","trial_index":35,"time_elapsed":1087779,"internal_node_id":"0.0-2.0-33.0"},{"group":"dicyclic group of order 12","room_assignment":["brown","purple","olive","red","orange","pink","ivory","green","cyan","yellow","grey","blue"],"door_color_assignment":["white","black"],"door_generator_assignment":[0,1],"goal":9,"start":5,"action_noise":0.15,"location_history":"[5,9]","action_history":"[0]","door_history":"[0]","location_rts":"[1078]","trial_type":"two-door-navigation","trial_index":36,"time_elapsed":1093391,"internal_node_id":"0.0-2.0-34.0"},{"view_history":"[{\"page_index\":0,\"viewing_time\":3577}]","rt":3578,"trial_type":"instructions","trial_index":37,"time_elapsed":1097971,"internal_node_id":"0.0-3.0"},{"view_history":"[{\"page_index\":0,\"viewing_time\":1973},{\"page_index\":1,\"viewing_time\":41577}]","rt":43552,"trial_type":"instructions","trial_index":38,"time_elapsed":1142523,"internal_node_id":"0.0-4.0"},{"group":"dihedral group of order 12","fractal_assignment":["../images/wht_red.png","../images/grn_blu.png","../images/blu_wht.png","../images/grn_red.png","../images/cyn_red.png","../images/pnk_blu.png","../images/gry_blk.png","../images/ylw_pnk.png","../images/ylw_slt.png","../images/red_prp.png","../images/grn_prp.png","../images/org_blu.png"],"mutagen_generator_assignment":[1,0],"goal":4,"start":0,"action_noise":0.15,"location_history":"[0,6,0,1,7,1,2,3,4]","action_history":"[1,0,0,1,1,0,0,0]","mutagen_history":"[0,1,1,0,0,1,1,1]","location_rts":"[8643,22786,1143,169,1148,139,993,701]","trial_type":"fractal-mutation","trial_index":39,"time_elapsed":1190097,"internal_node_id":"0.0-5.0-0.0"},{"group":"dihedral group of order 12","fractal_assignment":["../images/wht_red.png","../images/grn_blu.png","../images/blu_wht.png","../images/grn_red.png","../images/cyn_red.png","../images/pnk_blu.png","../images/gry_blk.png","../images/ylw_pnk.png","../images/ylw_slt.png","../images/red_prp.png","../images/grn_prp.png","../images/org_blu.png"],"mutagen_generator_assignment":[1,0],"goal":9,"start":4,"action_noise":0.15,"location_history":"[4,10,4,10,4,10,9]","action_history":"[0,1,1,1,0,0]","mutagen_history":"[1,0,0,0,1,1]","location_rts":"[1435,629,1140,605,913,908]","trial_type":"fractal-mutation","trial_index":40,"time_elapsed":1205488,"internal_node_id":"0.0-5.0-1.0"},{"group":"dihedral group of order 12","fractal_assignment":["../images/wht_red.png","../images/grn_blu.png","../images/blu_wht.png","../images/grn_red.png","../images/cyn_red.png","../images/pnk_blu.png","../images/gry_blk.png","../images/ylw_pnk.png","../images/ylw_slt.png","../images/red_prp.png","../images/grn_prp.png","../images/org_blu.png"],"mutagen_generator_assignment":[1,0],"goal":10,"start":9,"action_noise":0.15,"location_history":"[9,8,7,1,7,1,7,6,0,1,2,8,2,3,9,3,9,8,7,6,0,6,0,1,7,6,0,1,7,6,0,1,7,6,11,10]","action_history":"[0,0,1,1,1,1,1,1,0,1,1,1,1,1,1,1,1,0,0,0,0,0,0,1,1,1,1,1,0,1,1,1,0,0,0]","mutagen_history":"[1,1,0,0,0,0,0,0,1,0,0,0,0,0,0,0,0,1,1,1,1,1,1,0,0,0,0,0,1,0,0,0,1,1,1]","location_rts":"[731,932,416,700,592,2365,814,1167,575,1798,887,4779,890,779,1030,775,498,424,313,378,527,424,428,571,394,448,426,472,257,258,477,858,479,1084,700]","trial_type":"fractal-mutation","trial_index":41,"time_elapsed":1274669,"internal_node_id":"0.0-5.0-2.0"},{"group":"dihedral group of order 12","fractal_assignment":["../images/wht_red.png","../images/grn_blu.png","../images/blu_wht.png","../images/grn_red.png","../images/cyn_red.png","../images/pnk_blu.png","../images/gry_blk.png","../images/ylw_pnk.png","../images/ylw_slt.png","../images/red_prp.png","../images/grn_prp.png","../images/org_blu.png"],"mutagen_generator_assignment":[1,0],"goal":2,"start":10,"action_noise":0.15,"location_history":"[10,4,10,9,8,7,1,7,1,7,6,0,1,2]","action_history":"[1,0,0,0,1,1,1,1,1,1,1,1,0]","mutagen_history":"[0,1,1,1,0,0,0,0,0,0,0,0,1]","location_rts":"[856,1067,552,582,299,284,902,749,546,393,553,440,716]","trial_type":"fractal-mutation","trial_index":42,"time_elapsed":1299762,"internal_node_id":"0.0-5.0-3.0"},{"group":"dihedral group of order 12","fractal_assignment":["../images/wht_red.png","../images/grn_blu.png","../images/blu_wht.png","../images/grn_red.png","../images/cyn_red.png","../images/pnk_blu.png","../images/gry_blk.png","../images/ylw_pnk.png","../images/ylw_slt.png","../images/red_prp.png","../images/grn_prp.png","../images/org_blu.png"],"mutagen_generator_assignment":[1,0],"goal":5,"start":2,"action_noise":0.15,"location_history":"[2,3,9,3,4,5]","action_history":"[0,1,1,0,0]","mutagen_history":"[1,0,0,1,1]","location_rts":"[386,357,579,302,1226]","trial_type":"fractal-mutation","trial_index":43,"time_elapsed":1311356,"internal_node_id":"0.0-5.0-4.0"},{"group":"dihedral group of order 12","fractal_assignment":["../images/wht_red.png","../images/grn_blu.png","../images/blu_wht.png","../images/grn_red.png","../images/cyn_red.png","../images/pnk_blu.png","../images/gry_blk.png","../images/ylw_pnk.png","../images/ylw_slt.png","../images/red_prp.png","../images/grn_prp.png","../images/org_blu.png"],"mutagen_generator_assignment":[1,0],"goal":11,"start":5,"action_noise":0.15,"location_history":"[5,11]","action_history":"[1]","mutagen_history":"[0]","location_rts":"[465]","trial_type":"fractal-mutation","trial_index":44,"time_elapsed":1316349,"internal_node_id":"0.0-5.0-5.0"},{"group":"dihedral group of order 12","fractal_assignment":["../images/wht_red.png","../images/grn_blu.png","../images/blu_wht.png","../images/grn_red.png","../images/cyn_red.png","../images/pnk_blu.png","../images/gry_blk.png","../images/ylw_pnk.png","../images/ylw_slt.png","../images/red_prp.png","../images/grn_prp.png","../images/org_blu.png"],"mutagen_generator_assignment":[1,0],"goal":6,"start":11,"action_noise":0.15,"location_history":"[11,10,4,10,4,10,4,10,4,10,4,10,4,5,0,1,2,3,4,5,11,5,11,5,11,5,11,10,9,3,9,3,9,3,9,8,2,8,2,3,4,10,9,3,9,3,4,5,11,5,11,5,11,5,11,5,0,6]","action_history":"[0,1,0,1,1,1,1,1,1,1,1,1,0,0,0,0,0,0,1,1,1,1,1,1,1,1,1,1,1,1,1,1,1,1,1,1,1,1,0,0,1,1,0,1,1,0,0,1,1,1,1,1,1,1,1,0,1]","mutagen_history":"[1,0,1,0,0,0,0,0,0,0,0,0,1,1,1,1,1,1,0,0,0,0,0,0,0,0,0,0,0,0,0,0,0,0,0,0,0,0,1,1,0,0,1,0,0,1,1,0,0,0,0,0,0,0,0,1,0]","location_rts":"[414,455,773,453,389,451,479,475,566,546,605,443,367,450,559,475,844,580,355,618,793,769,437,803,968,933,1044,488,1991,1082,3394,907,1244,458,817,434,780,489,407,408,383,995,447,380,515,402,498,211,410,578,403,463,392,423,909,548,406]","trial_type":"fractal-mutation","trial_index":45,"time_elapsed":1417340,"internal_node_id":"0.0-5.0-6.0"},{"group":"dihedral group of order 12","fractal_assignment":["../images/wht_red.png","../images/grn_blu.png","../images/blu_wht.png","../images/grn_red.png","../images/cyn_red.png","../images/pnk_blu.png","../images/gry_blk.png","../images/ylw_pnk.png","../images/ylw_slt.png","../images/red_prp.png","../images/grn_prp.png","../images/org_blu.png"],"mutagen_generator_assignment":[1,0],"goal":3,"start":6,"action_noise":0.15,"location_history":"[6,11,5,11,5,11,10,9,8,7,1,7,1,7,1,7,1,7,6,11,10,9,8,2,8,7,1,7,1,2,3]","action_history":"[0,1,1,0,0,0,0,0,0,1,1,1,1,1,1,1,1,0,0,0,0,0,1,1,0,1,1,1,0,0]","mutagen_history":"[1,0,0,1,1,1,1,1,1,0,0,0,0,0,0,0,0,1,1,1,1,1,0,0,1,0,0,0,1,1]","location_rts":"[654,240,241,401,159,589,1244,495,995,616,56,398,539,648,8837,535,254,621,282,511,322,410,405,3722,217,784,202,244,299,1639]","trial_type":"fractal-mutation","trial_index":46,"time_elapsed":1479073,"internal_node_id":"0.0-5.0-7.0"},{"group":"dihedral group of order 12","fractal_assignment":["../images/wht_red.png","../images/grn_blu.png","../images/blu_wht.png","../images/grn_red.png","../images/cyn_red.png","../images/pnk_blu.png","../images/gry_blk.png","../images/ylw_pnk.png","../images/ylw_slt.png","../images/red_prp.png","../images/grn_prp.png","../images/org_blu.png"],"mutagen_generator_assignment":[1,0],"goal":8,"start":3,"action_noise":0.15,"location_history":"[3,9,8]","action_history":"[0,0]","mutagen_history":"[1,1]","location_rts":"[4739,3423]","trial_type":"fractal-mutation","trial_index":47,"time_elapsed":1492842,"internal_node_id":"0.0-5.0-8.0"},{"group":"dihedral group of order 12","fractal_assignment":["../images/wht_red.png","../images/grn_blu.png","../images/blu_wht.png","../images/grn_red.png","../images/cyn_red.png","../images/pnk_blu.png","../images/gry_blk.png","../images/ylw_pnk.png","../images/ylw_slt.png","../images/red_prp.png","../images/grn_prp.png","../images/org_blu.png"],"mutagen_generator_assignment":[1,0],"goal":1,"start":8,"action_noise":0.15,"location_history":"[8,2,3,9,8,2,3,4,10,9,3,9,8,2,8,2,8,7,6,11,5,0,6,0,1]","action_history":"[1,0,0,0,1,0,0,0,0,1,1,1,1,1,1,1,0,0,0,0,0,1,1,1]","mutagen_history":"[0,1,1,1,0,1,1,1,1,0,0,0,0,0,0,0,1,1,1,1,1,0,0,0]","location_rts":"[981,330,142,801,11026,372,559,155,146,151,53,149,156,264,62,161,422,124,206,2637,1971,322,669,386]","trial_type":"fractal-mutation","trial_index":48,"time_elapsed":1544149,"internal_node_id":"0.0-5.0-9.0"},{"group":"dihedral group of order 12","fractal_assignment":["../images/wht_red.png","../images/grn_blu.png","../images/blu_wht.png","../images/grn_red.png","../images/cyn_red.png","../images/pnk_blu.png","../images/gry_blk.png","../images/ylw_pnk.png","../images/ylw_slt.png","../images/red_prp.png","../images/grn_prp.png","../images/org_blu.png"],"mutagen_generator_assignment":[1,0],"goal":7,"start":1,"action_noise":0.15,"location_history":"[1,7]","action_history":"[1]","mutagen_history":"[0]","location_rts":"[616]","trial_type":"fractal-mutation","trial_index":49,"time_elapsed":1549405,"internal_node_id":"0.0-5.0-10.0"},{"group":"dihedral group of order 12","fractal_assignment":["../images/wht_red.png","../images/grn_blu.png","../images/blu_wht.png","../images/grn_red.png","../images/cyn_red.png","../images/pnk_blu.png","../images/gry_blk.png","../images/ylw_pnk.png","../images/ylw_slt.png","../images/red_prp.png","../images/grn_prp.png","../images/org_blu.png"],"mutagen_generator_assignment":[1,0],"goal":5,"start":7,"action_noise":0.15,"location_history":"[7,1,7,6,11,5]","action_history":"[1,0,0,0,1]","mutagen_history":"[0,1,1,1,0]","location_rts":"[317,245,214,143,353]","trial_type":"fractal-mutation","trial_index":50,"time_elapsed":1559490,"internal_node_id":"0.0-5.0-11.0"},{"group":"dihedral group of order 12","fractal_assignment":["../images/wht_red.png","../images/grn_blu.png","../images/blu_wht.png","../images/grn_red.png","../images/cyn_red.png","../images/pnk_blu.png","../images/gry_blk.png","../images/ylw_pnk.png","../images/ylw_slt.png","../images/red_prp.png","../images/grn_prp.png","../images/org_blu.png"],"mutagen_generator_assignment":[1,0],"goal":8,"start":5,"action_noise":0.15,"location_history":"[5,0,1,2,3,4,5,11,5,0,6,11,10,9,8]","action_history":"[0,1,0,0,0,0,1,1,1,1,0,1,0,0]","mutagen_history":"[1,0,1,1,1,1,0,0,0,0,1,0,1,1]","location_rts":"[867,2933,605,239,3885,193,266,1038,319,237,160,81,1822,1145]","trial_type":"fractal-mutation","trial_index":51,"time_elapsed":1591453,"internal_node_id":"0.0-5.0-12.0"},{"group":"dihedral group of order 12","fractal_assignment":["../images/wht_red.png","../images/grn_blu.png","../images/blu_wht.png","../images/grn_red.png","../images/cyn_red.png","../images/pnk_blu.png","../images/gry_blk.png","../images/ylw_pnk.png","../images/ylw_slt.png","../images/red_prp.png","../images/grn_prp.png","../images/org_blu.png"],"mutagen_generator_assignment":[1,0],"goal":11,"start":8,"action_noise":0.15,"location_history":"[8,7,6,11]","action_history":"[0,0,0]","mutagen_history":"[1,1,1]","location_rts":"[461,2219,805]","trial_type":"fractal-mutation","trial_index":52,"time_elapsed":1601705,"internal_node_id":"0.0-5.0-13.0"},{"group":"dihedral group of order 12","fractal_assignment":["../images/wht_red.png","../images/grn_blu.png","../images/blu_wht.png","../images/grn_red.png","../images/cyn_red.png","../images/pnk_blu.png","../images/gry_blk.png","../images/ylw_pnk.png","../images/ylw_slt.png","../images/red_prp.png","../images/grn_prp.png","../images/org_blu.png"],"mutagen_generator_assignment":[1,0],"goal":6,"start":11,"action_noise":0.15,"location_history":"[11,5,11,10,4,5,0,1,2,8,2,3,9,8,7,6]","action_history":"[1,1,1,1,0,0,0,0,1,1,1,1,0,0,0]","mutagen_history":"[0,0,0,0,1,1,1,1,0,0,0,0,1,1,1]","location_rts":"[332,346,234,738,770,927,286,500,206,51,271,386,112,386,158]","trial_type":"fractal-mutation","trial_index":53,"time_elapsed":1626978,"internal_node_id":"0.0-5.0-14.0"},{"group":"dihedral group of order 12","fractal_assignment":["../images/wht_red.png","../images/grn_blu.png","../images/blu_wht.png","../images/grn_red.png","../images/cyn_red.png","../images/pnk_blu.png","../images/gry_blk.png","../images/ylw_pnk.png","../images/ylw_slt.png","../images/red_prp.png","../images/grn_prp.png","../images/org_blu.png"],"mutagen_generator_assignment":[1,0],"goal":7,"start":6,"action_noise":0.15,"location_history":"[6,0,1,7]","action_history":"[1,0,0]","mutagen_history":"[0,1,1]","location_rts":"[260,499,243]","trial_type":"fractal-mutation","trial_index":54,"time_elapsed":1634721,"internal_node_id":"0.0-5.0-15.0"},{"group":"dihedral group of order 12","fractal_assignment":["../images/wht_red.png","../images/grn_blu.png","../images/blu_wht.png","../images/grn_red.png","../images/cyn_red.png","../images/pnk_blu.png","../images/gry_blk.png","../images/ylw_pnk.png","../images/ylw_slt.png","../images/red_prp.png","../images/grn_prp.png","../images/org_blu.png"],"mutagen_generator_assignment":[1,0],"goal":10,"start":7,"action_noise":0.15,"location_history":"[7,6,0,6,0,6,11,10]","action_history":"[0,1,1,1,1,0,0]","mutagen_history":"[1,0,0,0,0,1,1]","location_rts":"[521,475,642,255,370,260,357]","trial_type":"fractal-mutation","trial_index":55,"time_elapsed":1648503,"internal_node_id":"0.0-5.0-16.0"},{"group":"dihedral group of order 12","fractal_assignment":["../images/wht_red.png","../images/grn_blu.png","../images/blu_wht.png","../images/grn_red.png","../images/cyn_red.png","../images/pnk_blu.png","../images/gry_blk.png","../images/ylw_pnk.png","../images/ylw_slt.png","../images/red_prp.png","../images/grn_prp.png","../images/org_blu.png"],"mutagen_generator_assignment":[1,0],"goal":0,"start":10,"action_noise":0.15,"location_history":"[10,4,10,4,10,4,5,11,10,4,10,4,5,0]","action_history":"[1,1,1,1,1,0,0,0,1,1,0,0,1]","mutagen_history":"[0,0,0,0,0,1,1,1,0,0,1,1,0]","location_rts":"[1455,530,353,402,347,331,430,962,952,1151,351,731,909]","trial_type":"fractal-mutation","trial_index":56,"time_elapsed":1674685,"internal_node_id":"0.0-5.0-17.0"},{"group":"dihedral group of order 12","fractal_assignment":["../images/wht_red.png","../images/grn_blu.png","../images/blu_wht.png","../images/grn_red.png","../images/cyn_red.png","../images/pnk_blu.png","../images/gry_blk.png","../images/ylw_pnk.png","../images/ylw_slt.png","../images/red_prp.png","../images/grn_prp.png","../images/org_blu.png"],"mutagen_generator_assignment":[1,0],"goal":9,"start":0,"action_noise":0.15,"location_history":"[0,1,7,1,2,8,2,8,7,1,7,1,2,8,7,1,2,8,7,6,11,10,9]","action_history":"[0,1,1,0,1,1,1,1,1,1,1,0,1,1,1,0,1,0,0,0,0,0]","mutagen_history":"[1,0,0,1,0,0,0,0,0,0,0,1,0,0,0,1,0,1,1,1,1,1]","location_rts":"[1731,301,190,400,1089,377,418,515,477,733,1752,975,366,403,818,539,986,495,772,660,1272,494]","trial_type":"fractal-mutation","trial_index":57,"time_elapsed":1717051,"internal_node_id":"0.0-5.0-18.0"},{"group":"dihedral group of order 12","fractal_assignment":["../images/wht_red.png","../images/grn_blu.png","../images/blu_wht.png","../images/grn_red.png","../images/cyn_red.png","../images/pnk_blu.png","../images/gry_blk.png","../images/ylw_pnk.png","../images/ylw_slt.png","../images/red_prp.png","../images/grn_prp.png","../images/org_blu.png"],"mutagen_generator_assignment":[1,0],"goal":4,"start":9,"action_noise":0.15,"location_history":"[9,3,9,3,4]","action_history":"[1,1,0,0]","mutagen_history":"[0,0,1,1]","location_rts":"[430,618,772,583]","trial_type":"fractal-mutation","trial_index":58,"time_elapsed":1727195,"internal_node_id":"0.0-5.0-19.0"},{"group":"dihedral group of order 12","fractal_assignment":["../images/wht_red.png","../images/grn_blu.png","../images/blu_wht.png","../images/grn_red.png","../images/cyn_red.png","../images/pnk_blu.png","../images/gry_blk.png","../images/ylw_pnk.png","../images/ylw_slt.png","../images/red_prp.png","../images/grn_prp.png","../images/org_blu.png"],"mutagen_generator_assignment":[1,0],"goal":2,"start":4,"action_noise":0.15,"location_history":"[4,10,4,10,9,3,9,3,4,5,11,5,11,10,9,3,4,10,9,8,7,6,0,1,2]","action_history":"[1,1,1,0,0,1,1,0,0,0,1,1,0,0,0,0,1,0,0,0,0,1,1,0]","mutagen_history":"[0,0,0,1,1,0,0,1,1,1,0,0,1,1,1,1,0,1,1,1,1,0,0,1]","location_rts":"[1282,476,518,209,943,385,422,1005,393,557,849,495,613,330,384,568,623,4544,4419,437,608,344,450,740]","trial_type":"fractal-mutation","trial_index":59,"time_elapsed":1777436,"internal_node_id":"0.0-5.0-20.0"},{"group":"dihedral group of order 12","fractal_assignment":["../images/wht_red.png","../images/grn_blu.png","../images/blu_wht.png","../images/grn_red.png","../images/cyn_red.png","../images/pnk_blu.png","../images/gry_blk.png","../images/ylw_pnk.png","../images/ylw_slt.png","../images/red_prp.png","../images/grn_prp.png","../images/org_blu.png"],"mutagen_generator_assignment":[1,0],"goal":1,"start":2,"action_noise":0.15,"location_history":"[2,8,7,6,0,6,11,10,9,8,2,8,7,6,11,10,4,5,11,5,0,6,0,1]","action_history":"[1,0,0,1,1,0,0,0,0,1,1,0,0,0,0,1,1,1,1,0,1,1,0]","mutagen_history":"[0,1,1,0,0,1,1,1,1,0,0,1,1,1,1,0,0,0,0,1,0,0,1]","location_rts":"[336,238,810,197,126,293,724,487,471,858,517,433,284,390,737,986,605,603,541,830,13008,506,305]","trial_type":"fractal-mutation","trial_index":60,"time_elapsed":1829364,"internal_node_id":"0.0-5.0-21.0"},{"group":"dihedral group of order 12","fractal_assignment":["../images/wht_red.png","../images/grn_blu.png","../images/blu_wht.png","../images/grn_red.png","../images/cyn_red.png","../images/pnk_blu.png","../images/gry_blk.png","../images/ylw_pnk.png","../images/ylw_slt.png","../images/red_prp.png","../images/grn_prp.png","../images/org_blu.png"],"mutagen_generator_assignment":[1,0],"goal":3,"start":1,"action_noise":0.15,"location_history":"[1,2,3]","action_history":"[0,0]","mutagen_history":"[1,1]","location_rts":"[626,385]","trial_type":"fractal-mutation","trial_index":61,"time_elapsed":1836095,"internal_node_id":"0.0-5.0-22.0"},{"group":"dihedral group of order 12","fractal_assignment":["../images/wht_red.png","../images/grn_blu.png","../images/blu_wht.png","../images/grn_red.png","../images/cyn_red.png","../images/pnk_blu.png","../images/gry_blk.png","../images/ylw_pnk.png","../images/ylw_slt.png","../images/red_prp.png","../images/grn_prp.png","../images/org_blu.png"],"mutagen_generator_assignment":[1,0],"goal":7,"start":3,"action_noise":0.15,"location_history":"[3,9,3,4,5,11,10,9,8,2,8,7]","action_history":"[1,1,0,0,1,1,0,0,1,1,0]","mutagen_history":"[0,0,1,1,0,0,1,1,0,0,1]","location_rts":"[516,1075,757,320,1034,261,455,561,8127,371,3723]","trial_type":"fractal-mutation","trial_index":62,"time_elapsed":1868408,"internal_node_id":"0.0-5.0-23.0"},{"group":"dihedral group of order 12","fractal_assignment":["../images/wht_red.png","../images/grn_blu.png","../images/blu_wht.png","../images/grn_red.png","../images/cyn_red.png","../images/pnk_blu.png","../images/gry_blk.png","../images/ylw_pnk.png","../images/ylw_slt.png","../images/red_prp.png","../images/grn_prp.png","../images/org_blu.png"],"mutagen_generator_assignment":[1,0],"goal":6,"start":7,"action_noise":0.15,"location_history":"[7,1,7,1,7,6]","action_history":"[0,1,1,1,1]","mutagen_history":"[1,0,0,0,0]","location_rts":"[445,484,523,410,491]","trial_type":"fractal-mutation","trial_index":63,"time_elapsed":1879750,"internal_node_id":"0.0-5.0-24.0"},{"group":"dihedral group of order 12","fractal_assignment":["../images/wht_red.png","../images/grn_blu.png","../images/blu_wht.png","../images/grn_red.png","../images/cyn_red.png","../images/pnk_blu.png","../images/gry_blk.png","../images/ylw_pnk.png","../images/ylw_slt.png","../images/red_prp.png","../images/grn_prp.png","../images/org_blu.png"],"mutagen_generator_assignment":[1,0],"goal":2,"start":6,"action_noise":0.15,"location_history":"[6,11,10,9,8,2]","action_history":"[1,0,0,0,1]","mutagen_history":"[0,1,1,1,0]","location_rts":"[333,214,161,1033,404]","trial_type":"fractal-mutation","trial_index":64,"time_elapsed":1890695,"internal_node_id":"0.0-5.0-25.0"},{"group":"dihedral group of order 12","fractal_assignment":["../images/wht_red.png","../images/grn_blu.png","../images/blu_wht.png","../images/grn_red.png","../images/cyn_red.png","../images/pnk_blu.png","../images/gry_blk.png","../images/ylw_pnk.png","../images/ylw_slt.png","../images/red_prp.png","../images/grn_prp.png","../images/org_blu.png"],"mutagen_generator_assignment":[1,0],"goal":8,"start":2,"action_noise":0.15,"location_history":"[2,8]","action_history":"[1]","mutagen_history":"[0]","location_rts":"[595]","trial_type":"fractal-mutation","trial_index":65,"time_elapsed":1895829,"internal_node_id":"0.0-5.0-26.0"},{"group":"dihedral group of order 12","fractal_assignment":["../images/wht_red.png","../images/grn_blu.png","../images/blu_wht.png","../images/grn_red.png","../images/cyn_red.png","../images/pnk_blu.png","../images/gry_blk.png","../images/ylw_pnk.png","../images/ylw_slt.png","../images/red_prp.png","../images/grn_prp.png","../images/org_blu.png"],"mutagen_generator_assignment":[1,0],"goal":0,"start":8,"action_noise":0.15,"location_history":"[8,2,3,4,5,0]","action_history":"[1,0,1,0,0]","mutagen_history":"[0,1,0,1,1]","location_rts":"[332,446,800,451,466]","trial_type":"fractal-mutation","trial_index":66,"time_elapsed":1907366,"internal_node_id":"0.0-5.0-27.0"},{"group":"dihedral group of order 12","fractal_assignment":["../images/wht_red.png","../images/grn_blu.png","../images/blu_wht.png","../images/grn_red.png","../images/cyn_red.png","../images/pnk_blu.png","../images/gry_blk.png","../images/ylw_pnk.png","../images/ylw_slt.png","../images/red_prp.png","../images/grn_prp.png","../images/org_blu.png"],"mutagen_generator_assignment":[1,0],"goal":3,"start":0,"action_noise":0.15,"location_history":"[0,6,11,10,9,8,7,6,0,1,2,3]","action_history":"[1,0,0,0,0,0,0,0,0,0,0]","mutagen_history":"[0,1,1,1,1,1,1,1,1,1,1]","location_rts":"[1222,486,620,1560,452,567,439,493,459,553,725]","trial_type":"fractal-mutation","trial_index":67,"time_elapsed":1929857,"internal_node_id":"0.0-5.0-28.0"},{"group":"dihedral group of order 12","fractal_assignment":["../images/wht_red.png","../images/grn_blu.png","../images/blu_wht.png","../images/grn_red.png","../images/cyn_red.png","../images/pnk_blu.png","../images/gry_blk.png","../images/ylw_pnk.png","../images/ylw_slt.png","../images/red_prp.png","../images/grn_prp.png","../images/org_blu.png"],"mutagen_generator_assignment":[1,0],"goal":4,"start":3,"action_noise":0.15,"location_history":"[3,4]","action_history":"[0]","mutagen_history":"[1]","location_rts":"[872]","trial_type":"fractal-mutation","trial_index":68,"time_elapsed":1935368,"internal_node_id":"0.0-5.0-29.0"},{"group":"dihedral group of order 12","fractal_assignment":["../images/wht_red.png","../images/grn_blu.png","../images/blu_wht.png","../images/grn_red.png","../images/cyn_red.png","../images/pnk_blu.png","../images/gry_blk.png","../images/ylw_pnk.png","../images/ylw_slt.png","../images/red_prp.png","../images/grn_prp.png","../images/org_blu.png"],"mutagen_generator_assignment":[1,0],"goal":10,"start":4,"action_noise":0.15,"location_history":"[4,5,11,10]","action_history":"[0,1,0]","mutagen_history":"[1,0,1]","location_rts":"[833,433,486]","trial_type":"fractal-mutation","trial_index":69,"time_elapsed":1943911,"internal_node_id":"0.0-5.0-30.0"},{"group":"dihedral group of order 12","fractal_assignment":["../images/wht_red.png","../images/grn_blu.png","../images/blu_wht.png","../images/grn_red.png","../images/cyn_red.png","../images/pnk_blu.png","../images/gry_blk.png","../images/ylw_pnk.png","../images/ylw_slt.png","../images/red_prp.png","../images/grn_prp.png","../images/org_blu.png"],"mutagen_generator_assignment":[1,0],"goal":11,"start":10,"action_noise":0.15,"location_history":"[10,4,10,9,8,2,3,4,10,4,10,9,3,4,5,0,1,2,3,4,10,9,8,2,8,7,6,0,6,0,6,11]","action_history":"[1,1,0,0,1,0,0,1,1,0,0,0,0,0,0,0,0,0,0,0,0,0,1,0,0,0,1,1,1,1,1]","mutagen_history":"[0,0,1,1,0,1,1,0,0,1,1,1,1,1,1,1,1,1,1,1,1,1,0,1,1,1,0,0,0,0,0]","location_rts":"[1599,145,1735,323,424,330,150,7073,546,311,1043,3068,497,5177,900,3681,3983,3794,1121,1587,3179,4539,397,796,248,1318,198,124,146,826,686]","trial_type":"fractal-mutation","trial_index":70,"time_elapsed":2030130,"internal_node_id":"0.0-5.0-31.0"},{"group":"dihedral group of order 12","fractal_assignment":["../images/wht_red.png","../images/grn_blu.png","../images/blu_wht.png","../images/grn_red.png","../images/cyn_red.png","../images/pnk_blu.png","../images/gry_blk.png","../images/ylw_pnk.png","../images/ylw_slt.png","../images/red_prp.png","../images/grn_prp.png","../images/org_blu.png"],"mutagen_generator_assignment":[1,0],"goal":1,"start":11,"action_noise":0.15,"location_history":"[11,5,0,1]","action_history":"[1,0,0]","mutagen_history":"[0,1,1]","location_rts":"[433,349,509]","trial_type":"fractal-mutation","trial_index":71,"time_elapsed":2038042,"internal_node_id":"0.0-5.0-32.0"},{"group":"dihedral group of order 12","fractal_assignment":["../images/wht_red.png","../images/grn_blu.png","../images/blu_wht.png","../images/grn_red.png","../images/cyn_red.png","../images/pnk_blu.png","../images/gry_blk.png","../images/ylw_pnk.png","../images/ylw_slt.png","../images/red_prp.png","../images/grn_prp.png","../images/org_blu.png"],"mutagen_generator_assignment":[1,0],"goal":5,"start":1,"action_noise":0.15,"location_history":"[1,7,1,7,6,11,5]","action_history":"[0,1,1,0,0,1]","mutagen_history":"[1,0,0,1,1,0]","location_rts":"[304,163,148,177,434,112]","trial_type":"fractal-mutation","trial_index":72,"time_elapsed":2049270,"internal_node_id":"0.0-5.0-33.0"},{"group":"dihedral group of order 12","fractal_assignment":["../images/wht_red.png","../images/grn_blu.png","../images/blu_wht.png","../images/grn_red.png","../images/cyn_red.png","../images/pnk_blu.png","../images/gry_blk.png","../images/ylw_pnk.png","../images/ylw_slt.png","../images/red_prp.png","../images/grn_prp.png","../images/org_blu.png"],"mutagen_generator_assignment":[1,0],"goal":9,"start":5,"action_noise":0.15,"location_history":"[5,0,1,2,8,2,3,4,5,11,5,0,6,0,6,0,6,0,6,0,6,11,10,9]","action_history":"[1,0,0,1,1,0,0,0,1,1,0,1,1,1,1,1,1,1,1,1,0,0,0]","mutagen_history":"[0,1,1,0,0,1,1,1,0,0,1,0,0,0,0,0,0,0,0,0,1,1,1]","location_rts":"[333,123,202,150,234,47,262,329,330,197,117,267,300,348,230,1869,4550,2490,2418,530,438,179,3961]","trial_type":"fractal-mutation","trial_index":73,"time_elapsed":2097080,"internal_node_id":"0.0-5.0-34.0"},{"view_history":"[{\"page_index\":0,\"viewing_time\":17719}]","rt":17720,"trial_type":"instructions","trial_index":74,"time_elapsed":2115800,"internal_node_id":"0.0-6.0"},{"rt":1582,"responses":"{\"Q0\":\"\"}","trial_type":"survey-text","trial_index":75,"time_elapsed":2118388,"internal_node_id":"0.0-7.0"}]