[{"view_history":"[{\"page_index\":0,\"viewing_time\":15805},{\"page_index\":1,\"viewing_time\":17356},{\"page_index\":2,\"viewing_time\":17727},{\"page_index\":3,\"viewing_time\":224904}]","rt":275793,"trial_type":"instructions","trial_index":0,"time_elapsed":275794,"internal_node_id":"0.0-0.0"},{"view_history":"[{\"page_index\":0,\"viewing_time\":2316},{\"page_index\":1,\"viewing_time\":43953}]","rt":46270,"trial_type":"instructions","trial_index":1,"time_elapsed":323065,"internal_node_id":"0.0-1.0"},{"group":"dicyclic group of order 12","room_assignment":["brown","pink","cyan","red","grey","yellow","ivory","purple","olive","orange","blue","green"],"door_color_assignment":["black","white"],"door_generator_assignment":[1,0],"goal":4,"start":0,"action_noise":0.15,"location_history":"[0,1,2,3,0,4]","action_history":"[0,0,0,0,0]","door_history":"[1,1,1,1,1]","location_rts":"[4730,2145,1531,746,946]","trial_type":"two-door-navigation","trial_index":2,"time_elapsed":341781,"internal_node_id":"0.0-2.0-0.0"},{"group":"dicyclic group of order 12","room_assignment":["brown","pink","cyan","red","grey","yellow","ivory","purple","olive","orange","blue","green"],"door_color_assignment":["black","white"],"door_generator_assignment":[1,0],"goal":9,"start":4,"action_noise":0.15,"location_history":"[4,8,5,9]","action_history":"[1,1,1]","door_history":"[0,0,0]","location_rts":"[3415,754,794]","trial_type":"two-door-navigation","trial_index":3,"time_elapsed":353314,"internal_node_id":"0.0-2.0-1.0"},{"group":"dicyclic group of order 12","room_assignment":["brown","pink","cyan","red","grey","yellow","ivory","purple","olive","orange","blue","green"],"door_color_assignment":["black","white"],"door_generator_assignment":[1,0],"goal":10,"start":9,"action_noise":0.15,"location_history":"[9,6,10]","action_history":"[0,1]","door_history":"[1,0]","location_rts":"[3130,1019]","trial_type":"two-door-navigation","trial_index":4,"time_elapsed":363012,"internal_node_id":"0.0-2.0-2.0"},{"group":"dicyclic group of order 12","room_assignment":["brown","pink","cyan","red","grey","yellow","ivory","purple","olive","orange","blue","green"],"door_color_assignment":["black","white"],"door_generator_assignment":[1,0],"goal":2,"start":10,"action_noise":0.15,"location_history":"[10,7,8,5,10,2]","action_history":"[1,1,0,0,0]","door_history":"[0,0,1,1,1]","location_rts":"[2299,1675,1067,731,891]","trial_type":"two-door-navigation","trial_index":5,"time_elapsed":378283,"internal_node_id":"0.0-2.0-3.0"},{"group":"dicyclic group of order 12","room_assignment":["brown","pink","cyan","red","grey","yellow","ivory","purple","olive","orange","blue","green"],"door_color_assignment":["black","white"],"door_generator_assignment":[1,0],"goal":5,"start":2,"action_noise":0.15,"location_history":"[2,3,7,11,4,9,1,2,3,7,11,3,7,11,3,7,11,4,9,6,11,4,9,1,2,6,10,7,11,4,8,5]","action_history":"[0,1,0,0,0,0,0,0,1,1,1,1,1,1,1,1,0,0,0,0,0,0,0,0,0,1,0,1,0,1,0]","door_history":"[1,0,1,1,1,1,1,1,0,0,0,0,0,0,0,0,1,1,1,1,1,1,1,1,1,0,1,0,1,0,1]","location_rts":"[2588,1354,899,812,1115,660,499,369,866,403,451,427,683,428,490,421,547,284,331,331,477,307,267,516,603,203,467,427,435,516,1075]","trial_type":"two-door-navigation","trial_index":6,"time_elapsed":432682,"internal_node_id":"0.0-2.0-4.0"},{"group":"dicyclic group of order 12","room_assignment":["brown","pink","cyan","red","grey","yellow","ivory","purple","olive","orange","blue","green"],"door_color_assignment":["black","white"],"door_generator_assignment":[1,0],"goal":11,"start":5,"action_noise":0.15,"location_history":"[5,9,1,5,9,1,2,3,0,4,8,0,4,9,1,2,6,10,2,6,10,2,6,10,2,6,10,7,11]","action_history":"[1,1,1,1,1,0,1,0,1,0,1,0,0,1,0,1,1,1,1,1,1,1,1,1,1,1,0,0]","door_history":"[0,0,0,0,0,1,0,1,0,1,0,1,1,0,1,0,0,0,0,0,0,0,0,0,0,0,1,1]","location_rts":"[1555,460,1050,1315,524,549,716,515,612,387,907,467,427,723,835,675,483,442,408,354,362,307,274,274,274,275,475,323]","trial_type":"two-door-navigation","trial_index":7,"time_elapsed":480743,"internal_node_id":"0.0-2.0-5.0"},{"group":"dicyclic group of order 12","room_assignment":["brown","pink","cyan","red","grey","yellow","ivory","purple","olive","orange","blue","green"],"door_color_assignment":["black","white"],"door_generator_assignment":[1,0],"goal":6,"start":11,"action_noise":0.15,"location_history":"[11,4,9,1,5,9,1,5,9,6]","action_history":"[0,0,1,1,1,1,1,0,0]","door_history":"[1,1,0,0,0,0,0,1,1]","location_rts":"[2797,522,698,291,323,395,451,883,411]","trial_type":"two-door-navigation","trial_index":8,"time_elapsed":500210,"internal_node_id":"0.0-2.0-6.0"},{"group":"dicyclic group of order 12","room_assignment":["brown","pink","cyan","red","grey","yellow","ivory","purple","olive","orange","blue","green"],"door_color_assignment":["black","white"],"door_generator_assignment":[1,0],"goal":3,"start":6,"action_noise":0.15,"location_history":"[6,11,4,8,0,4,9,1,2,6,10,2,6,10,2,3]","action_history":"[0,0,1,1,1,0,1,0,1,0,1,0,1,1,0]","door_history":"[1,1,0,0,0,1,0,1,0,1,0,1,0,0,1]","location_rts":"[1723,796,627,307,3243,844,931,843,1244,794,851,723,683,676,595]","trial_type":"two-door-navigation","trial_index":9,"time_elapsed":533903,"internal_node_id":"0.0-2.0-7.0"},{"group":"dicyclic group of order 12","room_assignment":["brown","pink","cyan","red","grey","yellow","ivory","purple","olive","orange","blue","green"],"door_color_assignment":["black","white"],"door_generator_assignment":[1,0],"goal":8,"start":3,"action_noise":0.15,"location_history":"[3,0,1,2,6,10,2,6,10,7,11,4,8]","action_history":"[0,0,0,1,1,1,1,1,0,1,0,1]","door_history":"[1,1,1,0,0,0,0,0,1,0,1,0]","location_rts":"[1524,1604,348,711,275,451,387,315,907,483,739,747]","trial_type":"two-door-navigation","trial_index":10,"time_elapsed":558145,"internal_node_id":"0.0-2.0-8.0"},{"group":"dicyclic group of order 12","room_assignment":["brown","pink","cyan","red","grey","yellow","ivory","purple","olive","orange","blue","green"],"door_color_assignment":["black","white"],"door_generator_assignment":[1,0],"goal":1,"start":8,"action_noise":0.15,"location_history":"[8,0,1]","action_history":"[1,0]","door_history":"[0,1]","location_rts":"[731,627]","trial_type":"two-door-navigation","trial_index":11,"time_elapsed":565050,"internal_node_id":"0.0-2.0-9.0"},{"group":"dicyclic group of order 12","room_assignment":["brown","pink","cyan","red","grey","yellow","ivory","purple","olive","orange","blue","green"],"door_color_assignment":["black","white"],"door_generator_assignment":[1,0],"goal":7,"start":1,"action_noise":0.15,"location_history":"[1,5,10,2,3,7]","action_history":"[1,0,1,0,1]","door_history":"[0,1,0,1,0]","location_rts":"[1147,428,1220,730,763]","trial_type":"two-door-navigation","trial_index":12,"time_elapsed":577945,"internal_node_id":"0.0-2.0-10.0"},{"group":"dicyclic group of order 12","room_assignment":["brown","pink","cyan","red","grey","yellow","ivory","purple","olive","orange","blue","green"],"door_color_assignment":["black","white"],"door_generator_assignment":[1,0],"goal":5,"start":7,"action_noise":0.15,"location_history":"[7,11,4,8,5]","action_history":"[1,0,1,0]","door_history":"[0,1,0,1]","location_rts":"[563,419,356,484]","trial_type":"two-door-navigation","trial_index":13,"time_elapsed":587351,"internal_node_id":"0.0-2.0-11.0"},{"group":"dicyclic group of order 12","room_assignment":["brown","pink","cyan","red","grey","yellow","ivory","purple","olive","orange","blue","green"],"door_color_assignment":["black","white"],"door_generator_assignment":[1,0],"goal":8,"start":5,"action_noise":0.15,"location_history":"[5,9,6,10,7,11,3,7,11,3,0,4,9,1,2,3,7,8]","action_history":"[1,0,1,0,1,0,1,0,1,0,1,0,1,0,0,0,0]","door_history":"[0,1,0,1,0,1,0,1,0,1,0,1,0,1,1,1,1]","location_rts":"[957,196,395,195,290,386,428,691,372,422,754,356,666,466,275,403,323]","trial_type":"two-door-navigation","trial_index":14,"time_elapsed":615786,"internal_node_id":"0.0-2.0-12.0"},{"group":"dicyclic group of order 12","room_assignment":["brown","pink","cyan","red","grey","yellow","ivory","purple","olive","orange","blue","green"],"door_color_assignment":["black","white"],"door_generator_assignment":[1,0],"goal":11,"start":8,"action_noise":0.15,"location_history":"[8,5,9,6,10,7,11]","action_history":"[0,1,0,1,0,1]","door_history":"[1,0,1,0,1,0]","location_rts":"[1739,1315,699,741,946,451]","trial_type":"two-door-navigation","trial_index":15,"time_elapsed":631304,"internal_node_id":"0.0-2.0-13.0"},{"group":"dicyclic group of order 12","room_assignment":["brown","pink","cyan","red","grey","yellow","ivory","purple","olive","orange","blue","green"],"door_color_assignment":["black","white"],"door_generator_assignment":[1,0],"goal":6,"start":11,"action_noise":0.15,"location_history":"[11,4,9,1,2,3,0,1,5,9,1,2,6]","action_history":"[1,0,1,0,1,0,0,1,0,1,0,1]","door_history":"[0,1,0,1,0,1,1,0,1,0,1,0]","location_rts":"[452,780,626,571,451,779,429,594,386,314,428,388]","trial_type":"two-door-navigation","trial_index":16,"time_elapsed":653253,"internal_node_id":"0.0-2.0-14.0"},{"group":"dicyclic group of order 12","room_assignment":["brown","pink","cyan","red","grey","yellow","ivory","purple","olive","orange","blue","green"],"door_color_assignment":["black","white"],"door_generator_assignment":[1,0],"goal":7,"start":6,"action_noise":0.15,"location_history":"[6,11,3,0,4,9,1,2,6,11,3,7]","action_history":"[0,1,0,1,0,1,0,1,0,1,0]","door_history":"[1,0,1,0,1,0,1,0,1,0,1]","location_rts":"[582,307,540,444,459,259,275,452,340,299,436]","trial_type":"two-door-navigation","trial_index":17,"time_elapsed":672377,"internal_node_id":"0.0-2.0-15.0"},{"group":"dicyclic group of order 12","room_assignment":["brown","pink","cyan","red","grey","yellow","ivory","purple","olive","orange","blue","green"],"door_color_assignment":["black","white"],"door_generator_assignment":[1,0],"goal":10,"start":7,"action_noise":0.15,"location_history":"[7,11,4,8,5,9,1,5,9,1,2,3,7,11,4,9,1,2,6,10]","action_history":"[1,0,1,0,1,1,1,1,1,0,0,1,1,0,0,1,0,1,0]","door_history":"[0,1,0,1,0,0,0,0,0,1,1,0,0,1,1,0,1,0,1]","location_rts":"[796,1291,714,587,539,595,267,299,402,299,444,401,635,475,323,700,387,284,300]","trial_type":"two-door-navigation","trial_index":18,"time_elapsed":705015,"internal_node_id":"0.0-2.0-16.0"},{"group":"dicyclic group of order 12","room_assignment":["brown","pink","cyan","red","grey","yellow","ivory","purple","olive","orange","blue","green"],"door_color_assignment":["black","white"],"door_generator_assignment":[1,0],"goal":0,"start":10,"action_noise":0.15,"location_history":"[10,7,11,4,8,5,9,6,11,4,9,6,11,3,7,11,3,0]","action_history":"[0,1,0,1,0,0,0,0,0,0,0,1,1,1,1,1,1]","door_history":"[1,0,1,0,1,1,1,1,1,1,1,0,0,0,0,0,0]","location_rts":"[1635,794,939,787,723,691,436,627,516,434,331,827,284,347,731,395,267]","trial_type":"two-door-navigation","trial_index":19,"time_elapsed":736641,"internal_node_id":"0.0-2.0-17.0"},{"group":"dicyclic group of order 12","room_assignment":["brown","pink","cyan","red","grey","yellow","ivory","purple","olive","orange","blue","green"],"door_color_assignment":["black","white"],"door_generator_assignment":[1,0],"goal":9,"start":0,"action_noise":0.15,"location_history":"[0,1,2,3,7,11,4,9]","action_history":"[0,0,0,1,1,0,1]","door_history":"[1,1,1,0,0,1,0]","location_rts":"[2163,611,428,420,387,476,283]","trial_type":"two-door-navigation","trial_index":20,"time_elapsed":752055,"internal_node_id":"0.0-2.0-18.0"},{"group":"dicyclic group of order 12","room_assignment":["brown","pink","cyan","red","grey","yellow","ivory","purple","olive","orange","blue","green"],"door_color_assignment":["black","white"],"door_generator_assignment":[1,0],"goal":4,"start":9,"action_noise":0.15,"location_history":"[9,6,11,3,7,11,4]","action_history":"[0,0,1,1,0,0]","door_history":"[1,1,0,0,1,1]","location_rts":"[1108,379,875,379,612,371]","trial_type":"two-door-navigation","trial_index":21,"time_elapsed":765406,"internal_node_id":"0.0-2.0-19.0"},{"group":"dicyclic group of order 12","room_assignment":["brown","pink","cyan","red","grey","yellow","ivory","purple","olive","orange","blue","green"],"door_color_assignment":["black","white"],"door_generator_assignment":[1,0],"goal":2,"start":4,"action_noise":0.15,"location_history":"[4,8,0,4,9,6,11,3,0,4,8,0,1,2]","action_history":"[1,1,1,0,0,0,1,0,1,0,1,0,0]","door_history":"[0,0,0,1,1,1,0,1,0,1,0,1,1]","location_rts":"[869,962,435,554,323,307,947,355,299,373,282,364,570]","trial_type":"two-door-navigation","trial_index":22,"time_elapsed":788824,"internal_node_id":"0.0-2.0-20.0"},{"group":"dicyclic group of order 12","room_assignment":["brown","pink","cyan","red","grey","yellow","ivory","purple","olive","orange","blue","green"],"door_color_assignment":["black","white"],"door_generator_assignment":[1,0],"goal":1,"start":2,"action_noise":0.15,"location_history":"[2,3,0,4,9,6,11,4,8,0,1]","action_history":"[0,0,0,0,0,0,0,0,0,0]","door_history":"[1,1,1,1,1,1,1,1,1,1]","location_rts":"[1323,419,243,251,347,307,412,379,332,331]","trial_type":"two-door-navigation","trial_index":23,"time_elapsed":806879,"internal_node_id":"0.0-2.0-21.0"},{"group":"dicyclic group of order 12","room_assignment":["brown","pink","cyan","red","grey","yellow","ivory","purple","olive","orange","blue","green"],"door_color_assignment":["black","white"],"door_generator_assignment":[1,0],"goal":3,"start":1,"action_noise":0.15,"location_history":"[1,2,6,11,3]","action_history":"[0,1,0,0]","door_history":"[1,0,1,1]","location_rts":"[2195,3003,1115,1211]","trial_type":"two-door-navigation","trial_index":24,"time_elapsed":821989,"internal_node_id":"0.0-2.0-22.0"},{"group":"dicyclic group of order 12","room_assignment":["brown","pink","cyan","red","grey","yellow","ivory","purple","olive","orange","blue","green"],"door_color_assignment":["black","white"],"door_generator_assignment":[1,0],"goal":7,"start":3,"action_noise":0.15,"location_history":"[3,7]","action_history":"[1]","door_history":"[0]","location_rts":"[2909]","trial_type":"two-door-navigation","trial_index":25,"time_elapsed":829422,"internal_node_id":"0.0-2.0-23.0"},{"group":"dicyclic group of order 12","room_assignment":["brown","pink","cyan","red","grey","yellow","ivory","purple","olive","orange","blue","green"],"door_color_assignment":["black","white"],"door_generator_assignment":[1,0],"goal":6,"start":7,"action_noise":0.15,"location_history":"[7,8,5,10,2,6]","action_history":"[0,0,0,1,1]","door_history":"[1,1,1,0,0]","location_rts":"[2243,996,540,1237,411]","trial_type":"two-door-navigation","trial_index":26,"time_elapsed":843455,"internal_node_id":"0.0-2.0-24.0"},{"group":"dicyclic group of order 12","room_assignment":["brown","pink","cyan","red","grey","yellow","ivory","purple","olive","orange","blue","green"],"door_color_assignment":["black","white"],"door_generator_assignment":[1,0],"goal":2,"start":6,"action_noise":0.15,"location_history":"[6,11,3,7,11,3,0,1,2]","action_history":"[0,1,1,1,0,0,0,0]","door_history":"[1,0,0,0,1,1,1,1]","location_rts":"[1756,1132,554,515,412,444,451,666]","trial_type":"two-door-navigation","trial_index":27,"time_elapsed":861056,"internal_node_id":"0.0-2.0-25.0"},{"group":"dicyclic group of order 12","room_assignment":["brown","pink","cyan","red","grey","yellow","ivory","purple","olive","orange","blue","green"],"door_color_assignment":["black","white"],"door_generator_assignment":[1,0],"goal":8,"start":2,"action_noise":0.15,"location_history":"[2,3,7,11,3,0,4,9,1,5,9,1,5,9,6,10,2,3,0,4,9,6,10,7,8]","action_history":"[0,1,1,1,0,0,1,1,1,1,0,1,1,1,1,1,0,0,0,0,0,0,0,0]","door_history":"[1,0,0,0,1,1,0,0,0,0,1,0,0,0,0,0,1,1,1,1,1,1,1,1]","location_rts":"[1003,1226,755,1123,866,682,964,386,475,370,387,667,347,467,771,443,562,403,572,649,379,402,459,498]","trial_type":"two-door-navigation","trial_index":28,"time_elapsed":903927,"internal_node_id":"0.0-2.0-26.0"},{"group":"dicyclic group of order 12","room_assignment":["brown","pink","cyan","red","grey","yellow","ivory","purple","olive","orange","blue","green"],"door_color_assignment":["black","white"],"door_generator_assignment":[1,0],"goal":0,"start":8,"action_noise":0.15,"location_history":"[8,5,9,1,2,6,10,7,8,5,9,1,5,10,7,8,5,9,6,11,4,9,6,11,4,9,6,10,2,6,10,7,8,0]","action_history":"[0,1,1,1,0,1,0,0,0,1,1,1,0,1,0,1,0,0,0,0,0,0,0,0,0,0,1,1,1,0,1,0,1]","door_history":"[1,0,0,0,1,0,1,1,1,0,0,0,1,0,1,0,1,1,1,1,1,1,1,1,1,1,0,0,0,1,0,1,0]","location_rts":"[2547,747,908,892,995,739,619,635,891,827,2490,1267,473,458,379,595,410,1106,524,386,435,827,420,404,546,931,890,404,482,747,515,579,317]","trial_type":"two-door-navigation","trial_index":29,"time_elapsed":966511,"internal_node_id":"0.0-2.0-27.0"},{"group":"dicyclic group of order 12","room_assignment":["brown","pink","cyan","red","grey","yellow","ivory","purple","olive","orange","blue","green"],"door_color_assignment":["black","white"],"door_generator_assignment":[1,0],"goal":3,"start":0,"action_noise":0.15,"location_history":"[0,1,2,6,11,4,9,6,10,2,6,10,2,6,10,7,8,0,1,5,10,2,3]","action_history":"[0,0,1,0,0,0,0,1,1,1,1,1,1,1,0,0,1,0,1,0,1,0]","door_history":"[1,1,0,1,1,1,1,0,0,0,0,0,0,0,1,1,0,1,0,1,0,1]","location_rts":"[2451,828,1492,722,411,323,459,571,380,395,368,492,347,380,395,522,348,325,323,340,587,562]","trial_type":"two-door-navigation","trial_index":30,"time_elapsed":1005493,"internal_node_id":"0.0-2.0-28.0"},{"group":"dicyclic group of order 12","room_assignment":["brown","pink","cyan","red","grey","yellow","ivory","purple","olive","orange","blue","green"],"door_color_assignment":["black","white"],"door_generator_assignment":[1,0],"goal":4,"start":3,"action_noise":0.15,"location_history":"[3,0,1,2,3,7,11,4]","action_history":"[0,0,0,0,0,1,0]","door_history":"[1,1,1,1,1,0,1]","location_rts":"[3932,563,954,706,402,260,644]","trial_type":"two-door-navigation","trial_index":31,"time_elapsed":1023607,"internal_node_id":"0.0-2.0-29.0"},{"group":"dicyclic group of order 12","room_assignment":["brown","pink","cyan","red","grey","yellow","ivory","purple","olive","orange","blue","green"],"door_color_assignment":["black","white"],"door_generator_assignment":[1,0],"goal":10,"start":4,"action_noise":0.15,"location_history":"[4,9,6,11,4,8,5,9,1,2,3,7,8,5,10]","action_history":"[0,0,0,0,1,1,1,0,0,0,1,1,0,0]","door_history":"[1,1,1,1,0,0,0,1,1,1,0,0,1,1]","location_rts":"[1516,378,467,522,963,483,1379,882,356,861,285,467,291,411]","trial_type":"two-door-navigation","trial_index":32,"time_elapsed":1050661,"internal_node_id":"0.0-2.0-30.0"},{"group":"dicyclic group of order 12","room_assignment":["brown","pink","cyan","red","grey","yellow","ivory","purple","olive","orange","blue","green"],"door_color_assignment":["black","white"],"door_generator_assignment":[1,0],"goal":11,"start":10,"action_noise":0.15,"location_history":"[10,7,8,0,4,8,0,1,5,9,6,11]","action_history":"[1,0,0,1,1,1,0,0,1,0,0]","door_history":"[0,1,1,0,0,0,1,1,0,1,1]","location_rts":"[8716,402,1202,908,467,379,492,380,244,331,755]","trial_type":"two-door-navigation","trial_index":33,"time_elapsed":1079668,"internal_node_id":"0.0-2.0-31.0"},{"group":"dicyclic group of order 12","room_assignment":["brown","pink","cyan","red","grey","yellow","ivory","purple","olive","orange","blue","green"],"door_color_assignment":["black","white"],"door_generator_assignment":[1,0],"goal":1,"start":11,"action_noise":0.15,"location_history":"[11,4,8,5,10,2,3,7,8,5,10,7,8,5,9,6,10,2,6,10,7,11,4,8,5,9,6,10,7,11,3,0,1]","action_history":"[0,1,0,0,1,0,1,0,0,0,0,0,0,1,1,1,1,1,1,1,1,0,1,0,1,0,1,0,1,1,0,0]","door_history":"[1,0,1,1,0,1,0,1,1,1,1,1,1,0,0,0,0,0,0,0,0,1,0,1,0,1,0,1,0,0,1,1]","location_rts":"[1734,850,755,827,572,555,379,364,787,667,428,691,436,365,411,275,507,307,387,451,1204,338,427,482,324,309,269,453,291,379,221,308]","trial_type":"two-door-navigation","trial_index":34,"time_elapsed":1132579,"internal_node_id":"0.0-2.0-32.0"},{"group":"dicyclic group of order 12","room_assignment":["brown","pink","cyan","red","grey","yellow","ivory","purple","olive","orange","blue","green"],"door_color_assignment":["black","white"],"door_generator_assignment":[1,0],"goal":5,"start":1,"action_noise":0.15,"location_history":"[1,2,3,0,1,2,3,0,4,8,5]","action_history":"[0,1,0,0,0,0,0,1,1,1]","door_history":"[1,0,1,1,1,1,1,0,0,0]","location_rts":"[8770,1471,643,611,379,331,394,317,330,275]","trial_type":"two-door-navigation","trial_index":35,"time_elapsed":1159813,"internal_node_id":"0.0-2.0-33.0"},{"group":"dicyclic group of order 12","room_assignment":["brown","pink","cyan","red","grey","yellow","ivory","purple","olive","orange","blue","green"],"door_color_assignment":["black","white"],"door_generator_assignment":[1,0],"goal":9,"start":5,"action_noise":0.15,"location_history":"[5,10,7,8,0,4,8,0,1,2,3,0,1,5,9]","action_history":"[0,0,0,1,1,1,1,0,0,0,0,0,1,1]","door_history":"[1,1,1,0,0,0,0,1,1,1,1,1,0,0]","location_rts":"[3404,705,347,1507,954,304,283,1562,379,267,435,628,570,299]","trial_type":"two-door-navigation","trial_index":36,"time_elapsed":1189260,"internal_node_id":"0.0-2.0-34.0"},{"view_history":"[{\"page_index\":0,\"viewing_time\":4532}]","rt":4532,"trial_type":"instructions","trial_index":37,"time_elapsed":1194793,"internal_node_id":"0.0-3.0"},{"view_history":"[{\"page_index\":0,\"viewing_time\":3046},{\"page_index\":1,\"viewing_time\":39625}]","rt":42671,"trial_type":"instructions","trial_index":38,"time_elapsed":1238465,"internal_node_id":"0.0-4.0"},{"group":"dicyclic group of order 12","fractal_assignment":["../images/blu_wht.png","../images/grn_red.png","../images/grn_prp.png","../images/red_prp.png","../images/cyn_red.png","../images/pnk_blu.png","../images/ylw_slt.png","../images/wht_red.png","../images/ylw_pnk.png","../images/org_blu.png","../images/grn_blu.png","../images/gry_blk.png"],"mutagen_generator_assignment":[1,0],"goal":4,"start":0,"action_noise":0.15,"location_history":"[0,4]","action_history":"[1]","mutagen_history":"[0]","location_rts":"[6307]","trial_type":"fractal-mutation","trial_index":39,"time_elapsed":1249307,"internal_node_id":"0.0-5.0-0.0"},{"group":"dicyclic group of order 12","fractal_assignment":["../images/blu_wht.png","../images/grn_red.png","../images/grn_prp.png","../images/red_prp.png","../images/cyn_red.png","../images/pnk_blu.png","../images/ylw_slt.png","../images/wht_red.png","../images/ylw_pnk.png","../images/org_blu.png","../images/grn_blu.png","../images/gry_blk.png"],"mutagen_generator_assignment":[1,0],"goal":9,"start":4,"action_noise":0.15,"location_history":"[4,8,0,1,2,3,7,8,5,10,7,11,4,8,5,9]","action_history":"[0,1,0,0,0,0,0,0,1,0,1,0,1,1,1]","mutagen_history":"[1,0,1,1,1,1,1,1,0,1,0,1,0,0,0]","location_rts":"[1544,11390,1313,905,1054,683,696,313,548,1575,630,1294,644,618,1177]","trial_type":"fractal-mutation","trial_index":40,"time_elapsed":1294637,"internal_node_id":"0.0-5.0-1.0"},{"group":"dicyclic group of order 12","fractal_assignment":["../images/blu_wht.png","../images/grn_red.png","../images/grn_prp.png","../images/red_prp.png","../images/cyn_red.png","../images/pnk_blu.png","../images/ylw_slt.png","../images/wht_red.png","../images/ylw_pnk.png","../images/org_blu.png","../images/grn_blu.png","../images/gry_blk.png"],"mutagen_generator_assignment":[1,0],"goal":10,"start":9,"action_noise":0.15,"location_history":"[9,6,11,3,7,11,4,8,0,1,2,3,7,11,4,9,6,11,4,8,0,1,5,10]","action_history":"[0,0,1,1,1,0,1,0,0,0,0,1,1,0,0,0,0,0,1,1,1,1,1]","mutagen_history":"[1,1,0,0,0,1,0,1,1,1,1,0,0,1,1,1,1,1,0,0,0,0,0]","location_rts":"[1535,782,665,508,683,1396,1095,716,725,641,1040,517,854,706,746,452,487,605,1006,621,450,638,792]","trial_type":"fractal-mutation","trial_index":41,"time_elapsed":1342329,"internal_node_id":"0.0-5.0-2.0"},{"group":"dicyclic group of order 12","fractal_assignment":["../images/blu_wht.png","../images/grn_red.png","../images/grn_prp.png","../images/red_prp.png","../images/cyn_red.png","../images/pnk_blu.png","../images/ylw_slt.png","../images/wht_red.png","../images/ylw_pnk.png","../images/org_blu.png","../images/grn_blu.png","../images/gry_blk.png"],"mutagen_generator_assignment":[1,0],"goal":2,"start":10,"action_noise":0.15,"location_history":"[10,7,11,4,9,1,5,10,2]","action_history":"[0,1,0,1,1,1,0,1]","mutagen_history":"[1,0,1,0,0,0,1,0]","location_rts":"[1876,932,910,755,922,662,585,1075]","trial_type":"fractal-mutation","trial_index":42,"time_elapsed":1362653,"internal_node_id":"0.0-5.0-3.0"},{"group":"dicyclic group of order 12","fractal_assignment":["../images/blu_wht.png","../images/grn_red.png","../images/grn_prp.png","../images/red_prp.png","../images/cyn_red.png","../images/pnk_blu.png","../images/ylw_slt.png","../images/wht_red.png","../images/ylw_pnk.png","../images/org_blu.png","../images/grn_blu.png","../images/gry_blk.png"],"mutagen_generator_assignment":[1,0],"goal":5,"start":2,"action_noise":0.15,"location_history":"[2,6,10,2,3,7,11,4,9,6,11,4,8,0,4,9,1,5]","action_history":"[0,1,1,0,1,1,0,0,0,0,0,1,1,1,0,1,1]","mutagen_history":"[1,0,0,1,0,0,1,1,1,1,1,0,0,0,1,0,0]","location_rts":"[2021,542,1057,983,742,964,542,825,846,613,1349,613,568,776,433,771,678]","trial_type":"fractal-mutation","trial_index":43,"time_elapsed":1400004,"internal_node_id":"0.0-5.0-4.0"},{"group":"dicyclic group of order 12","fractal_assignment":["../images/blu_wht.png","../images/grn_red.png","../images/grn_prp.png","../images/red_prp.png","../images/cyn_red.png","../images/pnk_blu.png","../images/ylw_slt.png","../images/wht_red.png","../images/ylw_pnk.png","../images/org_blu.png","../images/grn_blu.png","../images/gry_blk.png"],"mutagen_generator_assignment":[1,0],"goal":11,"start":5,"action_noise":0.15,"location_history":"[5,10,7,11]","action_history":"[0,0,1]","mutagen_history":"[1,1,0]","location_rts":"[2273,778,545]","trial_type":"fractal-mutation","trial_index":44,"time_elapsed":1410585,"internal_node_id":"0.0-5.0-5.0"},{"group":"dicyclic group of order 12","fractal_assignment":["../images/blu_wht.png","../images/grn_red.png","../images/grn_prp.png","../images/red_prp.png","../images/cyn_red.png","../images/pnk_blu.png","../images/ylw_slt.png","../images/wht_red.png","../images/ylw_pnk.png","../images/org_blu.png","../images/grn_blu.png","../images/gry_blk.png"],"mutagen_generator_assignment":[1,0],"goal":6,"start":11,"action_noise":0.15,"location_history":"[11,3,7,8,5,10,7,11,4,8,0,4,8,5,10,2,6]","action_history":"[0,1,0,0,0,1,1,0,1,1,1,1,1,1,1,1]","mutagen_history":"[1,0,1,1,1,0,0,1,0,0,0,0,0,0,0,0]","location_rts":"[1315,1090,729,618,1450,955,656,1090,699,655,534,441,496,1041,534,1230]","trial_type":"fractal-mutation","trial_index":45,"time_elapsed":1445786,"internal_node_id":"0.0-5.0-6.0"},{"group":"dicyclic group of order 12","fractal_assignment":["../images/blu_wht.png","../images/grn_red.png","../images/grn_prp.png","../images/red_prp.png","../images/cyn_red.png","../images/pnk_blu.png","../images/ylw_slt.png","../images/wht_red.png","../images/ylw_pnk.png","../images/org_blu.png","../images/grn_blu.png","../images/gry_blk.png"],"mutagen_generator_assignment":[1,0],"goal":3,"start":6,"action_noise":0.15,"location_history":"[6,11,4,9,6,11,4,8,0,1,2,3]","action_history":"[0,0,0,0,0,0,1,1,0,0,0]","mutagen_history":"[1,1,1,1,1,1,0,0,1,1,1]","location_rts":"[3897,465,493,500,742,445,907,788,503,820,835]","trial_type":"fractal-mutation","trial_index":46,"time_elapsed":1472516,"internal_node_id":"0.0-5.0-7.0"},{"group":"dicyclic group of order 12","fractal_assignment":["../images/blu_wht.png","../images/grn_red.png","../images/grn_prp.png","../images/red_prp.png","../images/cyn_red.png","../images/pnk_blu.png","../images/ylw_slt.png","../images/wht_red.png","../images/ylw_pnk.png","../images/org_blu.png","../images/grn_blu.png","../images/gry_blk.png"],"mutagen_generator_assignment":[1,0],"goal":8,"start":3,"action_noise":0.15,"location_history":"[3,0,4,9,6,10,2,6,10,7,11,3,7,11,3,7,11,3,0,4,8]","action_history":"[0,1,0,0,1,1,1,1,0,1,1,1,0,1,1,1,1,1,1,1]","mutagen_history":"[1,0,1,1,0,0,0,0,1,0,0,0,1,0,0,0,0,0,0,0]","location_rts":"[1775,590,540,562,592,592,582,624,466,801,982,1546,711,488,1060,687,624,467,718,565]","trial_type":"fractal-mutation","trial_index":47,"time_elapsed":1513571,"internal_node_id":"0.0-5.0-8.0"},{"group":"dicyclic group of order 12","fractal_assignment":["../images/blu_wht.png","../images/grn_red.png","../images/grn_prp.png","../images/red_prp.png","../images/cyn_red.png","../images/pnk_blu.png","../images/ylw_slt.png","../images/wht_red.png","../images/ylw_pnk.png","../images/org_blu.png","../images/grn_blu.png","../images/gry_blk.png"],"mutagen_generator_assignment":[1,0],"goal":1,"start":8,"action_noise":0.15,"location_history":"[8,0,1]","action_history":"[1,0]","mutagen_history":"[0,1]","location_rts":"[2065,385]","trial_type":"fractal-mutation","trial_index":48,"time_elapsed":1521740,"internal_node_id":"0.0-5.0-9.0"},{"group":"dicyclic group of order 12","fractal_assignment":["../images/blu_wht.png","../images/grn_red.png","../images/grn_prp.png","../images/red_prp.png","../images/cyn_red.png","../images/pnk_blu.png","../images/ylw_slt.png","../images/wht_red.png","../images/ylw_pnk.png","../images/org_blu.png","../images/grn_blu.png","../images/gry_blk.png"],"mutagen_generator_assignment":[1,0],"goal":7,"start":1,"action_noise":0.15,"location_history":"[1,5,10,2,3,0,1,2,6,10,7]","action_history":"[1,0,1,1,0,0,0,1,1,0]","mutagen_history":"[0,1,0,0,1,1,1,0,0,1]","location_rts":"[1863,1010,527,601,582,859,687,862,1027,719]","trial_type":"fractal-mutation","trial_index":49,"time_elapsed":1545379,"internal_node_id":"0.0-5.0-10.0"},{"group":"dicyclic group of order 12","fractal_assignment":["../images/blu_wht.png","../images/grn_red.png","../images/grn_prp.png","../images/red_prp.png","../images/cyn_red.png","../images/pnk_blu.png","../images/ylw_slt.png","../images/wht_red.png","../images/ylw_pnk.png","../images/org_blu.png","../images/grn_blu.png","../images/gry_blk.png"],"mutagen_generator_assignment":[1,0],"goal":5,"start":7,"action_noise":0.15,"location_history":"[7,11,3,7,8,5]","action_history":"[1,1,1,0,0]","mutagen_history":"[0,0,0,1,1]","location_rts":"[1919,754,650,1130,845]","trial_type":"fractal-mutation","trial_index":50,"time_elapsed":1559575,"internal_node_id":"0.0-5.0-11.0"},{"group":"dicyclic group of order 12","fractal_assignment":["../images/blu_wht.png","../images/grn_red.png","../images/grn_prp.png","../images/red_prp.png","../images/cyn_red.png","../images/pnk_blu.png","../images/ylw_slt.png","../images/wht_red.png","../images/ylw_pnk.png","../images/org_blu.png","../images/grn_blu.png","../images/gry_blk.png"],"mutagen_generator_assignment":[1,0],"goal":8,"start":5,"action_noise":0.15,"location_history":"[5,10,7,8]","action_history":"[1,0,0]","mutagen_history":"[0,1,1]","location_rts":"[1483,473,428]","trial_type":"fractal-mutation","trial_index":51,"time_elapsed":1568860,"internal_node_id":"0.0-5.0-12.0"},{"group":"dicyclic group of order 12","fractal_assignment":["../images/blu_wht.png","../images/grn_red.png","../images/grn_prp.png","../images/red_prp.png","../images/cyn_red.png","../images/pnk_blu.png","../images/ylw_slt.png","../images/wht_red.png","../images/ylw_pnk.png","../images/org_blu.png","../images/grn_blu.png","../images/gry_blk.png"],"mutagen_generator_assignment":[1,0],"goal":11,"start":8,"action_noise":0.15,"location_history":"[8,5,10,2,3,7,11]","action_history":"[1,0,1,0,1,1]","mutagen_history":"[0,1,0,1,0,0]","location_rts":"[832,2291,647,762,823,1378]","trial_type":"fractal-mutation","trial_index":52,"time_elapsed":1585824,"internal_node_id":"0.0-5.0-13.0"},{"group":"dicyclic group of order 12","fractal_assignment":["../images/blu_wht.png","../images/grn_red.png","../images/grn_prp.png","../images/red_prp.png","../images/cyn_red.png","../images/pnk_blu.png","../images/ylw_slt.png","../images/wht_red.png","../images/ylw_pnk.png","../images/org_blu.png","../images/grn_blu.png","../images/gry_blk.png"],"mutagen_generator_assignment":[1,0],"goal":6,"start":11,"action_noise":0.15,"location_history":"[11,4,9,6]","action_history":"[0,0,1]","mutagen_history":"[1,1,0]","location_rts":"[939,532,868]","trial_type":"fractal-mutation","trial_index":53,"time_elapsed":1595161,"internal_node_id":"0.0-5.0-14.0"},{"group":"dicyclic group of order 12","fractal_assignment":["../images/blu_wht.png","../images/grn_red.png","../images/grn_prp.png","../images/red_prp.png","../images/cyn_red.png","../images/pnk_blu.png","../images/ylw_slt.png","../images/wht_red.png","../images/ylw_pnk.png","../images/org_blu.png","../images/grn_blu.png","../images/gry_blk.png"],"mutagen_generator_assignment":[1,0],"goal":7,"start":6,"action_noise":0.15,"location_history":"[6,10,7]","action_history":"[1,0]","mutagen_history":"[0,1]","location_rts":"[1225,817]","trial_type":"fractal-mutation","trial_index":54,"time_elapsed":1602922,"internal_node_id":"0.0-5.0-15.0"},{"group":"dicyclic group of order 12","fractal_assignment":["../images/blu_wht.png","../images/grn_red.png","../images/grn_prp.png","../images/red_prp.png","../images/cyn_red.png","../images/pnk_blu.png","../images/ylw_slt.png","../images/wht_red.png","../images/ylw_pnk.png","../images/org_blu.png","../images/grn_blu.png","../images/gry_blk.png"],"mutagen_generator_assignment":[1,0],"goal":10,"start":7,"action_noise":0.15,"location_history":"[7,8,5,9,6,11,3,7,8,0,4,8,0,1,2,3,0,1,5,10]","action_history":"[1,0,1,0,0,0,1,1,1,1,1,1,0,0,0,0,0,1,0]","mutagen_history":"[0,1,0,1,1,1,0,0,0,0,0,0,1,1,1,1,1,0,1]","location_rts":"[1504,834,762,850,490,491,661,440,806,1410,550,617,561,1080,565,525,626,443,568]","trial_type":"fractal-mutation","trial_index":55,"time_elapsed":1641975,"internal_node_id":"0.0-5.0-16.0"},{"group":"dicyclic group of order 12","fractal_assignment":["../images/blu_wht.png","../images/grn_red.png","../images/grn_prp.png","../images/red_prp.png","../images/cyn_red.png","../images/pnk_blu.png","../images/ylw_slt.png","../images/wht_red.png","../images/ylw_pnk.png","../images/org_blu.png","../images/grn_blu.png","../images/gry_blk.png"],"mutagen_generator_assignment":[1,0],"goal":0,"start":10,"action_noise":0.15,"location_history":"[10,7,11,3,7,11,3,7,11,3,7,8,5,10,7,8,5,9,1,2,6,11,4,9,1,2,3,0]","action_history":"[0,0,1,1,1,1,1,1,0,1,0,0,0,0,0,0,0,1,0,1,0,0,0,1,0,0,0]","mutagen_history":"[1,1,0,0,0,0,0,0,1,0,1,1,1,1,1,1,1,0,1,0,1,1,1,0,1,1,1]","location_rts":"[2275,953,605,432,316,763,611,1151,463,463,319,661,949,439,668,537,610,654,709,616,447,522,474,358,449,428,343]","trial_type":"fractal-mutation","trial_index":56,"time_elapsed":1694014,"internal_node_id":"0.0-5.0-17.0"},{"group":"dicyclic group of order 12","fractal_assignment":["../images/blu_wht.png","../images/grn_red.png","../images/grn_prp.png","../images/red_prp.png","../images/cyn_red.png","../images/pnk_blu.png","../images/ylw_slt.png","../images/wht_red.png","../images/ylw_pnk.png","../images/org_blu.png","../images/grn_blu.png","../images/gry_blk.png"],"mutagen_generator_assignment":[1,0],"goal":9,"start":0,"action_noise":0.15,"location_history":"[0,1,5,9]","action_history":"[0,0,1]","mutagen_history":"[1,1,0]","location_rts":"[836,406,304]","trial_type":"fractal-mutation","trial_index":57,"time_elapsed":1702555,"internal_node_id":"0.0-5.0-18.0"},{"group":"dicyclic group of order 12","fractal_assignment":["../images/blu_wht.png","../images/grn_red.png","../images/grn_prp.png","../images/red_prp.png","../images/cyn_red.png","../images/pnk_blu.png","../images/ylw_slt.png","../images/wht_red.png","../images/ylw_pnk.png","../images/org_blu.png","../images/grn_blu.png","../images/gry_blk.png"],"mutagen_generator_assignment":[1,0],"goal":4,"start":9,"action_noise":0.15,"location_history":"[9,6,11,3,7,11,3,0,4]","action_history":"[0,0,1,1,1,1,0,1]","mutagen_history":"[1,1,0,0,0,0,1,0]","location_rts":"[1638,482,354,458,389,376,321,408]","trial_type":"fractal-mutation","trial_index":58,"time_elapsed":1719599,"internal_node_id":"0.0-5.0-19.0"},{"group":"dicyclic group of order 12","fractal_assignment":["../images/blu_wht.png","../images/grn_red.png","../images/grn_prp.png","../images/red_prp.png","../images/cyn_red.png","../images/pnk_blu.png","../images/ylw_slt.png","../images/wht_red.png","../images/ylw_pnk.png","../images/org_blu.png","../images/grn_blu.png","../images/gry_blk.png"],"mutagen_generator_assignment":[1,0],"goal":2,"start":4,"action_noise":0.15,"location_history":"[4,8,0,1,5,10,7,11,4,8,0,4,9,6,10,2]","action_history":"[0,1,0,1,0,1,0,0,1,1,0,0,0,1,1]","mutagen_history":"[1,0,1,0,1,0,1,1,0,0,1,1,1,0,0]","location_rts":"[1185,424,417,749,462,919,519,621,408,638,606,924,703,521,519]","trial_type":"fractal-mutation","trial_index":59,"time_elapsed":1749954,"internal_node_id":"0.0-5.0-20.0"},{"group":"dicyclic group of order 12","fractal_assignment":["../images/blu_wht.png","../images/grn_red.png","../images/grn_prp.png","../images/red_prp.png","../images/cyn_red.png","../images/pnk_blu.png","../images/ylw_slt.png","../images/wht_red.png","../images/ylw_pnk.png","../images/org_blu.png","../images/grn_blu.png","../images/gry_blk.png"],"mutagen_generator_assignment":[1,0],"goal":1,"start":2,"action_noise":0.15,"location_history":"[2,3,0,1]","action_history":"[1,0,0]","mutagen_history":"[0,1,1]","location_rts":"[679,427,688]","trial_type":"fractal-mutation","trial_index":60,"time_elapsed":1758652,"internal_node_id":"0.0-5.0-21.0"},{"group":"dicyclic group of order 12","fractal_assignment":["../images/blu_wht.png","../images/grn_red.png","../images/grn_prp.png","../images/red_prp.png","../images/cyn_red.png","../images/pnk_blu.png","../images/ylw_slt.png","../images/wht_red.png","../images/ylw_pnk.png","../images/org_blu.png","../images/grn_blu.png","../images/gry_blk.png"],"mutagen_generator_assignment":[1,0],"goal":3,"start":1,"action_noise":0.15,"location_history":"[1,5,10,2,3]","action_history":"[1,0,1,0]","mutagen_history":"[0,1,0,1]","location_rts":"[845,721,720,765]","trial_type":"fractal-mutation","trial_index":61,"time_elapsed":1769701,"internal_node_id":"0.0-5.0-22.0"},{"group":"dicyclic group of order 12","fractal_assignment":["../images/blu_wht.png","../images/grn_red.png","../images/grn_prp.png","../images/red_prp.png","../images/cyn_red.png","../images/pnk_blu.png","../images/ylw_slt.png","../images/wht_red.png","../images/ylw_pnk.png","../images/org_blu.png","../images/grn_blu.png","../images/gry_blk.png"],"mutagen_generator_assignment":[1,0],"goal":7,"start":3,"action_noise":0.15,"location_history":"[3,7]","action_history":"[1]","mutagen_history":"[0]","location_rts":"[763]","trial_type":"fractal-mutation","trial_index":62,"time_elapsed":1774990,"internal_node_id":"0.0-5.0-23.0"},{"group":"dicyclic group of order 12","fractal_assignment":["../images/blu_wht.png","../images/grn_red.png","../images/grn_prp.png","../images/red_prp.png","../images/cyn_red.png","../images/pnk_blu.png","../images/ylw_slt.png","../images/wht_red.png","../images/ylw_pnk.png","../images/org_blu.png","../images/grn_blu.png","../images/gry_blk.png"],"mutagen_generator_assignment":[1,0],"goal":6,"start":7,"action_noise":0.15,"location_history":"[7,8,5,10,2,6]","action_history":"[0,1,0,1,1]","mutagen_history":"[1,0,1,0,0]","location_rts":"[882,664,887,732,1095]","trial_type":"fractal-mutation","trial_index":63,"time_elapsed":1788426,"internal_node_id":"0.0-5.0-24.0"},{"group":"dicyclic group of order 12","fractal_assignment":["../images/blu_wht.png","../images/grn_red.png","../images/grn_prp.png","../images/red_prp.png","../images/cyn_red.png","../images/pnk_blu.png","../images/ylw_slt.png","../images/wht_red.png","../images/ylw_pnk.png","../images/org_blu.png","../images/grn_blu.png","../images/gry_blk.png"],"mutagen_generator_assignment":[1,0],"goal":2,"start":6,"action_noise":0.15,"location_history":"[6,10,2]","action_history":"[0,1]","mutagen_history":"[1,0]","location_rts":"[703,1018]","trial_type":"fractal-mutation","trial_index":64,"time_elapsed":1795935,"internal_node_id":"0.0-5.0-25.0"},{"group":"dicyclic group of order 12","fractal_assignment":["../images/blu_wht.png","../images/grn_red.png","../images/grn_prp.png","../images/red_prp.png","../images/cyn_red.png","../images/pnk_blu.png","../images/ylw_slt.png","../images/wht_red.png","../images/ylw_pnk.png","../images/org_blu.png","../images/grn_blu.png","../images/gry_blk.png"],"mutagen_generator_assignment":[1,0],"goal":8,"start":2,"action_noise":0.15,"location_history":"[2,3,0,1,2,6,11,4,9,6,10,2,6,10,7,11,3,0,4,8]","action_history":"[0,0,0,0,1,0,1,0,1,1,1,1,1,0,1,0,0,1,0]","mutagen_history":"[1,1,1,1,0,1,0,1,0,0,0,0,0,1,0,1,1,0,1]","location_rts":"[1128,1033,828,922,633,432,452,682,549,600,485,640,667,819,992,449,1198,437,336]","trial_type":"fractal-mutation","trial_index":65,"time_elapsed":1834605,"internal_node_id":"0.0-5.0-26.0"},{"group":"dicyclic group of order 12","fractal_assignment":["../images/blu_wht.png","../images/grn_red.png","../images/grn_prp.png","../images/red_prp.png","../images/cyn_red.png","../images/pnk_blu.png","../images/ylw_slt.png","../images/wht_red.png","../images/ylw_pnk.png","../images/org_blu.png","../images/grn_blu.png","../images/gry_blk.png"],"mutagen_generator_assignment":[1,0],"goal":0,"start":8,"action_noise":0.15,"location_history":"[8,5,10,7,8,0]","action_history":"[0,0,0,0,1]","mutagen_history":"[1,1,1,1,0]","location_rts":"[1107,461,434,681,617]","trial_type":"fractal-mutation","trial_index":66,"time_elapsed":1847269,"internal_node_id":"0.0-5.0-27.0"},{"group":"dicyclic group of order 12","fractal_assignment":["../images/blu_wht.png","../images/grn_red.png","../images/grn_prp.png","../images/red_prp.png","../images/cyn_red.png","../images/pnk_blu.png","../images/ylw_slt.png","../images/wht_red.png","../images/ylw_pnk.png","../images/org_blu.png","../images/grn_blu.png","../images/gry_blk.png"],"mutagen_generator_assignment":[1,0],"goal":3,"start":0,"action_noise":0.15,"location_history":"[0,4,9,1,5,10,2,6,11,4,9,1,5,9,1,2,3]","action_history":"[1,0,1,1,0,1,1,0,1,0,1,1,0,1,0,0]","mutagen_history":"[0,1,0,0,1,0,0,1,0,1,0,0,1,0,1,1]","location_rts":"[1322,475,844,647,395,483,543,362,445,557,578,654,773,655,466,836]","trial_type":"fractal-mutation","trial_index":67,"time_elapsed":1879059,"internal_node_id":"0.0-5.0-28.0"},{"group":"dicyclic group of order 12","fractal_assignment":["../images/blu_wht.png","../images/grn_red.png","../images/grn_prp.png","../images/red_prp.png","../images/cyn_red.png","../images/pnk_blu.png","../images/ylw_slt.png","../images/wht_red.png","../images/ylw_pnk.png","../images/org_blu.png","../images/grn_blu.png","../images/gry_blk.png"],"mutagen_generator_assignment":[1,0],"goal":4,"start":3,"action_noise":0.15,"location_history":"[3,0,1,2,6,11,3,7,11,3,0,4]","action_history":"[1,0,0,1,0,1,1,1,0,0,1]","mutagen_history":"[0,1,1,0,1,0,0,0,1,1,0]","location_rts":"[678,513,744,521,460,433,478,470,393,536,487]","trial_type":"fractal-mutation","trial_index":68,"time_elapsed":1900742,"internal_node_id":"0.0-5.0-29.0"},{"group":"dicyclic group of order 12","fractal_assignment":["../images/blu_wht.png","../images/grn_red.png","../images/grn_prp.png","../images/red_prp.png","../images/cyn_red.png","../images/pnk_blu.png","../images/ylw_slt.png","../images/wht_red.png","../images/ylw_pnk.png","../images/org_blu.png","../images/grn_blu.png","../images/gry_blk.png"],"mutagen_generator_assignment":[1,0],"goal":10,"start":4,"action_noise":0.15,"location_history":"[4,8,0,1,2,6,11,3,0,1,2,3,0,4,8,0,4,8,0,1,2,6,11,4,9,6,11,3,7,11,4,8,0,1,5,10]","action_history":"[1,1,0,0,1,0,1,0,0,1,0,0,1,1,1,1,1,1,1,0,1,0,0,0,1,0,1,1,1,0,0,1,0,0,0]","mutagen_history":"[0,0,1,1,0,1,0,1,1,0,1,1,0,0,0,0,0,0,0,1,0,1,1,1,0,1,0,0,0,1,1,0,1,1,1]","location_rts":"[609,738,377,575,263,373,545,615,476,455,431,425,1319,319,369,574,810,842,865,596,517,416,468,867,447,652,527,655,485,608,399,406,362,671,201]","trial_type":"fractal-mutation","trial_index":69,"time_elapsed":1963621,"internal_node_id":"0.0-5.0-30.0"},{"group":"dicyclic group of order 12","fractal_assignment":["../images/blu_wht.png","../images/grn_red.png","../images/grn_prp.png","../images/red_prp.png","../images/cyn_red.png","../images/pnk_blu.png","../images/ylw_slt.png","../images/wht_red.png","../images/ylw_pnk.png","../images/org_blu.png","../images/grn_blu.png","../images/gry_blk.png"],"mutagen_generator_assignment":[1,0],"goal":11,"start":10,"action_noise":0.15,"location_history":"[10,7,11]","action_history":"[1,1]","mutagen_history":"[0,0]","location_rts":"[673,675]","trial_type":"fractal-mutation","trial_index":70,"time_elapsed":1970516,"internal_node_id":"0.0-5.0-31.0"},{"group":"dicyclic group of order 12","fractal_assignment":["../images/blu_wht.png","../images/grn_red.png","../images/grn_prp.png","../images/red_prp.png","../images/cyn_red.png","../images/pnk_blu.png","../images/ylw_slt.png","../images/wht_red.png","../images/ylw_pnk.png","../images/org_blu.png","../images/grn_blu.png","../images/gry_blk.png"],"mutagen_generator_assignment":[1,0],"goal":1,"start":11,"action_noise":0.15,"location_history":"[11,3,0,1]","action_history":"[1,0,0]","mutagen_history":"[0,1,1]","location_rts":"[1394,1642,1258]","trial_type":"fractal-mutation","trial_index":71,"time_elapsed":1981733,"internal_node_id":"0.0-5.0-32.0"},{"group":"dicyclic group of order 12","fractal_assignment":["../images/blu_wht.png","../images/grn_red.png","../images/grn_prp.png","../images/red_prp.png","../images/cyn_red.png","../images/pnk_blu.png","../images/ylw_slt.png","../images/wht_red.png","../images/ylw_pnk.png","../images/org_blu.png","../images/grn_blu.png","../images/gry_blk.png"],"mutagen_generator_assignment":[1,0],"goal":5,"start":1,"action_noise":0.15,"location_history":"[1,5]","action_history":"[1]","mutagen_history":"[0]","location_rts":"[2315]","trial_type":"fractal-mutation","trial_index":72,"time_elapsed":1988574,"internal_node_id":"0.0-5.0-33.0"},{"group":"dicyclic group of order 12","fractal_assignment":["../images/blu_wht.png","../images/grn_red.png","../images/grn_prp.png","../images/red_prp.png","../images/cyn_red.png","../images/pnk_blu.png","../images/ylw_slt.png","../images/wht_red.png","../images/ylw_pnk.png","../images/org_blu.png","../images/grn_blu.png","../images/gry_blk.png"],"mutagen_generator_assignment":[1,0],"goal":9,"start":5,"action_noise":0.15,"location_history":"[5,9]","action_history":"[1]","mutagen_history":"[0]","location_rts":"[1747]","trial_type":"fractal-mutation","trial_index":73,"time_elapsed":1994847,"internal_node_id":"0.0-5.0-34.0"},{"view_history":"[{\"page_index\":0,\"viewing_time\":12877}]","rt":12878,"trial_type":"instructions","trial_index":74,"time_elapsed":2008725,"internal_node_id":"0.0-6.0"},{"rt":3460,"responses":"{\"Q0\":\"\"}","trial_type":"survey-text","trial_index":75,"time_elapsed":2013192,"internal_node_id":"0.0-7.0"}]