[{"view_history":"[{\"page_index\":0,\"viewing_time\":5382},{\"page_index\":1,\"viewing_time\":2812401},{\"page_index\":2,\"viewing_time\":11698},{\"page_index\":3,\"viewing_time\":6581}]","rt":2836063,"trial_type":"instructions","trial_index":0,"time_elapsed":2836064,"internal_node_id":"0.0-0.0"},{"view_history":"[{\"page_index\":0,\"viewing_time\":1805},{\"page_index\":1,\"viewing_time\":29952}]","rt":31757,"trial_type":"instructions","trial_index":1,"time_elapsed":2868824,"internal_node_id":"0.0-1.0"},{"group":"dicyclic group of order 12","room_assignment":["ivory","olive","cyan","brown","purple","pink","green","yellow","orange","grey","red","blue"],"door_color_assignment":["black","white"],"door_generator_assignment":[0,1],"goal":4,"start":0,"action_noise":0.15,"location_history":"[0,4]","action_history":"[1]","door_history":"[1]","location_rts":"[3495]","trial_type":"two-door-navigation","trial_index":2,"time_elapsed":2876854,"internal_node_id":"0.0-2.0-0.0"},{"group":"dicyclic group of order 12","room_assignment":["ivory","olive","cyan","brown","purple","pink","green","yellow","orange","grey","red","blue"],"door_color_assignment":["black","white"],"door_generator_assignment":[0,1],"goal":9,"start":4,"action_noise":0.15,"location_history":"[4,9]","action_history":"[0]","door_history":"[0]","location_rts":"[2441]","trial_type":"two-door-navigation","trial_index":3,"time_elapsed":2883823,"internal_node_id":"0.0-2.0-1.0"},{"group":"dicyclic group of order 12","room_assignment":["ivory","olive","cyan","brown","purple","pink","green","yellow","orange","grey","red","blue"],"door_color_assignment":["black","white"],"door_generator_assignment":[0,1],"goal":10,"start":9,"action_noise":0.15,"location_history":"[9,6,11,4,8,5,9,6,10]","action_history":"[0,0,0,1,1,1,1,1]","door_history":"[0,0,0,1,1,1,1,1]","location_rts":"[1615,1563,596,1142,596,606,336,404]","trial_type":"two-door-navigation","trial_index":4,"time_elapsed":2902355,"internal_node_id":"0.0-2.0-2.0"},{"group":"dicyclic group of order 12","room_assignment":["ivory","olive","cyan","brown","purple","pink","green","yellow","orange","grey","red","blue"],"door_color_assignment":["black","white"],"door_generator_assignment":[0,1],"goal":2,"start":10,"action_noise":0.15,"location_history":"[10,2]","action_history":"[0]","door_history":"[0]","location_rts":"[1606]","trial_type":"two-door-navigation","trial_index":5,"time_elapsed":2908485,"internal_node_id":"0.0-2.0-3.0"},{"group":"dicyclic group of order 12","room_assignment":["ivory","olive","cyan","brown","purple","pink","green","yellow","orange","grey","red","blue"],"door_color_assignment":["black","white"],"door_generator_assignment":[0,1],"goal":5,"start":2,"action_noise":0.15,"location_history":"[2,6,10,2,6,11,3,0,1,2,3,0,1,5]","action_history":"[1,1,1,0,0,0,0,0,0,0,1,0,0]","door_history":"[1,1,1,0,0,0,0,0,0,0,1,0,0]","location_rts":"[1795,283,389,349,272,284,337,297,342,292,210,243,281]","trial_type":"two-door-navigation","trial_index":6,"time_elapsed":2930639,"internal_node_id":"0.0-2.0-4.0"},{"group":"dicyclic group of order 12","room_assignment":["ivory","olive","cyan","brown","purple","pink","green","yellow","orange","grey","red","blue"],"door_color_assignment":["black","white"],"door_generator_assignment":[0,1],"goal":11,"start":5,"action_noise":0.15,"location_history":"[5,9,6,11]","action_history":"[0,0,0]","door_history":"[0,0,0]","location_rts":"[1465,301,382]","trial_type":"two-door-navigation","trial_index":7,"time_elapsed":2939357,"internal_node_id":"0.0-2.0-5.0"},{"group":"dicyclic group of order 12","room_assignment":["ivory","olive","cyan","brown","purple","pink","green","yellow","orange","grey","red","blue"],"door_color_assignment":["black","white"],"door_generator_assignment":[0,1],"goal":6,"start":11,"action_noise":0.15,"location_history":"[11,4,8,0,4,8,5,10,2,6]","action_history":"[0,1,1,1,1,0,0,0,0]","door_history":"[0,1,1,1,1,0,0,0,0]","location_rts":"[1871,364,275,329,779,224,307,496,596]","trial_type":"two-door-navigation","trial_index":8,"time_elapsed":2957293,"internal_node_id":"0.0-2.0-6.0"},{"group":"dicyclic group of order 12","room_assignment":["ivory","olive","cyan","brown","purple","pink","green","yellow","orange","grey","red","blue"],"door_color_assignment":["black","white"],"door_generator_assignment":[0,1],"goal":3,"start":6,"action_noise":0.15,"location_history":"[6,10,2,3]","action_history":"[1,1,0]","door_history":"[1,1,0]","location_rts":"[1579,348,316]","trial_type":"two-door-navigation","trial_index":9,"time_elapsed":2966108,"internal_node_id":"0.0-2.0-7.0"},{"group":"dicyclic group of order 12","room_assignment":["ivory","olive","cyan","brown","purple","pink","green","yellow","orange","grey","red","blue"],"door_color_assignment":["black","white"],"door_generator_assignment":[0,1],"goal":8,"start":3,"action_noise":0.15,"location_history":"[3,7,8]","action_history":"[1,1]","door_history":"[1,1]","location_rts":"[1724,1300]","trial_type":"two-door-navigation","trial_index":10,"time_elapsed":2974672,"internal_node_id":"0.0-2.0-8.0"},{"group":"dicyclic group of order 12","room_assignment":["ivory","olive","cyan","brown","purple","pink","green","yellow","orange","grey","red","blue"],"door_color_assignment":["black","white"],"door_generator_assignment":[0,1],"goal":1,"start":8,"action_noise":0.15,"location_history":"[8,5,9,6,11,3,7,8,5,9,1]","action_history":"[1,1,0,0,0,0,0,0,1,1]","door_history":"[1,1,0,0,0,0,0,0,1,1]","location_rts":"[1321,357,384,595,367,1149,524,335,391,336]","trial_type":"two-door-navigation","trial_index":11,"time_elapsed":2994135,"internal_node_id":"0.0-2.0-9.0"},{"group":"dicyclic group of order 12","room_assignment":["ivory","olive","cyan","brown","purple","pink","green","yellow","orange","grey","red","blue"],"door_color_assignment":["black","white"],"door_generator_assignment":[0,1],"goal":7,"start":1,"action_noise":0.15,"location_history":"[1,5,10,2,6,10,2,6,10,2,6,10,7]","action_history":"[1,1,1,1,1,0,1,1,1,1,1,1]","door_history":"[1,1,1,1,1,0,1,1,1,1,1,1]","location_rts":"[1441,1958,254,276,353,942,1039,350,495,348,402,447]","trial_type":"two-door-navigation","trial_index":12,"time_elapsed":3018175,"internal_node_id":"0.0-2.0-10.0"},{"group":"dicyclic group of order 12","room_assignment":["ivory","olive","cyan","brown","purple","pink","green","yellow","orange","grey","red","blue"],"door_color_assignment":["black","white"],"door_generator_assignment":[0,1],"goal":5,"start":7,"action_noise":0.15,"location_history":"[7,8,0,1,5]","action_history":"[0,0,0,1]","door_history":"[0,0,0,1]","location_rts":"[947,320,268,331]","trial_type":"two-door-navigation","trial_index":13,"time_elapsed":3027623,"internal_node_id":"0.0-2.0-11.0"},{"group":"dicyclic group of order 12","room_assignment":["ivory","olive","cyan","brown","purple","pink","green","yellow","orange","grey","red","blue"],"door_color_assignment":["black","white"],"door_generator_assignment":[0,1],"goal":8,"start":5,"action_noise":0.15,"location_history":"[5,9,6,11,4,8]","action_history":"[0,0,0,1,1]","door_history":"[0,0,0,1,1]","location_rts":"[728,264,301,442,492]","trial_type":"two-door-navigation","trial_index":14,"time_elapsed":3038456,"internal_node_id":"0.0-2.0-12.0"},{"group":"dicyclic group of order 12","room_assignment":["ivory","olive","cyan","brown","purple","pink","green","yellow","orange","grey","red","blue"],"door_color_assignment":["black","white"],"door_generator_assignment":[0,1],"goal":11,"start":8,"action_noise":0.15,"location_history":"[8,5,10,7,8,0,4,8,0,1,5,10,7,11]","action_history":"[0,0,0,0,1,1,1,1,0,1,0,0,0]","door_history":"[0,0,0,0,1,1,1,1,0,1,0,0,0]","location_rts":"[510,198,91,305,354,288,341,429,443,298,347,24,377]","trial_type":"two-door-navigation","trial_index":15,"time_elapsed":3060062,"internal_node_id":"0.0-2.0-13.0"},{"group":"dicyclic group of order 12","room_assignment":["ivory","olive","cyan","brown","purple","pink","green","yellow","orange","grey","red","blue"],"door_color_assignment":["black","white"],"door_generator_assignment":[0,1],"goal":6,"start":11,"action_noise":0.15,"location_history":"[11,3,7,11,3,0,1,2,3,7,11,3,7,11,4,9,6]","action_history":"[1,1,1,1,0,0,0,1,1,1,1,1,0,0,0,0]","door_history":"[1,1,1,1,0,0,0,1,1,1,1,1,0,0,0,0]","location_rts":"[5808,304,360,250,519,446,843,296,41,217,468,322,288,287,266,302]","trial_type":"two-door-navigation","trial_index":16,"time_elapsed":3091165,"internal_node_id":"0.0-2.0-14.0"},{"group":"dicyclic group of order 12","room_assignment":["ivory","olive","cyan","brown","purple","pink","green","yellow","orange","grey","red","blue"],"door_color_assignment":["black","white"],"door_generator_assignment":[0,1],"goal":7,"start":6,"action_noise":0.15,"location_history":"[6,11,4,9,6,10,7]","action_history":"[0,0,1,1,1,1]","door_history":"[0,0,1,1,1,1]","location_rts":"[947,10,170,254,258,478]","trial_type":"two-door-navigation","trial_index":17,"time_elapsed":3102915,"internal_node_id":"0.0-2.0-15.0"},{"group":"dicyclic group of order 12","room_assignment":["ivory","olive","cyan","brown","purple","pink","green","yellow","orange","grey","red","blue"],"door_color_assignment":["black","white"],"door_generator_assignment":[0,1],"goal":10,"start":7,"action_noise":0.15,"location_history":"[7,8,5,9,1,2,6,10]","action_history":"[0,0,1,1,1,1,1]","door_history":"[0,0,1,1,1,1,1]","location_rts":"[565,30,414,69,1421,142,245]","trial_type":"two-door-navigation","trial_index":18,"time_elapsed":3116431,"internal_node_id":"0.0-2.0-16.0"},{"group":"dicyclic group of order 12","room_assignment":["ivory","olive","cyan","brown","purple","pink","green","yellow","orange","grey","red","blue"],"door_color_assignment":["black","white"],"door_generator_assignment":[0,1],"goal":0,"start":10,"action_noise":0.15,"location_history":"[10,7,8,0]","action_history":"[0,0,1]","door_history":"[0,0,1]","location_rts":"[680,338,174]","trial_type":"two-door-navigation","trial_index":19,"time_elapsed":3124187,"internal_node_id":"0.0-2.0-17.0"},{"group":"dicyclic group of order 12","room_assignment":["ivory","olive","cyan","brown","purple","pink","green","yellow","orange","grey","red","blue"],"door_color_assignment":["black","white"],"door_generator_assignment":[0,1],"goal":9,"start":0,"action_noise":0.15,"location_history":"[0,4,9]","action_history":"[0,0]","door_history":"[0,0]","location_rts":"[749,417]","trial_type":"two-door-navigation","trial_index":20,"time_elapsed":3130904,"internal_node_id":"0.0-2.0-18.0"},{"group":"dicyclic group of order 12","room_assignment":["ivory","olive","cyan","brown","purple","pink","green","yellow","orange","grey","red","blue"],"door_color_assignment":["black","white"],"door_generator_assignment":[0,1],"goal":4,"start":9,"action_noise":0.15,"location_history":"[9,1,5,9,1,2,6,11,4]","action_history":"[1,1,1,1,1,1,0,0]","door_history":"[1,1,1,1,1,1,0,0]","location_rts":"[1151,318,109,89,260,316,78,161]","trial_type":"two-door-navigation","trial_index":21,"time_elapsed":3145056,"internal_node_id":"0.0-2.0-19.0"},{"group":"dicyclic group of order 12","room_assignment":["ivory","olive","cyan","brown","purple","pink","green","yellow","orange","grey","red","blue"],"door_color_assignment":["black","white"],"door_generator_assignment":[0,1],"goal":2,"start":4,"action_noise":0.15,"location_history":"[4,9,6,11,4,9,1,5,9,1,5,9,1,2]","action_history":"[0,0,0,0,0,1,1,1,1,1,1,1,0]","door_history":"[0,0,0,0,0,1,1,1,1,1,1,1,0]","location_rts":"[798,245,275,193,228,72,135,163,1011,151,406,196,121]","trial_type":"two-door-navigation","trial_index":22,"time_elapsed":3165821,"internal_node_id":"0.0-2.0-20.0"},{"group":"dicyclic group of order 12","room_assignment":["ivory","olive","cyan","brown","purple","pink","green","yellow","orange","grey","red","blue"],"door_color_assignment":["black","white"],"door_generator_assignment":[0,1],"goal":1,"start":2,"action_noise":0.15,"location_history":"[2,3,7,11,3,0,1]","action_history":"[0,1,1,1,0,0]","door_history":"[0,1,1,1,0,0]","location_rts":"[794,75,130,78,135,316]","trial_type":"two-door-navigation","trial_index":23,"time_elapsed":3176969,"internal_node_id":"0.0-2.0-21.0"},{"group":"dicyclic group of order 12","room_assignment":["ivory","olive","cyan","brown","purple","pink","green","yellow","orange","grey","red","blue"],"door_color_assignment":["black","white"],"door_generator_assignment":[0,1],"goal":3,"start":1,"action_noise":0.15,"location_history":"[1,2,3]","action_history":"[0,0]","door_history":"[0,0]","location_rts":"[1414,294]","trial_type":"two-door-navigation","trial_index":24,"time_elapsed":3184221,"internal_node_id":"0.0-2.0-22.0"},{"group":"dicyclic group of order 12","room_assignment":["ivory","olive","cyan","brown","purple","pink","green","yellow","orange","grey","red","blue"],"door_color_assignment":["black","white"],"door_generator_assignment":[0,1],"goal":7,"start":3,"action_noise":0.15,"location_history":"[3,0,4,9,6,11,4,9,1,2,6,10,7]","action_history":"[0,0,0,0,0,0,0,1,1,1,1,1]","door_history":"[0,0,0,0,0,0,0,1,1,1,1,1]","location_rts":"[1521,934,235,256,339,268,336,190,44,79,85,268]","trial_type":"two-door-navigation","trial_index":25,"time_elapsed":3204517,"internal_node_id":"0.0-2.0-23.0"},{"group":"dicyclic group of order 12","room_assignment":["ivory","olive","cyan","brown","purple","pink","green","yellow","orange","grey","red","blue"],"door_color_assignment":["black","white"],"door_generator_assignment":[0,1],"goal":6,"start":7,"action_noise":0.15,"location_history":"[7,8,5,10,2,6]","action_history":"[0,0,0,1,1]","door_history":"[0,0,0,1,1]","location_rts":"[1268,40,8,289,380]","trial_type":"two-door-navigation","trial_index":26,"time_elapsed":3215099,"internal_node_id":"0.0-2.0-24.0"},{"group":"dicyclic group of order 12","room_assignment":["ivory","olive","cyan","brown","purple","pink","green","yellow","orange","grey","red","blue"],"door_color_assignment":["black","white"],"door_generator_assignment":[0,1],"goal":2,"start":6,"action_noise":0.15,"location_history":"[6,10,7,11,3,0,1,2]","action_history":"[1,1,1,1,0,0,0]","door_history":"[1,1,1,1,0,0,0]","location_rts":"[636,74,210,251,140,324,263]","trial_type":"two-door-navigation","trial_index":27,"time_elapsed":3227648,"internal_node_id":"0.0-2.0-25.0"},{"group":"dicyclic group of order 12","room_assignment":["ivory","olive","cyan","brown","purple","pink","green","yellow","orange","grey","red","blue"],"door_color_assignment":["black","white"],"door_generator_assignment":[0,1],"goal":8,"start":2,"action_noise":0.15,"location_history":"[2,3,0,4,9,1,5,9,6,10,2,3,0,1,2,6,11,4,9,1,2,6,11,4,9,6,11,4,9,1,2,3,7,8]","action_history":"[0,0,0,0,1,1,1,1,1,0,0,0,1,0,1,0,1,0,1,0,1,0,0,0,0,0,0,0,0,0,0,1,1]","door_history":"[0,0,0,0,1,1,1,1,1,0,0,0,1,0,1,0,1,0,1,0,1,0,0,0,0,0,0,0,0,0,0,1,1]","location_rts":"[840,76,152,45,12,97,59,144,78,78,182,100,549,240,69,149,45,167,25,60,29,165,0,107,77,41,21,90,26,28,457,778,190]","trial_type":"two-door-navigation","trial_index":28,"time_elapsed":3269979,"internal_node_id":"0.0-2.0-26.0"},{"group":"dicyclic group of order 12","room_assignment":["ivory","olive","cyan","brown","purple","pink","green","yellow","orange","grey","red","blue"],"door_color_assignment":["black","white"],"door_generator_assignment":[0,1],"goal":0,"start":8,"action_noise":0.15,"location_history":"[8,0]","action_history":"[1]","door_history":"[1]","location_rts":"[1691]","trial_type":"two-door-navigation","trial_index":29,"time_elapsed":3276193,"internal_node_id":"0.0-2.0-27.0"},{"group":"dicyclic group of order 12","room_assignment":["ivory","olive","cyan","brown","purple","pink","green","yellow","orange","grey","red","blue"],"door_color_assignment":["black","white"],"door_generator_assignment":[0,1],"goal":3,"start":0,"action_noise":0.15,"location_history":"[0,1,2,3]","action_history":"[0,0,0]","door_history":"[0,0,0]","location_rts":"[1005,386,333]","trial_type":"two-door-navigation","trial_index":30,"time_elapsed":3284481,"internal_node_id":"0.0-2.0-28.0"},{"group":"dicyclic group of order 12","room_assignment":["ivory","olive","cyan","brown","purple","pink","green","yellow","orange","grey","red","blue"],"door_color_assignment":["black","white"],"door_generator_assignment":[0,1],"goal":4,"start":3,"action_noise":0.15,"location_history":"[3,0,1,2,6,10,2,6,11,4]","action_history":"[0,0,1,1,1,1,1,0,0]","door_history":"[0,0,1,1,1,1,1,0,0]","location_rts":"[1447,49,104,54,66,617,251,271,107]","trial_type":"two-door-navigation","trial_index":31,"time_elapsed":3300121,"internal_node_id":"0.0-2.0-29.0"},{"group":"dicyclic group of order 12","room_assignment":["ivory","olive","cyan","brown","purple","pink","green","yellow","orange","grey","red","blue"],"door_color_assignment":["black","white"],"door_generator_assignment":[0,1],"goal":10,"start":4,"action_noise":0.15,"location_history":"[4,9,6,11,4,8,0,1,5,10]","action_history":"[0,0,0,1,1,1,1,1,1]","door_history":"[0,0,0,1,1,1,1,1,1]","location_rts":"[648,72,143,50,148,74,132,32,105]","trial_type":"two-door-navigation","trial_index":32,"time_elapsed":3314213,"internal_node_id":"0.0-2.0-30.0"},{"group":"dicyclic group of order 12","room_assignment":["ivory","olive","cyan","brown","purple","pink","green","yellow","orange","grey","red","blue"],"door_color_assignment":["black","white"],"door_generator_assignment":[0,1],"goal":11,"start":10,"action_noise":0.15,"location_history":"[10,7,8,5,10,7,8,5,9,6,11]","action_history":"[0,0,0,0,0,0,0,0,0,0]","door_history":"[0,0,0,0,0,0,0,0,0,0]","location_rts":"[794,62,23,124,383,30,30,73,24,209]","trial_type":"two-door-navigation","trial_index":33,"time_elapsed":3329664,"internal_node_id":"0.0-2.0-31.0"},{"group":"dicyclic group of order 12","room_assignment":["ivory","olive","cyan","brown","purple","pink","green","yellow","orange","grey","red","blue"],"door_color_assignment":["black","white"],"door_generator_assignment":[0,1],"goal":1,"start":11,"action_noise":0.15,"location_history":"[11,3,7,11,3,0,4,9,6,11,4,9,1]","action_history":"[1,1,1,1,1,1,0,0,0,0,0,1]","door_history":"[1,1,1,1,1,1,0,0,0,0,0,1]","location_rts":"[16336,221,1740,203,1304,327,244,46,123,23,14,121]","trial_type":"two-door-navigation","trial_index":34,"time_elapsed":3366120,"internal_node_id":"0.0-2.0-32.0"},{"group":"dicyclic group of order 12","room_assignment":["ivory","olive","cyan","brown","purple","pink","green","yellow","orange","grey","red","blue"],"door_color_assignment":["black","white"],"door_generator_assignment":[0,1],"goal":5,"start":1,"action_noise":0.15,"location_history":"[1,2,3,0,1,2,3,7,11,3,7,11,3,7,8,5]","action_history":"[0,0,0,0,0,0,1,1,1,1,1,1,1,0,0]","door_history":"[0,0,0,0,0,0,1,1,1,1,1,1,1,0,0]","location_rts":"[762,206,170,308,447,1066,1162,323,328,709,258,390,2361,696,469]","trial_type":"two-door-navigation","trial_index":35,"time_elapsed":3394584,"internal_node_id":"0.0-2.0-33.0"},{"group":"dicyclic group of order 12","room_assignment":["ivory","olive","cyan","brown","purple","pink","green","yellow","orange","grey","red","blue"],"door_color_assignment":["black","white"],"door_generator_assignment":[0,1],"goal":9,"start":5,"action_noise":0.15,"location_history":"[5,9]","action_history":"[1]","door_history":"[1]","location_rts":"[1601]","trial_type":"two-door-navigation","trial_index":36,"time_elapsed":3400711,"internal_node_id":"0.0-2.0-34.0"},{"view_history":"[{\"page_index\":0,\"viewing_time\":2039}]","rt":2039,"trial_type":"instructions","trial_index":37,"time_elapsed":3403752,"internal_node_id":"0.0-3.0"},{"view_history":"[{\"page_index\":0,\"viewing_time\":3151},{\"page_index\":1,\"viewing_time\":31824}]","rt":34975,"trial_type":"instructions","trial_index":38,"time_elapsed":3439728,"internal_node_id":"0.0-4.0"},{"group":"dihedral group of order 12","fractal_assignment":["../images/ylw_slt.png","../images/grn_red.png","../images/org_blu.png","../images/wht_red.png","../images/grn_prp.png","../images/gry_blk.png","../images/grn_blu.png","../images/blu_wht.png","../images/ylw_pnk.png","../images/pnk_blu.png","../images/cyn_red.png","../images/red_prp.png"],"mutagen_generator_assignment":[0,1],"goal":4,"start":0,"action_noise":0.15,"location_history":"[0,1,2,3,4]","action_history":"[0,1,0,0]","mutagen_history":"[0,1,0,0]","location_rts":"[5274,2907,1535,1283]","trial_type":"fractal-mutation","trial_index":39,"time_elapsed":3458610,"internal_node_id":"0.0-5.0-0.0"},{"group":"dihedral group of order 12","fractal_assignment":["../images/ylw_slt.png","../images/grn_red.png","../images/org_blu.png","../images/wht_red.png","../images/grn_prp.png","../images/gry_blk.png","../images/grn_blu.png","../images/blu_wht.png","../images/ylw_pnk.png","../images/pnk_blu.png","../images/cyn_red.png","../images/red_prp.png"],"mutagen_generator_assignment":[0,1],"goal":9,"start":4,"action_noise":0.15,"location_history":"[4,10,9]","action_history":"[1,1]","mutagen_history":"[1,1]","location_rts":"[1574,1111]","trial_type":"fractal-mutation","trial_index":40,"time_elapsed":3467067,"internal_node_id":"0.0-5.0-1.0"},{"group":"dihedral group of order 12","fractal_assignment":["../images/ylw_slt.png","../images/grn_red.png","../images/org_blu.png","../images/wht_red.png","../images/grn_prp.png","../images/gry_blk.png","../images/grn_blu.png","../images/blu_wht.png","../images/ylw_pnk.png","../images/pnk_blu.png","../images/cyn_red.png","../images/red_prp.png"],"mutagen_generator_assignment":[0,1],"goal":10,"start":9,"action_noise":0.15,"location_history":"[9,8,2,8,2,8,7,6,11,10]","action_history":"[0,1,1,1,0,0,0,0,0]","mutagen_history":"[0,1,1,1,0,0,0,0,0]","location_rts":"[915,1243,1050,1107,674,560,787,621,614]","trial_type":"fractal-mutation","trial_index":41,"time_elapsed":3488006,"internal_node_id":"0.0-5.0-2.0"},{"group":"dihedral group of order 12","fractal_assignment":["../images/ylw_slt.png","../images/grn_red.png","../images/org_blu.png","../images/wht_red.png","../images/grn_prp.png","../images/gry_blk.png","../images/grn_blu.png","../images/blu_wht.png","../images/ylw_pnk.png","../images/pnk_blu.png","../images/cyn_red.png","../images/red_prp.png"],"mutagen_generator_assignment":[0,1],"goal":2,"start":10,"action_noise":0.15,"location_history":"[10,4,10,4,5,0,1,2]","action_history":"[1,1,0,0,0,0,0]","mutagen_history":"[1,1,0,0,0,0,0]","location_rts":"[5479,527,1987,392,515,633,570]","trial_type":"fractal-mutation","trial_index":42,"time_elapsed":3509291,"internal_node_id":"0.0-5.0-3.0"},{"group":"dihedral group of order 12","fractal_assignment":["../images/ylw_slt.png","../images/grn_red.png","../images/org_blu.png","../images/wht_red.png","../images/grn_prp.png","../images/gry_blk.png","../images/grn_blu.png","../images/blu_wht.png","../images/ylw_pnk.png","../images/pnk_blu.png","../images/cyn_red.png","../images/red_prp.png"],"mutagen_generator_assignment":[0,1],"goal":5,"start":2,"action_noise":0.15,"location_history":"[2,8,7,1,2,3,4,5]","action_history":"[1,1,1,0,0,0,0]","mutagen_history":"[1,1,1,0,0,0,0]","location_rts":"[931,468,475,423,363,435,2328]","trial_type":"fractal-mutation","trial_index":43,"time_elapsed":3525937,"internal_node_id":"0.0-5.0-4.0"},{"group":"dihedral group of order 12","fractal_assignment":["../images/ylw_slt.png","../images/grn_red.png","../images/org_blu.png","../images/wht_red.png","../images/grn_prp.png","../images/gry_blk.png","../images/grn_blu.png","../images/blu_wht.png","../images/ylw_pnk.png","../images/pnk_blu.png","../images/cyn_red.png","../images/red_prp.png"],"mutagen_generator_assignment":[0,1],"goal":11,"start":5,"action_noise":0.15,"location_history":"[5,11]","action_history":"[1]","mutagen_history":"[1]","location_rts":"[3934]","trial_type":"fractal-mutation","trial_index":44,"time_elapsed":3534510,"internal_node_id":"0.0-5.0-5.0"},{"group":"dihedral group of order 12","fractal_assignment":["../images/ylw_slt.png","../images/grn_red.png","../images/org_blu.png","../images/wht_red.png","../images/grn_prp.png","../images/gry_blk.png","../images/grn_blu.png","../images/blu_wht.png","../images/ylw_pnk.png","../images/pnk_blu.png","../images/cyn_red.png","../images/red_prp.png"],"mutagen_generator_assignment":[0,1],"goal":6,"start":11,"action_noise":0.15,"location_history":"[11,5,0,6]","action_history":"[0,0,1]","mutagen_history":"[0,0,1]","location_rts":"[1979,761,708]","trial_type":"fractal-mutation","trial_index":45,"time_elapsed":3544638,"internal_node_id":"0.0-5.0-6.0"},{"group":"dihedral group of order 12","fractal_assignment":["../images/ylw_slt.png","../images/grn_red.png","../images/org_blu.png","../images/wht_red.png","../images/grn_prp.png","../images/gry_blk.png","../images/grn_blu.png","../images/blu_wht.png","../images/ylw_pnk.png","../images/pnk_blu.png","../images/cyn_red.png","../images/red_prp.png"],"mutagen_generator_assignment":[0,1],"goal":3,"start":6,"action_noise":0.15,"location_history":"[6,0,1,7,1,7,1,7,6,11,5,0,6,11,5,11,5,11,5,11,10,4,10,9,8,7,6,11,10,9,8,2,3]","action_history":"[1,0,1,1,1,0,0,0,0,0,0,1,0,1,1,1,0,1,1,0,1,1,0,0,0,1,0,0,0,0,1,0]","mutagen_history":"[1,0,1,1,1,0,0,0,0,0,0,1,0,1,1,1,0,1,1,0,1,1,0,0,0,1,0,0,0,0,1,0]","location_rts":"[1600,750,786,457,681,618,249,480,618,776,665,623,627,401,255,612,1497,744,164,106,1093,806,457,639,556,743,179,106,119,114,111,842]","trial_type":"fractal-mutation","trial_index":46,"time_elapsed":3601909,"internal_node_id":"0.0-5.0-7.0"},{"group":"dihedral group of order 12","fractal_assignment":["../images/ylw_slt.png","../images/grn_red.png","../images/org_blu.png","../images/wht_red.png","../images/grn_prp.png","../images/gry_blk.png","../images/grn_blu.png","../images/blu_wht.png","../images/ylw_pnk.png","../images/pnk_blu.png","../images/cyn_red.png","../images/red_prp.png"],"mutagen_generator_assignment":[0,1],"goal":8,"start":3,"action_noise":0.15,"location_history":"[3,4,10,9,8]","action_history":"[0,1,1,0]","mutagen_history":"[0,1,1,0]","location_rts":"[1387,394,294,732]","trial_type":"fractal-mutation","trial_index":47,"time_elapsed":3612590,"internal_node_id":"0.0-5.0-8.0"},{"group":"dihedral group of order 12","fractal_assignment":["../images/ylw_slt.png","../images/grn_red.png","../images/org_blu.png","../images/wht_red.png","../images/grn_prp.png","../images/gry_blk.png","../images/grn_blu.png","../images/blu_wht.png","../images/ylw_pnk.png","../images/pnk_blu.png","../images/cyn_red.png","../images/red_prp.png"],"mutagen_generator_assignment":[0,1],"goal":1,"start":8,"action_noise":0.15,"location_history":"[8,7,6,0,6,11,10,9,3,4,5,0,6,0,1]","action_history":"[0,1,1,1,0,1,0,1,0,0,0,0,1,0]","mutagen_history":"[0,1,1,1,0,1,0,1,0,0,0,0,1,0]","location_rts":"[1185,594,520,576,746,633,748,680,576,414,349,339,597,328]","trial_type":"fractal-mutation","trial_index":48,"time_elapsed":3639756,"internal_node_id":"0.0-5.0-9.0"},{"group":"dihedral group of order 12","fractal_assignment":["../images/ylw_slt.png","../images/grn_red.png","../images/org_blu.png","../images/wht_red.png","../images/grn_prp.png","../images/gry_blk.png","../images/grn_blu.png","../images/blu_wht.png","../images/ylw_pnk.png","../images/pnk_blu.png","../images/cyn_red.png","../images/red_prp.png"],"mutagen_generator_assignment":[0,1],"goal":7,"start":1,"action_noise":0.15,"location_history":"[1,2,8,7]","action_history":"[0,0,0]","mutagen_history":"[0,0,0]","location_rts":"[4227,451,404]","trial_type":"fractal-mutation","trial_index":49,"time_elapsed":3651426,"internal_node_id":"0.0-5.0-10.0"},{"group":"dihedral group of order 12","fractal_assignment":["../images/ylw_slt.png","../images/grn_red.png","../images/org_blu.png","../images/wht_red.png","../images/grn_prp.png","../images/gry_blk.png","../images/grn_blu.png","../images/blu_wht.png","../images/ylw_pnk.png","../images/pnk_blu.png","../images/cyn_red.png","../images/red_prp.png"],"mutagen_generator_assignment":[0,1],"goal":5,"start":7,"action_noise":0.15,"location_history":"[7,1,7,6,0,6,11,5]","action_history":"[0,1,1,1,1,0,1]","mutagen_history":"[0,1,1,1,1,0,1]","location_rts":"[1188,588,979,475,605,397,978]","trial_type":"fractal-mutation","trial_index":50,"time_elapsed":3667911,"internal_node_id":"0.0-5.0-11.0"},{"group":"dihedral group of order 12","fractal_assignment":["../images/ylw_slt.png","../images/grn_red.png","../images/org_blu.png","../images/wht_red.png","../images/grn_prp.png","../images/gry_blk.png","../images/grn_blu.png","../images/blu_wht.png","../images/ylw_pnk.png","../images/pnk_blu.png","../images/cyn_red.png","../images/red_prp.png"],"mutagen_generator_assignment":[0,1],"goal":8,"start":5,"action_noise":0.15,"location_history":"[5,11,5,11,10,9,3,9,8]","action_history":"[1,1,0,0,0,1,1,0]","mutagen_history":"[1,1,0,0,0,1,1,0]","location_rts":"[545,494,378,754,680,475,618,626]","trial_type":"fractal-mutation","trial_index":51,"time_elapsed":3684892,"internal_node_id":"0.0-5.0-12.0"},{"group":"dihedral group of order 12","fractal_assignment":["../images/ylw_slt.png","../images/grn_red.png","../images/org_blu.png","../images/wht_red.png","../images/grn_prp.png","../images/gry_blk.png","../images/grn_blu.png","../images/blu_wht.png","../images/ylw_pnk.png","../images/pnk_blu.png","../images/cyn_red.png","../images/red_prp.png"],"mutagen_generator_assignment":[0,1],"goal":11,"start":8,"action_noise":0.15,"location_history":"[8,2,8,2,3,9,3,4,5,0,1,2,8,7,1,7,6,0,1,7,1,7,6,0,6,0,1,2,3,9,8,2,3,9,3,9,3,4,5,11]","action_history":"[1,1,0,0,0,1,0,0,0,0,0,1,1,1,1,0,1,0,1,1,1,1,1,1,1,0,0,1,1,0,1,0,1,1,1,1,0,0,0]","mutagen_history":"[1,1,0,0,0,1,0,0,0,0,0,1,1,1,1,0,1,0,1,1,1,1,1,1,1,0,0,1,1,0,1,0,1,1,1,1,0,0,0]","location_rts":"[1023,728,461,1140,670,746,1392,581,674,434,806,908,703,1058,745,719,558,461,91,87,48,238,62,17,153,657,2398,713,800,25406,827,1121,329,253,309,2071,145,366,471]","trial_type":"fractal-mutation","trial_index":52,"time_elapsed":3782041,"internal_node_id":"0.0-5.0-13.0"},{"group":"dihedral group of order 12","fractal_assignment":["../images/ylw_slt.png","../images/grn_red.png","../images/org_blu.png","../images/wht_red.png","../images/grn_prp.png","../images/gry_blk.png","../images/grn_blu.png","../images/blu_wht.png","../images/ylw_pnk.png","../images/pnk_blu.png","../images/cyn_red.png","../images/red_prp.png"],"mutagen_generator_assignment":[0,1],"goal":6,"start":11,"action_noise":0.15,"location_history":"[11,10,9,3,9,3,4,5,0,6]","action_history":"[0,1,1,1,1,0,0,0,1]","mutagen_history":"[0,1,1,1,1,0,0,0,1]","location_rts":"[1568,465,319,490,431,322,389,387,678]","trial_type":"fractal-mutation","trial_index":53,"time_elapsed":3800538,"internal_node_id":"0.0-5.0-14.0"},{"group":"dihedral group of order 12","fractal_assignment":["../images/ylw_slt.png","../images/grn_red.png","../images/org_blu.png","../images/wht_red.png","../images/grn_prp.png","../images/gry_blk.png","../images/grn_blu.png","../images/blu_wht.png","../images/ylw_pnk.png","../images/pnk_blu.png","../images/cyn_red.png","../images/red_prp.png"],"mutagen_generator_assignment":[0,1],"goal":7,"start":6,"action_noise":0.15,"location_history":"[6,11,5,11,5,0,1,2,8,2,3,9,8,2,3,4,10,9,8,2,8,2,3,9,8,7]","action_history":"[0,1,1,1,0,0,0,1,0,0,1,1,1,0,0,1,0,0,1,1,1,0,1,0,1]","mutagen_history":"[0,1,1,1,0,0,0,1,0,0,1,1,1,0,0,1,0,0,1,1,1,0,1,0,1]","location_rts":"[1373,369,2532,403,268,374,382,1022,638,436,429,156,575,285,123,376,1105,1113,285,836,708,298,780,895,1387]","trial_type":"fractal-mutation","trial_index":54,"time_elapsed":3848890,"internal_node_id":"0.0-5.0-15.0"},{"group":"dihedral group of order 12","fractal_assignment":["../images/ylw_slt.png","../images/grn_red.png","../images/org_blu.png","../images/wht_red.png","../images/grn_prp.png","../images/gry_blk.png","../images/grn_blu.png","../images/blu_wht.png","../images/ylw_pnk.png","../images/pnk_blu.png","../images/cyn_red.png","../images/red_prp.png"],"mutagen_generator_assignment":[0,1],"goal":10,"start":7,"action_noise":0.15,"location_history":"[7,6,0,1,2,3,4,10]","action_history":"[0,1,1,0,0,0,1]","mutagen_history":"[0,1,1,0,0,0,1]","location_rts":"[2118,415,538,423,544,442,376]","trial_type":"fractal-mutation","trial_index":55,"time_elapsed":3864923,"internal_node_id":"0.0-5.0-16.0"},{"group":"dihedral group of order 12","fractal_assignment":["../images/ylw_slt.png","../images/grn_red.png","../images/org_blu.png","../images/wht_red.png","../images/grn_prp.png","../images/gry_blk.png","../images/grn_blu.png","../images/blu_wht.png","../images/ylw_pnk.png","../images/pnk_blu.png","../images/cyn_red.png","../images/red_prp.png"],"mutagen_generator_assignment":[0,1],"goal":0,"start":10,"action_noise":0.15,"location_history":"[10,4,5,0]","action_history":"[0,0,1]","mutagen_history":"[0,0,1]","location_rts":"[3069,394,631]","trial_type":"fractal-mutation","trial_index":56,"time_elapsed":3875690,"internal_node_id":"0.0-5.0-17.0"},{"group":"dihedral group of order 12","fractal_assignment":["../images/ylw_slt.png","../images/grn_red.png","../images/org_blu.png","../images/wht_red.png","../images/grn_prp.png","../images/gry_blk.png","../images/grn_blu.png","../images/blu_wht.png","../images/ylw_pnk.png","../images/pnk_blu.png","../images/cyn_red.png","../images/red_prp.png"],"mutagen_generator_assignment":[0,1],"goal":9,"start":0,"action_noise":0.15,"location_history":"[0,6,11,10,4,5,11,10,4,5,0,6,0,6,0,1,2,8,7,1,2,3,4,10,4,5,0,1,7,6,0,6,11,5,11,5,0,1,7,1,7,6,11,10,4,5,11,5,0,6,0,1,2,3,9]","action_history":"[1,0,0,0,1,1,0,1,1,1,1,1,0,0,0,1,1,0,1,0,0,0,1,1,0,0,0,1,0,1,1,0,0,1,1,0,0,1,1,1,0,1,1,0,0,1,1,0,1,1,0,0,1,1]","mutagen_history":"[1,0,0,0,1,1,0,1,1,1,1,1,0,0,0,1,1,0,1,0,0,0,1,1,0,0,0,1,0,1,1,0,0,1,1,0,0,1,1,1,0,1,1,0,0,1,1,0,1,1,0,0,1,1]","location_rts":"[6215,476,1255,402,512,393,496,126,72,130,242,404,605,163,980,571,1365,545,626,481,485,726,750,614,292,142,36,86,75,52,25,284,266,51,55,383,232,77,323,801,936,6872,1085,737,576,713,861,1309,997,778,1138,908,919,546]","trial_type":"fractal-mutation","trial_index":57,"time_elapsed":3979094,"internal_node_id":"0.0-5.0-18.0"},{"group":"dihedral group of order 12","fractal_assignment":["../images/ylw_slt.png","../images/grn_red.png","../images/org_blu.png","../images/wht_red.png","../images/grn_prp.png","../images/gry_blk.png","../images/grn_blu.png","../images/blu_wht.png","../images/ylw_pnk.png","../images/pnk_blu.png","../images/cyn_red.png","../images/red_prp.png"],"mutagen_generator_assignment":[0,1],"goal":4,"start":9,"action_noise":0.15,"location_history":"[9,8,2,3,9,8,2,3,4]","action_history":"[0,0,0,0,0,1,0,0]","mutagen_history":"[0,0,0,0,0,1,0,0]","location_rts":"[2988,5275,409,426,516,503,114,1426]","trial_type":"fractal-mutation","trial_index":58,"time_elapsed":4002793,"internal_node_id":"0.0-5.0-19.0"},{"group":"dihedral group of order 12","fractal_assignment":["../images/ylw_slt.png","../images/grn_red.png","../images/org_blu.png","../images/wht_red.png","../images/grn_prp.png","../images/gry_blk.png","../images/grn_blu.png","../images/blu_wht.png","../images/ylw_pnk.png","../images/pnk_blu.png","../images/cyn_red.png","../images/red_prp.png"],"mutagen_generator_assignment":[0,1],"goal":2,"start":4,"action_noise":0.15,"location_history":"[4,5,11,10,4,10,9,8,2]","action_history":"[0,0,0,1,1,0,0,1]","mutagen_history":"[0,0,0,1,1,0,0,1]","location_rts":"[935,262,529,583,798,141,686,846]","trial_type":"fractal-mutation","trial_index":59,"time_elapsed":4019694,"internal_node_id":"0.0-5.0-20.0"},{"group":"dihedral group of order 12","fractal_assignment":["../images/ylw_slt.png","../images/grn_red.png","../images/org_blu.png","../images/wht_red.png","../images/grn_prp.png","../images/gry_blk.png","../images/grn_blu.png","../images/blu_wht.png","../images/ylw_pnk.png","../images/pnk_blu.png","../images/cyn_red.png","../images/red_prp.png"],"mutagen_generator_assignment":[0,1],"goal":1,"start":2,"action_noise":0.15,"location_history":"[2,8,7,1]","action_history":"[1,0,1]","mutagen_history":"[1,0,1]","location_rts":"[1410,764,474]","trial_type":"fractal-mutation","trial_index":60,"time_elapsed":4029180,"internal_node_id":"0.0-5.0-21.0"},{"group":"dihedral group of order 12","fractal_assignment":["../images/ylw_slt.png","../images/grn_red.png","../images/org_blu.png","../images/wht_red.png","../images/grn_prp.png","../images/gry_blk.png","../images/grn_blu.png","../images/blu_wht.png","../images/ylw_pnk.png","../images/pnk_blu.png","../images/cyn_red.png","../images/red_prp.png"],"mutagen_generator_assignment":[0,1],"goal":3,"start":1,"action_noise":0.15,"location_history":"[1,2,3]","action_history":"[0,0]","mutagen_history":"[0,0]","location_rts":"[828,533]","trial_type":"fractal-mutation","trial_index":61,"time_elapsed":4036095,"internal_node_id":"0.0-5.0-22.0"},{"group":"dihedral group of order 12","fractal_assignment":["../images/ylw_slt.png","../images/grn_red.png","../images/org_blu.png","../images/wht_red.png","../images/grn_prp.png","../images/gry_blk.png","../images/grn_blu.png","../images/blu_wht.png","../images/ylw_pnk.png","../images/pnk_blu.png","../images/cyn_red.png","../images/red_prp.png"],"mutagen_generator_assignment":[0,1],"goal":7,"start":3,"action_noise":0.15,"location_history":"[3,4,5,11,10,4,5,11,10,4,5,0,1,2,8,2,3,4,10,4,5,0,6,11,5,0,1,2,8,2,8,7]","action_history":"[0,0,0,0,1,0,1,0,0,0,0,0,0,1,1,0,0,1,1,0,0,1,0,0,0,0,0,1,1,1,0]","mutagen_history":"[0,0,0,0,1,0,1,0,0,0,0,0,0,1,1,0,0,1,1,0,0,1,0,0,0,0,0,1,1,1,0]","location_rts":"[1376,208,484,435,687,477,734,380,99,334,678,916,777,567,409,454,92,749,855,455,887,1091,831,959,915,1032,68571,798,401,774,69104]","trial_type":"fractal-mutation","trial_index":62,"time_elapsed":4229806,"internal_node_id":"0.0-5.0-23.0"},{"group":"dihedral group of order 12","fractal_assignment":["../images/ylw_slt.png","../images/grn_red.png","../images/org_blu.png","../images/wht_red.png","../images/grn_prp.png","../images/gry_blk.png","../images/grn_blu.png","../images/blu_wht.png","../images/ylw_pnk.png","../images/pnk_blu.png","../images/cyn_red.png","../images/red_prp.png"],"mutagen_generator_assignment":[0,1],"goal":6,"start":7,"action_noise":0.15,"location_history":"[7,6]","action_history":"[0]","mutagen_history":"[0]","location_rts":"[1074]","trial_type":"fractal-mutation","trial_index":63,"time_elapsed":4235409,"internal_node_id":"0.0-5.0-24.0"},{"group":"dihedral group of order 12","fractal_assignment":["../images/ylw_slt.png","../images/grn_red.png","../images/org_blu.png","../images/wht_red.png","../images/grn_prp.png","../images/gry_blk.png","../images/grn_blu.png","../images/blu_wht.png","../images/ylw_pnk.png","../images/pnk_blu.png","../images/cyn_red.png","../images/red_prp.png"],"mutagen_generator_assignment":[0,1],"goal":2,"start":6,"action_noise":0.15,"location_history":"[6,11,10,9,8,2]","action_history":"[0,0,0,0,1]","mutagen_history":"[0,0,0,0,1]","location_rts":"[1655,767,642,592,526]","trial_type":"fractal-mutation","trial_index":64,"time_elapsed":4248310,"internal_node_id":"0.0-5.0-25.0"},{"group":"dihedral group of order 12","fractal_assignment":["../images/ylw_slt.png","../images/grn_red.png","../images/org_blu.png","../images/wht_red.png","../images/grn_prp.png","../images/gry_blk.png","../images/grn_blu.png","../images/blu_wht.png","../images/ylw_pnk.png","../images/pnk_blu.png","../images/cyn_red.png","../images/red_prp.png"],"mutagen_generator_assignment":[0,1],"goal":8,"start":2,"action_noise":0.15,"location_history":"[2,3,9,3,9,8]","action_history":"[0,1,1,1,0]","mutagen_history":"[0,1,1,1,0]","location_rts":"[1155,653,375,688,732]","trial_type":"fractal-mutation","trial_index":65,"time_elapsed":4260891,"internal_node_id":"0.0-5.0-26.0"},{"group":"dihedral group of order 12","fractal_assignment":["../images/ylw_slt.png","../images/grn_red.png","../images/org_blu.png","../images/wht_red.png","../images/grn_prp.png","../images/gry_blk.png","../images/grn_blu.png","../images/blu_wht.png","../images/ylw_pnk.png","../images/pnk_blu.png","../images/cyn_red.png","../images/red_prp.png"],"mutagen_generator_assignment":[0,1],"goal":0,"start":8,"action_noise":0.15,"location_history":"[8,7,6,11,10,9,3,4,10,4,10,9,3,4,10,4,10,9,3,4,5,0]","action_history":"[1,1,1,0,0,1,0,0,0,1,1,1,0,1,1,1,0,1,0,0,0]","mutagen_history":"[1,1,1,0,0,1,0,0,0,1,1,1,0,1,1,1,0,1,0,0,0]","location_rts":"[127043,516,270,242,504,665,319,331,668,972,2094,656,1789,815,96810,292,466,593,116,91,1361]","trial_type":"fractal-mutation","trial_index":66,"time_elapsed":4524849,"internal_node_id":"0.0-5.0-27.0"},{"group":"dihedral group of order 12","fractal_assignment":["../images/ylw_slt.png","../images/grn_red.png","../images/org_blu.png","../images/wht_red.png","../images/grn_prp.png","../images/gry_blk.png","../images/grn_blu.png","../images/blu_wht.png","../images/ylw_pnk.png","../images/pnk_blu.png","../images/cyn_red.png","../images/red_prp.png"],"mutagen_generator_assignment":[0,1],"goal":3,"start":0,"action_noise":0.15,"location_history":"[0,6,0,1,2,8,7,6,0,1,2,3]","action_history":"[1,0,0,0,1,0,0,1,0,0,0]","mutagen_history":"[1,0,0,0,1,0,0,1,0,0,0]","location_rts":"[2127,708,293,516,924,583,364,847,534,118,227]","trial_type":"fractal-mutation","trial_index":67,"time_elapsed":4547577,"internal_node_id":"0.0-5.0-28.0"},{"group":"dihedral group of order 12","fractal_assignment":["../images/ylw_slt.png","../images/grn_red.png","../images/org_blu.png","../images/wht_red.png","../images/grn_prp.png","../images/gry_blk.png","../images/grn_blu.png","../images/blu_wht.png","../images/ylw_pnk.png","../images/pnk_blu.png","../images/cyn_red.png","../images/red_prp.png"],"mutagen_generator_assignment":[0,1],"goal":4,"start":3,"action_noise":0.15,"location_history":"[3,4]","action_history":"[0]","mutagen_history":"[0]","location_rts":"[1030]","trial_type":"fractal-mutation","trial_index":68,"time_elapsed":4553139,"internal_node_id":"0.0-5.0-29.0"},{"group":"dihedral group of order 12","fractal_assignment":["../images/ylw_slt.png","../images/grn_red.png","../images/org_blu.png","../images/wht_red.png","../images/grn_prp.png","../images/gry_blk.png","../images/grn_blu.png","../images/blu_wht.png","../images/ylw_pnk.png","../images/pnk_blu.png","../images/cyn_red.png","../images/red_prp.png"],"mutagen_generator_assignment":[0,1],"goal":10,"start":4,"action_noise":0.15,"location_history":"[4,5,11,10]","action_history":"[1,1,0]","mutagen_history":"[1,1,0]","location_rts":"[918,300,663]","trial_type":"fractal-mutation","trial_index":69,"time_elapsed":4561858,"internal_node_id":"0.0-5.0-30.0"},{"group":"dihedral group of order 12","fractal_assignment":["../images/ylw_slt.png","../images/grn_red.png","../images/org_blu.png","../images/wht_red.png","../images/grn_prp.png","../images/gry_blk.png","../images/grn_blu.png","../images/blu_wht.png","../images/ylw_pnk.png","../images/pnk_blu.png","../images/cyn_red.png","../images/red_prp.png"],"mutagen_generator_assignment":[0,1],"goal":11,"start":10,"action_noise":0.15,"location_history":"[10,9,3,4,5,11]","action_history":"[1,1,0,0,0]","mutagen_history":"[1,1,0,0,0]","location_rts":"[1394,630,407,357,124]","trial_type":"fractal-mutation","trial_index":70,"time_elapsed":4573746,"internal_node_id":"0.0-5.0-31.0"},{"group":"dihedral group of order 12","fractal_assignment":["../images/ylw_slt.png","../images/grn_red.png","../images/org_blu.png","../images/wht_red.png","../images/grn_prp.png","../images/gry_blk.png","../images/grn_blu.png","../images/blu_wht.png","../images/ylw_pnk.png","../images/pnk_blu.png","../images/cyn_red.png","../images/red_prp.png"],"mutagen_generator_assignment":[0,1],"goal":1,"start":11,"action_noise":0.15,"location_history":"[11,10,9,8,7,1]","action_history":"[0,0,0,0,1]","mutagen_history":"[0,0,0,0,1]","location_rts":"[1399,270,449,872,870]","trial_type":"fractal-mutation","trial_index":71,"time_elapsed":4586340,"internal_node_id":"0.0-5.0-32.0"},{"group":"dihedral group of order 12","fractal_assignment":["../images/ylw_slt.png","../images/grn_red.png","../images/org_blu.png","../images/wht_red.png","../images/grn_prp.png","../images/gry_blk.png","../images/grn_blu.png","../images/blu_wht.png","../images/ylw_pnk.png","../images/pnk_blu.png","../images/cyn_red.png","../images/red_prp.png"],"mutagen_generator_assignment":[0,1],"goal":5,"start":1,"action_noise":0.15,"location_history":"[1,7,6,11,5]","action_history":"[0,0,1,1]","mutagen_history":"[0,0,1,1]","location_rts":"[1140,555,686,452]","trial_type":"fractal-mutation","trial_index":72,"time_elapsed":4596978,"internal_node_id":"0.0-5.0-33.0"},{"group":"dihedral group of order 12","fractal_assignment":["../images/ylw_slt.png","../images/grn_red.png","../images/org_blu.png","../images/wht_red.png","../images/grn_prp.png","../images/gry_blk.png","../images/grn_blu.png","../images/blu_wht.png","../images/ylw_pnk.png","../images/pnk_blu.png","../images/cyn_red.png","../images/red_prp.png"],"mutagen_generator_assignment":[0,1],"goal":9,"start":5,"action_noise":0.15,"location_history":"[5,11,10,4,5,11,5,11,5,11,10,9]","action_history":"[1,0,0,0,1,1,1,1,1,0,0]","mutagen_history":"[1,0,0,0,1,1,1,1,1,0,0]","location_rts":"[1047,563,460,363,676,229,2048,412,686,253,404]","trial_type":"fractal-mutation","trial_index":73,"time_elapsed":4619849,"internal_node_id":"0.0-5.0-34.0"},{"view_history":"[{\"page_index\":0,\"viewing_time\":4783}]","rt":4784,"trial_type":"instructions","trial_index":74,"time_elapsed":4625634,"internal_node_id":"0.0-6.0"},{"rt":14468,"responses":"{\"Q0\":\"None! Great HIT, I hope to eventually understand the patterns.\"}","trial_type":"survey-text","trial_index":75,"time_elapsed":4641107,"internal_node_id":"0.0-7.0"}]