[{"view_history":"[{\"page_index\":0,\"viewing_time\":9736},{\"page_index\":1,\"viewing_time\":80287},{\"page_index\":2,\"viewing_time\":15576},{\"page_index\":3,\"viewing_time\":6128}]","rt":111728,"trial_type":"instructions","trial_index":0,"time_elapsed":111728,"internal_node_id":"0.0-0.0"},{"view_history":"[{\"page_index\":0,\"viewing_time\":1742},{\"page_index\":1,\"viewing_time\":776136}]","rt":777878,"trial_type":"instructions","trial_index":1,"time_elapsed":890608,"internal_node_id":"0.0-1.0"},{"group":"dicyclic group of order 12","room_assignment":["ivory","grey","yellow","orange","blue","purple","brown","cyan","green","red","olive","pink"],"door_color_assignment":["black","white"],"door_generator_assignment":[1,0],"goal":4,"start":0,"action_noise":0.15,"location_history":"[0,1,5,10,2,3,0,1,2,3,0,1,5,9,1,5,9,6,11,4]","action_history":"[0,0,1,1,0,0,0,0,0,0,1,1,1,1,1,1,0,0,0]","door_history":"[1,1,0,0,1,1,1,1,1,1,0,0,0,0,0,0,1,1,1]","location_rts":"[3972,1321,1752,1327,1512,760,1008,592,448,359,918,269,359,1024,3191,1551,367,1103,1199]","trial_type":"two-door-navigation","trial_index":2,"time_elapsed":936166,"internal_node_id":"0.0-2.0-0.0"},{"group":"dicyclic group of order 12","room_assignment":["ivory","grey","yellow","orange","blue","purple","brown","cyan","green","red","olive","pink"],"door_color_assignment":["black","white"],"door_generator_assignment":[1,0],"goal":9,"start":4,"action_noise":0.15,"location_history":"[4,8,5,9]","action_history":"[1,1,1]","door_history":"[0,0,0]","location_rts":"[3336,551,1168]","trial_type":"two-door-navigation","trial_index":3,"time_elapsed":947726,"internal_node_id":"0.0-2.0-1.0"},{"group":"dicyclic group of order 12","room_assignment":["ivory","grey","yellow","orange","blue","purple","brown","cyan","green","red","olive","pink"],"door_color_assignment":["black","white"],"door_generator_assignment":[1,0],"goal":10,"start":9,"action_noise":0.15,"location_history":"[9,6,11,4,9,1,5,9,1,5,10]","action_history":"[0,0,0,0,1,1,1,1,1,0]","door_history":"[1,1,1,1,0,0,0,0,0,1]","location_rts":"[2610,525,432,1391,1768,784,712,288,504,688]","trial_type":"two-door-navigation","trial_index":4,"time_elapsed":970939,"internal_node_id":"0.0-2.0-2.0"},{"group":"dicyclic group of order 12","room_assignment":["ivory","grey","yellow","orange","blue","purple","brown","cyan","green","red","olive","pink"],"door_color_assignment":["black","white"],"door_generator_assignment":[1,0],"goal":2,"start":10,"action_noise":0.15,"location_history":"[10,7,8,5,10,7,8,0,4,8,0,1,2]","action_history":"[0,0,0,0,0,0,1,1,1,1,0,0]","door_history":"[1,1,1,1,1,1,0,0,0,0,1,1]","location_rts":"[1516,400,432,772,520,567,406,176,976,1991,967,352]","trial_type":"two-door-navigation","trial_index":5,"time_elapsed":995546,"internal_node_id":"0.0-2.0-3.0"},{"group":"dicyclic group of order 12","room_assignment":["ivory","grey","yellow","orange","blue","purple","brown","cyan","green","red","olive","pink"],"door_color_assignment":["black","white"],"door_generator_assignment":[1,0],"goal":5,"start":2,"action_noise":0.15,"location_history":"[2,3,7,11,3,7,8,5]","action_history":"[1,1,1,1,1,0,0]","door_history":"[0,0,0,0,0,1,1]","location_rts":"[8869,426,420,444,397,687,552]","trial_type":"two-door-navigation","trial_index":6,"time_elapsed":1017860,"internal_node_id":"0.0-2.0-4.0"},{"group":"dicyclic group of order 12","room_assignment":["ivory","grey","yellow","orange","blue","purple","brown","cyan","green","red","olive","pink"],"door_color_assignment":["black","white"],"door_generator_assignment":[1,0],"goal":11,"start":5,"action_noise":0.15,"location_history":"[5,9,6,11]","action_history":"[0,0,0]","door_history":"[1,1,1]","location_rts":"[6357,333,329]","trial_type":"two-door-navigation","trial_index":7,"time_elapsed":1031395,"internal_node_id":"0.0-2.0-5.0"},{"group":"dicyclic group of order 12","room_assignment":["ivory","grey","yellow","orange","blue","purple","brown","cyan","green","red","olive","pink"],"door_color_assignment":["black","white"],"door_generator_assignment":[1,0],"goal":6,"start":11,"action_noise":0.15,"location_history":"[11,3,7,11,4,9,6]","action_history":"[1,1,1,0,0,0]","door_history":"[0,0,0,1,1,1]","location_rts":"[1676,360,422,425,208,376]","trial_type":"two-door-navigation","trial_index":8,"time_elapsed":1044435,"internal_node_id":"0.0-2.0-6.0"},{"group":"dicyclic group of order 12","room_assignment":["ivory","grey","yellow","orange","blue","purple","brown","cyan","green","red","olive","pink"],"door_color_assignment":["black","white"],"door_generator_assignment":[1,0],"goal":3,"start":6,"action_noise":0.15,"location_history":"[6,10,2,3]","action_history":"[1,1,0]","door_history":"[0,0,1]","location_rts":"[1469,443,1044]","trial_type":"two-door-navigation","trial_index":9,"time_elapsed":1053926,"internal_node_id":"0.0-2.0-7.0"},{"group":"dicyclic group of order 12","room_assignment":["ivory","grey","yellow","orange","blue","purple","brown","cyan","green","red","olive","pink"],"door_color_assignment":["black","white"],"door_generator_assignment":[1,0],"goal":8,"start":3,"action_noise":0.15,"location_history":"[3,7,11,3,7,8]","action_history":"[1,1,1,1,0]","door_history":"[0,0,0,0,1]","location_rts":"[2010,415,400,560,401]","trial_type":"two-door-navigation","trial_index":10,"time_elapsed":1066218,"internal_node_id":"0.0-2.0-8.0"},{"group":"dicyclic group of order 12","room_assignment":["ivory","grey","yellow","orange","blue","purple","brown","cyan","green","red","olive","pink"],"door_color_assignment":["black","white"],"door_generator_assignment":[1,0],"goal":1,"start":8,"action_noise":0.15,"location_history":"[8,0,4,8,0,1]","action_history":"[1,1,1,1,0]","door_history":"[0,0,0,0,1]","location_rts":"[7173,505,691,486,784]","trial_type":"two-door-navigation","trial_index":11,"time_elapsed":1084370,"internal_node_id":"0.0-2.0-9.0"},{"group":"dicyclic group of order 12","room_assignment":["ivory","grey","yellow","orange","blue","purple","brown","cyan","green","red","olive","pink"],"door_color_assignment":["black","white"],"door_generator_assignment":[1,0],"goal":7,"start":1,"action_noise":0.15,"location_history":"[1,5,10,2,3,0,1,2,6,10,7]","action_history":"[1,1,1,0,0,0,0,1,1,1]","door_history":"[0,0,0,1,1,1,1,0,0,0]","location_rts":"[2636,344,320,775,426,449,376,280,319,391]","trial_type":"two-door-navigation","trial_index":12,"time_elapsed":1104223,"internal_node_id":"0.0-2.0-10.0"},{"group":"dicyclic group of order 12","room_assignment":["ivory","grey","yellow","orange","blue","purple","brown","cyan","green","red","olive","pink"],"door_color_assignment":["black","white"],"door_generator_assignment":[1,0],"goal":5,"start":7,"action_noise":0.15,"location_history":"[7,11,4,8,0,4,9,6,11,4,9,1,5]","action_history":"[1,1,1,1,1,0,0,0,0,1,1,1]","door_history":"[0,0,0,0,0,1,1,1,1,0,0,0]","location_rts":"[3343,448,347,403,424,656,456,507,477,314,278,471]","trial_type":"two-door-navigation","trial_index":13,"time_elapsed":1127891,"internal_node_id":"0.0-2.0-11.0"},{"group":"dicyclic group of order 12","room_assignment":["ivory","grey","yellow","orange","blue","purple","brown","cyan","green","red","olive","pink"],"door_color_assignment":["black","white"],"door_generator_assignment":[1,0],"goal":8,"start":5,"action_noise":0.15,"location_history":"[5,9,6,11,3,7,8]","action_history":"[1,0,1,1,1,1]","door_history":"[0,1,0,0,0,0]","location_rts":"[2683,898,755,368,336,472]","trial_type":"two-door-navigation","trial_index":14,"time_elapsed":1142941,"internal_node_id":"0.0-2.0-12.0"},{"group":"dicyclic group of order 12","room_assignment":["ivory","grey","yellow","orange","blue","purple","brown","cyan","green","red","olive","pink"],"door_color_assignment":["black","white"],"door_generator_assignment":[1,0],"goal":11,"start":8,"action_noise":0.15,"location_history":"[8,5,10,2,3,0,1,2,3,0,4,9,1,5,10,7,8,0,4,9,1,5,9,1,2,3,0,1,2,6,10,2,6,11]","action_history":"[0,0,0,0,0,0,0,0,1,1,1,1,0,0,0,0,1,1,1,1,1,1,1,0,0,0,0,0,1,1,1,1,0]","door_history":"[1,1,1,1,1,1,1,1,0,0,0,0,1,1,1,1,0,0,0,0,0,0,0,1,1,1,1,1,0,0,0,0,1]","location_rts":"[1731,514,752,353,336,398,520,390,254,239,276,447,327,334,381,2512,524,248,607,391,388,471,376,1606,376,302,296,320,337,407,384,427,288]","trial_type":"two-door-navigation","trial_index":15,"time_elapsed":1197803,"internal_node_id":"0.0-2.0-13.0"},{"group":"dicyclic group of order 12","room_assignment":["ivory","grey","yellow","orange","blue","purple","brown","cyan","green","red","olive","pink"],"door_color_assignment":["black","white"],"door_generator_assignment":[1,0],"goal":6,"start":11,"action_noise":0.15,"location_history":"[11,4,9,1,2,6]","action_history":"[1,1,1,0,1]","door_history":"[0,0,0,1,0]","location_rts":"[18684,436,408,1328,375]","trial_type":"two-door-navigation","trial_index":16,"time_elapsed":1227539,"internal_node_id":"0.0-2.0-14.0"},{"group":"dicyclic group of order 12","room_assignment":["ivory","grey","yellow","orange","blue","purple","brown","cyan","green","red","olive","pink"],"door_color_assignment":["black","white"],"door_generator_assignment":[1,0],"goal":7,"start":6,"action_noise":0.15,"location_history":"[6,11,3,7]","action_history":"[1,1,1]","door_history":"[0,0,0]","location_rts":"[2445,864,366]","trial_type":"two-door-navigation","trial_index":17,"time_elapsed":1237723,"internal_node_id":"0.0-2.0-15.0"},{"group":"dicyclic group of order 12","room_assignment":["ivory","grey","yellow","orange","blue","purple","brown","cyan","green","red","olive","pink"],"door_color_assignment":["black","white"],"door_generator_assignment":[1,0],"goal":10,"start":7,"action_noise":0.15,"location_history":"[7,8,5,10]","action_history":"[0,0,0]","door_history":"[1,1,1]","location_rts":"[2588,696,352]","trial_type":"two-door-navigation","trial_index":18,"time_elapsed":1247859,"internal_node_id":"0.0-2.0-16.0"},{"group":"dicyclic group of order 12","room_assignment":["ivory","grey","yellow","orange","blue","purple","brown","cyan","green","red","olive","pink"],"door_color_assignment":["black","white"],"door_generator_assignment":[1,0],"goal":0,"start":10,"action_noise":0.15,"location_history":"[10,2,6,11,3,7,11,4,8,0]","action_history":"[1,1,1,1,1,1,0,1,1]","door_history":"[0,0,0,0,0,0,1,0,0]","location_rts":"[6924,334,304,327,368,368,433,446,384]","trial_type":"two-door-navigation","trial_index":19,"time_elapsed":1270272,"internal_node_id":"0.0-2.0-17.0"},{"group":"dicyclic group of order 12","room_assignment":["ivory","grey","yellow","orange","blue","purple","brown","cyan","green","red","olive","pink"],"door_color_assignment":["black","white"],"door_generator_assignment":[1,0],"goal":9,"start":0,"action_noise":0.15,"location_history":"[0,4,9]","action_history":"[1,1]","door_history":"[0,0]","location_rts":"[1911,344]","trial_type":"two-door-navigation","trial_index":20,"time_elapsed":1278032,"internal_node_id":"0.0-2.0-18.0"},{"group":"dicyclic group of order 12","room_assignment":["ivory","grey","yellow","orange","blue","purple","brown","cyan","green","red","olive","pink"],"door_color_assignment":["black","white"],"door_generator_assignment":[1,0],"goal":4,"start":9,"action_noise":0.15,"location_history":"[9,1,2,6,10,2,3,0,1,5,10,2,6,10,2,3,0,1,5,10,7,11,3,7,11,3,0,1,5,10,2,6,11,3,7,11,4]","action_history":"[1,1,1,1,1,1,0,1,0,0,1,1,1,1,0,0,0,0,0,0,1,1,1,1,1,0,0,1,1,1,1,1,1,1,1,1]","door_history":"[0,0,0,0,0,0,1,0,1,1,0,0,0,0,1,1,1,1,1,1,0,0,0,0,0,1,1,0,0,0,0,0,0,0,0,0]","location_rts":"[1879,429,343,433,359,376,1064,391,896,304,556,330,359,405,294,223,408,376,325,366,1079,391,479,584,842,334,420,456,489,543,57,336,368,301,782,376]","trial_type":"two-door-navigation","trial_index":21,"time_elapsed":1335587,"internal_node_id":"0.0-2.0-19.0"},{"group":"dicyclic group of order 12","room_assignment":["ivory","grey","yellow","orange","blue","purple","brown","cyan","green","red","olive","pink"],"door_color_assignment":["black","white"],"door_generator_assignment":[1,0],"goal":2,"start":4,"action_noise":0.15,"location_history":"[4,9,6,10,7,8,5,10,7,8,5,10,2]","action_history":"[0,0,0,0,0,0,0,0,0,0,1,0]","door_history":"[1,1,1,1,1,1,1,1,1,1,0,1]","location_rts":"[1900,408,396,408,376,456,383,432,424,423,351,247]","trial_type":"two-door-navigation","trial_index":22,"time_elapsed":1357302,"internal_node_id":"0.0-2.0-20.0"},{"group":"dicyclic group of order 12","room_assignment":["ivory","grey","yellow","orange","blue","purple","brown","cyan","green","red","olive","pink"],"door_color_assignment":["black","white"],"door_generator_assignment":[1,0],"goal":1,"start":2,"action_noise":0.15,"location_history":"[2,3,0,1]","action_history":"[0,0,0]","door_history":"[1,1,1]","location_rts":"[1730,351,1440]","trial_type":"two-door-navigation","trial_index":23,"time_elapsed":1367332,"internal_node_id":"0.0-2.0-21.0"},{"group":"dicyclic group of order 12","room_assignment":["ivory","grey","yellow","orange","blue","purple","brown","cyan","green","red","olive","pink"],"door_color_assignment":["black","white"],"door_generator_assignment":[1,0],"goal":3,"start":1,"action_noise":0.15,"location_history":"[1,2,3]","action_history":"[0,0]","door_history":"[1,1]","location_rts":"[1451,429]","trial_type":"two-door-navigation","trial_index":24,"time_elapsed":1374716,"internal_node_id":"0.0-2.0-22.0"},{"group":"dicyclic group of order 12","room_assignment":["ivory","grey","yellow","orange","blue","purple","brown","cyan","green","red","olive","pink"],"door_color_assignment":["black","white"],"door_generator_assignment":[1,0],"goal":7,"start":3,"action_noise":0.15,"location_history":"[3,0,1,2,6,10,7]","action_history":"[0,0,0,1,1,1]","door_history":"[1,1,1,0,0,0]","location_rts":"[1851,1286,396,1016,400,519]","trial_type":"two-door-navigation","trial_index":25,"time_elapsed":1389703,"internal_node_id":"0.0-2.0-23.0"},{"group":"dicyclic group of order 12","room_assignment":["ivory","grey","yellow","orange","blue","purple","brown","cyan","green","red","olive","pink"],"door_color_assignment":["black","white"],"door_generator_assignment":[1,0],"goal":6,"start":7,"action_noise":0.15,"location_history":"[7,8,5,10,7,11,3,7,8,5,10,2,6]","action_history":"[0,0,0,0,1,1,1,1,1,1,1,1]","door_history":"[1,1,1,1,0,0,0,0,0,0,0,0]","location_rts":"[2832,255,392,304,816,431,448,407,424,455,992,408]","trial_type":"two-door-navigation","trial_index":26,"time_elapsed":1413383,"internal_node_id":"0.0-2.0-24.0"},{"group":"dicyclic group of order 12","room_assignment":["ivory","grey","yellow","orange","blue","purple","brown","cyan","green","red","olive","pink"],"door_color_assignment":["black","white"],"door_generator_assignment":[1,0],"goal":2,"start":6,"action_noise":0.15,"location_history":"[6,11,4,9,1,2]","action_history":"[0,0,1,1,0]","door_history":"[1,1,0,0,1]","location_rts":"[3096,504,912,369,1415]","trial_type":"two-door-navigation","trial_index":27,"time_elapsed":1428195,"internal_node_id":"0.0-2.0-25.0"},{"group":"dicyclic group of order 12","room_assignment":["ivory","grey","yellow","orange","blue","purple","brown","cyan","green","red","olive","pink"],"door_color_assignment":["black","white"],"door_generator_assignment":[1,0],"goal":8,"start":2,"action_noise":0.15,"location_history":"[2,3,7,11,4,8]","action_history":"[0,1,1,1,1]","door_history":"[1,0,0,0,0]","location_rts":"[2636,324,375,416,457]","trial_type":"two-door-navigation","trial_index":28,"time_elapsed":1440923,"internal_node_id":"0.0-2.0-26.0"},{"group":"dicyclic group of order 12","room_assignment":["ivory","grey","yellow","orange","blue","purple","brown","cyan","green","red","olive","pink"],"door_color_assignment":["black","white"],"door_generator_assignment":[1,0],"goal":0,"start":8,"action_noise":0.15,"location_history":"[8,5,10,2,3,0]","action_history":"[0,0,0,0,0]","door_history":"[1,1,1,1,1]","location_rts":"[1933,261,545,714,608]","trial_type":"two-door-navigation","trial_index":29,"time_elapsed":1453523,"internal_node_id":"0.0-2.0-27.0"},{"group":"dicyclic group of order 12","room_assignment":["ivory","grey","yellow","orange","blue","purple","brown","cyan","green","red","olive","pink"],"door_color_assignment":["black","white"],"door_generator_assignment":[1,0],"goal":3,"start":0,"action_noise":0.15,"location_history":"[0,1,2,3]","action_history":"[0,0,0]","door_history":"[1,1,1]","location_rts":"[1740,288,367]","trial_type":"two-door-navigation","trial_index":30,"time_elapsed":1462435,"internal_node_id":"0.0-2.0-28.0"},{"group":"dicyclic group of order 12","room_assignment":["ivory","grey","yellow","orange","blue","purple","brown","cyan","green","red","olive","pink"],"door_color_assignment":["black","white"],"door_generator_assignment":[1,0],"goal":4,"start":3,"action_noise":0.15,"location_history":"[3,7,8,0,4]","action_history":"[1,1,1,1]","door_history":"[0,0,0,0]","location_rts":"[2220,455,599,340]","trial_type":"two-door-navigation","trial_index":31,"time_elapsed":1473555,"internal_node_id":"0.0-2.0-29.0"},{"group":"dicyclic group of order 12","room_assignment":["ivory","grey","yellow","orange","blue","purple","brown","cyan","green","red","olive","pink"],"door_color_assignment":["black","white"],"door_generator_assignment":[1,0],"goal":10,"start":4,"action_noise":0.15,"location_history":"[4,8,5,9,6,11,4,8,0,4,8,5,9,1,2,3,7,11,4,9,6,10]","action_history":"[0,0,1,0,0,0,0,1,1,1,1,1,1,0,0,1,1,1,0,0,0]","door_history":"[1,1,0,1,1,1,1,0,0,0,0,0,0,1,1,0,0,0,1,1,1]","location_rts":"[1692,881,463,919,488,413,384,760,356,341,1049,407,1048,466,520,932,455,431,96,243,9]","trial_type":"two-door-navigation","trial_index":32,"time_elapsed":1510450,"internal_node_id":"0.0-2.0-30.0"},{"group":"dicyclic group of order 12","room_assignment":["ivory","grey","yellow","orange","blue","purple","brown","cyan","green","red","olive","pink"],"door_color_assignment":["black","white"],"door_generator_assignment":[1,0],"goal":11,"start":10,"action_noise":0.15,"location_history":"[10,2,6,11]","action_history":"[1,1,0]","door_history":"[0,0,1]","location_rts":"[1965,631,1024]","trial_type":"two-door-navigation","trial_index":33,"time_elapsed":1520570,"internal_node_id":"0.0-2.0-31.0"},{"group":"dicyclic group of order 12","room_assignment":["ivory","grey","yellow","orange","blue","purple","brown","cyan","green","red","olive","pink"],"door_color_assignment":["black","white"],"door_generator_assignment":[1,0],"goal":1,"start":11,"action_noise":0.15,"location_history":"[11,4,9,6,11,4,8,0,1]","action_history":"[0,0,0,0,0,1,1,0]","door_history":"[1,1,1,1,1,0,0,1]","location_rts":"[4372,1006,4046,1159,480,415,216,1743]","trial_type":"two-door-navigation","trial_index":34,"time_elapsed":1545529,"internal_node_id":"0.0-2.0-32.0"},{"group":"dicyclic group of order 12","room_assignment":["ivory","grey","yellow","orange","blue","purple","brown","cyan","green","red","olive","pink"],"door_color_assignment":["black","white"],"door_generator_assignment":[1,0],"goal":5,"start":1,"action_noise":0.15,"location_history":"[1,5]","action_history":"[1]","door_history":"[0]","location_rts":"[3102]","trial_type":"two-door-navigation","trial_index":35,"time_elapsed":1553131,"internal_node_id":"0.0-2.0-33.0"},{"group":"dicyclic group of order 12","room_assignment":["ivory","grey","yellow","orange","blue","purple","brown","cyan","green","red","olive","pink"],"door_color_assignment":["black","white"],"door_generator_assignment":[1,0],"goal":9,"start":5,"action_noise":0.15,"location_history":"[5,10,7,8,5,9]","action_history":"[0,0,0,0,1]","door_history":"[1,1,1,1,0]","location_rts":"[3996,759,483,344,770]","trial_type":"two-door-navigation","trial_index":36,"time_elapsed":1568011,"internal_node_id":"0.0-2.0-34.0"},{"view_history":"[{\"page_index\":0,\"viewing_time\":137325}]","rt":137325,"trial_type":"instructions","trial_index":37,"time_elapsed":1706336,"internal_node_id":"0.0-3.0"},{"view_history":"[{\"page_index\":0,\"viewing_time\":4358},{\"page_index\":1,\"viewing_time\":26529}]","rt":30887,"trial_type":"instructions","trial_index":38,"time_elapsed":1738224,"internal_node_id":"0.0-4.0"},{"group":"dihedral group of order 12","fractal_assignment":["../images/pnk_blu.png","../images/grn_prp.png","../images/cyn_red.png","../images/red_prp.png","../images/grn_red.png","../images/ylw_slt.png","../images/wht_red.png","../images/org_blu.png","../images/ylw_pnk.png","../images/grn_blu.png","../images/gry_blk.png","../images/blu_wht.png"],"mutagen_generator_assignment":[1,0],"goal":4,"start":0,"action_noise":0.15,"location_history":"[0,6,0,1,7,1,2,3,4]","action_history":"[1,1,0,0,0,0,0,0]","mutagen_history":"[0,0,1,1,1,1,1,1]","location_rts":"[4543,1995,2198,160,1923,2753,858,1329]","trial_type":"fractal-mutation","trial_index":39,"time_elapsed":1766306,"internal_node_id":"0.0-5.0-0.0"},{"group":"dihedral group of order 12","fractal_assignment":["../images/pnk_blu.png","../images/grn_prp.png","../images/cyn_red.png","../images/red_prp.png","../images/grn_red.png","../images/ylw_slt.png","../images/wht_red.png","../images/org_blu.png","../images/ylw_pnk.png","../images/grn_blu.png","../images/gry_blk.png","../images/blu_wht.png"],"mutagen_generator_assignment":[1,0],"goal":9,"start":4,"action_noise":0.15,"location_history":"[4,10,4,5,0,6,0,6,11,10,9]","action_history":"[1,1,0,0,1,1,1,0,0,0]","mutagen_history":"[0,0,1,1,0,0,0,1,1,1]","location_rts":"[2941,664,1549,537,1548,593,1157,591,610,485]","trial_type":"fractal-mutation","trial_index":40,"time_elapsed":1791381,"internal_node_id":"0.0-5.0-1.0"},{"group":"dihedral group of order 12","fractal_assignment":["../images/pnk_blu.png","../images/grn_prp.png","../images/cyn_red.png","../images/red_prp.png","../images/grn_red.png","../images/ylw_slt.png","../images/wht_red.png","../images/org_blu.png","../images/ylw_pnk.png","../images/grn_blu.png","../images/gry_blk.png","../images/blu_wht.png"],"mutagen_generator_assignment":[1,0],"goal":10,"start":9,"action_noise":0.15,"location_history":"[9,3,4,10]","action_history":"[1,1,1]","mutagen_history":"[0,0,0]","location_rts":"[2394,552,1248]","trial_type":"fractal-mutation","trial_index":41,"time_elapsed":1802084,"internal_node_id":"0.0-5.0-2.0"},{"group":"dihedral group of order 12","fractal_assignment":["../images/pnk_blu.png","../images/grn_prp.png","../images/cyn_red.png","../images/red_prp.png","../images/grn_red.png","../images/ylw_slt.png","../images/wht_red.png","../images/org_blu.png","../images/ylw_pnk.png","../images/grn_blu.png","../images/gry_blk.png","../images/blu_wht.png"],"mutagen_generator_assignment":[1,0],"goal":2,"start":10,"action_noise":0.15,"location_history":"[10,9,8,7,6,11,10,4,10,4,10,9,8,2]","action_history":"[0,0,0,0,0,0,0,1,1,1,0,0,1]","mutagen_history":"[1,1,1,1,1,1,1,0,0,0,1,1,0]","location_rts":"[2827,1859,862,578,998,621,871,993,738,879,896,1156,531]","trial_type":"fractal-mutation","trial_index":42,"time_elapsed":1833723,"internal_node_id":"0.0-5.0-3.0"},{"group":"dihedral group of order 12","fractal_assignment":["../images/pnk_blu.png","../images/grn_prp.png","../images/cyn_red.png","../images/red_prp.png","../images/grn_red.png","../images/ylw_slt.png","../images/wht_red.png","../images/org_blu.png","../images/ylw_pnk.png","../images/grn_blu.png","../images/gry_blk.png","../images/blu_wht.png"],"mutagen_generator_assignment":[1,0],"goal":5,"start":2,"action_noise":0.15,"location_history":"[2,8,7,1,7,1,7,1,7,1,2,8,2,3,4,5]","action_history":"[1,1,1,1,1,1,1,1,0,0,1,1,0,0,0]","mutagen_history":"[0,0,0,0,0,0,0,0,1,1,0,0,1,1,1]","location_rts":"[2163,513,696,500,583,863,533,661,932,385,934,580,794,461,918]","trial_type":"fractal-mutation","trial_index":43,"time_elapsed":1864521,"internal_node_id":"0.0-5.0-4.0"},{"group":"dihedral group of order 12","fractal_assignment":["../images/pnk_blu.png","../images/grn_prp.png","../images/cyn_red.png","../images/red_prp.png","../images/grn_red.png","../images/ylw_slt.png","../images/wht_red.png","../images/org_blu.png","../images/ylw_pnk.png","../images/grn_blu.png","../images/gry_blk.png","../images/blu_wht.png"],"mutagen_generator_assignment":[1,0],"goal":11,"start":5,"action_noise":0.15,"location_history":"[5,11]","action_history":"[1]","mutagen_history":"[0]","location_rts":"[1662]","trial_type":"fractal-mutation","trial_index":44,"time_elapsed":1870684,"internal_node_id":"0.0-5.0-5.0"},{"group":"dihedral group of order 12","fractal_assignment":["../images/pnk_blu.png","../images/grn_prp.png","../images/cyn_red.png","../images/red_prp.png","../images/grn_red.png","../images/ylw_slt.png","../images/wht_red.png","../images/org_blu.png","../images/ylw_pnk.png","../images/grn_blu.png","../images/gry_blk.png","../images/blu_wht.png"],"mutagen_generator_assignment":[1,0],"goal":6,"start":11,"action_noise":0.15,"location_history":"[11,5,11,5,11,10,9,8,2,8,7,6]","action_history":"[1,1,1,1,0,0,1,1,1,0,0]","mutagen_history":"[0,0,0,0,1,1,0,0,0,1,1]","location_rts":"[1803,527,792,638,453,449,441,468,496,589,507]","trial_type":"fractal-mutation","trial_index":45,"time_elapsed":1893016,"internal_node_id":"0.0-5.0-6.0"},{"group":"dihedral group of order 12","fractal_assignment":["../images/pnk_blu.png","../images/grn_prp.png","../images/cyn_red.png","../images/red_prp.png","../images/grn_red.png","../images/ylw_slt.png","../images/wht_red.png","../images/org_blu.png","../images/ylw_pnk.png","../images/grn_blu.png","../images/gry_blk.png","../images/blu_wht.png"],"mutagen_generator_assignment":[1,0],"goal":3,"start":6,"action_noise":0.15,"location_history":"[6,0,1,7,1,7,1,2,3]","action_history":"[1,0,1,1,1,1,0,0]","mutagen_history":"[0,1,0,0,0,0,1,1]","location_rts":"[1679,532,362,880,486,1009,759,300]","trial_type":"fractal-mutation","trial_index":46,"time_elapsed":1911138,"internal_node_id":"0.0-5.0-7.0"},{"group":"dihedral group of order 12","fractal_assignment":["../images/pnk_blu.png","../images/grn_prp.png","../images/cyn_red.png","../images/red_prp.png","../images/grn_red.png","../images/ylw_slt.png","../images/wht_red.png","../images/org_blu.png","../images/ylw_pnk.png","../images/grn_blu.png","../images/gry_blk.png","../images/blu_wht.png"],"mutagen_generator_assignment":[1,0],"goal":8,"start":3,"action_noise":0.15,"location_history":"[3,4,5,11,5,11,5,0,1,2,3,9,3,9,3,4,10,4,5,0,1,2,8]","action_history":"[0,0,1,1,1,1,0,0,1,1,1,1,1,1,0,1,1,0,0,0,0,1]","mutagen_history":"[1,1,0,0,0,0,1,1,0,0,0,0,0,0,1,0,0,1,1,1,1,0]","location_rts":"[1541,533,468,320,118,495,620,728,757,518,583,423,1988,498,885,344,381,533,864,986,538,303]","trial_type":"fractal-mutation","trial_index":47,"time_elapsed":1953028,"internal_node_id":"0.0-5.0-8.0"},{"group":"dihedral group of order 12","fractal_assignment":["../images/pnk_blu.png","../images/grn_prp.png","../images/cyn_red.png","../images/red_prp.png","../images/grn_red.png","../images/ylw_slt.png","../images/wht_red.png","../images/org_blu.png","../images/ylw_pnk.png","../images/grn_blu.png","../images/gry_blk.png","../images/blu_wht.png"],"mutagen_generator_assignment":[1,0],"goal":1,"start":8,"action_noise":0.15,"location_history":"[8,7,6,11,10,9,3,9,3,4,5,11,5,11,10,9,3,4,5,0,6,0,6,0,1]","action_history":"[0,0,0,0,0,1,1,1,0,0,1,1,0,0,0,1,0,0,0,1,1,1,1,0]","mutagen_history":"[1,1,1,1,1,0,0,0,1,1,0,0,1,1,1,0,1,1,1,0,0,0,0,1]","location_rts":"[899,489,662,539,507,640,1005,544,3370,667,808,588,328,514,805,1021,1141,741,539,370,482,539,1730,300]","trial_type":"fractal-mutation","trial_index":48,"time_elapsed":2002230,"internal_node_id":"0.0-5.0-9.0"},{"group":"dihedral group of order 12","fractal_assignment":["../images/pnk_blu.png","../images/grn_prp.png","../images/cyn_red.png","../images/red_prp.png","../images/grn_red.png","../images/ylw_slt.png","../images/wht_red.png","../images/org_blu.png","../images/ylw_pnk.png","../images/grn_blu.png","../images/gry_blk.png","../images/blu_wht.png"],"mutagen_generator_assignment":[1,0],"goal":7,"start":1,"action_noise":0.15,"location_history":"[1,7]","action_history":"[1]","mutagen_history":"[0]","location_rts":"[6257]","trial_type":"fractal-mutation","trial_index":49,"time_elapsed":2012988,"internal_node_id":"0.0-5.0-10.0"},{"group":"dihedral group of order 12","fractal_assignment":["../images/pnk_blu.png","../images/grn_prp.png","../images/cyn_red.png","../images/red_prp.png","../images/grn_red.png","../images/ylw_slt.png","../images/wht_red.png","../images/org_blu.png","../images/ylw_pnk.png","../images/grn_blu.png","../images/gry_blk.png","../images/blu_wht.png"],"mutagen_generator_assignment":[1,0],"goal":5,"start":7,"action_noise":0.15,"location_history":"[7,6,0,1,2,8,2,8,7,6,0,1,7,1,2,8,7,1,7,1,7,1,2,8,2,3,4,5]","action_history":"[0,0,0,1,1,1,0,0,0,1,0,1,1,0,0,0,1,1,1,1,0,0,1,1,0,0,1]","mutagen_history":"[1,1,1,0,0,0,1,1,1,0,1,0,0,1,1,1,0,0,0,0,1,1,0,0,1,1,0]","location_rts":"[1554,494,549,906,496,622,1612,495,697,698,379,1188,486,510,651,458,421,313,348,422,466,1066,529,501,354,985,962]","trial_type":"fractal-mutation","trial_index":50,"time_elapsed":2064249,"internal_node_id":"0.0-5.0-11.0"},{"group":"dihedral group of order 12","fractal_assignment":["../images/pnk_blu.png","../images/grn_prp.png","../images/cyn_red.png","../images/red_prp.png","../images/grn_red.png","../images/ylw_slt.png","../images/wht_red.png","../images/org_blu.png","../images/ylw_pnk.png","../images/grn_blu.png","../images/gry_blk.png","../images/blu_wht.png"],"mutagen_generator_assignment":[1,0],"goal":8,"start":5,"action_noise":0.15,"location_history":"[5,11,5,11,5,0,1,2,8]","action_history":"[1,1,1,0,0,0,0,0]","mutagen_history":"[0,0,0,1,1,1,1,1]","location_rts":"[1309,374,400,567,657,542,453,493]","trial_type":"fractal-mutation","trial_index":51,"time_elapsed":2081173,"internal_node_id":"0.0-5.0-12.0"},{"group":"dihedral group of order 12","fractal_assignment":["../images/pnk_blu.png","../images/grn_prp.png","../images/cyn_red.png","../images/red_prp.png","../images/grn_red.png","../images/ylw_slt.png","../images/wht_red.png","../images/org_blu.png","../images/ylw_pnk.png","../images/grn_blu.png","../images/gry_blk.png","../images/blu_wht.png"],"mutagen_generator_assignment":[1,0],"goal":11,"start":8,"action_noise":0.15,"location_history":"[8,2,8,2,3,9,3,9,8,7,1,2,8,2,3,9,8,2,8,2,3,4,10,9,8,2,3,4,5,0,6,0,6,11]","action_history":"[1,1,0,0,1,1,1,0,0,1,0,1,1,0,0,0,1,1,1,0,0,0,1,0,1,0,0,0,0,1,1,1,0]","mutagen_history":"[0,0,1,1,0,0,0,1,1,0,1,0,0,1,1,1,0,0,0,1,1,1,0,1,0,1,1,1,1,0,0,0,1]","location_rts":"[1225,503,630,657,872,472,443,447,396,627,647,367,272,517,498,696,1319,588,401,293,306,515,1130,478,912,726,248,667,754,527,407,440,740]","trial_type":"fractal-mutation","trial_index":52,"time_elapsed":2140367,"internal_node_id":"0.0-5.0-13.0"},{"group":"dihedral group of order 12","fractal_assignment":["../images/pnk_blu.png","../images/grn_prp.png","../images/cyn_red.png","../images/red_prp.png","../images/grn_red.png","../images/ylw_slt.png","../images/wht_red.png","../images/org_blu.png","../images/ylw_pnk.png","../images/grn_blu.png","../images/gry_blk.png","../images/blu_wht.png"],"mutagen_generator_assignment":[1,0],"goal":6,"start":11,"action_noise":0.15,"location_history":"[11,5,11,5,0,6]","action_history":"[1,1,0,1,1]","mutagen_history":"[0,0,1,0,0]","location_rts":"[1808,1012,429,672,642]","trial_type":"fractal-mutation","trial_index":53,"time_elapsed":2153676,"internal_node_id":"0.0-5.0-14.0"},{"group":"dihedral group of order 12","fractal_assignment":["../images/pnk_blu.png","../images/grn_prp.png","../images/cyn_red.png","../images/red_prp.png","../images/grn_red.png","../images/ylw_slt.png","../images/wht_red.png","../images/org_blu.png","../images/ylw_pnk.png","../images/grn_blu.png","../images/gry_blk.png","../images/blu_wht.png"],"mutagen_generator_assignment":[1,0],"goal":7,"start":6,"action_noise":0.15,"location_history":"[6,11,10,4,10,9,8,7]","action_history":"[0,0,1,1,1,0,0]","mutagen_history":"[1,1,0,0,0,1,1]","location_rts":"[1202,437,365,458,575,304,495]","trial_type":"fractal-mutation","trial_index":54,"time_elapsed":2168760,"internal_node_id":"0.0-5.0-15.0"},{"group":"dihedral group of order 12","fractal_assignment":["../images/pnk_blu.png","../images/grn_prp.png","../images/cyn_red.png","../images/red_prp.png","../images/grn_red.png","../images/ylw_slt.png","../images/wht_red.png","../images/org_blu.png","../images/ylw_pnk.png","../images/grn_blu.png","../images/gry_blk.png","../images/blu_wht.png"],"mutagen_generator_assignment":[1,0],"goal":10,"start":7,"action_noise":0.15,"location_history":"[7,6,0,6,0,1,2,3,9,3,9,3,4,10]","action_history":"[1,1,1,1,0,0,1,1,1,1,1,0,0]","mutagen_history":"[0,0,0,0,1,1,0,0,0,0,0,1,1]","location_rts":"[1527,474,872,448,417,455,881,518,497,1216,639,296,1430]","trial_type":"fractal-mutation","trial_index":55,"time_elapsed":2195752,"internal_node_id":"0.0-5.0-16.0"},{"group":"dihedral group of order 12","fractal_assignment":["../images/pnk_blu.png","../images/grn_prp.png","../images/cyn_red.png","../images/red_prp.png","../images/grn_red.png","../images/ylw_slt.png","../images/wht_red.png","../images/org_blu.png","../images/ylw_pnk.png","../images/grn_blu.png","../images/gry_blk.png","../images/blu_wht.png"],"mutagen_generator_assignment":[1,0],"goal":0,"start":10,"action_noise":0.15,"location_history":"[10,4,10,9,8,7,6,11,10,4,10,4,10,9,3,9,3,4,10,4,5,0]","action_history":"[1,1,1,0,0,0,0,0,0,1,1,1,0,1,1,1,0,1,1,0,0]","mutagen_history":"[0,0,0,1,1,1,1,1,1,0,0,0,1,0,0,0,1,0,0,1,1]","location_rts":"[1103,396,364,688,400,415,518,743,576,434,569,519,597,403,464,656,283,646,444,484,256]","trial_type":"fractal-mutation","trial_index":56,"time_elapsed":2232925,"internal_node_id":"0.0-5.0-17.0"},{"group":"dihedral group of order 12","fractal_assignment":["../images/pnk_blu.png","../images/grn_prp.png","../images/cyn_red.png","../images/red_prp.png","../images/grn_red.png","../images/ylw_slt.png","../images/wht_red.png","../images/org_blu.png","../images/ylw_pnk.png","../images/grn_blu.png","../images/gry_blk.png","../images/blu_wht.png"],"mutagen_generator_assignment":[1,0],"goal":9,"start":0,"action_noise":0.15,"location_history":"[0,6,0,1,2,8,7,6,11,5,11,10,4,10,9]","action_history":"[1,1,0,0,1,0,0,0,1,1,0,1,1,0]","mutagen_history":"[0,0,1,1,0,1,1,1,0,0,1,0,0,1]","location_rts":"[1346,528,891,575,806,276,404,428,685,712,1058,412,551,639]","trial_type":"fractal-mutation","trial_index":57,"time_elapsed":2261085,"internal_node_id":"0.0-5.0-18.0"},{"group":"dihedral group of order 12","fractal_assignment":["../images/pnk_blu.png","../images/grn_prp.png","../images/cyn_red.png","../images/red_prp.png","../images/grn_red.png","../images/ylw_slt.png","../images/wht_red.png","../images/org_blu.png","../images/ylw_pnk.png","../images/grn_blu.png","../images/gry_blk.png","../images/blu_wht.png"],"mutagen_generator_assignment":[1,0],"goal":4,"start":9,"action_noise":0.15,"location_history":"[9,8,7,6,11,10,9,8,2,8,2,8,2,3,4]","action_history":"[1,0,0,1,1,0,0,1,0,0,1,1,0,0]","mutagen_history":"[0,1,1,0,0,1,1,0,1,1,0,0,1,1]","location_rts":"[1226,1127,641,751,574,550,1103,486,569,826,1422,533,900,419]","trial_type":"fractal-mutation","trial_index":58,"time_elapsed":2291137,"internal_node_id":"0.0-5.0-19.0"},{"group":"dihedral group of order 12","fractal_assignment":["../images/pnk_blu.png","../images/grn_prp.png","../images/cyn_red.png","../images/red_prp.png","../images/grn_red.png","../images/ylw_slt.png","../images/wht_red.png","../images/org_blu.png","../images/ylw_pnk.png","../images/grn_blu.png","../images/gry_blk.png","../images/blu_wht.png"],"mutagen_generator_assignment":[1,0],"goal":2,"start":4,"action_noise":0.15,"location_history":"[4,10,9,3,9,8,7,6,0,1,2]","action_history":"[1,0,1,1,0,0,1,1,0,0]","mutagen_history":"[0,1,0,0,1,1,0,0,1,1]","location_rts":"[1630,906,559,781,373,1008,1132,741,397,375]","trial_type":"fractal-mutation","trial_index":59,"time_elapsed":2313444,"internal_node_id":"0.0-5.0-20.0"},{"group":"dihedral group of order 12","fractal_assignment":["../images/pnk_blu.png","../images/grn_prp.png","../images/cyn_red.png","../images/red_prp.png","../images/grn_red.png","../images/ylw_slt.png","../images/wht_red.png","../images/org_blu.png","../images/ylw_pnk.png","../images/grn_blu.png","../images/gry_blk.png","../images/blu_wht.png"],"mutagen_generator_assignment":[1,0],"goal":1,"start":2,"action_noise":0.15,"location_history":"[2,3,9,8,7,6,0,6,11,10,4,10,9,8,2,8,2,3,4,5,0,6,0,1]","action_history":"[0,0,0,0,0,0,1,0,0,1,1,0,1,1,1,0,0,0,0,1,1,1,0]","mutagen_history":"[1,1,1,1,1,1,0,1,1,0,0,1,0,0,0,1,1,1,1,0,0,0,1]","location_rts":"[1076,474,672,798,621,735,755,375,928,749,715,718,1156,616,381,545,316,420,885,621,519,577,627]","trial_type":"fractal-mutation","trial_index":60,"time_elapsed":2357709,"internal_node_id":"0.0-5.0-21.0"},{"group":"dihedral group of order 12","fractal_assignment":["../images/pnk_blu.png","../images/grn_prp.png","../images/cyn_red.png","../images/red_prp.png","../images/grn_red.png","../images/ylw_slt.png","../images/wht_red.png","../images/org_blu.png","../images/ylw_pnk.png","../images/grn_blu.png","../images/gry_blk.png","../images/blu_wht.png"],"mutagen_generator_assignment":[1,0],"goal":3,"start":1,"action_noise":0.15,"location_history":"[1,2,3]","action_history":"[0,0]","mutagen_history":"[1,1]","location_rts":"[1873,624]","trial_type":"fractal-mutation","trial_index":61,"time_elapsed":2365936,"internal_node_id":"0.0-5.0-22.0"},{"group":"dihedral group of order 12","fractal_assignment":["../images/pnk_blu.png","../images/grn_prp.png","../images/cyn_red.png","../images/red_prp.png","../images/grn_red.png","../images/ylw_slt.png","../images/wht_red.png","../images/org_blu.png","../images/ylw_pnk.png","../images/grn_blu.png","../images/gry_blk.png","../images/blu_wht.png"],"mutagen_generator_assignment":[1,0],"goal":7,"start":3,"action_noise":0.15,"location_history":"[3,9,8,2,8,7]","action_history":"[1,0,1,1,0]","mutagen_history":"[0,1,0,0,1]","location_rts":"[1728,1040,796,728,480]","trial_type":"fractal-mutation","trial_index":62,"time_elapsed":2379621,"internal_node_id":"0.0-5.0-23.0"},{"group":"dihedral group of order 12","fractal_assignment":["../images/pnk_blu.png","../images/grn_prp.png","../images/cyn_red.png","../images/red_prp.png","../images/grn_red.png","../images/ylw_slt.png","../images/wht_red.png","../images/org_blu.png","../images/ylw_pnk.png","../images/grn_blu.png","../images/gry_blk.png","../images/blu_wht.png"],"mutagen_generator_assignment":[1,0],"goal":6,"start":7,"action_noise":0.15,"location_history":"[7,1,2,8,7,1,7,6]","action_history":"[1,1,1,0,1,1,1]","mutagen_history":"[0,0,0,1,0,0,0]","location_rts":"[1306,410,447,1230,389,406,441]","trial_type":"fractal-mutation","trial_index":63,"time_elapsed":2395094,"internal_node_id":"0.0-5.0-24.0"},{"group":"dihedral group of order 12","fractal_assignment":["../images/pnk_blu.png","../images/grn_prp.png","../images/cyn_red.png","../images/red_prp.png","../images/grn_red.png","../images/ylw_slt.png","../images/wht_red.png","../images/org_blu.png","../images/ylw_pnk.png","../images/grn_blu.png","../images/gry_blk.png","../images/blu_wht.png"],"mutagen_generator_assignment":[1,0],"goal":2,"start":6,"action_noise":0.15,"location_history":"[6,11,10,9,3,4,10,4,5,0,6,0,6,11,5,11,10,4,10,9,8,2]","action_history":"[0,0,0,1,0,1,1,0,0,1,1,0,0,1,1,0,1,1,0,0,1]","mutagen_history":"[1,1,1,0,1,0,0,1,1,0,0,1,1,0,0,1,0,0,1,1,0]","location_rts":"[1745,1501,796,891,705,768,746,886,311,490,366,301,354,1029,420,404,1085,769,281,542,518]","trial_type":"fractal-mutation","trial_index":64,"time_elapsed":2436512,"internal_node_id":"0.0-5.0-25.0"},{"group":"dihedral group of order 12","fractal_assignment":["../images/pnk_blu.png","../images/grn_prp.png","../images/cyn_red.png","../images/red_prp.png","../images/grn_red.png","../images/ylw_slt.png","../images/wht_red.png","../images/org_blu.png","../images/ylw_pnk.png","../images/grn_blu.png","../images/gry_blk.png","../images/blu_wht.png"],"mutagen_generator_assignment":[1,0],"goal":8,"start":2,"action_noise":0.15,"location_history":"[2,8]","action_history":"[1]","mutagen_history":"[0]","location_rts":"[2079]","trial_type":"fractal-mutation","trial_index":65,"time_elapsed":2443092,"internal_node_id":"0.0-5.0-26.0"},{"group":"dihedral group of order 12","fractal_assignment":["../images/pnk_blu.png","../images/grn_prp.png","../images/cyn_red.png","../images/red_prp.png","../images/grn_red.png","../images/ylw_slt.png","../images/wht_red.png","../images/org_blu.png","../images/ylw_pnk.png","../images/grn_blu.png","../images/gry_blk.png","../images/blu_wht.png"],"mutagen_generator_assignment":[1,0],"goal":0,"start":8,"action_noise":0.15,"location_history":"[8,7,1,7,6,0]","action_history":"[0,1,1,0,0]","mutagen_history":"[1,0,0,1,1]","location_rts":"[1595,1097,463,450,262]","trial_type":"fractal-mutation","trial_index":66,"time_elapsed":2455926,"internal_node_id":"0.0-5.0-27.0"},{"group":"dihedral group of order 12","fractal_assignment":["../images/pnk_blu.png","../images/grn_prp.png","../images/cyn_red.png","../images/red_prp.png","../images/grn_red.png","../images/ylw_slt.png","../images/wht_red.png","../images/org_blu.png","../images/ylw_pnk.png","../images/grn_blu.png","../images/gry_blk.png","../images/blu_wht.png"],"mutagen_generator_assignment":[1,0],"goal":3,"start":0,"action_noise":0.15,"location_history":"[0,6,11,10,4,10,9,3]","action_history":"[1,0,0,1,0,0,1]","mutagen_history":"[0,1,1,0,1,1,0]","location_rts":"[2433,1046,339,956,535,621,674]","trial_type":"fractal-mutation","trial_index":67,"time_elapsed":2473651,"internal_node_id":"0.0-5.0-28.0"},{"group":"dihedral group of order 12","fractal_assignment":["../images/pnk_blu.png","../images/grn_prp.png","../images/cyn_red.png","../images/red_prp.png","../images/grn_red.png","../images/ylw_slt.png","../images/wht_red.png","../images/org_blu.png","../images/ylw_pnk.png","../images/grn_blu.png","../images/gry_blk.png","../images/blu_wht.png"],"mutagen_generator_assignment":[1,0],"goal":4,"start":3,"action_noise":0.15,"location_history":"[3,9,8,7,6,11,5,11,5,11,10,4]","action_history":"[1,0,0,0,0,1,0,0,0,0,1]","mutagen_history":"[0,1,1,1,1,0,1,1,1,1,0]","location_rts":"[3515,568,586,1256,914,2147,430,218,313,730,1108]","trial_type":"fractal-mutation","trial_index":68,"time_elapsed":2500968,"internal_node_id":"0.0-5.0-29.0"},{"group":"dihedral group of order 12","fractal_assignment":["../images/pnk_blu.png","../images/grn_prp.png","../images/cyn_red.png","../images/red_prp.png","../images/grn_red.png","../images/ylw_slt.png","../images/wht_red.png","../images/org_blu.png","../images/ylw_pnk.png","../images/grn_blu.png","../images/gry_blk.png","../images/blu_wht.png"],"mutagen_generator_assignment":[1,0],"goal":10,"start":4,"action_noise":0.15,"location_history":"[4,10]","action_history":"[1]","mutagen_history":"[0]","location_rts":"[2990]","trial_type":"fractal-mutation","trial_index":69,"time_elapsed":2508460,"internal_node_id":"0.0-5.0-30.0"},{"group":"dihedral group of order 12","fractal_assignment":["../images/pnk_blu.png","../images/grn_prp.png","../images/cyn_red.png","../images/red_prp.png","../images/grn_red.png","../images/ylw_slt.png","../images/wht_red.png","../images/org_blu.png","../images/ylw_pnk.png","../images/grn_blu.png","../images/gry_blk.png","../images/blu_wht.png"],"mutagen_generator_assignment":[1,0],"goal":11,"start":10,"action_noise":0.15,"location_history":"[10,4,5,0,6,0,1,2,8,7,6,11]","action_history":"[1,0,0,1,1,0,0,1,0,0,0]","mutagen_history":"[0,1,1,0,0,1,1,0,1,1,1]","location_rts":"[2130,464,459,1390,781,135,369,678,781,939,509]","trial_type":"fractal-mutation","trial_index":70,"time_elapsed":2532623,"internal_node_id":"0.0-5.0-31.0"},{"group":"dihedral group of order 12","fractal_assignment":["../images/pnk_blu.png","../images/grn_prp.png","../images/cyn_red.png","../images/red_prp.png","../images/grn_red.png","../images/ylw_slt.png","../images/wht_red.png","../images/org_blu.png","../images/ylw_pnk.png","../images/grn_blu.png","../images/gry_blk.png","../images/blu_wht.png"],"mutagen_generator_assignment":[1,0],"goal":1,"start":11,"action_noise":0.15,"location_history":"[11,5,0,1]","action_history":"[1,0,0]","mutagen_history":"[0,1,1]","location_rts":"[1560,429,1163]","trial_type":"fractal-mutation","trial_index":71,"time_elapsed":2542715,"internal_node_id":"0.0-5.0-32.0"},{"group":"dihedral group of order 12","fractal_assignment":["../images/pnk_blu.png","../images/grn_prp.png","../images/cyn_red.png","../images/red_prp.png","../images/grn_red.png","../images/ylw_slt.png","../images/wht_red.png","../images/org_blu.png","../images/ylw_pnk.png","../images/grn_blu.png","../images/gry_blk.png","../images/blu_wht.png"],"mutagen_generator_assignment":[1,0],"goal":5,"start":1,"action_noise":0.15,"location_history":"[1,2,8,7,6,0,1,2,3,9,3,9,3,4,10,4,5]","action_history":"[0,0,0,1,0,0,1,0,0,1,1,0,0,1,1,0]","mutagen_history":"[1,1,1,0,1,1,0,1,1,0,0,1,1,0,0,1]","location_rts":"[1605,1302,927,1110,465,262,543,435,313,640,467,289,380,663,671,273]","trial_type":"fractal-mutation","trial_index":72,"time_elapsed":2574335,"internal_node_id":"0.0-5.0-33.0"},{"group":"dihedral group of order 12","fractal_assignment":["../images/pnk_blu.png","../images/grn_prp.png","../images/cyn_red.png","../images/red_prp.png","../images/grn_red.png","../images/ylw_slt.png","../images/wht_red.png","../images/org_blu.png","../images/ylw_pnk.png","../images/grn_blu.png","../images/gry_blk.png","../images/blu_wht.png"],"mutagen_generator_assignment":[1,0],"goal":9,"start":5,"action_noise":0.15,"location_history":"[5,0,6,11,10,9]","action_history":"[0,1,0,0,0]","mutagen_history":"[1,0,1,1,1]","location_rts":"[2015,1562,619,273,1042]","trial_type":"fractal-mutation","trial_index":73,"time_elapsed":2588968,"internal_node_id":"0.0-5.0-34.0"},{"view_history":"[{\"page_index\":0,\"viewing_time\":10654}]","rt":10655,"trial_type":"instructions","trial_index":74,"time_elapsed":2600623,"internal_node_id":"0.0-6.0"},{"rt":1742,"responses":"{\"Q0\":\"\"}","trial_type":"survey-text","trial_index":75,"time_elapsed":2603369,"internal_node_id":"0.0-7.0"}]