[{"view_history":"[{\"page_index\":0,\"viewing_time\":222209},{\"page_index\":1,\"viewing_time\":16380},{\"page_index\":2,\"viewing_time\":78575},{\"page_index\":3,\"viewing_time\":5761}]","rt":322927,"trial_type":"instructions","trial_index":0,"time_elapsed":322929,"internal_node_id":"0.0-0.0"},{"view_history":"[{\"page_index\":0,\"viewing_time\":5005},{\"page_index\":1,\"viewing_time\":72064}]","rt":77072,"trial_type":"instructions","trial_index":1,"time_elapsed":401002,"internal_node_id":"0.0-1.0"},{"group":"dihedral group of order 12","room_assignment":["grey","pink","blue","red","yellow","olive","cyan","green","purple","brown","ivory","orange"],"door_color_assignment":["black","white"],"door_generator_assignment":[0,1],"goal":4,"start":0,"action_noise":0.15,"location_history":"[0,1,2,3,4]","action_history":"[0,0,0,0]","door_history":"[0,0,0,0]","location_rts":"[9514,9266,2145,1558]","trial_type":"two-door-navigation","trial_index":2,"time_elapsed":431086,"internal_node_id":"0.0-2.0-0.0"},{"group":"dihedral group of order 12","room_assignment":["grey","pink","blue","red","yellow","olive","cyan","green","purple","brown","ivory","orange"],"door_color_assignment":["black","white"],"door_generator_assignment":[0,1],"goal":9,"start":4,"action_noise":0.15,"location_history":"[4,10,9]","action_history":"[1,1]","door_history":"[1,1]","location_rts":"[2658,2588]","trial_type":"two-door-navigation","trial_index":3,"time_elapsed":441910,"internal_node_id":"0.0-2.0-1.0"},{"group":"dihedral group of order 12","room_assignment":["grey","pink","blue","red","yellow","olive","cyan","green","purple","brown","ivory","orange"],"door_color_assignment":["black","white"],"door_generator_assignment":[0,1],"goal":10,"start":9,"action_noise":0.15,"location_history":"[9,8,7,6,11,10]","action_history":"[0,0,0,0,0]","door_history":"[0,0,0,0,0]","location_rts":"[2886,1879,1294,976,1272]","trial_type":"two-door-navigation","trial_index":4,"time_elapsed":458893,"internal_node_id":"0.0-2.0-2.0"},{"group":"dihedral group of order 12","room_assignment":["grey","pink","blue","red","yellow","olive","cyan","green","purple","brown","ivory","orange"],"door_color_assignment":["black","white"],"door_generator_assignment":[0,1],"goal":2,"start":10,"action_noise":0.15,"location_history":"[10,4,10,4,5,11,5,11,10,9,3,4,5,0,6,11,10,9,8,7,6,11,5,0,6,0,6,0,1,2]","action_history":"[1,1,1,1,1,1,1,0,0,0,0,0,0,0,0,0,0,0,0,0,0,1,0,1,1,1,1,1,0]","door_history":"[1,1,1,1,1,1,1,0,0,0,0,0,0,0,0,0,0,0,0,0,0,1,0,1,1,1,1,1,0]","location_rts":"[3317,1007,969,3224,1705,1493,1808,561,637,608,604,611,654,702,1265,741,751,689,1120,818,1124,872,1114,697,1100,583,1041,1219,3618]","trial_type":"two-door-navigation","trial_index":5,"time_elapsed":526719,"internal_node_id":"0.0-2.0-3.0"},{"group":"dihedral group of order 12","room_assignment":["grey","pink","blue","red","yellow","olive","cyan","green","purple","brown","ivory","orange"],"door_color_assignment":["black","white"],"door_generator_assignment":[0,1],"goal":5,"start":2,"action_noise":0.15,"location_history":"[2,3,4,5]","action_history":"[1,0,0]","door_history":"[1,0,0]","location_rts":"[4541,1972,1127]","trial_type":"two-door-navigation","trial_index":6,"time_elapsed":540943,"internal_node_id":"0.0-2.0-4.0"},{"group":"dihedral group of order 12","room_assignment":["grey","pink","blue","red","yellow","olive","cyan","green","purple","brown","ivory","orange"],"door_color_assignment":["black","white"],"door_generator_assignment":[0,1],"goal":11,"start":5,"action_noise":0.15,"location_history":"[5,11]","action_history":"[1]","door_history":"[1]","location_rts":"[2115]","trial_type":"two-door-navigation","trial_index":7,"time_elapsed":547579,"internal_node_id":"0.0-2.0-5.0"},{"group":"dihedral group of order 12","room_assignment":["grey","pink","blue","red","yellow","olive","cyan","green","purple","brown","ivory","orange"],"door_color_assignment":["black","white"],"door_generator_assignment":[0,1],"goal":6,"start":11,"action_noise":0.15,"location_history":"[11,10,9,8,7,6]","action_history":"[0,0,0,0,0]","door_history":"[0,0,0,0,0]","location_rts":"[5075,899,630,681,545]","trial_type":"two-door-navigation","trial_index":8,"time_elapsed":564062,"internal_node_id":"0.0-2.0-6.0"},{"group":"dihedral group of order 12","room_assignment":["grey","pink","blue","red","yellow","olive","cyan","green","purple","brown","ivory","orange"],"door_color_assignment":["black","white"],"door_generator_assignment":[0,1],"goal":3,"start":6,"action_noise":0.15,"location_history":"[6,11,10,9,8,7,1,7,1,2,8,2,8,7,1,2,3]","action_history":"[0,0,0,0,0,0,1,1,1,1,1,1,0,1,0,0]","door_history":"[0,0,0,0,0,0,1,1,1,1,1,1,0,1,0,0]","location_rts":"[4793,531,703,577,740,814,3774,582,681,883,2073,1310,1392,1264,1435,987]","trial_type":"two-door-navigation","trial_index":9,"time_elapsed":606527,"internal_node_id":"0.0-2.0-7.0"},{"group":"dihedral group of order 12","room_assignment":["grey","pink","blue","red","yellow","olive","cyan","green","purple","brown","ivory","orange"],"door_color_assignment":["black","white"],"door_generator_assignment":[0,1],"goal":8,"start":3,"action_noise":0.15,"location_history":"[3,9,3,9,8]","action_history":"[1,1,1,0]","door_history":"[1,1,1,0]","location_rts":"[2370,961,1135,912]","trial_type":"two-door-navigation","trial_index":10,"time_elapsed":619469,"internal_node_id":"0.0-2.0-8.0"},{"group":"dihedral group of order 12","room_assignment":["grey","pink","blue","red","yellow","olive","cyan","green","purple","brown","ivory","orange"],"door_color_assignment":["black","white"],"door_generator_assignment":[0,1],"goal":1,"start":8,"action_noise":0.15,"location_history":"[8,7,6,11,10,4,10,4,5,11,10,9,8,7,1]","action_history":"[0,1,1,1,1,1,1,0,1,0,0,0,0,1]","door_history":"[0,1,1,1,1,1,1,0,1,0,0,0,0,1]","location_rts":"[4669,786,1635,605,512,511,571,589,1398,1249,443,526,1128,1756]","trial_type":"two-door-navigation","trial_index":11,"time_elapsed":653807,"internal_node_id":"0.0-2.0-9.0"},{"group":"dihedral group of order 12","room_assignment":["grey","pink","blue","red","yellow","olive","cyan","green","purple","brown","ivory","orange"],"door_color_assignment":["black","white"],"door_generator_assignment":[0,1],"goal":7,"start":1,"action_noise":0.15,"location_history":"[1,2,3,4,10,9,8,7]","action_history":"[0,0,0,0,0,0,0]","door_history":"[0,0,0,0,0,0,0]","location_rts":"[2996,1313,487,469,463,563,1500]","trial_type":"two-door-navigation","trial_index":12,"time_elapsed":672256,"internal_node_id":"0.0-2.0-10.0"},{"group":"dihedral group of order 12","room_assignment":["grey","pink","blue","red","yellow","olive","cyan","green","purple","brown","ivory","orange"],"door_color_assignment":["black","white"],"door_generator_assignment":[0,1],"goal":5,"start":7,"action_noise":0.15,"location_history":"[7,1,7,6,0,6,11,5]","action_history":"[1,0,0,1,1,1,1]","door_history":"[1,0,0,1,1,1,1]","location_rts":"[1630,1675,433,1117,450,625,969]","trial_type":"two-door-navigation","trial_index":13,"time_elapsed":689784,"internal_node_id":"0.0-2.0-11.0"},{"group":"dihedral group of order 12","room_assignment":["grey","pink","blue","red","yellow","olive","cyan","green","purple","brown","ivory","orange"],"door_color_assignment":["black","white"],"door_generator_assignment":[0,1],"goal":8,"start":5,"action_noise":0.15,"location_history":"[5,0,6,0,6,11,5,0,1,2,3,4,5,11,10,4,10,4,5,11,10,4,10,4,5,0,1,2,8]","action_history":"[0,1,1,1,0,1,0,0,0,0,0,1,0,0,1,1,1,0,1,1,1,1,1,0,0,0,0,0]","door_history":"[0,1,1,1,0,1,0,0,0,0,0,1,0,0,1,1,1,0,1,1,1,1,1,0,0,0,0,0]","location_rts":"[2679,1697,382,453,748,2256,1314,517,1249,864,571,700,1270,489,1403,345,438,629,1870,417,479,899,441,1350,1488,1258,855,638]","trial_type":"two-door-navigation","trial_index":14,"time_elapsed":749555,"internal_node_id":"0.0-2.0-12.0"},{"group":"dihedral group of order 12","room_assignment":["grey","pink","blue","red","yellow","olive","cyan","green","purple","brown","ivory","orange"],"door_color_assignment":["black","white"],"door_generator_assignment":[0,1],"goal":11,"start":8,"action_noise":0.15,"location_history":"[8,2,3,4,5,0,1,2,3,4,5,0,6,11]","action_history":"[1,0,0,0,0,0,0,0,0,0,0,1,0]","door_history":"[1,0,0,0,0,0,0,0,0,0,0,1,0]","location_rts":"[2515,933,415,393,410,433,840,523,438,423,611,1473,447]","trial_type":"two-door-navigation","trial_index":15,"time_elapsed":776156,"internal_node_id":"0.0-2.0-13.0"},{"group":"dihedral group of order 12","room_assignment":["grey","pink","blue","red","yellow","olive","cyan","green","purple","brown","ivory","orange"],"door_color_assignment":["black","white"],"door_generator_assignment":[0,1],"goal":6,"start":11,"action_noise":0.15,"location_history":"[11,10,9,8,7,6]","action_history":"[0,0,0,0,0]","door_history":"[0,0,0,0,0]","location_rts":"[2420,350,415,682,432]","trial_type":"two-door-navigation","trial_index":16,"time_elapsed":789058,"internal_node_id":"0.0-2.0-14.0"},{"group":"dihedral group of order 12","room_assignment":["grey","pink","blue","red","yellow","olive","cyan","green","purple","brown","ivory","orange"],"door_color_assignment":["black","white"],"door_generator_assignment":[0,1],"goal":7,"start":6,"action_noise":0.15,"location_history":"[6,0,1,2,3,4,10,9,8,7]","action_history":"[1,1,0,0,0,0,0,0,0]","door_history":"[1,1,0,0,0,0,0,0,0]","location_rts":"[3880,1020,3339,304,460,496,400,400,585]","trial_type":"two-door-navigation","trial_index":17,"time_elapsed":812596,"internal_node_id":"0.0-2.0-15.0"},{"group":"dihedral group of order 12","room_assignment":["grey","pink","blue","red","yellow","olive","cyan","green","purple","brown","ivory","orange"],"door_color_assignment":["black","white"],"door_generator_assignment":[0,1],"goal":10,"start":7,"action_noise":0.15,"location_history":"[7,1,2,8,7,6,0,6,11,10]","action_history":"[1,0,0,0,0,0,1,0,0]","door_history":"[1,0,0,0,0,0,1,0,0]","location_rts":"[4053,2122,344,336,404,486,1159,1218,611]","trial_type":"two-door-navigation","trial_index":18,"time_elapsed":835982,"internal_node_id":"0.0-2.0-16.0"},{"group":"dihedral group of order 12","room_assignment":["grey","pink","blue","red","yellow","olive","cyan","green","purple","brown","ivory","orange"],"door_color_assignment":["black","white"],"door_generator_assignment":[0,1],"goal":0,"start":10,"action_noise":0.15,"location_history":"[10,4,5,11,5,11,5,0]","action_history":"[1,1,1,1,1,1,0]","door_history":"[1,1,1,1,1,1,0]","location_rts":"[1750,721,732,473,752,625,1315]","trial_type":"two-door-navigation","trial_index":19,"time_elapsed":853043,"internal_node_id":"0.0-2.0-17.0"},{"group":"dihedral group of order 12","room_assignment":["grey","pink","blue","red","yellow","olive","cyan","green","purple","brown","ivory","orange"],"door_color_assignment":["black","white"],"door_generator_assignment":[0,1],"goal":9,"start":0,"action_noise":0.15,"location_history":"[0,6,0,1,2,3,4,5,0,6,0,1,2,3,4,5,0,1,7,6,0,1,2,8,7,6,11,5,0,1,2,8,2,3,4,10,9]","action_history":"[0,0,0,0,0,0,0,0,0,0,0,1,0,0,0,0,0,1,0,1,0,0,1,0,0,0,0,0,0,0,1,1,0,0,0,0]","door_history":"[0,0,0,0,0,0,0,0,0,0,0,1,0,0,0,0,0,1,0,1,0,0,1,0,0,0,0,0,0,0,1,1,0,0,0,0]","location_rts":"[1605,3903,571,808,351,350,391,518,378,450,582,1007,847,365,391,619,1006,822,408,2477,1398,1931,670,1396,427,408,498,720,420,1635,863,923,1499,327,394,575]","trial_type":"two-door-navigation","trial_index":20,"time_elapsed":925173,"internal_node_id":"0.0-2.0-18.0"},{"group":"dihedral group of order 12","room_assignment":["grey","pink","blue","red","yellow","olive","cyan","green","purple","brown","ivory","orange"],"door_color_assignment":["black","white"],"door_generator_assignment":[0,1],"goal":4,"start":9,"action_noise":0.15,"location_history":"[9,3,4]","action_history":"[1,0]","door_history":"[1,0]","location_rts":"[3516,685]","trial_type":"two-door-navigation","trial_index":21,"time_elapsed":934911,"internal_node_id":"0.0-2.0-19.0"},{"group":"dihedral group of order 12","room_assignment":["grey","pink","blue","red","yellow","olive","cyan","green","purple","brown","ivory","orange"],"door_color_assignment":["black","white"],"door_generator_assignment":[0,1],"goal":2,"start":4,"action_noise":0.15,"location_history":"[4,5,0,1,2]","action_history":"[0,0,0,0]","door_history":"[0,0,0,0]","location_rts":"[2796,775,445,1179]","trial_type":"two-door-navigation","trial_index":22,"time_elapsed":947675,"internal_node_id":"0.0-2.0-20.0"},{"group":"dihedral group of order 12","room_assignment":["grey","pink","blue","red","yellow","olive","cyan","green","purple","brown","ivory","orange"],"door_color_assignment":["black","white"],"door_generator_assignment":[0,1],"goal":1,"start":2,"action_noise":0.15,"location_history":"[2,8,7,6,11,10,4,5,0,1]","action_history":"[0,0,0,0,0,0,0,0,0]","door_history":"[0,0,0,0,0,0,0,0,0]","location_rts":"[2962,364,417,351,421,844,958,346,546]","trial_type":"two-door-navigation","trial_index":23,"time_elapsed":967604,"internal_node_id":"0.0-2.0-21.0"},{"group":"dihedral group of order 12","room_assignment":["grey","pink","blue","red","yellow","olive","cyan","green","purple","brown","ivory","orange"],"door_color_assignment":["black","white"],"door_generator_assignment":[0,1],"goal":3,"start":1,"action_noise":0.15,"location_history":"[1,2,3]","action_history":"[1,0]","door_history":"[1,0]","location_rts":"[1974,769]","trial_type":"two-door-navigation","trial_index":24,"time_elapsed":975924,"internal_node_id":"0.0-2.0-22.0"},{"group":"dihedral group of order 12","room_assignment":["grey","pink","blue","red","yellow","olive","cyan","green","purple","brown","ivory","orange"],"door_color_assignment":["black","white"],"door_generator_assignment":[0,1],"goal":7,"start":3,"action_noise":0.15,"location_history":"[3,4,10,9,8,7]","action_history":"[0,0,0,0,0]","door_history":"[0,0,0,0,0]","location_rts":"[6839,456,341,406,462]","trial_type":"two-door-navigation","trial_index":25,"time_elapsed":993050,"internal_node_id":"0.0-2.0-23.0"},{"group":"dihedral group of order 12","room_assignment":["grey","pink","blue","red","yellow","olive","cyan","green","purple","brown","ivory","orange"],"door_color_assignment":["black","white"],"door_generator_assignment":[0,1],"goal":6,"start":7,"action_noise":0.15,"location_history":"[7,1,2,3,9,8,7,6]","action_history":"[1,0,0,1,0,0,0]","door_history":"[1,0,0,1,0,0,0]","location_rts":"[2928,1377,731,1406,544,362,333]","trial_type":"two-door-navigation","trial_index":26,"time_elapsed":1011423,"internal_node_id":"0.0-2.0-24.0"},{"group":"dihedral group of order 12","room_assignment":["grey","pink","blue","red","yellow","olive","cyan","green","purple","brown","ivory","orange"],"door_color_assignment":["black","white"],"door_generator_assignment":[0,1],"goal":2,"start":6,"action_noise":0.15,"location_history":"[6,0,1,2]","action_history":"[1,0,0]","door_history":"[1,0,0]","location_rts":"[2674,487,849]","trial_type":"two-door-navigation","trial_index":27,"time_elapsed":1022002,"internal_node_id":"0.0-2.0-25.0"},{"group":"dihedral group of order 12","room_assignment":["grey","pink","blue","red","yellow","olive","cyan","green","purple","brown","ivory","orange"],"door_color_assignment":["black","white"],"door_generator_assignment":[0,1],"goal":8,"start":2,"action_noise":0.15,"location_history":"[2,8]","action_history":"[1]","door_history":"[1]","location_rts":"[2320]","trial_type":"two-door-navigation","trial_index":28,"time_elapsed":1028843,"internal_node_id":"0.0-2.0-26.0"},{"group":"dihedral group of order 12","room_assignment":["grey","pink","blue","red","yellow","olive","cyan","green","purple","brown","ivory","orange"],"door_color_assignment":["black","white"],"door_generator_assignment":[0,1],"goal":0,"start":8,"action_noise":0.15,"location_history":"[8,2,8,7,6,11,10,9,8,7,6,11,10,4,5,0]","action_history":"[1,1,0,0,0,0,0,0,0,1,0,0,1,0,0]","door_history":"[1,1,0,0,0,0,0,0,0,1,0,0,1,0,0]","location_rts":"[1976,1692,911,557,473,385,839,665,1636,1300,685,403,823,1002,1682]","trial_type":"two-door-navigation","trial_index":29,"time_elapsed":1062657,"internal_node_id":"0.0-2.0-27.0"},{"group":"dihedral group of order 12","room_assignment":["grey","pink","blue","red","yellow","olive","cyan","green","purple","brown","ivory","orange"],"door_color_assignment":["black","white"],"door_generator_assignment":[0,1],"goal":3,"start":0,"action_noise":0.15,"location_history":"[0,6,11,5,0,6,11,10,4,5,11,5,0,1,2,3]","action_history":"[1,0,1,0,1,0,0,0,0,0,0,1,0,0,0]","door_history":"[1,0,1,0,1,0,0,0,0,0,0,1,0,0,0]","location_rts":"[5434,1745,2442,1002,1131,678,703,898,620,679,736,871,1198,759,485]","trial_type":"two-door-navigation","trial_index":30,"time_elapsed":1100922,"internal_node_id":"0.0-2.0-28.0"},{"group":"dihedral group of order 12","room_assignment":["grey","pink","blue","red","yellow","olive","cyan","green","purple","brown","ivory","orange"],"door_color_assignment":["black","white"],"door_generator_assignment":[0,1],"goal":4,"start":3,"action_noise":0.15,"location_history":"[3,4]","action_history":"[0]","door_history":"[0]","location_rts":"[2404]","trial_type":"two-door-navigation","trial_index":31,"time_elapsed":1107856,"internal_node_id":"0.0-2.0-29.0"},{"group":"dihedral group of order 12","room_assignment":["grey","pink","blue","red","yellow","olive","cyan","green","purple","brown","ivory","orange"],"door_color_assignment":["black","white"],"door_generator_assignment":[0,1],"goal":10,"start":4,"action_noise":0.15,"location_history":"[4,10]","action_history":"[1]","door_history":"[1]","location_rts":"[2476]","trial_type":"two-door-navigation","trial_index":32,"time_elapsed":1114868,"internal_node_id":"0.0-2.0-30.0"},{"group":"dihedral group of order 12","room_assignment":["grey","pink","blue","red","yellow","olive","cyan","green","purple","brown","ivory","orange"],"door_color_assignment":["black","white"],"door_generator_assignment":[0,1],"goal":11,"start":10,"action_noise":0.15,"location_history":"[10,9,8,7,6,11]","action_history":"[0,0,0,0,0]","door_history":"[0,0,0,0,0]","location_rts":"[5039,495,434,410,408]","trial_type":"two-door-navigation","trial_index":33,"time_elapsed":1130354,"internal_node_id":"0.0-2.0-31.0"},{"group":"dihedral group of order 12","room_assignment":["grey","pink","blue","red","yellow","olive","cyan","green","purple","brown","ivory","orange"],"door_color_assignment":["black","white"],"door_generator_assignment":[0,1],"goal":1,"start":11,"action_noise":0.15,"location_history":"[11,5,0,6,0,1]","action_history":"[1,0,1,0,0]","door_history":"[1,0,1,0,0]","location_rts":"[2238,1173,948,580,668]","trial_type":"two-door-navigation","trial_index":34,"time_elapsed":1144549,"internal_node_id":"0.0-2.0-32.0"},{"group":"dihedral group of order 12","room_assignment":["grey","pink","blue","red","yellow","olive","cyan","green","purple","brown","ivory","orange"],"door_color_assignment":["black","white"],"door_generator_assignment":[0,1],"goal":5,"start":1,"action_noise":0.15,"location_history":"[1,2,8,7,1,2,3,9,3,4,5]","action_history":"[0,1,0,0,0,0,1,0,0,1]","door_history":"[0,1,0,0,0,0,1,0,0,1]","location_rts":"[1782,1205,565,446,424,469,704,772,390,1378]","trial_type":"two-door-navigation","trial_index":35,"time_elapsed":1166434,"internal_node_id":"0.0-2.0-33.0"},{"group":"dihedral group of order 12","room_assignment":["grey","pink","blue","red","yellow","olive","cyan","green","purple","brown","ivory","orange"],"door_color_assignment":["black","white"],"door_generator_assignment":[0,1],"goal":9,"start":5,"action_noise":0.15,"location_history":"[5,11,10,4,5,0,1,2,8,7,1,2,8,2,3,9]","action_history":"[1,0,0,0,0,0,0,1,0,0,0,1,1,0,1]","door_history":"[1,0,0,0,0,0,0,1,0,0,0,1,1,0,1]","location_rts":"[1582,847,484,369,481,695,1820,1688,590,401,1712,954,749,864,1063]","trial_type":"two-door-navigation","trial_index":36,"time_elapsed":1199575,"internal_node_id":"0.0-2.0-34.0"},{"view_history":"[{\"page_index\":0,\"viewing_time\":237599}]","rt":237600,"trial_type":"instructions","trial_index":37,"time_elapsed":1438175,"internal_node_id":"0.0-3.0"},{"view_history":"[{\"page_index\":0,\"viewing_time\":3643},{\"page_index\":1,\"viewing_time\":41199}]","rt":44844,"trial_type":"instructions","trial_index":38,"time_elapsed":1484021,"internal_node_id":"0.0-4.0"},{"group":"dihedral group of order 12","fractal_assignment":["../images/cyn_red.png","../images/grn_prp.png","../images/org_blu.png","../images/grn_blu.png","../images/pnk_blu.png","../images/ylw_pnk.png","../images/grn_red.png","../images/red_prp.png","../images/gry_blk.png","../images/wht_red.png","../images/ylw_slt.png","../images/blu_wht.png"],"mutagen_generator_assignment":[0,1],"goal":4,"start":0,"action_noise":0.15,"location_history":"[0,1,2,3,4]","action_history":"[0,0,0,0]","mutagen_history":"[0,0,0,0]","location_rts":"[4107,6042,3475,2305]","trial_type":"fractal-mutation","trial_index":39,"time_elapsed":1507639,"internal_node_id":"0.0-5.0-0.0"},{"group":"dihedral group of order 12","fractal_assignment":["../images/cyn_red.png","../images/grn_prp.png","../images/org_blu.png","../images/grn_blu.png","../images/pnk_blu.png","../images/ylw_pnk.png","../images/grn_red.png","../images/red_prp.png","../images/gry_blk.png","../images/wht_red.png","../images/ylw_slt.png","../images/blu_wht.png"],"mutagen_generator_assignment":[0,1],"goal":9,"start":4,"action_noise":0.15,"location_history":"[4,5,11,5,0,1,2,8,7,6,11,10,9]","action_history":"[1,1,1,0,0,0,1,0,0,0,0,0]","mutagen_history":"[1,1,1,0,0,0,1,0,0,0,0,0]","location_rts":"[2218,1832,2300,1471,1843,1647,1594,2039,1154,1160,3447,1504]","trial_type":"fractal-mutation","trial_index":40,"time_elapsed":1545932,"internal_node_id":"0.0-5.0-1.0"},{"group":"dihedral group of order 12","fractal_assignment":["../images/cyn_red.png","../images/grn_prp.png","../images/org_blu.png","../images/grn_blu.png","../images/pnk_blu.png","../images/ylw_pnk.png","../images/grn_red.png","../images/red_prp.png","../images/gry_blk.png","../images/wht_red.png","../images/ylw_slt.png","../images/blu_wht.png"],"mutagen_generator_assignment":[0,1],"goal":10,"start":9,"action_noise":0.15,"location_history":"[9,3,4,5,0,1,2,3,9,3,9,8,2,3,9,8,7,1,7,6,0,1,7,1,2,3,4,5,11,5,0,1,2,8,2,3,4,10]","action_history":"[1,0,0,0,0,0,0,1,1,1,0,1,0,1,0,0,1,1,1,1,1,1,1,0,1,0,1,1,1,0,0,0,1,1,0,0,1]","mutagen_history":"[1,0,0,0,0,0,0,1,1,1,0,1,0,1,0,0,1,1,1,1,1,1,1,0,1,0,1,1,1,0,0,0,1,1,0,0,1]","location_rts":"[3478,2260,3016,1897,1105,1457,872,2616,1229,1340,2020,1053,1017,1679,797,759,1530,2483,751,1038,1307,1023,1265,723,2000,918,1462,1394,2321,1019,1503,1222,877,1425,856,1389,1800]","trial_type":"fractal-mutation","trial_index":41,"time_elapsed":1642964,"internal_node_id":"0.0-5.0-2.0"},{"group":"dihedral group of order 12","fractal_assignment":["../images/cyn_red.png","../images/grn_prp.png","../images/org_blu.png","../images/grn_blu.png","../images/pnk_blu.png","../images/ylw_pnk.png","../images/grn_red.png","../images/red_prp.png","../images/gry_blk.png","../images/wht_red.png","../images/ylw_slt.png","../images/blu_wht.png"],"mutagen_generator_assignment":[0,1],"goal":2,"start":10,"action_noise":0.15,"location_history":"[10,4,5,0,1,7,1,7,1,7,6,0,1,2]","action_history":"[1,0,0,0,1,0,1,1,1,0,1,1,0]","mutagen_history":"[1,0,0,0,1,0,1,1,1,0,1,1,0]","location_rts":"[1904,1210,861,1189,815,866,668,501,882,1078,1767,1188,885]","trial_type":"fractal-mutation","trial_index":42,"time_elapsed":1673727,"internal_node_id":"0.0-5.0-3.0"},{"group":"dihedral group of order 12","fractal_assignment":["../images/cyn_red.png","../images/grn_prp.png","../images/org_blu.png","../images/grn_blu.png","../images/pnk_blu.png","../images/ylw_pnk.png","../images/grn_red.png","../images/red_prp.png","../images/gry_blk.png","../images/wht_red.png","../images/ylw_slt.png","../images/blu_wht.png"],"mutagen_generator_assignment":[0,1],"goal":5,"start":2,"action_noise":0.15,"location_history":"[2,8,2,3,4,10,9,3,4,10,4,10,4,10,9,8,7,6,0,6,11,5]","action_history":"[1,1,0,0,0,0,1,1,1,1,1,1,1,0,0,0,0,1,1,0,1]","mutagen_history":"[1,1,0,0,0,0,1,1,1,1,1,1,1,0,0,0,0,1,1,0,1]","location_rts":"[2067,1299,660,980,1014,1332,1339,808,886,768,1017,699,790,707,1223,962,1461,1226,945,784,1236]","trial_type":"fractal-mutation","trial_index":43,"time_elapsed":1721275,"internal_node_id":"0.0-5.0-4.0"},{"group":"dihedral group of order 12","fractal_assignment":["../images/cyn_red.png","../images/grn_prp.png","../images/org_blu.png","../images/grn_blu.png","../images/pnk_blu.png","../images/ylw_pnk.png","../images/grn_red.png","../images/red_prp.png","../images/gry_blk.png","../images/wht_red.png","../images/ylw_slt.png","../images/blu_wht.png"],"mutagen_generator_assignment":[0,1],"goal":11,"start":5,"action_noise":0.15,"location_history":"[5,0,1,2,3,4,5,0,6,0,1,2,8,2,3,9,3,9,8,7,6,11]","action_history":"[0,0,0,0,0,0,1,1,1,0,1,1,1,0,1,1,0,0,0,0,0]","mutagen_history":"[0,0,0,0,0,0,1,1,1,0,1,1,1,0,1,1,0,0,0,0,0]","location_rts":"[2244,1278,674,2196,1330,941,581,1013,1132,785,652,1118,2010,998,641,2963,1011,932,1112,1092,861]","trial_type":"fractal-mutation","trial_index":44,"time_elapsed":1772170,"internal_node_id":"0.0-5.0-5.0"},{"group":"dihedral group of order 12","fractal_assignment":["../images/cyn_red.png","../images/grn_prp.png","../images/org_blu.png","../images/grn_blu.png","../images/pnk_blu.png","../images/ylw_pnk.png","../images/grn_red.png","../images/red_prp.png","../images/gry_blk.png","../images/wht_red.png","../images/ylw_slt.png","../images/blu_wht.png"],"mutagen_generator_assignment":[0,1],"goal":6,"start":11,"action_noise":0.15,"location_history":"[11,5,11,5,11,10,4,10,4,5,0,6]","action_history":"[1,1,1,1,0,1,1,1,0,0,1]","mutagen_history":"[1,1,1,1,0,1,1,1,0,0,1]","location_rts":"[2050,1239,1094,1697,1393,991,1100,608,849,1189,1923]","trial_type":"fractal-mutation","trial_index":45,"time_elapsed":1801110,"internal_node_id":"0.0-5.0-6.0"},{"group":"dihedral group of order 12","fractal_assignment":["../images/cyn_red.png","../images/grn_prp.png","../images/org_blu.png","../images/grn_blu.png","../images/pnk_blu.png","../images/ylw_pnk.png","../images/grn_red.png","../images/red_prp.png","../images/gry_blk.png","../images/wht_red.png","../images/ylw_slt.png","../images/blu_wht.png"],"mutagen_generator_assignment":[0,1],"goal":3,"start":6,"action_noise":0.15,"location_history":"[6,0,6,11,5,0,1,7,6,0,1,7,1,2,8,2,3]","action_history":"[1,1,0,0,0,0,0,0,0,0,1,1,0,1,1,0]","mutagen_history":"[1,1,0,0,0,0,0,0,0,0,1,1,0,1,1,0]","location_rts":"[1310,1884,1354,659,864,803,1287,842,987,1000,813,1216,792,910,1134,768]","trial_type":"fractal-mutation","trial_index":46,"time_elapsed":1837726,"internal_node_id":"0.0-5.0-7.0"},{"group":"dihedral group of order 12","fractal_assignment":["../images/cyn_red.png","../images/grn_prp.png","../images/org_blu.png","../images/grn_blu.png","../images/pnk_blu.png","../images/ylw_pnk.png","../images/grn_red.png","../images/red_prp.png","../images/gry_blk.png","../images/wht_red.png","../images/ylw_slt.png","../images/blu_wht.png"],"mutagen_generator_assignment":[0,1],"goal":8,"start":3,"action_noise":0.15,"location_history":"[3,9,3,9,3,9,8]","action_history":"[1,1,1,1,1,0]","mutagen_history":"[1,1,1,1,1,0]","location_rts":"[3520,875,729,642,677,442]","trial_type":"fractal-mutation","trial_index":47,"time_elapsed":1854336,"internal_node_id":"0.0-5.0-8.0"},{"group":"dihedral group of order 12","fractal_assignment":["../images/cyn_red.png","../images/grn_prp.png","../images/org_blu.png","../images/grn_blu.png","../images/pnk_blu.png","../images/ylw_pnk.png","../images/grn_red.png","../images/red_prp.png","../images/gry_blk.png","../images/wht_red.png","../images/ylw_slt.png","../images/blu_wht.png"],"mutagen_generator_assignment":[0,1],"goal":1,"start":8,"action_noise":0.15,"location_history":"[8,7,6,11,5,0,1]","action_history":"[0,0,0,1,0,0]","mutagen_history":"[0,0,0,1,0,0]","location_rts":"[1512,1150,802,912,692,678]","trial_type":"fractal-mutation","trial_index":48,"time_elapsed":1869807,"internal_node_id":"0.0-5.0-9.0"},{"group":"dihedral group of order 12","fractal_assignment":["../images/cyn_red.png","../images/grn_prp.png","../images/org_blu.png","../images/grn_blu.png","../images/pnk_blu.png","../images/ylw_pnk.png","../images/grn_red.png","../images/red_prp.png","../images/gry_blk.png","../images/wht_red.png","../images/ylw_slt.png","../images/blu_wht.png"],"mutagen_generator_assignment":[0,1],"goal":7,"start":1,"action_noise":0.15,"location_history":"[1,7]","action_history":"[1]","mutagen_history":"[1]","location_rts":"[1579]","trial_type":"fractal-mutation","trial_index":49,"time_elapsed":1875935,"internal_node_id":"0.0-5.0-10.0"},{"group":"dihedral group of order 12","fractal_assignment":["../images/cyn_red.png","../images/grn_prp.png","../images/org_blu.png","../images/grn_blu.png","../images/pnk_blu.png","../images/ylw_pnk.png","../images/grn_red.png","../images/red_prp.png","../images/gry_blk.png","../images/wht_red.png","../images/ylw_slt.png","../images/blu_wht.png"],"mutagen_generator_assignment":[0,1],"goal":5,"start":7,"action_noise":0.15,"location_history":"[7,1,2,3,4,10,9,8,7,1,2,8,2,3,4,5]","action_history":"[1,0,0,0,0,0,0,0,1,1,1,1,0,0,0]","mutagen_history":"[1,0,0,0,0,0,0,0,1,1,1,1,0,0,0]","location_rts":"[2735,511,650,790,614,770,997,788,577,1062,1062,962,919,887,1282]","trial_type":"fractal-mutation","trial_index":50,"time_elapsed":1909623,"internal_node_id":"0.0-5.0-11.0"},{"group":"dihedral group of order 12","fractal_assignment":["../images/cyn_red.png","../images/grn_prp.png","../images/org_blu.png","../images/grn_blu.png","../images/pnk_blu.png","../images/ylw_pnk.png","../images/grn_red.png","../images/red_prp.png","../images/gry_blk.png","../images/wht_red.png","../images/ylw_slt.png","../images/blu_wht.png"],"mutagen_generator_assignment":[0,1],"goal":8,"start":5,"action_noise":0.15,"location_history":"[5,11,5,0,1,2,3,9,8]","action_history":"[1,0,0,0,0,0,1,0]","mutagen_history":"[1,0,0,0,0,0,1,0]","location_rts":"[1413,2206,1078,628,831,884,1229,817]","trial_type":"fractal-mutation","trial_index":51,"time_elapsed":1930534,"internal_node_id":"0.0-5.0-12.0"},{"group":"dihedral group of order 12","fractal_assignment":["../images/cyn_red.png","../images/grn_prp.png","../images/org_blu.png","../images/grn_blu.png","../images/pnk_blu.png","../images/ylw_pnk.png","../images/grn_red.png","../images/red_prp.png","../images/gry_blk.png","../images/wht_red.png","../images/ylw_slt.png","../images/blu_wht.png"],"mutagen_generator_assignment":[0,1],"goal":11,"start":8,"action_noise":0.15,"location_history":"[8,2,3,4,10,9,3,9,3,9,8,2,3,4,10,4,10,9,3,9,8,7,6,0,1,2,8,2,3,9,3,4,10,9,8,2,8,7,6,11]","action_history":"[1,0,0,1,0,1,1,1,1,0,1,0,0,0,1,1,0,1,1,0,0,0,1,0,1,1,1,0,1,1,0,1,0,1,1,1,0,0,0]","mutagen_history":"[1,0,0,1,0,1,1,1,1,0,1,0,0,0,1,1,0,1,1,0,0,0,1,0,1,1,1,0,1,1,0,1,0,1,1,1,0,0,0]","location_rts":"[3104,702,705,1365,1739,995,779,722,1241,730,1457,703,651,858,918,915,891,1296,649,989,434,1530,1021,777,620,567,1073,673,713,1286,731,650,25227,1038,1206,858,1745,527,728]","trial_type":"fractal-mutation","trial_index":52,"time_elapsed":2037181,"internal_node_id":"0.0-5.0-13.0"},{"group":"dihedral group of order 12","fractal_assignment":["../images/cyn_red.png","../images/grn_prp.png","../images/org_blu.png","../images/grn_blu.png","../images/pnk_blu.png","../images/ylw_pnk.png","../images/grn_red.png","../images/red_prp.png","../images/gry_blk.png","../images/wht_red.png","../images/ylw_slt.png","../images/blu_wht.png"],"mutagen_generator_assignment":[0,1],"goal":6,"start":11,"action_noise":0.15,"location_history":"[11,5,11,10,4,5,0,6]","action_history":"[1,0,0,1,0,0,1]","mutagen_history":"[1,0,0,1,0,0,1]","location_rts":"[1584,1420,769,1025,955,788,716]","trial_type":"fractal-mutation","trial_index":53,"time_elapsed":2055246,"internal_node_id":"0.0-5.0-14.0"},{"group":"dihedral group of order 12","fractal_assignment":["../images/cyn_red.png","../images/grn_prp.png","../images/org_blu.png","../images/grn_blu.png","../images/pnk_blu.png","../images/ylw_pnk.png","../images/grn_red.png","../images/red_prp.png","../images/gry_blk.png","../images/wht_red.png","../images/ylw_slt.png","../images/blu_wht.png"],"mutagen_generator_assignment":[0,1],"goal":7,"start":6,"action_noise":0.15,"location_history":"[6,0,1,7]","action_history":"[1,0,1]","mutagen_history":"[1,0,1]","location_rts":"[1508,614,799]","trial_type":"fractal-mutation","trial_index":54,"time_elapsed":2064814,"internal_node_id":"0.0-5.0-15.0"},{"group":"dihedral group of order 12","fractal_assignment":["../images/cyn_red.png","../images/grn_prp.png","../images/org_blu.png","../images/grn_blu.png","../images/pnk_blu.png","../images/ylw_pnk.png","../images/grn_red.png","../images/red_prp.png","../images/gry_blk.png","../images/wht_red.png","../images/ylw_slt.png","../images/blu_wht.png"],"mutagen_generator_assignment":[0,1],"goal":10,"start":7,"action_noise":0.15,"location_history":"[7,6,0,6,0,6,11,5,0,1,2,8,7,6,11,10]","action_history":"[0,1,1,0,0,0,1,0,0,0,1,0,0,1,1]","mutagen_history":"[0,1,1,0,0,0,1,0,0,0,1,0,0,1,1]","location_rts":"[1912,758,625,629,548,1059,1988,759,829,763,1220,1620,962,630,917]","trial_type":"fractal-mutation","trial_index":55,"time_elapsed":2099160,"internal_node_id":"0.0-5.0-16.0"},{"group":"dihedral group of order 12","fractal_assignment":["../images/cyn_red.png","../images/grn_prp.png","../images/org_blu.png","../images/grn_blu.png","../images/pnk_blu.png","../images/ylw_pnk.png","../images/grn_red.png","../images/red_prp.png","../images/gry_blk.png","../images/wht_red.png","../images/ylw_slt.png","../images/blu_wht.png"],"mutagen_generator_assignment":[0,1],"goal":0,"start":10,"action_noise":0.15,"location_history":"[10,9,8,7,6,11,10,9,8,2,8,2,3,4,5,0]","action_history":"[0,0,1,0,0,0,0,0,1,1,1,0,1,0,0]","mutagen_history":"[0,0,1,0,0,0,0,0,1,1,1,0,1,0,0]","location_rts":"[1266,570,707,606,1182,615,605,595,917,620,1131,1009,756,897,688]","trial_type":"fractal-mutation","trial_index":56,"time_elapsed":2130433,"internal_node_id":"0.0-5.0-17.0"},{"group":"dihedral group of order 12","fractal_assignment":["../images/cyn_red.png","../images/grn_prp.png","../images/org_blu.png","../images/grn_blu.png","../images/pnk_blu.png","../images/ylw_pnk.png","../images/grn_red.png","../images/red_prp.png","../images/gry_blk.png","../images/wht_red.png","../images/ylw_slt.png","../images/blu_wht.png"],"mutagen_generator_assignment":[0,1],"goal":9,"start":0,"action_noise":0.15,"location_history":"[0,6,11,10,9]","action_history":"[0,0,0,0]","mutagen_history":"[0,0,0,0]","location_rts":"[1306,778,729,1061]","trial_type":"fractal-mutation","trial_index":57,"time_elapsed":2141952,"internal_node_id":"0.0-5.0-18.0"},{"group":"dihedral group of order 12","fractal_assignment":["../images/cyn_red.png","../images/grn_prp.png","../images/org_blu.png","../images/grn_blu.png","../images/pnk_blu.png","../images/ylw_pnk.png","../images/grn_red.png","../images/red_prp.png","../images/gry_blk.png","../images/wht_red.png","../images/ylw_slt.png","../images/blu_wht.png"],"mutagen_generator_assignment":[0,1],"goal":4,"start":9,"action_noise":0.15,"location_history":"[9,8,7,1,7,6,11,10,4]","action_history":"[0,0,1,1,0,0,0,0]","mutagen_history":"[0,0,1,1,0,0,0,0]","location_rts":"[1746,625,822,857,853,393,691,830]","trial_type":"fractal-mutation","trial_index":58,"time_elapsed":2160582,"internal_node_id":"0.0-5.0-19.0"},{"group":"dihedral group of order 12","fractal_assignment":["../images/cyn_red.png","../images/grn_prp.png","../images/org_blu.png","../images/grn_blu.png","../images/pnk_blu.png","../images/ylw_pnk.png","../images/grn_red.png","../images/red_prp.png","../images/gry_blk.png","../images/wht_red.png","../images/ylw_slt.png","../images/blu_wht.png"],"mutagen_generator_assignment":[0,1],"goal":2,"start":4,"action_noise":0.15,"location_history":"[4,10,4,5,0,1,2]","action_history":"[1,1,0,0,0,0]","mutagen_history":"[1,1,0,0,0,0]","location_rts":"[8132,416,1103,920,714,607]","trial_type":"fractal-mutation","trial_index":59,"time_elapsed":2182249,"internal_node_id":"0.0-5.0-20.0"},{"group":"dihedral group of order 12","fractal_assignment":["../images/cyn_red.png","../images/grn_prp.png","../images/org_blu.png","../images/grn_blu.png","../images/pnk_blu.png","../images/ylw_pnk.png","../images/grn_red.png","../images/red_prp.png","../images/gry_blk.png","../images/wht_red.png","../images/ylw_slt.png","../images/blu_wht.png"],"mutagen_generator_assignment":[0,1],"goal":1,"start":2,"action_noise":0.15,"location_history":"[2,8,2,8,7,6,11,10,4,10,9,3,9,3,4,10,4,5,0,6,11,5,11,5,0,1]","action_history":"[1,1,1,1,0,0,0,1,1,1,1,1,1,0,1,1,0,0,1,0,0,1,1,0,0]","mutagen_history":"[1,1,1,1,0,0,0,1,1,1,1,1,1,0,1,1,0,0,1,0,0,1,1,0,0]","location_rts":"[1238,656,515,593,1595,740,675,795,746,419,476,936,897,425,1055,723,568,547,1061,881,665,620,852,592,741]","trial_type":"fractal-mutation","trial_index":60,"time_elapsed":2230799,"internal_node_id":"0.0-5.0-21.0"},{"group":"dihedral group of order 12","fractal_assignment":["../images/cyn_red.png","../images/grn_prp.png","../images/org_blu.png","../images/grn_blu.png","../images/pnk_blu.png","../images/ylw_pnk.png","../images/grn_red.png","../images/red_prp.png","../images/gry_blk.png","../images/wht_red.png","../images/ylw_slt.png","../images/blu_wht.png"],"mutagen_generator_assignment":[0,1],"goal":3,"start":1,"action_noise":0.15,"location_history":"[1,7,1,7,1,2,3]","action_history":"[1,1,1,1,0,0]","mutagen_history":"[1,1,1,1,0,0]","location_rts":"[1457,1648,911,1166,1266,789]","trial_type":"fractal-mutation","trial_index":61,"time_elapsed":2247723,"internal_node_id":"0.0-5.0-22.0"},{"group":"dihedral group of order 12","fractal_assignment":["../images/cyn_red.png","../images/grn_prp.png","../images/org_blu.png","../images/grn_blu.png","../images/pnk_blu.png","../images/ylw_pnk.png","../images/grn_red.png","../images/red_prp.png","../images/gry_blk.png","../images/wht_red.png","../images/ylw_slt.png","../images/blu_wht.png"],"mutagen_generator_assignment":[0,1],"goal":7,"start":3,"action_noise":0.15,"location_history":"[3,9,3,9,8,2,8,2,8,7]","action_history":"[1,1,0,0,1,1,1,1,1]","mutagen_history":"[1,1,0,0,1,1,1,1,1]","location_rts":"[1131,1090,1094,775,840,1473,745,1006,1256]","trial_type":"fractal-mutation","trial_index":62,"time_elapsed":2269972,"internal_node_id":"0.0-5.0-23.0"},{"group":"dihedral group of order 12","fractal_assignment":["../images/cyn_red.png","../images/grn_prp.png","../images/org_blu.png","../images/grn_blu.png","../images/pnk_blu.png","../images/ylw_pnk.png","../images/grn_red.png","../images/red_prp.png","../images/gry_blk.png","../images/wht_red.png","../images/ylw_slt.png","../images/blu_wht.png"],"mutagen_generator_assignment":[0,1],"goal":6,"start":7,"action_noise":0.15,"location_history":"[7,1,2,3,9,3,4,10,4,10,4,5,0,1,2,3,4,10,4,10,4,10,4,5,11,5,0,6]","action_history":"[1,0,0,0,1,0,1,1,1,1,0,0,0,0,0,0,1,1,1,1,1,1,0,1,1,1,1]","mutagen_history":"[1,0,0,0,1,0,1,1,1,1,0,0,0,0,0,0,1,1,1,1,1,1,0,1,1,1,1]","location_rts":"[1138,1968,693,713,810,739,750,616,641,654,961,673,788,1153,653,712,672,553,567,450,595,467,599,416,405,420,628]","trial_type":"fractal-mutation","trial_index":63,"time_elapsed":2320912,"internal_node_id":"0.0-5.0-24.0"},{"group":"dihedral group of order 12","fractal_assignment":["../images/cyn_red.png","../images/grn_prp.png","../images/org_blu.png","../images/grn_blu.png","../images/pnk_blu.png","../images/ylw_pnk.png","../images/grn_red.png","../images/red_prp.png","../images/gry_blk.png","../images/wht_red.png","../images/ylw_slt.png","../images/blu_wht.png"],"mutagen_generator_assignment":[0,1],"goal":2,"start":6,"action_noise":0.15,"location_history":"[6,0,1,7,6,11,10,9,3,4,5,0,1,2]","action_history":"[1,0,0,0,0,0,0,1,0,0,0,0,0]","mutagen_history":"[1,0,0,0,0,0,0,1,0,0,0,0,0]","location_rts":"[1188,916,365,557,383,503,760,1019,392,520,484,781,481]","trial_type":"fractal-mutation","trial_index":64,"time_elapsed":2346340,"internal_node_id":"0.0-5.0-25.0"},{"group":"dihedral group of order 12","fractal_assignment":["../images/cyn_red.png","../images/grn_prp.png","../images/org_blu.png","../images/grn_blu.png","../images/pnk_blu.png","../images/ylw_pnk.png","../images/grn_red.png","../images/red_prp.png","../images/gry_blk.png","../images/wht_red.png","../images/ylw_slt.png","../images/blu_wht.png"],"mutagen_generator_assignment":[0,1],"goal":8,"start":2,"action_noise":0.15,"location_history":"[2,8]","action_history":"[1]","mutagen_history":"[1]","location_rts":"[2082]","trial_type":"fractal-mutation","trial_index":65,"time_elapsed":2352982,"internal_node_id":"0.0-5.0-26.0"},{"group":"dihedral group of order 12","fractal_assignment":["../images/cyn_red.png","../images/grn_prp.png","../images/org_blu.png","../images/grn_blu.png","../images/pnk_blu.png","../images/ylw_pnk.png","../images/grn_red.png","../images/red_prp.png","../images/gry_blk.png","../images/wht_red.png","../images/ylw_slt.png","../images/blu_wht.png"],"mutagen_generator_assignment":[0,1],"goal":0,"start":8,"action_noise":0.15,"location_history":"[8,2,8,7,1,7,1,7,6,0]","action_history":"[1,1,0,1,1,1,1,0,1]","mutagen_history":"[1,1,0,1,1,1,1,0,1]","location_rts":"[1264,799,455,1085,459,612,588,346,663]","trial_type":"fractal-mutation","trial_index":66,"time_elapsed":2372082,"internal_node_id":"0.0-5.0-27.0"},{"group":"dihedral group of order 12","fractal_assignment":["../images/cyn_red.png","../images/grn_prp.png","../images/org_blu.png","../images/grn_blu.png","../images/pnk_blu.png","../images/ylw_pnk.png","../images/grn_red.png","../images/red_prp.png","../images/gry_blk.png","../images/wht_red.png","../images/ylw_slt.png","../images/blu_wht.png"],"mutagen_generator_assignment":[0,1],"goal":3,"start":0,"action_noise":0.15,"location_history":"[0,6,11,5,11,10,9,8,2,3]","action_history":"[1,1,1,1,0,1,0,1,0]","mutagen_history":"[1,1,1,1,0,1,0,1,0]","location_rts":"[1128,836,659,497,442,637,602,413,549]","trial_type":"fractal-mutation","trial_index":67,"time_elapsed":2390724,"internal_node_id":"0.0-5.0-28.0"},{"group":"dihedral group of order 12","fractal_assignment":["../images/cyn_red.png","../images/grn_prp.png","../images/org_blu.png","../images/grn_blu.png","../images/pnk_blu.png","../images/ylw_pnk.png","../images/grn_red.png","../images/red_prp.png","../images/gry_blk.png","../images/wht_red.png","../images/ylw_slt.png","../images/blu_wht.png"],"mutagen_generator_assignment":[0,1],"goal":4,"start":3,"action_noise":0.15,"location_history":"[3,4]","action_history":"[0]","mutagen_history":"[0]","location_rts":"[1270]","trial_type":"fractal-mutation","trial_index":68,"time_elapsed":2396531,"internal_node_id":"0.0-5.0-29.0"},{"group":"dihedral group of order 12","fractal_assignment":["../images/cyn_red.png","../images/grn_prp.png","../images/org_blu.png","../images/grn_blu.png","../images/pnk_blu.png","../images/ylw_pnk.png","../images/grn_red.png","../images/red_prp.png","../images/gry_blk.png","../images/wht_red.png","../images/ylw_slt.png","../images/blu_wht.png"],"mutagen_generator_assignment":[0,1],"goal":10,"start":4,"action_noise":0.15,"location_history":"[4,10]","action_history":"[1]","mutagen_history":"[1]","location_rts":"[735]","trial_type":"fractal-mutation","trial_index":69,"time_elapsed":2401830,"internal_node_id":"0.0-5.0-30.0"},{"group":"dihedral group of order 12","fractal_assignment":["../images/cyn_red.png","../images/grn_prp.png","../images/org_blu.png","../images/grn_blu.png","../images/pnk_blu.png","../images/ylw_pnk.png","../images/grn_red.png","../images/red_prp.png","../images/gry_blk.png","../images/wht_red.png","../images/ylw_slt.png","../images/blu_wht.png"],"mutagen_generator_assignment":[0,1],"goal":11,"start":10,"action_noise":0.15,"location_history":"[10,4,10,9,3,4,5,0,6,0,1,2,3,4,5,11]","action_history":"[1,1,0,1,1,0,0,1,1,0,0,0,0,0,1]","mutagen_history":"[1,1,0,1,1,0,0,1,1,0,0,0,0,0,1]","location_rts":"[1342,560,605,523,784,1027,467,604,461,815,464,406,389,462,420]","trial_type":"fractal-mutation","trial_index":70,"time_elapsed":2430257,"internal_node_id":"0.0-5.0-31.0"},{"group":"dihedral group of order 12","fractal_assignment":["../images/cyn_red.png","../images/grn_prp.png","../images/org_blu.png","../images/grn_blu.png","../images/pnk_blu.png","../images/ylw_pnk.png","../images/grn_red.png","../images/red_prp.png","../images/gry_blk.png","../images/wht_red.png","../images/ylw_slt.png","../images/blu_wht.png"],"mutagen_generator_assignment":[0,1],"goal":1,"start":11,"action_noise":0.15,"location_history":"[11,5,11,10,4,10,9,8,7,1]","action_history":"[1,1,1,1,1,0,1,1,1]","mutagen_history":"[1,1,1,1,1,0,1,1,1]","location_rts":"[936,738,417,317,459,644,358,421,487]","trial_type":"fractal-mutation","trial_index":71,"time_elapsed":2447906,"internal_node_id":"0.0-5.0-32.0"},{"group":"dihedral group of order 12","fractal_assignment":["../images/cyn_red.png","../images/grn_prp.png","../images/org_blu.png","../images/grn_blu.png","../images/pnk_blu.png","../images/ylw_pnk.png","../images/grn_red.png","../images/red_prp.png","../images/gry_blk.png","../images/wht_red.png","../images/ylw_slt.png","../images/blu_wht.png"],"mutagen_generator_assignment":[0,1],"goal":5,"start":1,"action_noise":0.15,"location_history":"[1,7,1,2,8,2,3,9,8,7,6,11,10,9,8,7,1,2,3,9,8,2,8,7,6,11,5]","action_history":"[1,1,1,1,1,0,1,1,0,0,0,0,0,0,0,1,0,1,0,0,1,1,1,0,0,1]","mutagen_history":"[1,1,1,1,1,0,1,1,0,0,0,0,0,0,0,1,0,1,0,0,1,1,1,0,0,1]","location_rts":"[830,260,294,596,425,690,342,559,854,863,602,337,403,375,426,623,609,719,848,991,307,434,511,713,974,561]","trial_type":"fractal-mutation","trial_index":72,"time_elapsed":2493565,"internal_node_id":"0.0-5.0-33.0"},{"group":"dihedral group of order 12","fractal_assignment":["../images/cyn_red.png","../images/grn_prp.png","../images/org_blu.png","../images/grn_blu.png","../images/pnk_blu.png","../images/ylw_pnk.png","../images/grn_red.png","../images/red_prp.png","../images/gry_blk.png","../images/wht_red.png","../images/ylw_slt.png","../images/blu_wht.png"],"mutagen_generator_assignment":[0,1],"goal":9,"start":5,"action_noise":0.15,"location_history":"[5,0,6,11,5,11,5,11,10,4,10,4,5,11,5,0,1,2,3,4,10,4,5,11,5,11,10,4,5,0,6,11,5,0,1,2,3,4,5,11,10,4,10,9]","action_history":"[0,1,0,1,1,0,1,0,1,1,1,0,0,1,0,0,0,0,0,1,1,0,1,1,1,0,1,1,0,1,0,1,0,0,0,0,0,0,1,0,1,1,0]","mutagen_history":"[0,1,0,1,1,0,1,0,1,1,1,0,0,1,0,0,0,0,0,1,1,0,1,1,1,0,1,1,0,1,0,1,0,0,0,0,0,0,1,0,1,1,0]","location_rts":"[1253,461,683,824,561,562,1288,586,422,409,433,756,821,424,480,365,362,1101,676,490,478,1165,827,492,919,634,640,468,1011,528,588,604,771,898,660,615,475,714,518,365,470,961,357]","trial_type":"fractal-mutation","trial_index":73,"time_elapsed":2569842,"internal_node_id":"0.0-5.0-34.0"},{"view_history":"[{\"page_index\":0,\"viewing_time\":5718}]","rt":5718,"trial_type":"instructions","trial_index":74,"time_elapsed":2576560,"internal_node_id":"0.0-6.0"},{"rt":2515,"responses":"{\"Q0\":\"\"}","trial_type":"survey-text","trial_index":75,"time_elapsed":2580087,"internal_node_id":"0.0-7.0"}]