[{"view_history":"[{\"page_index\":0,\"viewing_time\":7511},{\"page_index\":1,\"viewing_time\":3920},{\"page_index\":2,\"viewing_time\":8458},{\"page_index\":3,\"viewing_time\":2746}]","rt":22636,"trial_type":"instructions","trial_index":0,"time_elapsed":22638,"internal_node_id":"0.0-0.0"},{"view_history":"[{\"page_index\":0,\"viewing_time\":1925},{\"page_index\":1,\"viewing_time\":15882}]","rt":17808,"trial_type":"instructions","trial_index":1,"time_elapsed":41446,"internal_node_id":"0.0-1.0"},{"group":"dicyclic group of order 12","room_assignment":["cyan","olive","pink","green","brown","orange","yellow","purple","red","blue","grey","ivory"],"door_color_assignment":["black","white"],"door_generator_assignment":[1,0],"goal":4,"start":0,"action_noise":0.15,"location_history":"[0,1,2,6,10,2,3,0,4]","action_history":"[0,0,1,1,0,0,0,0]","door_history":"[1,1,0,0,1,1,1,1]","location_rts":"[2210,524,554,306,231,317,270,296]","trial_type":"two-door-navigation","trial_index":2,"time_elapsed":57926,"internal_node_id":"0.0-2.0-0.0"},{"group":"dicyclic group of order 12","room_assignment":["cyan","olive","pink","green","brown","orange","yellow","purple","red","blue","grey","ivory"],"door_color_assignment":["black","white"],"door_generator_assignment":[1,0],"goal":9,"start":4,"action_noise":0.15,"location_history":"[4,8,5,10,2,6,10,2,6,10,7,11,3,0,1,5,10,7,11,3,0,1,2,6,11,4,8,0,4,8,5,9]","action_history":"[1,0,0,1,1,1,1,1,0,0,0,1,0,0,1,0,0,1,1,0,0,0,1,0,0,1,0,1,1,0,1]","door_history":"[0,1,1,0,0,0,0,0,1,1,1,0,1,1,0,1,1,0,0,1,1,1,0,1,1,0,1,0,0,1,0]","location_rts":"[2145,241,209,827,290,239,319,317,274,379,485,674,442,939,616,340,473,1027,502,331,467,420,767,927,2425,1677,846,1172,531,1646,1573]","trial_type":"two-door-navigation","trial_index":3,"time_elapsed":116853,"internal_node_id":"0.0-2.0-1.0"},{"group":"dicyclic group of order 12","room_assignment":["cyan","olive","pink","green","brown","orange","yellow","purple","red","blue","grey","ivory"],"door_color_assignment":["black","white"],"door_generator_assignment":[1,0],"goal":10,"start":9,"action_noise":0.15,"location_history":"[9,1,2,3,7,8,5,10]","action_history":"[0,0,0,0,0,0,0]","door_history":"[1,1,1,1,1,1,1]","location_rts":"[1180,259,321,279,341,294,334]","trial_type":"two-door-navigation","trial_index":4,"time_elapsed":130594,"internal_node_id":"0.0-2.0-2.0"},{"group":"dicyclic group of order 12","room_assignment":["cyan","olive","pink","green","brown","orange","yellow","purple","red","blue","grey","ivory"],"door_color_assignment":["black","white"],"door_generator_assignment":[1,0],"goal":2,"start":10,"action_noise":0.15,"location_history":"[10,7,11,4,8,0,1,2]","action_history":"[0,0,0,0,0,0,0]","door_history":"[1,1,1,1,1,1,1]","location_rts":"[1639,102,226,24,9,439,5677]","trial_type":"two-door-navigation","trial_index":5,"time_elapsed":149955,"internal_node_id":"0.0-2.0-3.0"},{"group":"dicyclic group of order 12","room_assignment":["cyan","olive","pink","green","brown","orange","yellow","purple","red","blue","grey","ivory"],"door_color_assignment":["black","white"],"door_generator_assignment":[1,0],"goal":5,"start":2,"action_noise":0.15,"location_history":"[2,6,11,3,7,11,3,0,1,2,3,0,1,5]","action_history":"[1,1,1,1,1,1,0,0,0,0,0,0,1]","door_history":"[0,0,0,0,0,0,1,1,1,1,1,1,0]","location_rts":"[5442,345,291,238,268,305,258,311,261,927,5738,342,245]","trial_type":"two-door-navigation","trial_index":6,"time_elapsed":182952,"internal_node_id":"0.0-2.0-4.0"},{"group":"dicyclic group of order 12","room_assignment":["cyan","olive","pink","green","brown","orange","yellow","purple","red","blue","grey","ivory"],"door_color_assignment":["black","white"],"door_generator_assignment":[1,0],"goal":11,"start":5,"action_noise":0.15,"location_history":"[5,10,7,11]","action_history":"[0,1,1]","door_history":"[1,0,0]","location_rts":"[4834,367,276]","trial_type":"two-door-navigation","trial_index":7,"time_elapsed":196017,"internal_node_id":"0.0-2.0-5.0"},{"group":"dicyclic group of order 12","room_assignment":["cyan","olive","pink","green","brown","orange","yellow","purple","red","blue","grey","ivory"],"door_color_assignment":["black","white"],"door_generator_assignment":[1,0],"goal":6,"start":11,"action_noise":0.15,"location_history":"[11,3,0,1,2,3,0,1,5,9,6]","action_history":"[1,1,0,0,0,0,0,0,1,1]","door_history":"[0,0,1,1,1,1,1,1,0,0]","location_rts":"[6494,364,604,295,310,358,285,299,580,435]","trial_type":"two-door-navigation","trial_index":8,"time_elapsed":219850,"internal_node_id":"0.0-2.0-6.0"},{"group":"dicyclic group of order 12","room_assignment":["cyan","olive","pink","green","brown","orange","yellow","purple","red","blue","grey","ivory"],"door_color_assignment":["black","white"],"door_generator_assignment":[1,0],"goal":3,"start":6,"action_noise":0.15,"location_history":"[6,10,7,11,3]","action_history":"[1,1,1,1]","door_history":"[0,0,0,0]","location_rts":"[67405,296,258,296]","trial_type":"two-door-navigation","trial_index":9,"time_elapsed":295730,"internal_node_id":"0.0-2.0-7.0"},{"group":"dicyclic group of order 12","room_assignment":["cyan","olive","pink","green","brown","orange","yellow","purple","red","blue","grey","ivory"],"door_color_assignment":["black","white"],"door_generator_assignment":[1,0],"goal":8,"start":3,"action_noise":0.15,"location_history":"[3,0,1,2,3,7,11,3,7,11,4,9,6,11,4,8]","action_history":"[0,0,0,0,1,1,1,1,1,0,0,0,0,0,1]","door_history":"[1,1,1,1,0,0,0,0,0,1,1,1,1,1,0]","location_rts":"[1450,244,309,220,309,404,295,296,362,448,375,523,304,343,777]","trial_type":"two-door-navigation","trial_index":10,"time_elapsed":321481,"internal_node_id":"0.0-2.0-8.0"},{"group":"dicyclic group of order 12","room_assignment":["cyan","olive","pink","green","brown","orange","yellow","purple","red","blue","grey","ivory"],"door_color_assignment":["black","white"],"door_generator_assignment":[1,0],"goal":1,"start":8,"action_noise":0.15,"location_history":"[8,5,10,7,8,5,9,6,10,7,8,5,9,1]","action_history":"[0,0,0,0,0,1,1,1,0,0,0,1,1]","door_history":"[1,1,1,1,1,0,0,0,1,1,1,0,0]","location_rts":"[5484,492,408,1785,336,267,355,357,691,357,489,264,572]","trial_type":"two-door-navigation","trial_index":11,"time_elapsed":350251,"internal_node_id":"0.0-2.0-9.0"},{"group":"dicyclic group of order 12","room_assignment":["cyan","olive","pink","green","brown","orange","yellow","purple","red","blue","grey","ivory"],"door_color_assignment":["black","white"],"door_generator_assignment":[1,0],"goal":7,"start":1,"action_noise":0.15,"location_history":"[1,2,6,10,2,6,11,4,9,1,5,10,2,6,11,4,8,5,9,1,2,6,10,2,3,0,4,9,6,11,4,8,0,4,8,5,10,2,6,11,3,0,1,5,10,2,6,10,7]","action_history":"[0,1,1,1,1,0,0,0,1,1,0,1,1,0,0,0,0,1,1,0,0,1,1,0,0,1,0,0,0,0,1,0,1,1,0,0,1,1,0,1,1,1,1,0,1,1,1,0]","door_history":"[1,0,0,0,0,1,1,1,0,0,1,0,0,1,1,1,1,0,0,1,1,0,0,1,1,0,1,1,1,1,0,1,0,0,1,1,0,0,1,0,0,0,0,1,0,0,0,1]","location_rts":"[738,461,286,341,311,383,363,604,544,367,296,293,409,608,346,376,410,814,498,622,548,531,341,275,379,305,468,438,315,448,382,1012,969,948,292,242,763,1298,484,972,813,338,320,555,571,541,749,781]","trial_type":"two-door-navigation","trial_index":12,"time_elapsed":428418,"internal_node_id":"0.0-2.0-10.0"},{"group":"dicyclic group of order 12","room_assignment":["cyan","olive","pink","green","brown","orange","yellow","purple","red","blue","grey","ivory"],"door_color_assignment":["black","white"],"door_generator_assignment":[1,0],"goal":5,"start":7,"action_noise":0.15,"location_history":"[7,11,3,7,8,5]","action_history":"[1,1,0,0,0]","door_history":"[0,0,1,1,1]","location_rts":"[969,374,27,227,283]","trial_type":"two-door-navigation","trial_index":13,"time_elapsed":438942,"internal_node_id":"0.0-2.0-11.0"},{"group":"dicyclic group of order 12","room_assignment":["cyan","olive","pink","green","brown","orange","yellow","purple","red","blue","grey","ivory"],"door_color_assignment":["black","white"],"door_generator_assignment":[1,0],"goal":8,"start":5,"action_noise":0.15,"location_history":"[5,9,1,2,6,11,3,7,11,3,7,11,4,9,6,10,7,11,3,7,11,3,0,1,2,6,10,7,8]","action_history":"[1,1,0,0,0,1,0,1,1,1,1,0,0,0,0,0,1,1,1,1,1,0,0,0,1,0,0,1]","door_history":"[0,0,1,1,1,0,1,0,0,0,0,1,1,1,1,1,0,0,0,0,0,1,1,1,0,1,1,0]","location_rts":"[4834,370,246,317,280,413,336,279,297,425,442,756,375,355,376,368,679,320,302,383,351,676,325,378,954,892,379,336]","trial_type":"two-door-navigation","trial_index":14,"time_elapsed":487774,"internal_node_id":"0.0-2.0-12.0"},{"group":"dicyclic group of order 12","room_assignment":["cyan","olive","pink","green","brown","orange","yellow","purple","red","blue","grey","ivory"],"door_color_assignment":["black","white"],"door_generator_assignment":[1,0],"goal":11,"start":8,"action_noise":0.15,"location_history":"[8,0,1,5,10,7,11]","action_history":"[1,1,1,0,0,1]","door_history":"[0,0,0,1,1,0]","location_rts":"[696,351,389,421,577,392]","trial_type":"two-door-navigation","trial_index":15,"time_elapsed":500260,"internal_node_id":"0.0-2.0-13.0"},{"group":"dicyclic group of order 12","room_assignment":["cyan","olive","pink","green","brown","orange","yellow","purple","red","blue","grey","ivory"],"door_color_assignment":["black","white"],"door_generator_assignment":[1,0],"goal":6,"start":11,"action_noise":0.15,"location_history":"[11,4,9,1,5,9,6]","action_history":"[0,0,1,1,1,0]","door_history":"[1,1,0,0,0,1]","location_rts":"[891,269,227,271,442,353]","trial_type":"two-door-navigation","trial_index":16,"time_elapsed":512432,"internal_node_id":"0.0-2.0-14.0"},{"group":"dicyclic group of order 12","room_assignment":["cyan","olive","pink","green","brown","orange","yellow","purple","red","blue","grey","ivory"],"door_color_assignment":["black","white"],"door_generator_assignment":[1,0],"goal":7,"start":6,"action_noise":0.15,"location_history":"[6,11,3,7]","action_history":"[0,1,1]","door_history":"[1,0,0]","location_rts":"[414,105,323]","trial_type":"two-door-navigation","trial_index":17,"time_elapsed":519870,"internal_node_id":"0.0-2.0-15.0"},{"group":"dicyclic group of order 12","room_assignment":["cyan","olive","pink","green","brown","orange","yellow","purple","red","blue","grey","ivory"],"door_color_assignment":["black","white"],"door_generator_assignment":[1,0],"goal":10,"start":7,"action_noise":0.15,"location_history":"[7,8,5,10]","action_history":"[0,0,0]","door_history":"[1,1,1]","location_rts":"[576,558,222]","trial_type":"two-door-navigation","trial_index":18,"time_elapsed":527815,"internal_node_id":"0.0-2.0-16.0"},{"group":"dicyclic group of order 12","room_assignment":["cyan","olive","pink","green","brown","orange","yellow","purple","red","blue","grey","ivory"],"door_color_assignment":["black","white"],"door_generator_assignment":[1,0],"goal":0,"start":10,"action_noise":0.15,"location_history":"[10,2,3,0]","action_history":"[1,1,0]","door_history":"[0,0,1]","location_rts":"[1224,292,307]","trial_type":"two-door-navigation","trial_index":19,"time_elapsed":536221,"internal_node_id":"0.0-2.0-17.0"},{"group":"dicyclic group of order 12","room_assignment":["cyan","olive","pink","green","brown","orange","yellow","purple","red","blue","grey","ivory"],"door_color_assignment":["black","white"],"door_generator_assignment":[1,0],"goal":9,"start":0,"action_noise":0.15,"location_history":"[0,1,5,9]","action_history":"[0,1,1]","door_history":"[1,0,0]","location_rts":"[858,3365,747]","trial_type":"two-door-navigation","trial_index":20,"time_elapsed":547776,"internal_node_id":"0.0-2.0-18.0"},{"group":"dicyclic group of order 12","room_assignment":["cyan","olive","pink","green","brown","orange","yellow","purple","red","blue","grey","ivory"],"door_color_assignment":["black","white"],"door_generator_assignment":[1,0],"goal":4,"start":9,"action_noise":0.15,"location_history":"[9,6,10,2,3,7,11,4]","action_history":"[0,0,1,1,1,0,0]","door_history":"[1,1,0,0,0,1,1]","location_rts":"[844,314,984,471,356,652,320]","trial_type":"two-door-navigation","trial_index":21,"time_elapsed":562425,"internal_node_id":"0.0-2.0-19.0"},{"group":"dicyclic group of order 12","room_assignment":["cyan","olive","pink","green","brown","orange","yellow","purple","red","blue","grey","ivory"],"door_color_assignment":["black","white"],"door_generator_assignment":[1,0],"goal":2,"start":4,"action_noise":0.15,"location_history":"[4,8,5,9,6,11,4,9,6,10,2]","action_history":"[1,1,1,0,0,0,0,0,1,1]","door_history":"[0,0,0,1,1,1,1,1,0,0]","location_rts":"[773,397,289,273,345,339,322,362,123,309]","trial_type":"two-door-navigation","trial_index":22,"time_elapsed":579752,"internal_node_id":"0.0-2.0-20.0"},{"group":"dicyclic group of order 12","room_assignment":["cyan","olive","pink","green","brown","orange","yellow","purple","red","blue","grey","ivory"],"door_color_assignment":["black","white"],"door_generator_assignment":[1,0],"goal":1,"start":2,"action_noise":0.15,"location_history":"[2,6,11,3,0,1]","action_history":"[1,0,1,1,0]","door_history":"[0,1,0,0,1]","location_rts":"[1693,376,215,242,604]","trial_type":"two-door-navigation","trial_index":23,"time_elapsed":591927,"internal_node_id":"0.0-2.0-21.0"},{"group":"dicyclic group of order 12","room_assignment":["cyan","olive","pink","green","brown","orange","yellow","purple","red","blue","grey","ivory"],"door_color_assignment":["black","white"],"door_generator_assignment":[1,0],"goal":3,"start":1,"action_noise":0.15,"location_history":"[1,2,3]","action_history":"[0,0]","door_history":"[1,1]","location_rts":"[1988,270]","trial_type":"two-door-navigation","trial_index":24,"time_elapsed":600751,"internal_node_id":"0.0-2.0-22.0"},{"group":"dicyclic group of order 12","room_assignment":["cyan","olive","pink","green","brown","orange","yellow","purple","red","blue","grey","ivory"],"door_color_assignment":["black","white"],"door_generator_assignment":[1,0],"goal":7,"start":3,"action_noise":0.15,"location_history":"[3,7]","action_history":"[1]","door_history":"[0]","location_rts":"[597]","trial_type":"two-door-navigation","trial_index":25,"time_elapsed":605883,"internal_node_id":"0.0-2.0-23.0"},{"group":"dicyclic group of order 12","room_assignment":["cyan","olive","pink","green","brown","orange","yellow","purple","red","blue","grey","ivory"],"door_color_assignment":["black","white"],"door_generator_assignment":[1,0],"goal":6,"start":7,"action_noise":0.15,"location_history":"[7,11,3,0,1,2,3,7,11,3,7,8,5,9,1,2,6]","action_history":"[1,1,0,0,0,0,0,1,1,1,0,0,1,1,0,0]","door_history":"[0,0,1,1,1,1,1,0,0,0,1,1,0,0,1,1]","location_rts":"[515,300,726,88,301,257,257,27,270,358,235,877,505,342,503,297]","trial_type":"two-door-navigation","trial_index":26,"time_elapsed":631704,"internal_node_id":"0.0-2.0-24.0"},{"group":"dicyclic group of order 12","room_assignment":["cyan","olive","pink","green","brown","orange","yellow","purple","red","blue","grey","ivory"],"door_color_assignment":["black","white"],"door_generator_assignment":[1,0],"goal":2,"start":6,"action_noise":0.15,"location_history":"[6,10,2]","action_history":"[1,1]","door_history":"[0,0]","location_rts":"[1280,341]","trial_type":"two-door-navigation","trial_index":27,"time_elapsed":638886,"internal_node_id":"0.0-2.0-25.0"},{"group":"dicyclic group of order 12","room_assignment":["cyan","olive","pink","green","brown","orange","yellow","purple","red","blue","grey","ivory"],"door_color_assignment":["black","white"],"door_generator_assignment":[1,0],"goal":8,"start":2,"action_noise":0.15,"location_history":"[2,3,0,1,2,6,10,2,6,11,3,0,4,9,6,10,2,3,0,4,9,6,11,3,7,8]","action_history":"[0,0,0,0,1,1,1,1,0,0,0,1,0,0,1,1,0,0,1,1,0,0,0,1,0]","door_history":"[1,1,1,1,0,0,0,0,1,1,1,0,1,1,0,0,1,1,0,0,1,1,1,0,1]","location_rts":"[1300,389,332,324,454,383,360,983,528,367,519,373,1178,533,420,401,270,446,328,521,708,843,1172,882,1060]","trial_type":"two-door-navigation","trial_index":28,"time_elapsed":683207,"internal_node_id":"0.0-2.0-26.0"},{"group":"dicyclic group of order 12","room_assignment":["cyan","olive","pink","green","brown","orange","yellow","purple","red","blue","grey","ivory"],"door_color_assignment":["black","white"],"door_generator_assignment":[1,0],"goal":0,"start":8,"action_noise":0.15,"location_history":"[8,0]","action_history":"[1]","door_history":"[0]","location_rts":"[1160]","trial_type":"two-door-navigation","trial_index":29,"time_elapsed":688921,"internal_node_id":"0.0-2.0-27.0"},{"group":"dicyclic group of order 12","room_assignment":["cyan","olive","pink","green","brown","orange","yellow","purple","red","blue","grey","ivory"],"door_color_assignment":["black","white"],"door_generator_assignment":[1,0],"goal":3,"start":0,"action_noise":0.15,"location_history":"[0,1,2,6,11,3]","action_history":"[0,0,1,1,1]","door_history":"[1,1,0,0,0]","location_rts":"[951,484,730,390,297]","trial_type":"two-door-navigation","trial_index":30,"time_elapsed":700409,"internal_node_id":"0.0-2.0-28.0"},{"group":"dicyclic group of order 12","room_assignment":["cyan","olive","pink","green","brown","orange","yellow","purple","red","blue","grey","ivory"],"door_color_assignment":["black","white"],"door_generator_assignment":[1,0],"goal":4,"start":3,"action_noise":0.15,"location_history":"[3,7,11,3,7,8,5,10,2,3,0,1,2,6,11,4]","action_history":"[1,1,1,0,0,0,0,1,1,0,0,0,1,0,0]","door_history":"[0,0,0,1,1,1,1,0,0,1,1,1,0,1,1]","location_rts":"[824,306,349,376,320,382,558,1494,786,522,386,796,293,573,409]","trial_type":"two-door-navigation","trial_index":31,"time_elapsed":727769,"internal_node_id":"0.0-2.0-29.0"},{"group":"dicyclic group of order 12","room_assignment":["cyan","olive","pink","green","brown","orange","yellow","purple","red","blue","grey","ivory"],"door_color_assignment":["black","white"],"door_generator_assignment":[1,0],"goal":10,"start":4,"action_noise":0.15,"location_history":"[4,8,0,1,5,10]","action_history":"[1,1,1,1,0]","door_history":"[0,0,0,0,1]","location_rts":"[1370,255,314,231,840]","trial_type":"two-door-navigation","trial_index":32,"time_elapsed":739417,"internal_node_id":"0.0-2.0-30.0"},{"group":"dicyclic group of order 12","room_assignment":["cyan","olive","pink","green","brown","orange","yellow","purple","red","blue","grey","ivory"],"door_color_assignment":["black","white"],"door_generator_assignment":[1,0],"goal":11,"start":10,"action_noise":0.15,"location_history":"[10,7,11]","action_history":"[0,1]","door_history":"[1,0]","location_rts":"[766,277]","trial_type":"two-door-navigation","trial_index":33,"time_elapsed":746015,"internal_node_id":"0.0-2.0-31.0"},{"group":"dicyclic group of order 12","room_assignment":["cyan","olive","pink","green","brown","orange","yellow","purple","red","blue","grey","ivory"],"door_color_assignment":["black","white"],"door_generator_assignment":[1,0],"goal":1,"start":11,"action_noise":0.15,"location_history":"[11,3,7,8,5,10,7,8,5,9,6,11,3,0,1]","action_history":"[1,1,0,0,0,0,1,1,1,0,0,1,1,0]","door_history":"[0,0,1,1,1,1,0,0,0,1,1,0,0,1]","location_rts":"[539,227,274,252,278,686,253,318,437,323,351,323,450,338]","trial_type":"two-door-navigation","trial_index":34,"time_elapsed":768979,"internal_node_id":"0.0-2.0-32.0"},{"group":"dicyclic group of order 12","room_assignment":["cyan","olive","pink","green","brown","orange","yellow","purple","red","blue","grey","ivory"],"door_color_assignment":["black","white"],"door_generator_assignment":[1,0],"goal":5,"start":1,"action_noise":0.15,"location_history":"[1,2,3,7,11,3,7,8,5]","action_history":"[0,0,0,1,1,1,0,0]","door_history":"[1,1,1,0,0,0,1,1]","location_rts":"[666,298,213,229,333,298,497,286]","trial_type":"two-door-navigation","trial_index":35,"time_elapsed":783542,"internal_node_id":"0.0-2.0-33.0"},{"group":"dicyclic group of order 12","room_assignment":["cyan","olive","pink","green","brown","orange","yellow","purple","red","blue","grey","ivory"],"door_color_assignment":["black","white"],"door_generator_assignment":[1,0],"goal":9,"start":5,"action_noise":0.15,"location_history":"[5,9]","action_history":"[1]","door_history":"[0]","location_rts":"[521]","trial_type":"two-door-navigation","trial_index":36,"time_elapsed":788589,"internal_node_id":"0.0-2.0-34.0"},{"view_history":"[{\"page_index\":0,\"viewing_time\":2472}]","rt":2473,"trial_type":"instructions","trial_index":37,"time_elapsed":792062,"internal_node_id":"0.0-3.0"},{"view_history":"[{\"page_index\":0,\"viewing_time\":1636},{\"page_index\":1,\"viewing_time\":14440}]","rt":16077,"trial_type":"instructions","trial_index":38,"time_elapsed":809139,"internal_node_id":"0.0-4.0"},{"group":"dihedral group of order 12","fractal_assignment":["../images/org_blu.png","../images/grn_red.png","../images/red_prp.png","../images/gry_blk.png","../images/cyn_red.png","../images/grn_prp.png","../images/wht_red.png","../images/grn_blu.png","../images/ylw_pnk.png","../images/blu_wht.png","../images/pnk_blu.png","../images/ylw_slt.png"],"mutagen_generator_assignment":[0,1],"goal":4,"start":0,"action_noise":0.15,"location_history":"[0,1,2,8,7,1,7,6,0,1,7,6,11,10,9,3,4]","action_history":"[0,0,1,0,1,1,0,1,1,1,0,0,1,0,0,0]","mutagen_history":"[0,0,1,0,1,1,0,1,1,1,0,0,1,0,0,0]","location_rts":"[39402,168,4343,621,458,427,943,718,868,439,751,281,566,480,277,218]","trial_type":"fractal-mutation","trial_index":39,"time_elapsed":880199,"internal_node_id":"0.0-5.0-0.0"},{"group":"dihedral group of order 12","fractal_assignment":["../images/org_blu.png","../images/grn_red.png","../images/red_prp.png","../images/gry_blk.png","../images/cyn_red.png","../images/grn_prp.png","../images/wht_red.png","../images/grn_blu.png","../images/ylw_pnk.png","../images/blu_wht.png","../images/pnk_blu.png","../images/ylw_slt.png"],"mutagen_generator_assignment":[0,1],"goal":9,"start":4,"action_noise":0.15,"location_history":"[4,5,0,6,11,10,9]","action_history":"[0,1,1,0,0,0]","mutagen_history":"[0,1,1,0,0,0]","location_rts":"[3611,258,241,227,155,366]","trial_type":"fractal-mutation","trial_index":40,"time_elapsed":894690,"internal_node_id":"0.0-5.0-1.0"},{"group":"dihedral group of order 12","fractal_assignment":["../images/org_blu.png","../images/grn_red.png","../images/red_prp.png","../images/gry_blk.png","../images/cyn_red.png","../images/grn_prp.png","../images/wht_red.png","../images/grn_blu.png","../images/ylw_pnk.png","../images/blu_wht.png","../images/pnk_blu.png","../images/ylw_slt.png"],"mutagen_generator_assignment":[0,1],"goal":10,"start":9,"action_noise":0.15,"location_history":"[9,3,9,3,4,5,0,6,0,6,11,5,11,10]","action_history":"[1,1,0,0,0,0,1,1,1,1,1,1,0]","mutagen_history":"[1,1,0,0,0,0,1,1,1,1,1,1,0]","location_rts":"[660,552,545,299,334,371,272,260,344,235,183,236,81]","trial_type":"fractal-mutation","trial_index":41,"time_elapsed":916045,"internal_node_id":"0.0-5.0-2.0"},{"group":"dihedral group of order 12","fractal_assignment":["../images/org_blu.png","../images/grn_red.png","../images/red_prp.png","../images/gry_blk.png","../images/cyn_red.png","../images/grn_prp.png","../images/wht_red.png","../images/grn_blu.png","../images/ylw_pnk.png","../images/blu_wht.png","../images/pnk_blu.png","../images/ylw_slt.png"],"mutagen_generator_assignment":[0,1],"goal":2,"start":10,"action_noise":0.15,"location_history":"[10,9,3,9,3,9,8,7,1,7,1,2]","action_history":"[0,0,1,1,1,0,0,1,1,1,0]","mutagen_history":"[0,0,1,1,1,0,0,1,1,1,0]","location_rts":"[492,340,274,380,393,269,368,269,428,364,236]","trial_type":"fractal-mutation","trial_index":42,"time_elapsed":934733,"internal_node_id":"0.0-5.0-3.0"},{"group":"dihedral group of order 12","fractal_assignment":["../images/org_blu.png","../images/grn_red.png","../images/red_prp.png","../images/gry_blk.png","../images/cyn_red.png","../images/grn_prp.png","../images/wht_red.png","../images/grn_blu.png","../images/ylw_pnk.png","../images/blu_wht.png","../images/pnk_blu.png","../images/ylw_slt.png"],"mutagen_generator_assignment":[0,1],"goal":5,"start":2,"action_noise":0.15,"location_history":"[2,8,2,8,2,3,9,8,7,1,7,6,11,5]","action_history":"[0,1,1,1,0,0,0,0,1,1,0,0,1]","mutagen_history":"[0,1,1,1,0,0,0,0,1,1,0,0,1]","location_rts":"[7264,1979,1368,341,1721,448,451,443,454,468,278,410,1206]","trial_type":"fractal-mutation","trial_index":43,"time_elapsed":968505,"internal_node_id":"0.0-5.0-4.0"},{"group":"dihedral group of order 12","fractal_assignment":["../images/org_blu.png","../images/grn_red.png","../images/red_prp.png","../images/gry_blk.png","../images/cyn_red.png","../images/grn_prp.png","../images/wht_red.png","../images/grn_blu.png","../images/ylw_pnk.png","../images/blu_wht.png","../images/pnk_blu.png","../images/ylw_slt.png"],"mutagen_generator_assignment":[0,1],"goal":11,"start":5,"action_noise":0.15,"location_history":"[5,0,1,7,1,7,1,2,3,4,5,11]","action_history":"[0,0,1,1,1,0,0,0,0,0,1]","mutagen_history":"[0,0,1,1,1,0,0,0,0,0,1]","location_rts":"[1122,340,295,320,380,216,337,461,431,451,241]","trial_type":"fractal-mutation","trial_index":44,"time_elapsed":987886,"internal_node_id":"0.0-5.0-5.0"},{"group":"dihedral group of order 12","fractal_assignment":["../images/org_blu.png","../images/grn_red.png","../images/red_prp.png","../images/gry_blk.png","../images/cyn_red.png","../images/grn_prp.png","../images/wht_red.png","../images/grn_blu.png","../images/ylw_pnk.png","../images/blu_wht.png","../images/pnk_blu.png","../images/ylw_slt.png"],"mutagen_generator_assignment":[0,1],"goal":6,"start":11,"action_noise":0.15,"location_history":"[11,10,9,3,4,5,0,6]","action_history":"[1,0,0,0,0,0,0]","mutagen_history":"[1,0,0,0,0,0,0]","location_rts":"[495,219,242,275,543,254,346]","trial_type":"fractal-mutation","trial_index":45,"time_elapsed":1000964,"internal_node_id":"0.0-5.0-6.0"},{"group":"dihedral group of order 12","fractal_assignment":["../images/org_blu.png","../images/grn_red.png","../images/red_prp.png","../images/gry_blk.png","../images/cyn_red.png","../images/grn_prp.png","../images/wht_red.png","../images/grn_blu.png","../images/ylw_pnk.png","../images/blu_wht.png","../images/pnk_blu.png","../images/ylw_slt.png"],"mutagen_generator_assignment":[0,1],"goal":3,"start":6,"action_noise":0.15,"location_history":"[6,11,10,4,5,11,5,0,1,2,8,2,8,7,1,7,1,7,6,11,10,4,10,9,8,7,6,11,10,4,10,4,5,0,6,0,1,7,6,0,6,0,1,2,8,7,6,0,6,0,1,2,3]","action_history":"[0,1,1,1,1,1,0,0,0,1,1,0,0,1,1,1,1,0,0,0,1,1,0,0,0,0,0,0,0,1,1,0,0,1,1,0,1,0,1,1,1,0,0,1,0,1,1,0,0,0,0,1]","mutagen_history":"[0,1,1,1,1,1,0,0,0,1,1,0,0,1,1,1,1,0,0,0,1,1,0,0,0,0,0,0,0,1,1,0,0,1,1,0,1,0,1,1,1,0,0,1,0,1,1,0,0,0,0,1]","location_rts":"[490,516,313,349,489,1203,172,283,404,183,430,334,424,262,277,326,498,338,383,507,178,572,294,382,462,464,424,403,404,258,453,123,521,171,951,1393,463,264,1679,774,1486,378,720,1687,418,1235,445,76,370,457,3495,210]","trial_type":"fractal-mutation","trial_index":46,"time_elapsed":1088141,"internal_node_id":"0.0-5.0-7.0"},{"group":"dihedral group of order 12","fractal_assignment":["../images/org_blu.png","../images/grn_red.png","../images/red_prp.png","../images/gry_blk.png","../images/cyn_red.png","../images/grn_prp.png","../images/wht_red.png","../images/grn_blu.png","../images/ylw_pnk.png","../images/blu_wht.png","../images/pnk_blu.png","../images/ylw_slt.png"],"mutagen_generator_assignment":[0,1],"goal":8,"start":3,"action_noise":0.15,"location_history":"[3,9,8]","action_history":"[0,0]","mutagen_history":"[0,0]","location_rts":"[994,310]","trial_type":"fractal-mutation","trial_index":47,"time_elapsed":1095025,"internal_node_id":"0.0-5.0-8.0"},{"group":"dihedral group of order 12","fractal_assignment":["../images/org_blu.png","../images/grn_red.png","../images/red_prp.png","../images/gry_blk.png","../images/cyn_red.png","../images/grn_prp.png","../images/wht_red.png","../images/grn_blu.png","../images/ylw_pnk.png","../images/blu_wht.png","../images/pnk_blu.png","../images/ylw_slt.png"],"mutagen_generator_assignment":[0,1],"goal":1,"start":8,"action_noise":0.15,"location_history":"[8,2,8,2,8,7,6,11,5,11,5,0,6,0,6,0,1]","action_history":"[1,1,1,1,0,0,0,1,1,1,0,1,0,1,1,1]","mutagen_history":"[1,1,1,1,0,0,0,1,1,1,0,1,0,1,1,1]","location_rts":"[1791,155,858,619,389,519,431,1681,621,484,1498,1624,422,446,256,270]","trial_type":"fractal-mutation","trial_index":48,"time_elapsed":1127112,"internal_node_id":"0.0-5.0-9.0"},{"group":"dihedral group of order 12","fractal_assignment":["../images/org_blu.png","../images/grn_red.png","../images/red_prp.png","../images/gry_blk.png","../images/cyn_red.png","../images/grn_prp.png","../images/wht_red.png","../images/grn_blu.png","../images/ylw_pnk.png","../images/blu_wht.png","../images/pnk_blu.png","../images/ylw_slt.png"],"mutagen_generator_assignment":[0,1],"goal":7,"start":1,"action_noise":0.15,"location_history":"[1,2,8,2,8,7]","action_history":"[1,1,1,1,0]","mutagen_history":"[1,1,1,1,0]","location_rts":"[1191,159,323,314,370]","trial_type":"fractal-mutation","trial_index":49,"time_elapsed":1138211,"internal_node_id":"0.0-5.0-10.0"},{"group":"dihedral group of order 12","fractal_assignment":["../images/org_blu.png","../images/grn_red.png","../images/red_prp.png","../images/gry_blk.png","../images/cyn_red.png","../images/grn_prp.png","../images/wht_red.png","../images/grn_blu.png","../images/ylw_pnk.png","../images/blu_wht.png","../images/pnk_blu.png","../images/ylw_slt.png"],"mutagen_generator_assignment":[0,1],"goal":5,"start":7,"action_noise":0.15,"location_history":"[7,1,2,3,4,10,4,10,4,5]","action_history":"[1,0,0,1,1,1,1,1,1]","mutagen_history":"[1,0,0,1,1,1,1,1,1]","location_rts":"[5457,326,257,366,271,302,291,435,395]","trial_type":"fractal-mutation","trial_index":50,"time_elapsed":1159188,"internal_node_id":"0.0-5.0-11.0"},{"group":"dihedral group of order 12","fractal_assignment":["../images/org_blu.png","../images/grn_red.png","../images/red_prp.png","../images/gry_blk.png","../images/cyn_red.png","../images/grn_prp.png","../images/wht_red.png","../images/grn_blu.png","../images/ylw_pnk.png","../images/blu_wht.png","../images/pnk_blu.png","../images/ylw_slt.png"],"mutagen_generator_assignment":[0,1],"goal":8,"start":5,"action_noise":0.15,"location_history":"[5,0,1,2,3,4,5,11,10,9,3,9,3,4,5,11,10,9,3,4,5,0,6,11,10,4,10,9,3,4,5,11,10,4,10,4,5,11,5,11,5,0,1,2,3,4,5,11,5,0,6,0,1,7,1,2,3,9,8]","action_history":"[0,0,0,0,0,0,0,0,0,1,1,1,0,0,1,0,0,1,0,0,0,1,0,0,1,1,0,1,0,0,1,0,1,1,1,0,0,1,0,1,1,0,0,1,0,0,1,1,0,1,1,1,1,0,1,1,1,0]","mutagen_history":"[0,0,0,0,0,0,0,0,0,1,1,1,0,0,1,0,0,1,0,0,0,1,0,0,1,1,0,1,0,0,1,0,1,1,1,0,0,1,0,1,1,0,0,1,0,0,1,1,0,1,1,1,1,0,1,1,1,0]","location_rts":"[640,276,355,428,480,418,405,378,492,566,304,352,237,392,38,474,396,418,630,298,360,232,554,387,165,570,711,389,478,1369,891,486,696,1545,1174,522,549,836,677,717,226,486,641,887,498,554,653,710,578,455,1473,947,1311,705,748,240,507,866]","trial_type":"fractal-mutation","trial_index":51,"time_elapsed":1256574,"internal_node_id":"0.0-5.0-12.0"},{"group":"dihedral group of order 12","fractal_assignment":["../images/org_blu.png","../images/grn_red.png","../images/red_prp.png","../images/gry_blk.png","../images/cyn_red.png","../images/grn_prp.png","../images/wht_red.png","../images/grn_blu.png","../images/ylw_pnk.png","../images/blu_wht.png","../images/pnk_blu.png","../images/ylw_slt.png"],"mutagen_generator_assignment":[0,1],"goal":11,"start":8,"action_noise":0.15,"location_history":"[8,7,6,11]","action_history":"[0,0,1]","mutagen_history":"[0,0,1]","location_rts":"[2603,176,799]","trial_type":"fractal-mutation","trial_index":52,"time_elapsed":1266757,"internal_node_id":"0.0-5.0-13.0"},{"group":"dihedral group of order 12","fractal_assignment":["../images/org_blu.png","../images/grn_red.png","../images/red_prp.png","../images/gry_blk.png","../images/cyn_red.png","../images/grn_prp.png","../images/wht_red.png","../images/grn_blu.png","../images/ylw_pnk.png","../images/blu_wht.png","../images/pnk_blu.png","../images/ylw_slt.png"],"mutagen_generator_assignment":[0,1],"goal":6,"start":11,"action_noise":0.15,"location_history":"[11,10,4,10,4,10,4,10,9,3,4,10,4,5,0,6]","action_history":"[0,1,1,1,1,1,1,0,1,0,1,1,0,0,1]","mutagen_history":"[0,1,1,1,1,1,1,0,1,0,1,1,0,0,1]","location_rts":"[1148,254,240,219,858,339,286,462,949,779,1497,708,778,324,913]","trial_type":"fractal-mutation","trial_index":53,"time_elapsed":1295504,"internal_node_id":"0.0-5.0-14.0"},{"group":"dihedral group of order 12","fractal_assignment":["../images/org_blu.png","../images/grn_red.png","../images/red_prp.png","../images/gry_blk.png","../images/cyn_red.png","../images/grn_prp.png","../images/wht_red.png","../images/grn_blu.png","../images/ylw_pnk.png","../images/blu_wht.png","../images/pnk_blu.png","../images/ylw_slt.png"],"mutagen_generator_assignment":[0,1],"goal":7,"start":6,"action_noise":0.15,"location_history":"[6,11,5,0,1,7]","action_history":"[0,1,0,0,1]","mutagen_history":"[0,1,0,0,1]","location_rts":"[999,792,415,396,384]","trial_type":"fractal-mutation","trial_index":54,"time_elapsed":1307130,"internal_node_id":"0.0-5.0-15.0"},{"group":"dihedral group of order 12","fractal_assignment":["../images/org_blu.png","../images/grn_red.png","../images/red_prp.png","../images/gry_blk.png","../images/cyn_red.png","../images/grn_prp.png","../images/wht_red.png","../images/grn_blu.png","../images/ylw_pnk.png","../images/blu_wht.png","../images/pnk_blu.png","../images/ylw_slt.png"],"mutagen_generator_assignment":[0,1],"goal":10,"start":7,"action_noise":0.15,"location_history":"[7,1,7,6,11,5,11,10]","action_history":"[1,1,0,0,1,1,0]","mutagen_history":"[1,1,0,0,1,1,0]","location_rts":"[332,515,419,432,1025,460,438]","trial_type":"fractal-mutation","trial_index":55,"time_elapsed":1321447,"internal_node_id":"0.0-5.0-16.0"},{"group":"dihedral group of order 12","fractal_assignment":["../images/org_blu.png","../images/grn_red.png","../images/red_prp.png","../images/gry_blk.png","../images/cyn_red.png","../images/grn_prp.png","../images/wht_red.png","../images/grn_blu.png","../images/ylw_pnk.png","../images/blu_wht.png","../images/pnk_blu.png","../images/ylw_slt.png"],"mutagen_generator_assignment":[0,1],"goal":0,"start":10,"action_noise":0.15,"location_history":"[10,4,5,0]","action_history":"[1,0,0]","mutagen_history":"[1,0,0]","location_rts":"[501,268,334]","trial_type":"fractal-mutation","trial_index":56,"time_elapsed":1329162,"internal_node_id":"0.0-5.0-17.0"},{"group":"dihedral group of order 12","fractal_assignment":["../images/org_blu.png","../images/grn_red.png","../images/red_prp.png","../images/gry_blk.png","../images/cyn_red.png","../images/grn_prp.png","../images/wht_red.png","../images/grn_blu.png","../images/ylw_pnk.png","../images/blu_wht.png","../images/pnk_blu.png","../images/ylw_slt.png"],"mutagen_generator_assignment":[0,1],"goal":9,"start":0,"action_noise":0.15,"location_history":"[0,1,7,6,0,1,7,6,0,1,7,1,7,6,0,1,7,1,7,6,11,5,0,1,7,6,0,1,7,1,2,3,9]","action_history":"[0,1,0,1,0,0,0,0,0,1,1,1,0,1,0,0,1,1,1,0,1,1,1,0,0,1,0,1,1,0,0,1]","mutagen_history":"[0,1,0,1,0,0,0,0,0,1,1,1,0,1,0,0,1,1,1,0,1,1,1,0,0,1,0,1,1,0,0,1]","location_rts":"[575,293,602,927,445,245,701,718,845,901,533,747,401,364,679,714,640,949,386,724,567,684,743,586,642,761,572,666,3397,681,567,1000]","trial_type":"fractal-mutation","trial_index":57,"time_elapsed":1388849,"internal_node_id":"0.0-5.0-18.0"},{"group":"dihedral group of order 12","fractal_assignment":["../images/org_blu.png","../images/grn_red.png","../images/red_prp.png","../images/gry_blk.png","../images/cyn_red.png","../images/grn_prp.png","../images/wht_red.png","../images/grn_blu.png","../images/ylw_pnk.png","../images/blu_wht.png","../images/pnk_blu.png","../images/ylw_slt.png"],"mutagen_generator_assignment":[0,1],"goal":4,"start":9,"action_noise":0.15,"location_history":"[9,8,7,6,0,6,0,6,0,1,7,1,2,3,9,3,9,3,4]","action_history":"[0,0,0,1,1,1,1,1,0,1,1,1,0,1,1,1,0,0]","mutagen_history":"[0,0,0,1,1,1,1,1,0,1,1,1,0,1,1,1,0,0]","location_rts":"[1177,330,868,258,151,338,443,457,568,356,471,531,316,197,357,519,1852,1142]","trial_type":"fractal-mutation","trial_index":58,"time_elapsed":1421311,"internal_node_id":"0.0-5.0-19.0"},{"group":"dihedral group of order 12","fractal_assignment":["../images/org_blu.png","../images/grn_red.png","../images/red_prp.png","../images/gry_blk.png","../images/cyn_red.png","../images/grn_prp.png","../images/wht_red.png","../images/grn_blu.png","../images/ylw_pnk.png","../images/blu_wht.png","../images/pnk_blu.png","../images/ylw_slt.png"],"mutagen_generator_assignment":[0,1],"goal":2,"start":4,"action_noise":0.15,"location_history":"[4,10,4,5,11,10,4,5,11,5,11,10,9,3,9,8,2]","action_history":"[1,1,1,0,0,1,0,1,1,0,0,0,1,1,0,1]","mutagen_history":"[1,1,1,0,0,1,0,1,1,0,0,0,1,1,0,1]","location_rts":"[1550,617,622,377,491,453,1241,638,1464,786,1315,1323,914,470,6966,1393]","trial_type":"fractal-mutation","trial_index":59,"time_elapsed":1461926,"internal_node_id":"0.0-5.0-20.0"},{"group":"dihedral group of order 12","fractal_assignment":["../images/org_blu.png","../images/grn_red.png","../images/red_prp.png","../images/gry_blk.png","../images/cyn_red.png","../images/grn_prp.png","../images/wht_red.png","../images/grn_blu.png","../images/ylw_pnk.png","../images/blu_wht.png","../images/pnk_blu.png","../images/ylw_slt.png"],"mutagen_generator_assignment":[0,1],"goal":1,"start":2,"action_noise":0.15,"location_history":"[2,3,4,10,4,10,9,8,7,1]","action_history":"[0,0,1,1,1,0,0,0,1]","mutagen_history":"[0,0,1,1,1,0,0,0,1]","location_rts":"[1266,353,391,394,535,450,397,535,667]","trial_type":"fractal-mutation","trial_index":60,"time_elapsed":1479737,"internal_node_id":"0.0-5.0-21.0"},{"group":"dihedral group of order 12","fractal_assignment":["../images/org_blu.png","../images/grn_red.png","../images/red_prp.png","../images/gry_blk.png","../images/cyn_red.png","../images/grn_prp.png","../images/wht_red.png","../images/grn_blu.png","../images/ylw_pnk.png","../images/blu_wht.png","../images/pnk_blu.png","../images/ylw_slt.png"],"mutagen_generator_assignment":[0,1],"goal":3,"start":1,"action_noise":0.15,"location_history":"[1,2,3]","action_history":"[0,0]","mutagen_history":"[0,0]","location_rts":"[762,338]","trial_type":"fractal-mutation","trial_index":61,"time_elapsed":1486355,"internal_node_id":"0.0-5.0-22.0"},{"group":"dihedral group of order 12","fractal_assignment":["../images/org_blu.png","../images/grn_red.png","../images/red_prp.png","../images/gry_blk.png","../images/cyn_red.png","../images/grn_prp.png","../images/wht_red.png","../images/grn_blu.png","../images/ylw_pnk.png","../images/blu_wht.png","../images/pnk_blu.png","../images/ylw_slt.png"],"mutagen_generator_assignment":[0,1],"goal":7,"start":3,"action_noise":0.15,"location_history":"[3,4,10,4,5,0,1,7]","action_history":"[0,1,1,0,0,0,1]","mutagen_history":"[0,1,1,0,0,0,1]","location_rts":"[916,286,284,344,370,421,309]","trial_type":"fractal-mutation","trial_index":62,"time_elapsed":1499993,"internal_node_id":"0.0-5.0-23.0"},{"group":"dihedral group of order 12","fractal_assignment":["../images/org_blu.png","../images/grn_red.png","../images/red_prp.png","../images/gry_blk.png","../images/cyn_red.png","../images/grn_prp.png","../images/wht_red.png","../images/grn_blu.png","../images/ylw_pnk.png","../images/blu_wht.png","../images/pnk_blu.png","../images/ylw_slt.png"],"mutagen_generator_assignment":[0,1],"goal":6,"start":7,"action_noise":0.15,"location_history":"[7,1,7,1,2,8,2,8,2,3,9,3,9,3,9,8,7,6]","action_history":"[1,1,0,0,1,1,1,1,0,1,1,0,1,1,0,0,0]","mutagen_history":"[1,1,0,0,1,1,1,1,0,1,1,0,1,1,0,0,0]","location_rts":"[698,237,338,360,339,355,401,379,256,637,535,622,673,101,883,740,822]","trial_type":"fractal-mutation","trial_index":63,"time_elapsed":1529363,"internal_node_id":"0.0-5.0-24.0"},{"group":"dihedral group of order 12","fractal_assignment":["../images/org_blu.png","../images/grn_red.png","../images/red_prp.png","../images/gry_blk.png","../images/cyn_red.png","../images/grn_prp.png","../images/wht_red.png","../images/grn_blu.png","../images/ylw_pnk.png","../images/blu_wht.png","../images/pnk_blu.png","../images/ylw_slt.png"],"mutagen_generator_assignment":[0,1],"goal":2,"start":6,"action_noise":0.15,"location_history":"[6,11,5,11,5,11,10,4,10,9,3,9,3,4,10,9,8,2]","action_history":"[0,1,1,1,1,0,1,1,0,1,1,1,1,0,0,0,1]","mutagen_history":"[0,1,1,1,1,0,1,1,0,1,1,1,1,0,0,0,1]","location_rts":"[1552,249,366,515,290,208,655,745,554,268,183,235,351,109,429,753,452]","trial_type":"fractal-mutation","trial_index":64,"time_elapsed":1558313,"internal_node_id":"0.0-5.0-25.0"},{"group":"dihedral group of order 12","fractal_assignment":["../images/org_blu.png","../images/grn_red.png","../images/red_prp.png","../images/gry_blk.png","../images/cyn_red.png","../images/grn_prp.png","../images/wht_red.png","../images/grn_blu.png","../images/ylw_pnk.png","../images/blu_wht.png","../images/pnk_blu.png","../images/ylw_slt.png"],"mutagen_generator_assignment":[0,1],"goal":8,"start":2,"action_noise":0.15,"location_history":"[2,3,4,10,4,5,0,1,7,6,11,10,4,5,0,6,11,5,11,5,0,6,0,1,7,1,7,1,2,8]","action_history":"[0,0,1,0,0,0,0,1,0,0,0,1,0,0,1,0,1,1,1,0,1,1,0,1,1,0,1,0,1]","mutagen_history":"[0,0,1,0,0,0,0,1,0,0,0,1,0,0,1,0,1,1,1,0,1,1,0,1,1,0,1,0,1]","location_rts":"[2417,1416,572,635,489,553,678,649,499,420,431,491,435,744,569,760,660,913,659,261,486,1009,738,759,868,911,634,687,262]","trial_type":"fractal-mutation","trial_index":65,"time_elapsed":1612211,"internal_node_id":"0.0-5.0-26.0"},{"group":"dihedral group of order 12","fractal_assignment":["../images/org_blu.png","../images/grn_red.png","../images/red_prp.png","../images/gry_blk.png","../images/cyn_red.png","../images/grn_prp.png","../images/wht_red.png","../images/grn_blu.png","../images/ylw_pnk.png","../images/blu_wht.png","../images/pnk_blu.png","../images/ylw_slt.png"],"mutagen_generator_assignment":[0,1],"goal":0,"start":8,"action_noise":0.15,"location_history":"[8,7,1,7,6,11,10,4,10,9,8,2,3,4,10,4,5,11,5,11,5,0]","action_history":"[0,1,1,1,0,0,0,1,1,0,0,0,0,1,1,0,1,1,0,1,0]","mutagen_history":"[0,1,1,1,0,0,0,1,1,0,0,0,0,1,1,0,1,1,0,1,0]","location_rts":"[911,313,321,329,192,436,403,358,410,255,349,540,740,381,102,526,462,557,121,423,277]","trial_type":"fractal-mutation","trial_index":66,"time_elapsed":1645682,"internal_node_id":"0.0-5.0-27.0"},{"group":"dihedral group of order 12","fractal_assignment":["../images/org_blu.png","../images/grn_red.png","../images/red_prp.png","../images/gry_blk.png","../images/cyn_red.png","../images/grn_prp.png","../images/wht_red.png","../images/grn_blu.png","../images/ylw_pnk.png","../images/blu_wht.png","../images/pnk_blu.png","../images/ylw_slt.png"],"mutagen_generator_assignment":[0,1],"goal":3,"start":0,"action_noise":0.15,"location_history":"[0,6,11,5,0,6,0,6,11,10,4,10,4,5,11,10,9,8,7,1,7,6,0,6,0,1,2,3]","action_history":"[0,0,1,0,1,1,0,0,0,0,1,0,0,1,0,0,0,0,1,1,0,1,1,1,0,0,1]","mutagen_history":"[0,0,1,0,1,1,0,0,0,0,1,0,0,1,0,0,0,0,1,1,0,1,1,1,0,0,1]","location_rts":"[26441,431,340,382,555,479,402,324,364,362,408,390,130,786,711,87,20,382,413,312,600,697,710,688,117,554,972]","trial_type":"fractal-mutation","trial_index":67,"time_elapsed":1715206,"internal_node_id":"0.0-5.0-28.0"},{"group":"dihedral group of order 12","fractal_assignment":["../images/org_blu.png","../images/grn_red.png","../images/red_prp.png","../images/gry_blk.png","../images/cyn_red.png","../images/grn_prp.png","../images/wht_red.png","../images/grn_blu.png","../images/ylw_pnk.png","../images/blu_wht.png","../images/pnk_blu.png","../images/ylw_slt.png"],"mutagen_generator_assignment":[0,1],"goal":4,"start":3,"action_noise":0.15,"location_history":"[3,9,3,9,8,2,8,2,3,4]","action_history":"[1,1,1,0,1,1,0,0,0]","mutagen_history":"[1,1,1,0,1,1,0,0,0]","location_rts":"[1033,326,785,384,581,444,452,383,909]","trial_type":"fractal-mutation","trial_index":68,"time_elapsed":1733374,"internal_node_id":"0.0-5.0-29.0"},{"group":"dihedral group of order 12","fractal_assignment":["../images/org_blu.png","../images/grn_red.png","../images/red_prp.png","../images/gry_blk.png","../images/cyn_red.png","../images/grn_prp.png","../images/wht_red.png","../images/grn_blu.png","../images/ylw_pnk.png","../images/blu_wht.png","../images/pnk_blu.png","../images/ylw_slt.png"],"mutagen_generator_assignment":[0,1],"goal":10,"start":4,"action_noise":0.15,"location_history":"[4,5,11,5,11,10]","action_history":"[0,1,1,1,0]","mutagen_history":"[0,1,1,1,0]","location_rts":"[1070,157,247,347,105]","trial_type":"fractal-mutation","trial_index":69,"time_elapsed":1743939,"internal_node_id":"0.0-5.0-30.0"},{"group":"dihedral group of order 12","fractal_assignment":["../images/org_blu.png","../images/grn_red.png","../images/red_prp.png","../images/gry_blk.png","../images/cyn_red.png","../images/grn_prp.png","../images/wht_red.png","../images/grn_blu.png","../images/ylw_pnk.png","../images/blu_wht.png","../images/pnk_blu.png","../images/ylw_slt.png"],"mutagen_generator_assignment":[0,1],"goal":11,"start":10,"action_noise":0.15,"location_history":"[10,4,5,11]","action_history":"[1,1,0]","mutagen_history":"[1,1,0]","location_rts":"[667,329,485]","trial_type":"fractal-mutation","trial_index":70,"time_elapsed":1751989,"internal_node_id":"0.0-5.0-31.0"},{"group":"dihedral group of order 12","fractal_assignment":["../images/org_blu.png","../images/grn_red.png","../images/red_prp.png","../images/gry_blk.png","../images/cyn_red.png","../images/grn_prp.png","../images/wht_red.png","../images/grn_blu.png","../images/ylw_pnk.png","../images/blu_wht.png","../images/pnk_blu.png","../images/ylw_slt.png"],"mutagen_generator_assignment":[0,1],"goal":1,"start":11,"action_noise":0.15,"location_history":"[11,5,0,1]","action_history":"[1,0,0]","mutagen_history":"[1,0,0]","location_rts":"[726,151,493]","trial_type":"fractal-mutation","trial_index":71,"time_elapsed":1759904,"internal_node_id":"0.0-5.0-32.0"},{"group":"dihedral group of order 12","fractal_assignment":["../images/org_blu.png","../images/grn_red.png","../images/red_prp.png","../images/gry_blk.png","../images/cyn_red.png","../images/grn_prp.png","../images/wht_red.png","../images/grn_blu.png","../images/ylw_pnk.png","../images/blu_wht.png","../images/pnk_blu.png","../images/ylw_slt.png"],"mutagen_generator_assignment":[0,1],"goal":5,"start":1,"action_noise":0.15,"location_history":"[1,7,1,7,6,11,5]","action_history":"[1,1,1,0,0,1]","mutagen_history":"[1,1,1,0,0,1]","location_rts":"[761,294,588,1122,473,882]","trial_type":"fractal-mutation","trial_index":72,"time_elapsed":1773791,"internal_node_id":"0.0-5.0-33.0"},{"group":"dihedral group of order 12","fractal_assignment":["../images/org_blu.png","../images/grn_red.png","../images/red_prp.png","../images/gry_blk.png","../images/cyn_red.png","../images/grn_prp.png","../images/wht_red.png","../images/grn_blu.png","../images/ylw_pnk.png","../images/blu_wht.png","../images/pnk_blu.png","../images/ylw_slt.png"],"mutagen_generator_assignment":[0,1],"goal":9,"start":5,"action_noise":0.15,"location_history":"[5,11,10,4,5,0,1,2,3,9]","action_history":"[1,0,0,0,0,1,0,0,0]","mutagen_history":"[1,0,0,0,0,1,0,0,0]","location_rts":"[750,674,345,357,332,212,146,329,481]","trial_type":"fractal-mutation","trial_index":73,"time_elapsed":1790115,"internal_node_id":"0.0-5.0-34.0"},{"view_history":"[{\"page_index\":0,\"viewing_time\":11820}]","rt":11821,"trial_type":"instructions","trial_index":74,"time_elapsed":1802936,"internal_node_id":"0.0-6.0"},{"rt":4520,"responses":"{\"Q0\":\"no\"}","trial_type":"survey-text","trial_index":75,"time_elapsed":1808464,"internal_node_id":"0.0-7.0"}]