[{"view_history":"[{\"page_index\":0,\"viewing_time\":442019},{\"page_index\":1,\"viewing_time\":453904},{\"page_index\":2,\"viewing_time\":259312},{\"page_index\":3,\"viewing_time\":8313}]","rt":1163548,"trial_type":"instructions","trial_index":0,"time_elapsed":1163549,"internal_node_id":"0.0-0.0"},{"view_history":"[{\"page_index\":0,\"viewing_time\":1845},{\"page_index\":1,\"viewing_time\":102529}]","rt":104374,"trial_type":"instructions","trial_index":1,"time_elapsed":1268924,"internal_node_id":"0.0-1.0"},{"group":"dihedral group of order 12","room_assignment":["pink","yellow","purple","cyan","red","green","grey","olive","ivory","brown","blue","orange"],"door_color_assignment":["white","black"],"door_generator_assignment":[1,0],"goal":4,"start":0,"action_noise":0.15,"location_history":"[0,6,11,10,4]","action_history":"[1,0,0,1]","door_history":"[0,1,1,0]","location_rts":"[3056,1657,2466,956]","trial_type":"two-door-navigation","trial_index":2,"time_elapsed":1285051,"internal_node_id":"0.0-2.0-0.0"},{"group":"dihedral group of order 12","room_assignment":["pink","yellow","purple","cyan","red","green","grey","olive","ivory","brown","blue","orange"],"door_color_assignment":["white","black"],"door_generator_assignment":[1,0],"goal":9,"start":4,"action_noise":0.15,"location_history":"[4,5,0,1,7,1,2,3,4,5,11,5,11,10,9]","action_history":"[1,0,0,1,1,0,0,0,0,1,1,0,0,0]","door_history":"[0,1,1,0,0,1,1,1,1,0,0,1,1,1]","location_rts":"[3873,838,1053,952,1279,904,671,614,550,1143,1496,696,718,500]","trial_type":"two-door-navigation","trial_index":3,"time_elapsed":1319669,"internal_node_id":"0.0-2.0-1.0"},{"group":"dihedral group of order 12","room_assignment":["pink","yellow","purple","cyan","red","green","grey","olive","ivory","brown","blue","orange"],"door_color_assignment":["white","black"],"door_generator_assignment":[1,0],"goal":10,"start":9,"action_noise":0.15,"location_history":"[9,3,9,3,9,8,7,6,11,10]","action_history":"[1,1,1,1,0,0,0,0,0]","door_history":"[0,0,0,0,1,1,1,1,1]","location_rts":"[1577,864,617,566,564,817,643,4614,642]","trial_type":"two-door-navigation","trial_index":4,"time_elapsed":1344080,"internal_node_id":"0.0-2.0-2.0"},{"group":"dihedral group of order 12","room_assignment":["pink","yellow","purple","cyan","red","green","grey","olive","ivory","brown","blue","orange"],"door_color_assignment":["white","black"],"door_generator_assignment":[1,0],"goal":2,"start":10,"action_noise":0.15,"location_history":"[10,4,10,4,5,0,6,0,6,11,5,11,5,0,6,0,1,7,1,2]","action_history":"[1,1,1,0,1,1,1,1,0,1,1,1,0,1,1,0,1,1,0]","door_history":"[0,0,0,1,0,0,0,0,1,0,0,0,1,0,0,1,0,0,1]","location_rts":"[2402,562,562,472,1217,1184,514,552,427,560,684,548,353,546,500,368,806,599,492]","trial_type":"two-door-navigation","trial_index":5,"time_elapsed":1382276,"internal_node_id":"0.0-2.0-3.0"},{"group":"dihedral group of order 12","room_assignment":["pink","yellow","purple","cyan","red","green","grey","olive","ivory","brown","blue","orange"],"door_color_assignment":["white","black"],"door_generator_assignment":[1,0],"goal":5,"start":2,"action_noise":0.15,"location_history":"[2,8,7,1,2,3,9,3,4,10,9,3,4,10,9,8,2,3,4,10,4,10,9,8,2,8,7,1,7,6,0,1,7,1,7,6,0,1,7,1,7,1,7,1,2,8,2,8,2,3,9,3,4,5]","action_history":"[1,0,1,1,0,1,1,0,1,0,1,0,1,0,0,1,1,0,1,1,1,0,0,1,1,0,1,1,0,1,0,1,0,1,0,1,1,1,1,0,1,1,1,0,1,1,1,1,0,1,1,0,1]","door_history":"[0,1,0,0,1,0,0,1,0,1,0,1,0,1,1,0,0,1,0,0,0,1,1,0,0,1,0,0,1,0,1,0,1,0,1,0,0,0,0,1,0,0,0,1,0,0,0,0,1,0,0,1,0]","location_rts":"[9323,600,998,457,505,740,500,485,469,513,488,713,511,583,476,1464,450,457,497,462,485,28,8508,498,529,453,498,562,410,561,753,300,457,531,577,753,608,651,823,1028,432,428,386,306,796,353,433,332,390,673,457,886,495]","trial_type":"two-door-navigation","trial_index":6,"time_elapsed":1491123,"internal_node_id":"0.0-2.0-4.0"},{"group":"dihedral group of order 12","room_assignment":["pink","yellow","purple","cyan","red","green","grey","olive","ivory","brown","blue","orange"],"door_color_assignment":["white","black"],"door_generator_assignment":[1,0],"goal":11,"start":5,"action_noise":0.15,"location_history":"[5,11]","action_history":"[1]","door_history":"[0]","location_rts":"[1472]","trial_type":"two-door-navigation","trial_index":7,"time_elapsed":1497253,"internal_node_id":"0.0-2.0-5.0"},{"group":"dihedral group of order 12","room_assignment":["pink","yellow","purple","cyan","red","green","grey","olive","ivory","brown","blue","orange"],"door_color_assignment":["white","black"],"door_generator_assignment":[1,0],"goal":6,"start":11,"action_noise":0.15,"location_history":"[11,5,0,1,7,1,7,1,2,3,4,10,4,10,4,5,0,1,7,1,7,6]","action_history":"[1,0,1,1,1,0,1,0,1,0,1,1,0,1,0,1,0,1,1,1,0]","door_history":"[0,1,0,0,0,1,0,1,0,1,0,0,1,0,1,0,1,0,0,0,1]","location_rts":"[2040,610,545,706,712,676,539,489,501,465,1056,438,409,1078,473,752,516,564,975,353,456]","trial_type":"two-door-navigation","trial_index":8,"time_elapsed":1538558,"internal_node_id":"0.0-2.0-6.0"},{"group":"dihedral group of order 12","room_assignment":["pink","yellow","purple","cyan","red","green","grey","olive","ivory","brown","blue","orange"],"door_color_assignment":["white","black"],"door_generator_assignment":[1,0],"goal":3,"start":6,"action_noise":0.15,"location_history":"[6,0,6,0,6,11,5,11,10,4,5,11,5,0,1,7,6,0,6,11,5,11,5,0,6,0,6,11,5,11,10,4,5,11,5,11,5,0,6,0,1,7,1,2,8,2,3]","action_history":"[1,0,1,1,0,1,1,0,0,0,1,1,0,1,1,1,0,1,0,1,1,1,0,1,1,1,0,1,1,0,1,1,1,1,1,1,0,1,1,0,1,1,0,1,1,1]","door_history":"[0,1,0,0,1,0,0,1,1,1,0,0,1,0,0,0,1,0,1,0,0,0,1,0,0,0,1,0,0,1,0,0,0,0,0,0,1,0,0,1,0,0,1,0,0,0]","location_rts":"[117688,804,432,80,112,281,580,442,900,765,800,394,727,504,343,440,501,536,457,1672,487,489,319,513,424,568,56,759,487,840,500,381,264,610,454,755,680,616,452,833,500,498,616,544,443,481]","trial_type":"two-door-navigation","trial_index":9,"time_elapsed":1735774,"internal_node_id":"0.0-2.0-7.0"},{"group":"dihedral group of order 12","room_assignment":["pink","yellow","purple","cyan","red","green","grey","olive","ivory","brown","blue","orange"],"door_color_assignment":["white","black"],"door_generator_assignment":[1,0],"goal":8,"start":3,"action_noise":0.15,"location_history":"[3,4,10,4,5,11,10,4,5,11,5,0,6,11,5,0,6,11,10,4,5,11,5,0,6,0,6,11,10,4,10,4,10,9,3,4,10,9,3,9,3,4,5,11,5,11,5,11,5,11,5,0,1,2,8]","action_history":"[0,1,1,0,1,0,1,0,1,1,0,1,0,1,0,1,0,1,1,1,1,1,0,1,1,1,1,0,1,1,1,1,0,1,0,1,0,1,1,1,0,1,1,0,1,1,1,0,1,1,1,0,1,1]","door_history":"[1,0,0,1,0,1,0,1,0,0,1,0,1,0,1,0,1,0,0,0,0,0,1,0,0,0,0,1,0,0,0,0,1,0,1,0,1,0,0,0,1,0,0,1,0,0,0,1,0,0,0,1,0,0]","location_rts":"[1760,411,451,273,213,315,452,57,11,426,400,495,1304,319,491,182763,523,425,346,497,340,379,325,405,379,480,286,110,320,185,517,1078,192,329,381,375,609,421,357,504,319,378,454,187,353,434,560,178,385,363,437,398,425,544]","trial_type":"two-door-navigation","trial_index":10,"time_elapsed":2005257,"internal_node_id":"0.0-2.0-8.0"},{"group":"dihedral group of order 12","room_assignment":["pink","yellow","purple","cyan","red","green","grey","olive","ivory","brown","blue","orange"],"door_color_assignment":["white","black"],"door_generator_assignment":[1,0],"goal":1,"start":8,"action_noise":0.15,"location_history":"[8,7,6,11,10,9,8,7,6,0,6,0,1]","action_history":"[0,0,0,0,0,0,0,1,1,1,1,0]","door_history":"[1,1,1,1,1,1,1,0,0,0,0,1]","location_rts":"[2964,2776,544,380,500,578,511,609,473,647,507,397]","trial_type":"two-door-navigation","trial_index":11,"time_elapsed":2033127,"internal_node_id":"0.0-2.0-9.0"},{"group":"dihedral group of order 12","room_assignment":["pink","yellow","purple","cyan","red","green","grey","olive","ivory","brown","blue","orange"],"door_color_assignment":["white","black"],"door_generator_assignment":[1,0],"goal":7,"start":1,"action_noise":0.15,"location_history":"[1,7]","action_history":"[1]","door_history":"[0]","location_rts":"[9431]","trial_type":"two-door-navigation","trial_index":12,"time_elapsed":2047192,"internal_node_id":"0.0-2.0-10.0"},{"group":"dihedral group of order 12","room_assignment":["pink","yellow","purple","cyan","red","green","grey","olive","ivory","brown","blue","orange"],"door_color_assignment":["white","black"],"door_generator_assignment":[1,0],"goal":5,"start":7,"action_noise":0.15,"location_history":"[7,6,0,6,11,5]","action_history":"[0,1,1,0,1]","door_history":"[1,0,0,1,0]","location_rts":"[1969,507,473,433,552]","trial_type":"two-door-navigation","trial_index":13,"time_elapsed":2060267,"internal_node_id":"0.0-2.0-11.0"},{"group":"dihedral group of order 12","room_assignment":["pink","yellow","purple","cyan","red","green","grey","olive","ivory","brown","blue","orange"],"door_color_assignment":["white","black"],"door_generator_assignment":[1,0],"goal":8,"start":5,"action_noise":0.15,"location_history":"[5,11,5,11,10,4,10,9,3,9,3,4,5,11,5,11,5,0,6,11,10,4,10,9,3,9,3,4,10,4,10,9,8]","action_history":"[0,1,1,0,1,1,0,1,1,1,0,1,1,0,1,1,0,1,1,0,1,1,0,1,1,1,0,1,1,1,0,1]","door_history":"[1,0,0,1,0,0,1,0,0,0,1,0,0,1,0,0,1,0,0,1,0,0,1,0,0,0,1,0,0,0,1,0]","location_rts":"[9296,438,644,617,388,340,467,344,442,904,256,528,368,486,264,367,487,336,741,645,459,310,385,460,361,567,364,440,468,396,174,435]","trial_type":"two-door-navigation","trial_index":14,"time_elapsed":2122835,"internal_node_id":"0.0-2.0-12.0"},{"group":"dihedral group of order 12","room_assignment":["pink","yellow","purple","cyan","red","green","grey","olive","ivory","brown","blue","orange"],"door_color_assignment":["white","black"],"door_generator_assignment":[1,0],"goal":11,"start":8,"action_noise":0.15,"location_history":"[8,7,6,0,6,11]","action_history":"[1,0,1,1,0]","door_history":"[0,1,0,0,1]","location_rts":"[2544,436,609,555,372]","trial_type":"two-door-navigation","trial_index":15,"time_elapsed":2136438,"internal_node_id":"0.0-2.0-13.0"},{"group":"dihedral group of order 12","room_assignment":["pink","yellow","purple","cyan","red","green","grey","olive","ivory","brown","blue","orange"],"door_color_assignment":["white","black"],"door_generator_assignment":[1,0],"goal":6,"start":11,"action_noise":0.15,"location_history":"[11,5,11,10,4,10,9,3,4,5,11,10,9,3,9,8,2,8,2,3,9,8,7,1,7,1,2,8,2,8,7,1,7,6]","action_history":"[1,1,0,1,1,0,1,1,0,1,1,0,1,1,0,1,1,1,0,1,1,0,1,1,1,0,1,1,1,0,1,1,0]","door_history":"[0,0,1,0,0,1,0,0,1,0,0,1,0,0,1,0,0,0,1,0,0,1,0,0,0,1,0,0,0,1,0,0,1]","location_rts":"[64940,611,404,458,460,249,424,499,575,32040,558,273,377,464,312,529,345,313,327,443,394,364,400,414,497,98,363,443,264,310,440,381,344]","trial_type":"two-door-navigation","trial_index":16,"time_elapsed":2286361,"internal_node_id":"0.0-2.0-14.0"},{"group":"dihedral group of order 12","room_assignment":["pink","yellow","purple","cyan","red","green","grey","olive","ivory","brown","blue","orange"],"door_color_assignment":["white","black"],"door_generator_assignment":[1,0],"goal":7,"start":6,"action_noise":0.15,"location_history":"[6,0,1,7]","action_history":"[1,0,1]","door_history":"[0,1,0]","location_rts":"[1279,710,645]","trial_type":"two-door-navigation","trial_index":17,"time_elapsed":2295721,"internal_node_id":"0.0-2.0-15.0"},{"group":"dihedral group of order 12","room_assignment":["pink","yellow","purple","cyan","red","green","grey","olive","ivory","brown","blue","orange"],"door_color_assignment":["white","black"],"door_generator_assignment":[1,0],"goal":10,"start":7,"action_noise":0.15,"location_history":"[7,1,2,3,9,3,4,10]","action_history":"[0,0,0,1,1,0,1]","door_history":"[1,1,1,0,0,1,0]","location_rts":"[1771,460,524,1148,522,432,461]","trial_type":"two-door-navigation","trial_index":18,"time_elapsed":2312176,"internal_node_id":"0.0-2.0-16.0"},{"group":"dihedral group of order 12","room_assignment":["pink","yellow","purple","cyan","red","green","grey","olive","ivory","brown","blue","orange"],"door_color_assignment":["white","black"],"door_generator_assignment":[1,0],"goal":0,"start":10,"action_noise":0.15,"location_history":"[10,9,8,2,8,7,1,2,8,7,6,0]","action_history":"[0,0,1,1,0,1,0,1,0,1,1]","door_history":"[1,1,0,0,1,0,1,0,1,0,0]","location_rts":"[1141,792,696,2030,760,594,451,447,450,862,397]","trial_type":"two-door-navigation","trial_index":19,"time_elapsed":2336329,"internal_node_id":"0.0-2.0-17.0"},{"group":"dihedral group of order 12","room_assignment":["pink","yellow","purple","cyan","red","green","grey","olive","ivory","brown","blue","orange"],"door_color_assignment":["white","black"],"door_generator_assignment":[1,0],"goal":9,"start":0,"action_noise":0.15,"location_history":"[0,1,7,1,2,8,7,1,7,1,2,8,2,3,4,5,0,6,0,1,7,1,7,6,0,1,7,1,7,6,0,1,7,6,0,1,7,1,2,3,4,10,4,5,11,5,11,10,4,10,9]","action_history":"[1,1,1,1,1,0,1,1,1,0,1,1,0,1,1,0,1,1,0,1,1,1,0,1,0,1,1,1,0,1,0,1,0,1,0,1,1,1,0,1,1,1,0,1,1,1,0,1,1,1]","door_history":"[0,0,0,0,0,1,0,0,0,1,0,0,1,0,0,1,0,0,1,0,0,0,1,0,1,0,0,0,1,0,1,0,1,0,1,0,0,0,1,0,0,0,1,0,0,0,1,0,0,0]","location_rts":"[1540,589,562,464,544,446,442,532,541,190,274,419,264,300,483,544,427,414,380,212,447,571,513,472,398,424,418,401,167,464,409,481,512,429,437,265,442,483,136,310,463,496,636,326,360,605,481,415,427,569]","trial_type":"two-door-navigation","trial_index":20,"time_elapsed":2416515,"internal_node_id":"0.0-2.0-18.0"},{"group":"dihedral group of order 12","room_assignment":["pink","yellow","purple","cyan","red","green","grey","olive","ivory","brown","blue","orange"],"door_color_assignment":["white","black"],"door_generator_assignment":[1,0],"goal":4,"start":9,"action_noise":0.15,"location_history":"[9,3,9,8,7,6,11,10,9,8,7,6,0,1,2,3,4]","action_history":"[0,1,0,0,0,0,0,0,0,0,0,0,0,0,0,0]","door_history":"[1,0,1,1,1,1,1,1,1,1,1,1,1,1,1,1]","location_rts":"[2073,584,307,380,497,417,639,360,517,293,295,441,495,414,608,888]","trial_type":"two-door-navigation","trial_index":21,"time_elapsed":2446526,"internal_node_id":"0.0-2.0-19.0"},{"group":"dihedral group of order 12","room_assignment":["pink","yellow","purple","cyan","red","green","grey","olive","ivory","brown","blue","orange"],"door_color_assignment":["white","black"],"door_generator_assignment":[1,0],"goal":2,"start":4,"action_noise":0.15,"location_history":"[4,5,11,10,4,10,9,3,9,8,7,6,0,1,7,6,11,5,11,5,11,5,11,10,9,3,9,8,2]","action_history":"[0,1,0,1,0,0,1,1,0,1,0,1,0,1,1,0,1,1,1,0,1,1,0,1,1,1,0,1]","door_history":"[1,0,1,0,1,1,0,0,1,0,1,0,1,0,0,1,0,0,0,1,0,0,1,0,0,0,1,0]","location_rts":"[33863,663,392,500,248,628,897,391,495,504,360,477,401,541,392,481,434,260,386,385,578,344,466,536,547,708,425,426]","trial_type":"two-door-navigation","trial_index":22,"time_elapsed":2527037,"internal_node_id":"0.0-2.0-20.0"},{"group":"dihedral group of order 12","room_assignment":["pink","yellow","purple","cyan","red","green","grey","olive","ivory","brown","blue","orange"],"door_color_assignment":["white","black"],"door_generator_assignment":[1,0],"goal":1,"start":2,"action_noise":0.15,"location_history":"[2,8,7,1]","action_history":"[0,0,1]","door_history":"[1,1,0]","location_rts":"[3287,631,522]","trial_type":"two-door-navigation","trial_index":23,"time_elapsed":2538253,"internal_node_id":"0.0-2.0-21.0"},{"group":"dihedral group of order 12","room_assignment":["pink","yellow","purple","cyan","red","green","grey","olive","ivory","brown","blue","orange"],"door_color_assignment":["white","black"],"door_generator_assignment":[1,0],"goal":3,"start":1,"action_noise":0.15,"location_history":"[1,7,1,2,8,2,3]","action_history":"[1,1,0,1,1,0]","door_history":"[0,0,1,0,0,1]","location_rts":"[22088,459,669,455,435,336]","trial_type":"two-door-navigation","trial_index":24,"time_elapsed":2572699,"internal_node_id":"0.0-2.0-22.0"},{"group":"dihedral group of order 12","room_assignment":["pink","yellow","purple","cyan","red","green","grey","olive","ivory","brown","blue","orange"],"door_color_assignment":["white","black"],"door_generator_assignment":[1,0],"goal":7,"start":3,"action_noise":0.15,"location_history":"[3,4,10,4,10,4,10,9,8,7]","action_history":"[1,1,1,1,0,1,0,0,0]","door_history":"[0,0,0,0,1,0,1,1,1]","location_rts":"[12242,669,479,522,411,537,403,507,477]","trial_type":"two-door-navigation","trial_index":25,"time_elapsed":2602182,"internal_node_id":"0.0-2.0-23.0"},{"group":"dihedral group of order 12","room_assignment":["pink","yellow","purple","cyan","red","green","grey","olive","ivory","brown","blue","orange"],"door_color_assignment":["white","black"],"door_generator_assignment":[1,0],"goal":6,"start":7,"action_noise":0.15,"location_history":"[7,1,7,1,7,6]","action_history":"[0,1,0,1,0]","door_history":"[1,0,1,0,1]","location_rts":"[1081,520,481,594,328]","trial_type":"two-door-navigation","trial_index":26,"time_elapsed":2614150,"internal_node_id":"0.0-2.0-24.0"},{"group":"dihedral group of order 12","room_assignment":["pink","yellow","purple","cyan","red","green","grey","olive","ivory","brown","blue","orange"],"door_color_assignment":["white","black"],"door_generator_assignment":[1,0],"goal":2,"start":6,"action_noise":0.15,"location_history":"[6,0,6,11,10,4,5,11,5,11,10,4,5,11,10,4,5,11,5,0,6,0,1,7,1,2]","action_history":"[1,0,0,1,1,0,1,0,1,0,1,0,1,0,1,0,0,1,0,0,1,0,1,1,0]","door_history":"[0,1,1,0,0,1,0,1,0,1,0,1,0,1,0,1,1,0,1,1,0,1,0,0,1]","location_rts":"[1814,292,752,368,957,229,45471,412,358,177,300,156,449,248,398,281,591,461,433,562,625,438,376,492,535]","trial_type":"two-door-navigation","trial_index":27,"time_elapsed":2701877,"internal_node_id":"0.0-2.0-25.0"},{"group":"dihedral group of order 12","room_assignment":["pink","yellow","purple","cyan","red","green","grey","olive","ivory","brown","blue","orange"],"door_color_assignment":["white","black"],"door_generator_assignment":[1,0],"goal":8,"start":2,"action_noise":0.15,"location_history":"[2,3,9,3,4,10,4,5,0,6,11,5,11,10,4,5,0,6,0,1,7,6,11,10,9,3,9,3,9,3,9,8]","action_history":"[0,1,1,0,1,1,0,0,1,0,1,1,0,1,0,0,0,1,0,0,0,0,1,0,0,1,1,1,1,1,0]","door_history":"[1,0,0,1,0,0,1,1,0,1,0,0,1,0,1,1,1,0,1,1,1,1,0,1,1,0,0,0,0,0,1]","location_rts":"[2248,644,454,736,538,659,289,706,787,663,438,661,456,1356,865,1029,1441,686,478,566,665,1133,892,743,597,92,652,755,488,602,260]","trial_type":"two-door-navigation","trial_index":28,"time_elapsed":2761634,"internal_node_id":"0.0-2.0-26.0"},{"group":"dihedral group of order 12","room_assignment":["pink","yellow","purple","cyan","red","green","grey","olive","ivory","brown","blue","orange"],"door_color_assignment":["white","black"],"door_generator_assignment":[1,0],"goal":0,"start":8,"action_noise":0.15,"location_history":"[8,2,8,7,6,0]","action_history":"[1,1,1,0,1]","door_history":"[0,0,0,1,0]","location_rts":"[1545,675,744,311,798]","trial_type":"two-door-navigation","trial_index":29,"time_elapsed":2774592,"internal_node_id":"0.0-2.0-27.0"},{"group":"dihedral group of order 12","room_assignment":["pink","yellow","purple","cyan","red","green","grey","olive","ivory","brown","blue","orange"],"door_color_assignment":["white","black"],"door_generator_assignment":[1,0],"goal":3,"start":0,"action_noise":0.15,"location_history":"[0,1,7,6,11,5,0,1,2,8,2,3]","action_history":"[0,1,0,0,1,0,0,0,1,1,0]","door_history":"[1,0,1,1,0,1,1,1,0,0,1]","location_rts":"[2100,624,292,826,688,792,1397,556,862,620,362]","trial_type":"two-door-navigation","trial_index":30,"time_elapsed":2799158,"internal_node_id":"0.0-2.0-28.0"},{"group":"dihedral group of order 12","room_assignment":["pink","yellow","purple","cyan","red","green","grey","olive","ivory","brown","blue","orange"],"door_color_assignment":["white","black"],"door_generator_assignment":[1,0],"goal":4,"start":3,"action_noise":0.15,"location_history":"[3,4]","action_history":"[0]","door_history":"[1]","location_rts":"[2224]","trial_type":"two-door-navigation","trial_index":31,"time_elapsed":2805974,"internal_node_id":"0.0-2.0-29.0"},{"group":"dihedral group of order 12","room_assignment":["pink","yellow","purple","cyan","red","green","grey","olive","ivory","brown","blue","orange"],"door_color_assignment":["white","black"],"door_generator_assignment":[1,0],"goal":10,"start":4,"action_noise":0.15,"location_history":"[4,10]","action_history":"[1]","door_history":"[0]","location_rts":"[1614]","trial_type":"two-door-navigation","trial_index":32,"time_elapsed":2812173,"internal_node_id":"0.0-2.0-30.0"},{"group":"dihedral group of order 12","room_assignment":["pink","yellow","purple","cyan","red","green","grey","olive","ivory","brown","blue","orange"],"door_color_assignment":["white","black"],"door_generator_assignment":[1,0],"goal":11,"start":10,"action_noise":0.15,"location_history":"[10,4,10,9,3,9,3,9,8,2,8,7,6,11]","action_history":"[1,0,0,1,1,0,1,0,0,1,0,1,1]","door_history":"[0,1,1,0,0,1,0,1,1,0,1,0,0]","location_rts":"[1427,491,680,721,946,586,788,158,449,814,688,710,420]","trial_type":"two-door-navigation","trial_index":33,"time_elapsed":2838690,"internal_node_id":"0.0-2.0-31.0"},{"group":"dihedral group of order 12","room_assignment":["pink","yellow","purple","cyan","red","green","grey","olive","ivory","brown","blue","orange"],"door_color_assignment":["white","black"],"door_generator_assignment":[1,0],"goal":1,"start":11,"action_noise":0.15,"location_history":"[11,10,9,8,7,6,11,10,9,8,7,6,11,10,9,8,2,3,4,5,0,1]","action_history":"[0,0,0,0,0,0,0,0,0,0,0,0,0,0,0,0,0,0,0,0,0]","door_history":"[1,1,1,1,1,1,1,1,1,1,1,1,1,1,1,1,1,1,1,1,1]","location_rts":"[2395,795,518,439,410,392,401,446,306,394,358,529,225,502,710,2825,1063,847,576,670,857]","trial_type":"two-door-navigation","trial_index":34,"time_elapsed":2880615,"internal_node_id":"0.0-2.0-32.0"},{"group":"dihedral group of order 12","room_assignment":["pink","yellow","purple","cyan","red","green","grey","olive","ivory","brown","blue","orange"],"door_color_assignment":["white","black"],"door_generator_assignment":[1,0],"goal":5,"start":1,"action_noise":0.15,"location_history":"[1,2,8,7,1,7,6,0,6,11,5]","action_history":"[0,1,0,1,1,0,1,1,0,1]","door_history":"[1,0,1,0,0,1,0,0,1,0]","location_rts":"[1878,692,434,911,384,415,764,1025,5883,796]","trial_type":"two-door-navigation","trial_index":35,"time_elapsed":2908153,"internal_node_id":"0.0-2.0-33.0"},{"group":"dihedral group of order 12","room_assignment":["pink","yellow","purple","cyan","red","green","grey","olive","ivory","brown","blue","orange"],"door_color_assignment":["white","black"],"door_generator_assignment":[1,0],"goal":9,"start":5,"action_noise":0.15,"location_history":"[5,11,10,9]","action_history":"[1,0,0]","door_history":"[0,1,1]","location_rts":"[1516,625,967]","trial_type":"two-door-navigation","trial_index":36,"time_elapsed":2918038,"internal_node_id":"0.0-2.0-34.0"},{"view_history":"[{\"page_index\":0,\"viewing_time\":2811}]","rt":2811,"trial_type":"instructions","trial_index":37,"time_elapsed":2921863,"internal_node_id":"0.0-3.0"},{"view_history":"[{\"page_index\":0,\"viewing_time\":2264},{\"page_index\":1,\"viewing_time\":229154}]","rt":231418,"trial_type":"instructions","trial_index":38,"time_elapsed":3154288,"internal_node_id":"0.0-4.0"},{"group":"dicyclic group of order 12","fractal_assignment":["../images/ylw_pnk.png","../images/pnk_blu.png","../images/gry_blk.png","../images/ylw_slt.png","../images/wht_red.png","../images/grn_blu.png","../images/org_blu.png","../images/blu_wht.png","../images/red_prp.png","../images/cyn_red.png","../images/grn_prp.png","../images/grn_red.png"],"mutagen_generator_assignment":[1,0],"goal":4,"start":0,"action_noise":0.15,"location_history":"[0,1,2,3,0,4]","action_history":"[1,0,0,0,1]","mutagen_history":"[0,1,1,1,0]","location_rts":"[2508,2384,993,90,373]","trial_type":"fractal-mutation","trial_index":39,"time_elapsed":3169863,"internal_node_id":"0.0-5.0-0.0"},{"group":"dicyclic group of order 12","fractal_assignment":["../images/ylw_pnk.png","../images/pnk_blu.png","../images/gry_blk.png","../images/ylw_slt.png","../images/wht_red.png","../images/grn_blu.png","../images/org_blu.png","../images/blu_wht.png","../images/red_prp.png","../images/cyn_red.png","../images/grn_prp.png","../images/grn_red.png"],"mutagen_generator_assignment":[1,0],"goal":9,"start":4,"action_noise":0.15,"location_history":"[4,9]","action_history":"[0]","mutagen_history":"[1]","location_rts":"[20735]","trial_type":"fractal-mutation","trial_index":40,"time_elapsed":3195259,"internal_node_id":"0.0-5.0-1.0"},{"group":"dicyclic group of order 12","fractal_assignment":["../images/ylw_pnk.png","../images/pnk_blu.png","../images/gry_blk.png","../images/ylw_slt.png","../images/wht_red.png","../images/grn_blu.png","../images/org_blu.png","../images/blu_wht.png","../images/red_prp.png","../images/cyn_red.png","../images/grn_prp.png","../images/grn_red.png"],"mutagen_generator_assignment":[1,0],"goal":10,"start":9,"action_noise":0.15,"location_history":"[9,1,5,9,6,10]","action_history":"[1,1,1,1,1]","mutagen_history":"[0,0,0,0,0]","location_rts":"[1410,106,74,608,197]","trial_type":"fractal-mutation","trial_index":41,"time_elapsed":3206868,"internal_node_id":"0.0-5.0-2.0"},{"group":"dicyclic group of order 12","fractal_assignment":["../images/ylw_pnk.png","../images/pnk_blu.png","../images/gry_blk.png","../images/ylw_slt.png","../images/wht_red.png","../images/grn_blu.png","../images/org_blu.png","../images/blu_wht.png","../images/red_prp.png","../images/cyn_red.png","../images/grn_prp.png","../images/grn_red.png"],"mutagen_generator_assignment":[1,0],"goal":2,"start":10,"action_noise":0.15,"location_history":"[10,7,8,5,10,7,8,5,10,2]","action_history":"[0,0,0,0,0,0,0,0,1]","mutagen_history":"[1,1,1,1,1,1,1,1,0]","location_rts":"[828,119,202,16,583,1112,394,223,1045]","trial_type":"fractal-mutation","trial_index":42,"time_elapsed":3225118,"internal_node_id":"0.0-5.0-3.0"},{"group":"dicyclic group of order 12","fractal_assignment":["../images/ylw_pnk.png","../images/pnk_blu.png","../images/gry_blk.png","../images/ylw_slt.png","../images/wht_red.png","../images/grn_blu.png","../images/org_blu.png","../images/blu_wht.png","../images/red_prp.png","../images/cyn_red.png","../images/grn_prp.png","../images/grn_red.png"],"mutagen_generator_assignment":[1,0],"goal":5,"start":2,"action_noise":0.15,"location_history":"[2,3,7,11,3,7,8,5]","action_history":"[0,1,1,1,1,0,0]","mutagen_history":"[1,0,0,0,0,1,1]","location_rts":"[874,1084,530,68,479,794,803]","trial_type":"fractal-mutation","trial_index":43,"time_elapsed":3241220,"internal_node_id":"0.0-5.0-4.0"},{"group":"dicyclic group of order 12","fractal_assignment":["../images/ylw_pnk.png","../images/pnk_blu.png","../images/gry_blk.png","../images/ylw_slt.png","../images/wht_red.png","../images/grn_blu.png","../images/org_blu.png","../images/blu_wht.png","../images/red_prp.png","../images/cyn_red.png","../images/grn_prp.png","../images/grn_red.png"],"mutagen_generator_assignment":[1,0],"goal":11,"start":5,"action_noise":0.15,"location_history":"[5,10,2,3,0,1,5,10,7,8,0,1,5,10,2,6,10,2,6,10,7,11]","action_history":"[1,1,0,0,1,1,0,0,1,1,0,1,1,1,1,1,1,0,0,0,1]","mutagen_history":"[0,0,1,1,0,0,1,1,0,0,1,0,0,0,0,0,0,1,1,1,0]","location_rts":"[869,591,1011,934,929,774,1022,646,922,734,956,674,504,577,444,387,428,385,636,728,268]","trial_type":"fractal-mutation","trial_index":44,"time_elapsed":3282970,"internal_node_id":"0.0-5.0-5.0"},{"group":"dicyclic group of order 12","fractal_assignment":["../images/ylw_pnk.png","../images/pnk_blu.png","../images/gry_blk.png","../images/ylw_slt.png","../images/wht_red.png","../images/grn_blu.png","../images/org_blu.png","../images/blu_wht.png","../images/red_prp.png","../images/cyn_red.png","../images/grn_prp.png","../images/grn_red.png"],"mutagen_generator_assignment":[1,0],"goal":6,"start":11,"action_noise":0.15,"location_history":"[11,4,8,0,1,5,9,1,2,6]","action_history":"[0,1,1,0,1,0,1,0,1]","mutagen_history":"[1,0,0,1,0,1,0,1,0]","location_rts":"[1397,881,734,844,1063,543,710,646,570]","trial_type":"fractal-mutation","trial_index":45,"time_elapsed":3304110,"internal_node_id":"0.0-5.0-6.0"},{"group":"dicyclic group of order 12","fractal_assignment":["../images/ylw_pnk.png","../images/pnk_blu.png","../images/gry_blk.png","../images/ylw_slt.png","../images/wht_red.png","../images/grn_blu.png","../images/org_blu.png","../images/blu_wht.png","../images/red_prp.png","../images/cyn_red.png","../images/grn_prp.png","../images/grn_red.png"],"mutagen_generator_assignment":[1,0],"goal":3,"start":6,"action_noise":0.15,"location_history":"[6,11,3]","action_history":"[0,1]","mutagen_history":"[1,0]","location_rts":"[8976,536]","trial_type":"fractal-mutation","trial_index":46,"time_elapsed":3319413,"internal_node_id":"0.0-5.0-7.0"},{"group":"dicyclic group of order 12","fractal_assignment":["../images/ylw_pnk.png","../images/pnk_blu.png","../images/gry_blk.png","../images/ylw_slt.png","../images/wht_red.png","../images/grn_blu.png","../images/org_blu.png","../images/blu_wht.png","../images/red_prp.png","../images/cyn_red.png","../images/grn_prp.png","../images/grn_red.png"],"mutagen_generator_assignment":[1,0],"goal":8,"start":3,"action_noise":0.15,"location_history":"[3,0,4,8]","action_history":"[0,1,1]","mutagen_history":"[1,0,0]","location_rts":"[978,886,746]","trial_type":"fractal-mutation","trial_index":47,"time_elapsed":3328935,"internal_node_id":"0.0-5.0-8.0"},{"group":"dicyclic group of order 12","fractal_assignment":["../images/ylw_pnk.png","../images/pnk_blu.png","../images/gry_blk.png","../images/ylw_slt.png","../images/wht_red.png","../images/grn_blu.png","../images/org_blu.png","../images/blu_wht.png","../images/red_prp.png","../images/cyn_red.png","../images/grn_prp.png","../images/grn_red.png"],"mutagen_generator_assignment":[1,0],"goal":1,"start":8,"action_noise":0.15,"location_history":"[8,0,1]","action_history":"[1,0]","mutagen_history":"[0,1]","location_rts":"[1538,678]","trial_type":"fractal-mutation","trial_index":48,"time_elapsed":3336952,"internal_node_id":"0.0-5.0-9.0"},{"group":"dicyclic group of order 12","fractal_assignment":["../images/ylw_pnk.png","../images/pnk_blu.png","../images/gry_blk.png","../images/ylw_slt.png","../images/wht_red.png","../images/grn_blu.png","../images/org_blu.png","../images/blu_wht.png","../images/red_prp.png","../images/cyn_red.png","../images/grn_prp.png","../images/grn_red.png"],"mutagen_generator_assignment":[1,0],"goal":7,"start":1,"action_noise":0.15,"location_history":"[1,5,10,2,6,11,4,8,5,10,2,6,10,2,6,11,3,7]","action_history":"[1,0,1,1,1,0,1,0,0,1,1,1,1,1,0,1,1]","mutagen_history":"[0,1,0,0,0,1,0,1,1,0,0,0,0,0,1,0,0]","location_rts":"[1128,713,638,733,681,635,655,628,806,493,572,438,523,65,489,536,471]","trial_type":"fractal-mutation","trial_index":49,"time_elapsed":3369967,"internal_node_id":"0.0-5.0-10.0"},{"group":"dicyclic group of order 12","fractal_assignment":["../images/ylw_pnk.png","../images/pnk_blu.png","../images/gry_blk.png","../images/ylw_slt.png","../images/wht_red.png","../images/grn_blu.png","../images/org_blu.png","../images/blu_wht.png","../images/red_prp.png","../images/cyn_red.png","../images/grn_prp.png","../images/grn_red.png"],"mutagen_generator_assignment":[1,0],"goal":5,"start":7,"action_noise":0.15,"location_history":"[7,8,0,4,8,0,1,5]","action_history":"[0,1,1,1,1,0,1]","mutagen_history":"[1,0,0,0,0,1,0]","location_rts":"[2585,630,513,527,9372,840,626]","trial_type":"fractal-mutation","trial_index":50,"time_elapsed":3396501,"internal_node_id":"0.0-5.0-11.0"},{"group":"dicyclic group of order 12","fractal_assignment":["../images/ylw_pnk.png","../images/pnk_blu.png","../images/gry_blk.png","../images/ylw_slt.png","../images/wht_red.png","../images/grn_blu.png","../images/org_blu.png","../images/blu_wht.png","../images/red_prp.png","../images/cyn_red.png","../images/grn_prp.png","../images/grn_red.png"],"mutagen_generator_assignment":[1,0],"goal":8,"start":5,"action_noise":0.15,"location_history":"[5,9,1,5,9,1,2,3,0,4,8]","action_history":"[0,1,1,1,1,0,0,1,1,1]","mutagen_history":"[1,0,0,0,0,1,1,0,0,0]","location_rts":"[898,809,865,550,639,700,12641,659,528,509]","trial_type":"fractal-mutation","trial_index":51,"time_elapsed":3430153,"internal_node_id":"0.0-5.0-12.0"},{"group":"dicyclic group of order 12","fractal_assignment":["../images/ylw_pnk.png","../images/pnk_blu.png","../images/gry_blk.png","../images/ylw_slt.png","../images/wht_red.png","../images/grn_blu.png","../images/org_blu.png","../images/blu_wht.png","../images/red_prp.png","../images/cyn_red.png","../images/grn_prp.png","../images/grn_red.png"],"mutagen_generator_assignment":[1,0],"goal":11,"start":8,"action_noise":0.15,"location_history":"[8,5,10,7,8,0,1,5,9,6,11]","action_history":"[0,1,0,0,0,1,1,1,1,0]","mutagen_history":"[1,0,1,1,1,0,0,0,0,1]","location_rts":"[933,917,776,626,582,428,614,865,810,858]","trial_type":"fractal-mutation","trial_index":52,"time_elapsed":3452439,"internal_node_id":"0.0-5.0-13.0"},{"group":"dicyclic group of order 12","fractal_assignment":["../images/ylw_pnk.png","../images/pnk_blu.png","../images/gry_blk.png","../images/ylw_slt.png","../images/wht_red.png","../images/grn_blu.png","../images/org_blu.png","../images/blu_wht.png","../images/red_prp.png","../images/cyn_red.png","../images/grn_prp.png","../images/grn_red.png"],"mutagen_generator_assignment":[1,0],"goal":6,"start":11,"action_noise":0.15,"location_history":"[11,4,9,6]","action_history":"[0,0,1]","mutagen_history":"[1,1,0]","location_rts":"[962,834,637]","trial_type":"fractal-mutation","trial_index":53,"time_elapsed":3461781,"internal_node_id":"0.0-5.0-14.0"},{"group":"dicyclic group of order 12","fractal_assignment":["../images/ylw_pnk.png","../images/pnk_blu.png","../images/gry_blk.png","../images/ylw_slt.png","../images/wht_red.png","../images/grn_blu.png","../images/org_blu.png","../images/blu_wht.png","../images/red_prp.png","../images/cyn_red.png","../images/grn_prp.png","../images/grn_red.png"],"mutagen_generator_assignment":[1,0],"goal":7,"start":6,"action_noise":0.15,"location_history":"[6,11,3,0,4,9,6,10,7]","action_history":"[0,1,0,0,0,1,1,0]","mutagen_history":"[1,0,1,1,1,0,0,1]","location_rts":"[850,767,655,631,627,640,605,528]","trial_type":"fractal-mutation","trial_index":54,"time_elapsed":3479697,"internal_node_id":"0.0-5.0-15.0"},{"group":"dicyclic group of order 12","fractal_assignment":["../images/ylw_pnk.png","../images/pnk_blu.png","../images/gry_blk.png","../images/ylw_slt.png","../images/wht_red.png","../images/grn_blu.png","../images/org_blu.png","../images/blu_wht.png","../images/red_prp.png","../images/cyn_red.png","../images/grn_prp.png","../images/grn_red.png"],"mutagen_generator_assignment":[1,0],"goal":10,"start":7,"action_noise":0.15,"location_history":"[7,8,5,9,1,5,10]","action_history":"[0,0,1,1,1,1]","mutagen_history":"[1,1,0,0,0,0]","location_rts":"[2233,730,578,490,571,772]","trial_type":"fractal-mutation","trial_index":55,"time_elapsed":3495428,"internal_node_id":"0.0-5.0-16.0"},{"group":"dicyclic group of order 12","fractal_assignment":["../images/ylw_pnk.png","../images/pnk_blu.png","../images/gry_blk.png","../images/ylw_slt.png","../images/wht_red.png","../images/grn_blu.png","../images/org_blu.png","../images/blu_wht.png","../images/red_prp.png","../images/cyn_red.png","../images/grn_prp.png","../images/grn_red.png"],"mutagen_generator_assignment":[1,0],"goal":0,"start":10,"action_noise":0.15,"location_history":"[10,7,8,0]","action_history":"[0,1,0]","mutagen_history":"[1,0,1]","location_rts":"[790,591,754]","trial_type":"fractal-mutation","trial_index":56,"time_elapsed":3504480,"internal_node_id":"0.0-5.0-17.0"},{"group":"dicyclic group of order 12","fractal_assignment":["../images/ylw_pnk.png","../images/pnk_blu.png","../images/gry_blk.png","../images/ylw_slt.png","../images/wht_red.png","../images/grn_blu.png","../images/org_blu.png","../images/blu_wht.png","../images/red_prp.png","../images/cyn_red.png","../images/grn_prp.png","../images/grn_red.png"],"mutagen_generator_assignment":[1,0],"goal":9,"start":0,"action_noise":0.15,"location_history":"[0,4,9]","action_history":"[1,0]","mutagen_history":"[0,1]","location_rts":"[752,592]","trial_type":"fractal-mutation","trial_index":57,"time_elapsed":3511630,"internal_node_id":"0.0-5.0-18.0"},{"group":"dicyclic group of order 12","fractal_assignment":["../images/ylw_pnk.png","../images/pnk_blu.png","../images/gry_blk.png","../images/ylw_slt.png","../images/wht_red.png","../images/grn_blu.png","../images/org_blu.png","../images/blu_wht.png","../images/red_prp.png","../images/cyn_red.png","../images/grn_prp.png","../images/grn_red.png"],"mutagen_generator_assignment":[1,0],"goal":4,"start":9,"action_noise":0.15,"location_history":"[9,6,11,4]","action_history":"[1,0,0]","mutagen_history":"[0,1,1]","location_rts":"[1146,744,495]","trial_type":"fractal-mutation","trial_index":58,"time_elapsed":3520926,"internal_node_id":"0.0-5.0-19.0"},{"group":"dicyclic group of order 12","fractal_assignment":["../images/ylw_pnk.png","../images/pnk_blu.png","../images/gry_blk.png","../images/ylw_slt.png","../images/wht_red.png","../images/grn_blu.png","../images/org_blu.png","../images/blu_wht.png","../images/red_prp.png","../images/cyn_red.png","../images/grn_prp.png","../images/grn_red.png"],"mutagen_generator_assignment":[1,0],"goal":2,"start":4,"action_noise":0.15,"location_history":"[4,8,0,4,8,5,9,1,2]","action_history":"[1,1,1,1,0,1,1,1]","mutagen_history":"[0,0,0,0,1,0,0,0]","location_rts":"[840,638,1687,56,440,702,548,574]","trial_type":"fractal-mutation","trial_index":59,"time_elapsed":3539027,"internal_node_id":"0.0-5.0-20.0"},{"group":"dicyclic group of order 12","fractal_assignment":["../images/ylw_pnk.png","../images/pnk_blu.png","../images/gry_blk.png","../images/ylw_slt.png","../images/wht_red.png","../images/grn_blu.png","../images/org_blu.png","../images/blu_wht.png","../images/red_prp.png","../images/cyn_red.png","../images/grn_prp.png","../images/grn_red.png"],"mutagen_generator_assignment":[1,0],"goal":1,"start":2,"action_noise":0.15,"location_history":"[2,6,10,7,8,5,9,1]","action_history":"[1,1,0,0,1,1,1]","mutagen_history":"[0,0,1,1,0,0,0]","location_rts":"[51205,726,551,697,435,545,611]","trial_type":"fractal-mutation","trial_index":60,"time_elapsed":3605268,"internal_node_id":"0.0-5.0-21.0"},{"group":"dicyclic group of order 12","fractal_assignment":["../images/ylw_pnk.png","../images/pnk_blu.png","../images/gry_blk.png","../images/ylw_slt.png","../images/wht_red.png","../images/grn_blu.png","../images/org_blu.png","../images/blu_wht.png","../images/red_prp.png","../images/cyn_red.png","../images/grn_prp.png","../images/grn_red.png"],"mutagen_generator_assignment":[1,0],"goal":3,"start":1,"action_noise":0.15,"location_history":"[1,2,3]","action_history":"[0,1]","mutagen_history":"[1,0]","location_rts":"[844,446]","trial_type":"fractal-mutation","trial_index":61,"time_elapsed":3612357,"internal_node_id":"0.0-5.0-22.0"},{"group":"dicyclic group of order 12","fractal_assignment":["../images/ylw_pnk.png","../images/pnk_blu.png","../images/gry_blk.png","../images/ylw_slt.png","../images/wht_red.png","../images/grn_blu.png","../images/org_blu.png","../images/blu_wht.png","../images/red_prp.png","../images/cyn_red.png","../images/grn_prp.png","../images/grn_red.png"],"mutagen_generator_assignment":[1,0],"goal":7,"start":3,"action_noise":0.15,"location_history":"[3,0,1,5,10,7]","action_history":"[0,0,1,1,0]","mutagen_history":"[1,1,0,0,1]","location_rts":"[773,655,880,500,615]","trial_type":"fractal-mutation","trial_index":62,"time_elapsed":3624968,"internal_node_id":"0.0-5.0-23.0"},{"group":"dicyclic group of order 12","fractal_assignment":["../images/ylw_pnk.png","../images/pnk_blu.png","../images/gry_blk.png","../images/ylw_slt.png","../images/wht_red.png","../images/grn_blu.png","../images/org_blu.png","../images/blu_wht.png","../images/red_prp.png","../images/cyn_red.png","../images/grn_prp.png","../images/grn_red.png"],"mutagen_generator_assignment":[1,0],"goal":6,"start":7,"action_noise":0.15,"location_history":"[7,8,0,1,5,10,7,11,4,8,0,4,9,1,5,10,2,3,7,11,3,7,8,5,9,1,2,3,7,11,3,0,4,8,0,4,9,1,5,9,1,2,6]","action_history":"[0,1,1,0,0,1,1,0,0,1,0,0,1,1,0,1,0,1,1,1,1,0,1,1,1,1,0,1,1,1,0,1,1,1,1,0,1,1,1,1,0,1]","mutagen_history":"[1,0,0,1,1,0,0,1,1,0,1,1,0,0,1,0,1,0,0,0,0,1,0,0,0,0,1,0,0,0,1,0,0,0,0,1,0,0,0,0,1,0]","location_rts":"[824,740,693,524,581,823,569,489,856,1166,806,439,503,415,869,578,629,664,488,477,531,316,397,474,551,1696,347,425,438,218,439,720,408,633,629,152,637,585,450,454,492,954]","trial_type":"fractal-mutation","trial_index":63,"time_elapsed":3701226,"internal_node_id":"0.0-5.0-24.0"},{"group":"dicyclic group of order 12","fractal_assignment":["../images/ylw_pnk.png","../images/pnk_blu.png","../images/gry_blk.png","../images/ylw_slt.png","../images/wht_red.png","../images/grn_blu.png","../images/org_blu.png","../images/blu_wht.png","../images/red_prp.png","../images/cyn_red.png","../images/grn_prp.png","../images/grn_red.png"],"mutagen_generator_assignment":[1,0],"goal":2,"start":6,"action_noise":0.15,"location_history":"[6,11,3,7,11,4,9,6,11,3,0,4,9,1,5,9,1,2]","action_history":"[0,1,1,1,0,0,0,0,1,1,1,0,1,1,1,1,0]","mutagen_history":"[1,0,0,0,1,1,1,1,0,0,0,1,0,0,0,0,1]","location_rts":"[2080,701,484,580,663,644,578,500,582,408,485,566,625,605,466,512,384]","trial_type":"fractal-mutation","trial_index":64,"time_elapsed":3734812,"internal_node_id":"0.0-5.0-25.0"},{"group":"dicyclic group of order 12","fractal_assignment":["../images/ylw_pnk.png","../images/pnk_blu.png","../images/gry_blk.png","../images/ylw_slt.png","../images/wht_red.png","../images/grn_blu.png","../images/org_blu.png","../images/blu_wht.png","../images/red_prp.png","../images/cyn_red.png","../images/grn_prp.png","../images/grn_red.png"],"mutagen_generator_assignment":[1,0],"goal":8,"start":2,"action_noise":0.15,"location_history":"[2,3,7,11,3,0,4,9,1,5,9,1,2,6,10,2,6,10,2,6,10,2,6,10,2,6,10,7,8]","action_history":"[0,1,1,1,0,1,1,1,1,1,1,0,1,1,1,1,1,1,0,1,1,1,0,1,1,1,0,1]","mutagen_history":"[1,0,0,0,1,0,0,0,0,0,0,1,0,0,0,0,0,0,1,0,0,0,1,0,0,0,1,0]","location_rts":"[2430,570,508,642,439,598,503,6329,464,365,463,372,513,755,471,368,419,452,220,513,402,430,697,433,592,399,396,455]","trial_type":"fractal-mutation","trial_index":65,"time_elapsed":3791235,"internal_node_id":"0.0-5.0-26.0"},{"group":"dicyclic group of order 12","fractal_assignment":["../images/ylw_pnk.png","../images/pnk_blu.png","../images/gry_blk.png","../images/ylw_slt.png","../images/wht_red.png","../images/grn_blu.png","../images/org_blu.png","../images/blu_wht.png","../images/red_prp.png","../images/cyn_red.png","../images/grn_prp.png","../images/grn_red.png"],"mutagen_generator_assignment":[1,0],"goal":0,"start":8,"action_noise":0.15,"location_history":"[8,0]","action_history":"[0]","mutagen_history":"[1]","location_rts":"[1204]","trial_type":"fractal-mutation","trial_index":66,"time_elapsed":3797099,"internal_node_id":"0.0-5.0-27.0"},{"group":"dicyclic group of order 12","fractal_assignment":["../images/ylw_pnk.png","../images/pnk_blu.png","../images/gry_blk.png","../images/ylw_slt.png","../images/wht_red.png","../images/grn_blu.png","../images/org_blu.png","../images/blu_wht.png","../images/red_prp.png","../images/cyn_red.png","../images/grn_prp.png","../images/grn_red.png"],"mutagen_generator_assignment":[1,0],"goal":3,"start":0,"action_noise":0.15,"location_history":"[0,4,8,5,9,1,5,9,6,11,4,9,6,11,4,9,6,10,2,6,11,4,8,0,4,9,6,11,3]","action_history":"[1,1,1,1,1,1,1,0,0,0,0,0,0,0,0,1,1,1,1,1,0,1,1,1,1,0,1,1]","mutagen_history":"[0,0,0,0,0,0,0,1,1,1,1,1,1,1,1,0,0,0,0,0,1,0,0,0,0,1,0,0]","location_rts":"[1094,521,218,479,439,484,547,401,492,522,523,475,537,539,698,731,495,501,581,589,869,1194,272,392,699,498,571,368]","trial_type":"fractal-mutation","trial_index":67,"time_elapsed":3848087,"internal_node_id":"0.0-5.0-28.0"},{"group":"dicyclic group of order 12","fractal_assignment":["../images/ylw_pnk.png","../images/pnk_blu.png","../images/gry_blk.png","../images/ylw_slt.png","../images/wht_red.png","../images/grn_blu.png","../images/org_blu.png","../images/blu_wht.png","../images/red_prp.png","../images/cyn_red.png","../images/grn_prp.png","../images/grn_red.png"],"mutagen_generator_assignment":[1,0],"goal":4,"start":3,"action_noise":0.15,"location_history":"[3,7,11,4]","action_history":"[0,0,0]","mutagen_history":"[1,1,1]","location_rts":"[1144,636,457]","trial_type":"fractal-mutation","trial_index":68,"time_elapsed":3857264,"internal_node_id":"0.0-5.0-29.0"},{"group":"dicyclic group of order 12","fractal_assignment":["../images/ylw_pnk.png","../images/pnk_blu.png","../images/gry_blk.png","../images/ylw_slt.png","../images/wht_red.png","../images/grn_blu.png","../images/org_blu.png","../images/blu_wht.png","../images/red_prp.png","../images/cyn_red.png","../images/grn_prp.png","../images/grn_red.png"],"mutagen_generator_assignment":[1,0],"goal":10,"start":4,"action_noise":0.15,"location_history":"[4,9,6,11,3,7,11,3,7,8,0,4,9,6,11,4,8,0,1,2,3,0,1,5,9,1,2,6,10]","action_history":"[0,0,0,1,1,1,1,1,1,1,1,0,0,0,1,1,0,0,1,0,0,0,1,1,1,0,0,0]","mutagen_history":"[1,1,1,0,0,0,0,0,0,0,0,1,1,1,0,0,1,1,0,1,1,1,0,0,0,1,1,1]","location_rts":"[71328,340,393,491,368,353,375,436,340,468,469,389,585,707,633,546,403,481,352,1019,340,533,720,462,644,576,646,359]","trial_type":"fractal-mutation","trial_index":69,"time_elapsed":3977289,"internal_node_id":"0.0-5.0-30.0"},{"group":"dicyclic group of order 12","fractal_assignment":["../images/ylw_pnk.png","../images/pnk_blu.png","../images/gry_blk.png","../images/ylw_slt.png","../images/wht_red.png","../images/grn_blu.png","../images/org_blu.png","../images/blu_wht.png","../images/red_prp.png","../images/cyn_red.png","../images/grn_prp.png","../images/grn_red.png"],"mutagen_generator_assignment":[1,0],"goal":11,"start":10,"action_noise":0.15,"location_history":"[10,7,8,5,10,7,11]","action_history":"[1,0,0,0,0,1]","mutagen_history":"[0,1,1,1,1,0]","location_rts":"[831,484,459,566,600,778]","trial_type":"fractal-mutation","trial_index":70,"time_elapsed":3991333,"internal_node_id":"0.0-5.0-31.0"},{"group":"dicyclic group of order 12","fractal_assignment":["../images/ylw_pnk.png","../images/pnk_blu.png","../images/gry_blk.png","../images/ylw_slt.png","../images/wht_red.png","../images/grn_blu.png","../images/org_blu.png","../images/blu_wht.png","../images/red_prp.png","../images/cyn_red.png","../images/grn_prp.png","../images/grn_red.png"],"mutagen_generator_assignment":[1,0],"goal":1,"start":11,"action_noise":0.15,"location_history":"[11,3,0,4,9,6,10,7,8,5,10,2,3,0,1]","action_history":"[1,0,0,0,0,1,0,0,0,0,1,0,0,0]","mutagen_history":"[0,1,1,1,1,0,1,1,1,1,0,1,1,1]","location_rts":"[1003,549,348,463,599,442,407,427,583,442,252,396,161,365]","trial_type":"fractal-mutation","trial_index":71,"time_elapsed":4017151,"internal_node_id":"0.0-5.0-32.0"},{"group":"dicyclic group of order 12","fractal_assignment":["../images/ylw_pnk.png","../images/pnk_blu.png","../images/gry_blk.png","../images/ylw_slt.png","../images/wht_red.png","../images/grn_blu.png","../images/org_blu.png","../images/blu_wht.png","../images/red_prp.png","../images/cyn_red.png","../images/grn_prp.png","../images/grn_red.png"],"mutagen_generator_assignment":[1,0],"goal":5,"start":1,"action_noise":0.15,"location_history":"[1,5]","action_history":"[1]","mutagen_history":"[0]","location_rts":"[961]","trial_type":"fractal-mutation","trial_index":72,"time_elapsed":4022772,"internal_node_id":"0.0-5.0-33.0"},{"group":"dicyclic group of order 12","fractal_assignment":["../images/ylw_pnk.png","../images/pnk_blu.png","../images/gry_blk.png","../images/ylw_slt.png","../images/wht_red.png","../images/grn_blu.png","../images/org_blu.png","../images/blu_wht.png","../images/red_prp.png","../images/cyn_red.png","../images/grn_prp.png","../images/grn_red.png"],"mutagen_generator_assignment":[1,0],"goal":9,"start":5,"action_noise":0.15,"location_history":"[5,9]","action_history":"[1]","mutagen_history":"[0]","location_rts":"[1493]","trial_type":"fractal-mutation","trial_index":73,"time_elapsed":4028918,"internal_node_id":"0.0-5.0-34.0"},{"view_history":"[{\"page_index\":0,\"viewing_time\":13285}]","rt":13285,"trial_type":"instructions","trial_index":74,"time_elapsed":4043209,"internal_node_id":"0.0-6.0"},{"rt":15808,"responses":"{\"Q0\":\"A progress bar could help the survey\"}","trial_type":"survey-text","trial_index":75,"time_elapsed":4060027,"internal_node_id":"0.0-7.0"}]