[{"view_history":"[{\"page_index\":0,\"viewing_time\":12622},{\"page_index\":1,\"viewing_time\":15039},{\"page_index\":2,\"viewing_time\":24844},{\"page_index\":3,\"viewing_time\":4062}]","rt":56568,"trial_type":"instructions","trial_index":0,"time_elapsed":56569,"internal_node_id":"0.0-0.0"},{"view_history":"[{\"page_index\":0,\"viewing_time\":4674222},{\"page_index\":1,\"viewing_time\":21805}]","rt":4696028,"trial_type":"instructions","trial_index":1,"time_elapsed":4753599,"internal_node_id":"0.0-1.0"},{"group":"dihedral group of order 12","room_assignment":["olive","orange","ivory","yellow","cyan","green","grey","pink","purple","red","brown","blue"],"door_color_assignment":["white","black"],"door_generator_assignment":[1,0],"goal":4,"start":0,"action_noise":0.15,"location_history":"[0,6,0,6,0,1,7,6,0,1,2,3,4]","action_history":"[1,1,1,1,0,0,0,0,0,0,0,0]","door_history":"[0,0,0,0,1,1,1,1,1,1,1,1]","location_rts":"[2616,11421,1431,535,993,407,374,379,394,373,1301,470]","trial_type":"two-door-navigation","trial_index":2,"time_elapsed":4790160,"internal_node_id":"0.0-2.0-0.0"},{"group":"dihedral group of order 12","room_assignment":["olive","orange","ivory","yellow","cyan","green","grey","pink","purple","red","brown","blue"],"door_color_assignment":["white","black"],"door_generator_assignment":[1,0],"goal":9,"start":4,"action_noise":0.15,"location_history":"[4,10,4,10,9]","action_history":"[1,1,1,1]","door_history":"[0,0,0,0]","location_rts":"[2056,419,815,890]","trial_type":"two-door-navigation","trial_index":3,"time_elapsed":4801959,"internal_node_id":"0.0-2.0-1.0"},{"group":"dihedral group of order 12","room_assignment":["olive","orange","ivory","yellow","cyan","green","grey","pink","purple","red","brown","blue"],"door_color_assignment":["white","black"],"door_generator_assignment":[1,0],"goal":10,"start":9,"action_noise":0.15,"location_history":"[9,3,9,3,4,5,0,1,2,3,4,10]","action_history":"[1,1,1,0,0,0,0,0,0,0,0]","door_history":"[0,0,0,1,1,1,1,1,1,1,1]","location_rts":"[39360,370,805,1002,420,422,786,370,363,296,287]","trial_type":"two-door-navigation","trial_index":4,"time_elapsed":4861534,"internal_node_id":"0.0-2.0-2.0"},{"group":"dihedral group of order 12","room_assignment":["olive","orange","ivory","yellow","cyan","green","grey","pink","purple","red","brown","blue"],"door_color_assignment":["white","black"],"door_generator_assignment":[1,0],"goal":2,"start":10,"action_noise":0.15,"location_history":"[10,4,10,4,5,0,1,2]","action_history":"[1,1,1,0,0,0,0]","door_history":"[0,0,0,1,1,1,1]","location_rts":"[1701,341,588,775,300,363,320]","trial_type":"two-door-navigation","trial_index":5,"time_elapsed":4876806,"internal_node_id":"0.0-2.0-3.0"},{"group":"dihedral group of order 12","room_assignment":["olive","orange","ivory","yellow","cyan","green","grey","pink","purple","red","brown","blue"],"door_color_assignment":["white","black"],"door_generator_assignment":[1,0],"goal":5,"start":2,"action_noise":0.15,"location_history":"[2,8,2,8,2,3,4,5]","action_history":"[1,1,1,1,0,0,0]","door_history":"[0,0,0,0,1,1,1]","location_rts":"[2036,380,349,550,287,298,328]","trial_type":"two-door-navigation","trial_index":6,"time_elapsed":4891996,"internal_node_id":"0.0-2.0-4.0"},{"group":"dihedral group of order 12","room_assignment":["olive","orange","ivory","yellow","cyan","green","grey","pink","purple","red","brown","blue"],"door_color_assignment":["white","black"],"door_generator_assignment":[1,0],"goal":11,"start":5,"action_noise":0.15,"location_history":"[5,11]","action_history":"[1]","door_history":"[0]","location_rts":"[7526]","trial_type":"two-door-navigation","trial_index":7,"time_elapsed":4904056,"internal_node_id":"0.0-2.0-5.0"},{"group":"dihedral group of order 12","room_assignment":["olive","orange","ivory","yellow","cyan","green","grey","pink","purple","red","brown","blue"],"door_color_assignment":["white","black"],"door_generator_assignment":[1,0],"goal":6,"start":11,"action_noise":0.15,"location_history":"[11,10,4,10,4,5,0,1,2,3,4,10,9,8,7,6]","action_history":"[1,1,1,1,0,0,0,0,0,0,0,0,0,0,0]","door_history":"[0,0,0,0,1,1,1,1,1,1,1,1,1,1,1]","location_rts":"[1877,541,456,591,280,251,345,373,1016,417,348,347,327,351,401]","trial_type":"two-door-navigation","trial_index":8,"time_elapsed":4931032,"internal_node_id":"0.0-2.0-6.0"},{"group":"dihedral group of order 12","room_assignment":["olive","orange","ivory","yellow","cyan","green","grey","pink","purple","red","brown","blue"],"door_color_assignment":["white","black"],"door_generator_assignment":[1,0],"goal":3,"start":6,"action_noise":0.15,"location_history":"[6,0,6,0,6,11,10,4,10,4,5,11,10,9,8,2,3]","action_history":"[1,1,1,0,0,0,1,1,1,0,0,0,0,0,0,0]","door_history":"[0,0,0,1,1,1,0,0,0,1,1,1,1,1,1,1]","location_rts":"[4075,700,439,921,540,618,696,364,328,295,437,1531,464,356,488,804]","trial_type":"two-door-navigation","trial_index":9,"time_elapsed":4964303,"internal_node_id":"0.0-2.0-7.0"},{"group":"dihedral group of order 12","room_assignment":["olive","orange","ivory","yellow","cyan","green","grey","pink","purple","red","brown","blue"],"door_color_assignment":["white","black"],"door_generator_assignment":[1,0],"goal":8,"start":3,"action_noise":0.15,"location_history":"[3,9,3,9,8]","action_history":"[1,1,1,0]","door_history":"[0,0,0,1]","location_rts":"[1515,228,508,584]","trial_type":"two-door-navigation","trial_index":10,"time_elapsed":4974752,"internal_node_id":"0.0-2.0-8.0"},{"group":"dihedral group of order 12","room_assignment":["olive","orange","ivory","yellow","cyan","green","grey","pink","purple","red","brown","blue"],"door_color_assignment":["white","black"],"door_generator_assignment":[1,0],"goal":1,"start":8,"action_noise":0.15,"location_history":"[8,7,1]","action_history":"[0,0]","door_history":"[1,1]","location_rts":"[1775,3758]","trial_type":"two-door-navigation","trial_index":11,"time_elapsed":4985833,"internal_node_id":"0.0-2.0-9.0"},{"group":"dihedral group of order 12","room_assignment":["olive","orange","ivory","yellow","cyan","green","grey","pink","purple","red","brown","blue"],"door_color_assignment":["white","black"],"door_generator_assignment":[1,0],"goal":7,"start":1,"action_noise":0.15,"location_history":"[1,2,3,4,5,0,1,2,3,4,5,0,6,11,10,9,3,9,3,4,5,11,10,9,3,4,5,0,1,2,3,4,10,4,5,0,1,2,3,4,5,0,6,11,10,4,5,0,1,2,3,4,5,0,1,7]","action_history":"[0,0,0,0,0,0,0,0,0,0,0,0,0,0,0,0,0,0,0,0,0,0,0,0,0,0,0,0,0,0,0,1,0,0,0,0,0,0,0,0,0,1,0,0,0,0,0,0,0,0,0,0,0,0,1]","door_history":"[1,1,1,1,1,1,1,1,1,1,1,1,1,1,1,1,1,1,1,1,1,1,1,1,1,1,1,1,1,1,1,0,1,1,1,1,1,1,1,1,1,0,1,1,1,1,1,1,1,1,1,1,1,1,0]","location_rts":"[1436,415,292,305,399,385,304,301,306,879,403,518,886,6432,624,721,354,465,343,290,583,344,314,274,313,263,427,304,275,288,286,349,343,289,228,302,216,251,337,241,233,319,501,290,304,269,301,263,318,253,250,254,134,243,538]","trial_type":"two-door-navigation","trial_index":12,"time_elapsed":5072860,"internal_node_id":"0.0-2.0-10.0"},{"group":"dihedral group of order 12","room_assignment":["olive","orange","ivory","yellow","cyan","green","grey","pink","purple","red","brown","blue"],"door_color_assignment":["white","black"],"door_generator_assignment":[1,0],"goal":5,"start":7,"action_noise":0.15,"location_history":"[7,1,7,6,0,1,2,3,4,5]","action_history":"[1,1,0,0,0,0,0,0,0]","door_history":"[0,0,1,1,1,1,1,1,1]","location_rts":"[1785,490,728,368,263,302,298,271,307]","trial_type":"two-door-navigation","trial_index":13,"time_elapsed":5090484,"internal_node_id":"0.0-2.0-11.0"},{"group":"dihedral group of order 12","room_assignment":["olive","orange","ivory","yellow","cyan","green","grey","pink","purple","red","brown","blue"],"door_color_assignment":["white","black"],"door_generator_assignment":[1,0],"goal":8,"start":5,"action_noise":0.15,"location_history":"[5,11,5,11,10,9,8]","action_history":"[1,0,0,0,0,0]","door_history":"[0,1,1,1,1,1]","location_rts":"[1259,336,312,371,300,188]","trial_type":"two-door-navigation","trial_index":14,"time_elapsed":5103150,"internal_node_id":"0.0-2.0-12.0"},{"group":"dihedral group of order 12","room_assignment":["olive","orange","ivory","yellow","cyan","green","grey","pink","purple","red","brown","blue"],"door_color_assignment":["white","black"],"door_generator_assignment":[1,0],"goal":11,"start":8,"action_noise":0.15,"location_history":"[8,2,8,7,6,0,1,2,3,4,5,0,6,11]","action_history":"[1,1,0,0,0,0,0,0,0,0,0,0,0]","door_history":"[0,0,1,1,1,1,1,1,1,1,1,1,1]","location_rts":"[1066,370,695,235,218,275,80,271,266,298,308,278,251]","trial_type":"two-door-navigation","trial_index":15,"time_elapsed":5124827,"internal_node_id":"0.0-2.0-13.0"},{"group":"dihedral group of order 12","room_assignment":["olive","orange","ivory","yellow","cyan","green","grey","pink","purple","red","brown","blue"],"door_color_assignment":["white","black"],"door_generator_assignment":[1,0],"goal":6,"start":11,"action_noise":0.15,"location_history":"[11,5,11,5,11,10,9,8,2,3,4,5,0,1,2,3,4,5,11,10,9,8,7,6]","action_history":"[1,1,0,0,0,0,0,1,0,0,0,0,0,0,0,0,0,1,0,0,0,0,0]","door_history":"[0,0,1,1,1,1,1,0,1,1,1,1,1,1,1,1,1,0,1,1,1,1,1]","location_rts":"[1277,385,320,326,343,313,350,361,374,254,236,204,209,250,88,424,334,404,407,135,68,253,201]","trial_type":"two-door-navigation","trial_index":16,"time_elapsed":5159757,"internal_node_id":"0.0-2.0-14.0"},{"group":"dihedral group of order 12","room_assignment":["olive","orange","ivory","yellow","cyan","green","grey","pink","purple","red","brown","blue"],"door_color_assignment":["white","black"],"door_generator_assignment":[1,0],"goal":7,"start":6,"action_noise":0.15,"location_history":"[6,0,1,2,3,4,5,11,10,9,8,7]","action_history":"[1,0,0,0,0,0,1,0,0,0,0]","door_history":"[0,1,1,1,1,1,0,1,1,1,1]","location_rts":"[1220,348,159,110,197,174,321,126,211,216,214]","trial_type":"two-door-navigation","trial_index":17,"time_elapsed":5178123,"internal_node_id":"0.0-2.0-15.0"},{"group":"dihedral group of order 12","room_assignment":["olive","orange","ivory","yellow","cyan","green","grey","pink","purple","red","brown","blue"],"door_color_assignment":["white","black"],"door_generator_assignment":[1,0],"goal":10,"start":7,"action_noise":0.15,"location_history":"[7,1,2,3,4,5,0,1,2,3,4,5,11,10]","action_history":"[1,0,0,0,0,0,0,0,0,0,0,1,0]","door_history":"[0,1,1,1,1,1,1,1,1,1,1,0,1]","location_rts":"[1577,490,320,250,293,284,269,334,333,321,573,420,310]","trial_type":"two-door-navigation","trial_index":18,"time_elapsed":5200881,"internal_node_id":"0.0-2.0-16.0"},{"group":"dihedral group of order 12","room_assignment":["olive","orange","ivory","yellow","cyan","green","grey","pink","purple","red","brown","blue"],"door_color_assignment":["white","black"],"door_generator_assignment":[1,0],"goal":0,"start":10,"action_noise":0.15,"location_history":"[10,4,10,9,8,7,1,2,3,9,3,4,10,9,8,7,6,11,5,11,10,9,8,7,6,11,10,9,3,4,5,0]","action_history":"[1,0,0,0,0,0,0,0,0,1,0,0,0,0,0,0,0,0,1,0,0,0,0,0,0,0,0,0,0,0,0]","door_history":"[0,1,1,1,1,1,1,1,1,0,1,1,1,1,1,1,1,1,0,1,1,1,1,1,1,1,1,1,1,1,1]","location_rts":"[1434,275,297,277,152,384,313,235,229,294,287,238,257,239,246,148,257,305,310,284,184,258,52,103,60,0,61,83,359,347,478]","trial_type":"two-door-navigation","trial_index":19,"time_elapsed":5245452,"internal_node_id":"0.0-2.0-17.0"},{"group":"dihedral group of order 12","room_assignment":["olive","orange","ivory","yellow","cyan","green","grey","pink","purple","red","brown","blue"],"door_color_assignment":["white","black"],"door_generator_assignment":[1,0],"goal":9,"start":0,"action_noise":0.15,"location_history":"[0,1,2,3,4,5,0,1,2,3,4,5,0,1,2,3,9]","action_history":"[1,0,0,0,0,0,0,0,0,0,0,0,0,0,0,1]","door_history":"[0,1,1,1,1,1,1,1,1,1,1,1,1,1,1,0]","location_rts":"[1278,557,307,289,177,128,638,435,845,543,381,624,436,485,904,407]","trial_type":"two-door-navigation","trial_index":20,"time_elapsed":5273936,"internal_node_id":"0.0-2.0-18.0"},{"group":"dihedral group of order 12","room_assignment":["olive","orange","ivory","yellow","cyan","green","grey","pink","purple","red","brown","blue"],"door_color_assignment":["white","black"],"door_generator_assignment":[1,0],"goal":4,"start":9,"action_noise":0.15,"location_history":"[9,8,7,1,7,1,7,6,11,5,11,5,11,10,9,8,7,6,11,10,9,8,7,1,7,6,0,6,11,10,9,8,7,6,11,5,0,1,2,3,4]","action_history":"[1,0,0,0,0,1,0,0,0,1,1,1,0,0,0,0,0,0,0,0,0,0,0,1,0,1,0,0,0,0,0,0,0,0,0,0,0,0,0,0]","door_history":"[0,1,1,1,1,0,1,1,1,0,0,0,1,1,1,1,1,1,1,1,1,1,1,0,1,0,1,1,1,1,1,1,1,1,1,1,1,1,1,1]","location_rts":"[2027,3287,626,320,416,315,591,519,905,1123,943,767,360,293,185,98,203,583,197,348,119,55,213,340,205,447,1,225,415,343,243,306,234,226,353,271,110,400,119,104]","trial_type":"two-door-navigation","trial_index":21,"time_elapsed":5337836,"internal_node_id":"0.0-2.0-19.0"},{"group":"dihedral group of order 12","room_assignment":["olive","orange","ivory","yellow","cyan","green","grey","pink","purple","red","brown","blue"],"door_color_assignment":["white","black"],"door_generator_assignment":[1,0],"goal":2,"start":4,"action_noise":0.15,"location_history":"[4,10,9,3,4,5,0,1,2]","action_history":"[1,0,0,0,0,0,0,0]","door_history":"[0,1,1,1,1,1,1,1]","location_rts":"[1447,411,140,474,302,293,269,275]","trial_type":"two-door-navigation","trial_index":22,"time_elapsed":5353619,"internal_node_id":"0.0-2.0-20.0"},{"group":"dihedral group of order 12","room_assignment":["olive","orange","ivory","yellow","cyan","green","grey","pink","purple","red","brown","blue"],"door_color_assignment":["white","black"],"door_generator_assignment":[1,0],"goal":1,"start":2,"action_noise":0.15,"location_history":"[2,3,4,5,0,1]","action_history":"[1,0,0,0,0]","door_history":"[0,1,1,1,1]","location_rts":"[1258,513,177,459,319]","trial_type":"two-door-navigation","trial_index":23,"time_elapsed":5365055,"internal_node_id":"0.0-2.0-21.0"},{"group":"dihedral group of order 12","room_assignment":["olive","orange","ivory","yellow","cyan","green","grey","pink","purple","red","brown","blue"],"door_color_assignment":["white","black"],"door_generator_assignment":[1,0],"goal":3,"start":1,"action_noise":0.15,"location_history":"[1,2,3]","action_history":"[0,0]","door_history":"[1,1]","location_rts":"[1311,570]","trial_type":"two-door-navigation","trial_index":24,"time_elapsed":5372474,"internal_node_id":"0.0-2.0-22.0"},{"group":"dihedral group of order 12","room_assignment":["olive","orange","ivory","yellow","cyan","green","grey","pink","purple","red","brown","blue"],"door_color_assignment":["white","black"],"door_generator_assignment":[1,0],"goal":7,"start":3,"action_noise":0.15,"location_history":"[3,4,10,9,8,7]","action_history":"[0,1,0,0,0]","door_history":"[1,0,1,1,1]","location_rts":"[1341,693,550,567,431]","trial_type":"two-door-navigation","trial_index":25,"time_elapsed":5384716,"internal_node_id":"0.0-2.0-23.0"},{"group":"dihedral group of order 12","room_assignment":["olive","orange","ivory","yellow","cyan","green","grey","pink","purple","red","brown","blue"],"door_color_assignment":["white","black"],"door_generator_assignment":[1,0],"goal":6,"start":7,"action_noise":0.15,"location_history":"[7,6]","action_history":"[1]","door_history":"[0]","location_rts":"[1066]","trial_type":"two-door-navigation","trial_index":26,"time_elapsed":5390319,"internal_node_id":"0.0-2.0-24.0"},{"group":"dihedral group of order 12","room_assignment":["olive","orange","ivory","yellow","cyan","green","grey","pink","purple","red","brown","blue"],"door_color_assignment":["white","black"],"door_generator_assignment":[1,0],"goal":2,"start":6,"action_noise":0.15,"location_history":"[6,11,10,4,10,9,3,9,3,9,3,9,3,9,3,4,5,11,10,4,5,0,1,7,6,11,10,9,8,7,1,2]","action_history":"[1,1,1,1,1,1,1,1,0,0,0,1,1,1,0,0,0,0,0,0,0,0,0,0,0,0,0,0,0,1,0]","door_history":"[0,0,0,0,0,0,0,0,1,1,1,0,0,0,1,1,1,1,1,1,1,1,1,1,1,1,1,1,1,0,1]","location_rts":"[1582,492,638,410,450,751,511,635,518,333,373,550,426,348,368,289,371,48,238,253,329,321,296,283,362,309,281,253,352,1192,898]","trial_type":"two-door-navigation","trial_index":27,"time_elapsed":5440402,"internal_node_id":"0.0-2.0-25.0"},{"group":"dihedral group of order 12","room_assignment":["olive","orange","ivory","yellow","cyan","green","grey","pink","purple","red","brown","blue"],"door_color_assignment":["white","black"],"door_generator_assignment":[1,0],"goal":8,"start":2,"action_noise":0.15,"location_history":"[2,3,9,3,9,8]","action_history":"[0,0,1,1,0]","door_history":"[1,1,0,0,1]","location_rts":"[1224,665,1013,330,336]","trial_type":"two-door-navigation","trial_index":28,"time_elapsed":5452980,"internal_node_id":"0.0-2.0-26.0"},{"group":"dihedral group of order 12","room_assignment":["olive","orange","ivory","yellow","cyan","green","grey","pink","purple","red","brown","blue"],"door_color_assignment":["white","black"],"door_generator_assignment":[1,0],"goal":0,"start":8,"action_noise":0.15,"location_history":"[8,7,1,2,3,4,5,0]","action_history":"[1,1,0,0,0,0,0]","door_history":"[0,0,1,1,1,1,1]","location_rts":"[2424,905,548,379,772,631,776]","trial_type":"two-door-navigation","trial_index":29,"time_elapsed":5470155,"internal_node_id":"0.0-2.0-27.0"},{"group":"dihedral group of order 12","room_assignment":["olive","orange","ivory","yellow","cyan","green","grey","pink","purple","red","brown","blue"],"door_color_assignment":["white","black"],"door_generator_assignment":[1,0],"goal":3,"start":0,"action_noise":0.15,"location_history":"[0,1,2,3]","action_history":"[0,0,0]","door_history":"[1,1,1]","location_rts":"[1371,786,544]","trial_type":"two-door-navigation","trial_index":30,"time_elapsed":5479467,"internal_node_id":"0.0-2.0-28.0"},{"group":"dihedral group of order 12","room_assignment":["olive","orange","ivory","yellow","cyan","green","grey","pink","purple","red","brown","blue"],"door_color_assignment":["white","black"],"door_generator_assignment":[1,0],"goal":4,"start":3,"action_noise":0.15,"location_history":"[3,9,8,7,6,11,10,9,8,7,6,11,10,9,8,7,6,11,5,0,1,2,8,7,1,2,3,9,3,4]","action_history":"[1,0,0,0,0,0,0,0,0,0,0,0,0,0,0,0,0,1,0,0,0,0,0,0,0,0,1,0,0]","door_history":"[0,1,1,1,1,1,1,1,1,1,1,1,1,1,1,1,1,0,1,1,1,1,1,1,1,1,0,1,1]","location_rts":"[1449,722,405,234,122,153,162,196,242,80,107,84,57,79,129,56,127,55,772,325,105,63,326,121,162,17,689,123,24]","trial_type":"two-door-navigation","trial_index":31,"time_elapsed":5520531,"internal_node_id":"0.0-2.0-29.0"},{"group":"dihedral group of order 12","room_assignment":["olive","orange","ivory","yellow","cyan","green","grey","pink","purple","red","brown","blue"],"door_color_assignment":["white","black"],"door_generator_assignment":[1,0],"goal":10,"start":4,"action_noise":0.15,"location_history":"[4,10]","action_history":"[1]","door_history":"[0]","location_rts":"[1250]","trial_type":"two-door-navigation","trial_index":32,"time_elapsed":5526297,"internal_node_id":"0.0-2.0-30.0"},{"group":"dihedral group of order 12","room_assignment":["olive","orange","ivory","yellow","cyan","green","grey","pink","purple","red","brown","blue"],"door_color_assignment":["white","black"],"door_generator_assignment":[1,0],"goal":11,"start":10,"action_noise":0.15,"location_history":"[10,4,5,0,1,2,3,4,5,11]","action_history":"[1,0,0,1,0,0,0,0,1]","door_history":"[0,1,1,0,1,1,1,1,0]","location_rts":"[3764,321,284,372,181,112,415,469,1098]","trial_type":"two-door-navigation","trial_index":33,"time_elapsed":5546121,"internal_node_id":"0.0-2.0-31.0"},{"group":"dihedral group of order 12","room_assignment":["olive","orange","ivory","yellow","cyan","green","grey","pink","purple","red","brown","blue"],"door_color_assignment":["white","black"],"door_generator_assignment":[1,0],"goal":1,"start":11,"action_noise":0.15,"location_history":"[11,5,11,10,9,8,7,6,11,5,0,6,0,1]","action_history":"[0,1,0,0,0,0,0,0,0,0,1,1,0]","door_history":"[1,0,1,1,1,1,1,1,1,1,0,0,1]","location_rts":"[1267,728,992,97,393,394,496,331,463,593,658,405,517]","trial_type":"two-door-navigation","trial_index":34,"time_elapsed":5570641,"internal_node_id":"0.0-2.0-32.0"},{"group":"dihedral group of order 12","room_assignment":["olive","orange","ivory","yellow","cyan","green","grey","pink","purple","red","brown","blue"],"door_color_assignment":["white","black"],"door_generator_assignment":[1,0],"goal":5,"start":1,"action_noise":0.15,"location_history":"[1,7,6,11,10,9,8,7,1,2,3,4,5]","action_history":"[0,0,0,0,0,0,0,1,0,0,0,0]","door_history":"[1,1,1,1,1,1,1,0,1,1,1,1]","location_rts":"[1521,405,826,327,386,308,454,691,604,343,511,486]","trial_type":"two-door-navigation","trial_index":35,"time_elapsed":5593513,"internal_node_id":"0.0-2.0-33.0"},{"group":"dihedral group of order 12","room_assignment":["olive","orange","ivory","yellow","cyan","green","grey","pink","purple","red","brown","blue"],"door_color_assignment":["white","black"],"door_generator_assignment":[1,0],"goal":9,"start":5,"action_noise":0.15,"location_history":"[5,11,5,11,5,0,1,2,3,4,5,0,1,7,6,11,10,9]","action_history":"[1,1,0,0,0,0,0,0,0,0,0,0,1,0,0,0,0]","door_history":"[0,0,1,1,1,1,1,1,1,1,1,1,0,1,1,1,1]","location_rts":"[1156,485,440,202,246,242,86,377,463,436,433,316,233,884,336,337,23]","trial_type":"two-door-navigation","trial_index":36,"time_elapsed":5621516,"internal_node_id":"0.0-2.0-34.0"},{"view_history":"[{\"page_index\":0,\"viewing_time\":2075}]","rt":2076,"trial_type":"instructions","trial_index":37,"time_elapsed":5624593,"internal_node_id":"0.0-3.0"},{"view_history":"[{\"page_index\":0,\"viewing_time\":1897},{\"page_index\":1,\"viewing_time\":50750}]","rt":52647,"trial_type":"instructions","trial_index":38,"time_elapsed":5678241,"internal_node_id":"0.0-4.0"},{"group":"dihedral group of order 12","fractal_assignment":["../images/wht_red.png","../images/cyn_red.png","../images/pnk_blu.png","../images/blu_wht.png","../images/org_blu.png","../images/red_prp.png","../images/grn_red.png","../images/ylw_pnk.png","../images/ylw_slt.png","../images/grn_prp.png","../images/grn_blu.png","../images/gry_blk.png"],"mutagen_generator_assignment":[0,1],"goal":4,"start":0,"action_noise":0.15,"location_history":"[0,1,7,6,11,10,4]","action_history":"[0,1,1,0,1,1]","mutagen_history":"[0,1,1,0,1,1]","location_rts":"[4326,5339,2261,156,1040,141]","trial_type":"fractal-mutation","trial_index":39,"time_elapsed":5704672,"internal_node_id":"0.0-5.0-0.0"},{"group":"dihedral group of order 12","fractal_assignment":["../images/wht_red.png","../images/cyn_red.png","../images/pnk_blu.png","../images/blu_wht.png","../images/org_blu.png","../images/red_prp.png","../images/grn_red.png","../images/ylw_pnk.png","../images/ylw_slt.png","../images/grn_prp.png","../images/grn_blu.png","../images/gry_blk.png"],"mutagen_generator_assignment":[0,1],"goal":9,"start":4,"action_noise":0.15,"location_history":"[4,10,9]","action_history":"[0,0]","mutagen_history":"[0,0]","location_rts":"[1676,13810]","trial_type":"fractal-mutation","trial_index":40,"time_elapsed":5725809,"internal_node_id":"0.0-5.0-1.0"},{"group":"dihedral group of order 12","fractal_assignment":["../images/wht_red.png","../images/cyn_red.png","../images/pnk_blu.png","../images/blu_wht.png","../images/org_blu.png","../images/red_prp.png","../images/grn_red.png","../images/ylw_pnk.png","../images/ylw_slt.png","../images/grn_prp.png","../images/grn_blu.png","../images/gry_blk.png"],"mutagen_generator_assignment":[0,1],"goal":10,"start":9,"action_noise":0.15,"location_history":"[9,8,2,3,4,5,11,10]","action_history":"[0,1,1,1,0,1,0]","mutagen_history":"[0,1,1,1,0,1,0]","location_rts":"[676,467,665,610,686,1004,716]","trial_type":"fractal-mutation","trial_index":41,"time_elapsed":5744623,"internal_node_id":"0.0-5.0-2.0"},{"group":"dihedral group of order 12","fractal_assignment":["../images/wht_red.png","../images/cyn_red.png","../images/pnk_blu.png","../images/blu_wht.png","../images/org_blu.png","../images/red_prp.png","../images/grn_red.png","../images/ylw_pnk.png","../images/ylw_slt.png","../images/grn_prp.png","../images/grn_blu.png","../images/gry_blk.png"],"mutagen_generator_assignment":[0,1],"goal":2,"start":10,"action_noise":0.15,"location_history":"[10,4,10,9,8,7,6,0,6,0,1,2]","action_history":"[1,1,0,0,0,0,1,1,1,0,0]","mutagen_history":"[1,1,0,0,0,0,1,1,1,0,0]","location_rts":"[1614,639,181,492,427,536,433,602,586,600,518]","trial_type":"fractal-mutation","trial_index":42,"time_elapsed":5770935,"internal_node_id":"0.0-5.0-3.0"},{"group":"dihedral group of order 12","fractal_assignment":["../images/wht_red.png","../images/cyn_red.png","../images/pnk_blu.png","../images/blu_wht.png","../images/org_blu.png","../images/red_prp.png","../images/grn_red.png","../images/ylw_pnk.png","../images/ylw_slt.png","../images/grn_prp.png","../images/grn_blu.png","../images/gry_blk.png"],"mutagen_generator_assignment":[0,1],"goal":5,"start":2,"action_noise":0.15,"location_history":"[2,3,9,8,7,6,11,5]","action_history":"[0,1,0,0,0,0,1]","mutagen_history":"[0,1,0,0,0,0,1]","location_rts":"[993,772,461,549,565,620,1801]","trial_type":"fractal-mutation","trial_index":43,"time_elapsed":5790004,"internal_node_id":"0.0-5.0-4.0"},{"group":"dihedral group of order 12","fractal_assignment":["../images/wht_red.png","../images/cyn_red.png","../images/pnk_blu.png","../images/blu_wht.png","../images/org_blu.png","../images/red_prp.png","../images/grn_red.png","../images/ylw_pnk.png","../images/ylw_slt.png","../images/grn_prp.png","../images/grn_blu.png","../images/gry_blk.png"],"mutagen_generator_assignment":[0,1],"goal":11,"start":5,"action_noise":0.15,"location_history":"[5,0,6,11]","action_history":"[0,1,0]","mutagen_history":"[0,1,0]","location_rts":"[1525,588,1067]","trial_type":"fractal-mutation","trial_index":44,"time_elapsed":5800728,"internal_node_id":"0.0-5.0-5.0"},{"group":"dihedral group of order 12","fractal_assignment":["../images/wht_red.png","../images/cyn_red.png","../images/pnk_blu.png","../images/blu_wht.png","../images/org_blu.png","../images/red_prp.png","../images/grn_red.png","../images/ylw_pnk.png","../images/ylw_slt.png","../images/grn_prp.png","../images/grn_blu.png","../images/gry_blk.png"],"mutagen_generator_assignment":[0,1],"goal":6,"start":11,"action_noise":0.15,"location_history":"[11,10,4,10,4,5,0,6]","action_history":"[0,1,1,1,1,0,1]","mutagen_history":"[0,1,1,1,1,0,1]","location_rts":"[1284,253,401,508,453,886,472]","trial_type":"fractal-mutation","trial_index":45,"time_elapsed":5819169,"internal_node_id":"0.0-5.0-6.0"},{"group":"dihedral group of order 12","fractal_assignment":["../images/wht_red.png","../images/cyn_red.png","../images/pnk_blu.png","../images/blu_wht.png","../images/org_blu.png","../images/red_prp.png","../images/grn_red.png","../images/ylw_pnk.png","../images/ylw_slt.png","../images/grn_prp.png","../images/grn_blu.png","../images/gry_blk.png"],"mutagen_generator_assignment":[0,1],"goal":3,"start":6,"action_noise":0.15,"location_history":"[6,11,5,11,5,11,10,4,10,9,3]","action_history":"[0,1,1,1,1,0,1,1,0,1]","mutagen_history":"[0,1,1,1,1,0,1,1,0,1]","location_rts":"[1371,645,489,717,534,337,224,450,621,481]","trial_type":"fractal-mutation","trial_index":46,"time_elapsed":5843214,"internal_node_id":"0.0-5.0-7.0"},{"group":"dihedral group of order 12","fractal_assignment":["../images/wht_red.png","../images/cyn_red.png","../images/pnk_blu.png","../images/blu_wht.png","../images/org_blu.png","../images/red_prp.png","../images/grn_red.png","../images/ylw_pnk.png","../images/ylw_slt.png","../images/grn_prp.png","../images/grn_blu.png","../images/gry_blk.png"],"mutagen_generator_assignment":[0,1],"goal":8,"start":3,"action_noise":0.15,"location_history":"[3,4,5,11,10,9,8]","action_history":"[0,0,1,0,0,0]","mutagen_history":"[0,0,1,0,0,0]","location_rts":"[1236,679,284,1734,273,434]","trial_type":"fractal-mutation","trial_index":47,"time_elapsed":5859412,"internal_node_id":"0.0-5.0-8.0"},{"group":"dihedral group of order 12","fractal_assignment":["../images/wht_red.png","../images/cyn_red.png","../images/pnk_blu.png","../images/blu_wht.png","../images/org_blu.png","../images/red_prp.png","../images/grn_red.png","../images/ylw_pnk.png","../images/ylw_slt.png","../images/grn_prp.png","../images/grn_blu.png","../images/gry_blk.png"],"mutagen_generator_assignment":[0,1],"goal":1,"start":8,"action_noise":0.15,"location_history":"[8,2,3,9,3,4,5,11,10,4,5,11,10,9,8,2,3,9,3,4,5,0,6,11,5,11,10,9,3,4,5,11,5,11,10,9,8,2,8,7,6,11,10,9,8,7,6,11,10,9,8,7,1]","action_history":"[0,1,1,1,0,0,1,0,0,1,1,0,0,0,1,0,1,1,0,0,0,1,0,1,1,0,0,1,0,0,0,1,1,0,0,0,1,1,0,0,1,0,0,0,0,0,0,0,1,0,0,1]","mutagen_history":"[0,1,1,1,0,0,1,0,0,1,1,0,0,0,1,0,1,1,0,0,0,1,0,1,1,0,0,1,0,0,0,1,1,0,0,0,1,1,0,0,1,0,0,0,0,0,0,0,1,0,0,1]","location_rts":"[1717,637,422,555,670,859,831,585,947,492,892,542,360,652,473,655,698,505,540,409,1643,648,952,1081,461,1186,920,693,594,462,797,1200,757,561,1513,1147,1286,1126,839,1476,1996,826,1107,1007,948,1117,995,963,1392,970,967,1649]","trial_type":"fractal-mutation","trial_index":48,"time_elapsed":5983859,"internal_node_id":"0.0-5.0-9.0"},{"group":"dihedral group of order 12","fractal_assignment":["../images/wht_red.png","../images/cyn_red.png","../images/pnk_blu.png","../images/blu_wht.png","../images/org_blu.png","../images/red_prp.png","../images/grn_red.png","../images/ylw_pnk.png","../images/ylw_slt.png","../images/grn_prp.png","../images/grn_blu.png","../images/gry_blk.png"],"mutagen_generator_assignment":[0,1],"goal":7,"start":1,"action_noise":0.15,"location_history":"[1,2,8,2,8,2,8,2,3,4,5,0,6,11,10,4,5,0,1,2,8,7]","action_history":"[0,1,1,1,1,0,1,0,0,0,1,0,0,1,1,0,0,0,0,1,0]","mutagen_history":"[0,1,1,1,1,0,1,0,0,0,1,0,0,1,1,0,0,0,0,1,0]","location_rts":"[16110,766,932,649,1000,671,775,1347,254,944,1580,700,1954,1088,968,572,764,729,1632,628,596]","trial_type":"fractal-mutation","trial_index":49,"time_elapsed":6052560,"internal_node_id":"0.0-5.0-10.0"},{"group":"dihedral group of order 12","fractal_assignment":["../images/wht_red.png","../images/cyn_red.png","../images/pnk_blu.png","../images/blu_wht.png","../images/org_blu.png","../images/red_prp.png","../images/grn_red.png","../images/ylw_pnk.png","../images/ylw_slt.png","../images/grn_prp.png","../images/grn_blu.png","../images/gry_blk.png"],"mutagen_generator_assignment":[0,1],"goal":5,"start":7,"action_noise":0.15,"location_history":"[7,6,0,6,11,10,4,5]","action_history":"[0,1,1,0,0,1,0]","mutagen_history":"[0,1,1,0,0,1,0]","location_rts":"[11007,3295,645,746,718,958,711]","trial_type":"fractal-mutation","trial_index":50,"time_elapsed":6084345,"internal_node_id":"0.0-5.0-11.0"},{"group":"dihedral group of order 12","fractal_assignment":["../images/wht_red.png","../images/cyn_red.png","../images/pnk_blu.png","../images/blu_wht.png","../images/org_blu.png","../images/red_prp.png","../images/grn_red.png","../images/ylw_pnk.png","../images/ylw_slt.png","../images/grn_prp.png","../images/grn_blu.png","../images/gry_blk.png"],"mutagen_generator_assignment":[0,1],"goal":8,"start":5,"action_noise":0.15,"location_history":"[5,11,10,9,3,4,5,11,10,4,10,9,8]","action_history":"[0,0,0,0,0,0,0,0,1,1,1,0]","mutagen_history":"[0,0,0,0,0,0,0,0,1,1,1,0]","location_rts":"[12100,619,554,335,368,319,313,388,618,706,434,186]","trial_type":"fractal-mutation","trial_index":51,"time_elapsed":6119694,"internal_node_id":"0.0-5.0-12.0"},{"group":"dihedral group of order 12","fractal_assignment":["../images/wht_red.png","../images/cyn_red.png","../images/pnk_blu.png","../images/blu_wht.png","../images/org_blu.png","../images/red_prp.png","../images/grn_red.png","../images/ylw_pnk.png","../images/ylw_slt.png","../images/grn_prp.png","../images/grn_blu.png","../images/gry_blk.png"],"mutagen_generator_assignment":[0,1],"goal":11,"start":8,"action_noise":0.15,"location_history":"[8,7,6,11]","action_history":"[0,0,0]","mutagen_history":"[0,0,0]","location_rts":"[1566,423,206]","trial_type":"fractal-mutation","trial_index":52,"time_elapsed":6128676,"internal_node_id":"0.0-5.0-13.0"},{"group":"dihedral group of order 12","fractal_assignment":["../images/wht_red.png","../images/cyn_red.png","../images/pnk_blu.png","../images/blu_wht.png","../images/org_blu.png","../images/red_prp.png","../images/grn_red.png","../images/ylw_pnk.png","../images/ylw_slt.png","../images/grn_prp.png","../images/grn_blu.png","../images/gry_blk.png"],"mutagen_generator_assignment":[0,1],"goal":6,"start":11,"action_noise":0.15,"location_history":"[11,10,4,5,0,6]","action_history":"[0,0,1,0,1]","mutagen_history":"[0,0,1,0,1]","location_rts":"[2631,895,499,672,632]","trial_type":"fractal-mutation","trial_index":53,"time_elapsed":6144043,"internal_node_id":"0.0-5.0-14.0"},{"group":"dihedral group of order 12","fractal_assignment":["../images/wht_red.png","../images/cyn_red.png","../images/pnk_blu.png","../images/blu_wht.png","../images/org_blu.png","../images/red_prp.png","../images/grn_red.png","../images/ylw_pnk.png","../images/ylw_slt.png","../images/grn_prp.png","../images/grn_blu.png","../images/gry_blk.png"],"mutagen_generator_assignment":[0,1],"goal":7,"start":6,"action_noise":0.15,"location_history":"[6,0,1,7]","action_history":"[1,0,1]","mutagen_history":"[1,0,1]","location_rts":"[26227,1063,2943]","trial_type":"fractal-mutation","trial_index":54,"time_elapsed":6182793,"internal_node_id":"0.0-5.0-15.0"},{"group":"dihedral group of order 12","fractal_assignment":["../images/wht_red.png","../images/cyn_red.png","../images/pnk_blu.png","../images/blu_wht.png","../images/org_blu.png","../images/red_prp.png","../images/grn_red.png","../images/ylw_pnk.png","../images/ylw_slt.png","../images/grn_prp.png","../images/grn_blu.png","../images/gry_blk.png"],"mutagen_generator_assignment":[0,1],"goal":10,"start":7,"action_noise":0.15,"location_history":"[7,6,0,6,11,10]","action_history":"[0,1,1,0,0]","mutagen_history":"[0,1,1,0,0]","location_rts":"[5623,718,584,876,380]","trial_type":"fractal-mutation","trial_index":55,"time_elapsed":6201182,"internal_node_id":"0.0-5.0-16.0"},{"group":"dihedral group of order 12","fractal_assignment":["../images/wht_red.png","../images/cyn_red.png","../images/pnk_blu.png","../images/blu_wht.png","../images/org_blu.png","../images/red_prp.png","../images/grn_red.png","../images/ylw_pnk.png","../images/ylw_slt.png","../images/grn_prp.png","../images/grn_blu.png","../images/gry_blk.png"],"mutagen_generator_assignment":[0,1],"goal":0,"start":10,"action_noise":0.15,"location_history":"[10,9,3,9,3,4,10,9,8,2,3,4,5,11,5,0]","action_history":"[0,0,1,1,0,1,0,0,1,0,0,0,1,0,0]","mutagen_history":"[0,0,1,1,0,1,0,0,1,0,0,0,1,0,0]","location_rts":"[1301,645,622,800,648,687,875,467,845,574,730,490,918,673,388]","trial_type":"fractal-mutation","trial_index":56,"time_elapsed":6236052,"internal_node_id":"0.0-5.0-17.0"},{"group":"dihedral group of order 12","fractal_assignment":["../images/wht_red.png","../images/cyn_red.png","../images/pnk_blu.png","../images/blu_wht.png","../images/org_blu.png","../images/red_prp.png","../images/grn_red.png","../images/ylw_pnk.png","../images/ylw_slt.png","../images/grn_prp.png","../images/grn_blu.png","../images/gry_blk.png"],"mutagen_generator_assignment":[0,1],"goal":9,"start":0,"action_noise":0.15,"location_history":"[0,1,2,3,9]","action_history":"[0,0,0,1]","mutagen_history":"[0,0,0,1]","location_rts":"[1266,513,581,554]","trial_type":"fractal-mutation","trial_index":57,"time_elapsed":6247488,"internal_node_id":"0.0-5.0-18.0"},{"group":"dihedral group of order 12","fractal_assignment":["../images/wht_red.png","../images/cyn_red.png","../images/pnk_blu.png","../images/blu_wht.png","../images/org_blu.png","../images/red_prp.png","../images/grn_red.png","../images/ylw_pnk.png","../images/ylw_slt.png","../images/grn_prp.png","../images/grn_blu.png","../images/gry_blk.png"],"mutagen_generator_assignment":[0,1],"goal":4,"start":9,"action_noise":0.15,"location_history":"[9,8,2,3,4]","action_history":"[0,1,1,1]","mutagen_history":"[0,1,1,1]","location_rts":"[1473,670,456,417]","trial_type":"fractal-mutation","trial_index":58,"time_elapsed":6259698,"internal_node_id":"0.0-5.0-19.0"},{"group":"dihedral group of order 12","fractal_assignment":["../images/wht_red.png","../images/cyn_red.png","../images/pnk_blu.png","../images/blu_wht.png","../images/org_blu.png","../images/red_prp.png","../images/grn_red.png","../images/ylw_pnk.png","../images/ylw_slt.png","../images/grn_prp.png","../images/grn_blu.png","../images/gry_blk.png"],"mutagen_generator_assignment":[0,1],"goal":2,"start":4,"action_noise":0.15,"location_history":"[4,5,0,1,2]","action_history":"[0,0,1,0]","mutagen_history":"[0,0,1,0]","location_rts":"[954,536,456,768]","trial_type":"fractal-mutation","trial_index":59,"time_elapsed":6271134,"internal_node_id":"0.0-5.0-20.0"},{"group":"dihedral group of order 12","fractal_assignment":["../images/wht_red.png","../images/cyn_red.png","../images/pnk_blu.png","../images/blu_wht.png","../images/org_blu.png","../images/red_prp.png","../images/grn_red.png","../images/ylw_pnk.png","../images/ylw_slt.png","../images/grn_prp.png","../images/grn_blu.png","../images/gry_blk.png"],"mutagen_generator_assignment":[0,1],"goal":1,"start":2,"action_noise":0.15,"location_history":"[2,3,9,3,9,8,2,3,4,5,11,10,9,3,4,5,11,5,0,6,11,10,4,5,0,6,0,1]","action_history":"[0,1,0,0,0,1,0,0,0,1,0,1,1,0,0,0,1,0,1,0,1,1,0,0,1,1,0]","mutagen_history":"[0,1,0,0,0,1,0,0,0,1,0,1,1,0,0,0,1,0,1,0,1,1,0,0,1,1,0]","location_rts":"[1926,3679,936,634,609,703,782,990,1043,1332,2643,798,950,604,722,1220,614,666,6281,1802,657,10716,658,685,3016,17741,995]","trial_type":"fractal-mutation","trial_index":60,"time_elapsed":6378359,"internal_node_id":"0.0-5.0-21.0"},{"group":"dihedral group of order 12","fractal_assignment":["../images/wht_red.png","../images/cyn_red.png","../images/pnk_blu.png","../images/blu_wht.png","../images/org_blu.png","../images/red_prp.png","../images/grn_red.png","../images/ylw_pnk.png","../images/ylw_slt.png","../images/grn_prp.png","../images/grn_blu.png","../images/gry_blk.png"],"mutagen_generator_assignment":[0,1],"goal":3,"start":1,"action_noise":0.15,"location_history":"[1,7,1,2,3]","action_history":"[1,1,0,1]","mutagen_history":"[1,1,0,1]","location_rts":"[1932,734,673,819]","trial_type":"fractal-mutation","trial_index":61,"time_elapsed":6392093,"internal_node_id":"0.0-5.0-22.0"},{"group":"dihedral group of order 12","fractal_assignment":["../images/wht_red.png","../images/cyn_red.png","../images/pnk_blu.png","../images/blu_wht.png","../images/org_blu.png","../images/red_prp.png","../images/grn_red.png","../images/ylw_pnk.png","../images/ylw_slt.png","../images/grn_prp.png","../images/grn_blu.png","../images/gry_blk.png"],"mutagen_generator_assignment":[0,1],"goal":7,"start":3,"action_noise":0.15,"location_history":"[3,4,5,0,1,7]","action_history":"[1,0,0,0,1]","mutagen_history":"[1,0,0,0,1]","location_rts":"[1566,639,539,810,1076]","trial_type":"fractal-mutation","trial_index":62,"time_elapsed":6406955,"internal_node_id":"0.0-5.0-23.0"},{"group":"dihedral group of order 12","fractal_assignment":["../images/wht_red.png","../images/cyn_red.png","../images/pnk_blu.png","../images/blu_wht.png","../images/org_blu.png","../images/red_prp.png","../images/grn_red.png","../images/ylw_pnk.png","../images/ylw_slt.png","../images/grn_prp.png","../images/grn_blu.png","../images/gry_blk.png"],"mutagen_generator_assignment":[0,1],"goal":6,"start":7,"action_noise":0.15,"location_history":"[7,6]","action_history":"[0]","mutagen_history":"[0]","location_rts":"[1166]","trial_type":"fractal-mutation","trial_index":63,"time_elapsed":6412742,"internal_node_id":"0.0-5.0-24.0"},{"group":"dihedral group of order 12","fractal_assignment":["../images/wht_red.png","../images/cyn_red.png","../images/pnk_blu.png","../images/blu_wht.png","../images/org_blu.png","../images/red_prp.png","../images/grn_red.png","../images/ylw_pnk.png","../images/ylw_slt.png","../images/grn_prp.png","../images/grn_blu.png","../images/gry_blk.png"],"mutagen_generator_assignment":[0,1],"goal":2,"start":6,"action_noise":0.15,"location_history":"[6,0,1,7,1,2]","action_history":"[1,0,1,1,1]","mutagen_history":"[1,0,1,1,1]","location_rts":"[1171,747,274,586,550]","trial_type":"fractal-mutation","trial_index":64,"time_elapsed":6427110,"internal_node_id":"0.0-5.0-25.0"},{"group":"dihedral group of order 12","fractal_assignment":["../images/wht_red.png","../images/cyn_red.png","../images/pnk_blu.png","../images/blu_wht.png","../images/org_blu.png","../images/red_prp.png","../images/grn_red.png","../images/ylw_pnk.png","../images/ylw_slt.png","../images/grn_prp.png","../images/grn_blu.png","../images/gry_blk.png"],"mutagen_generator_assignment":[0,1],"goal":8,"start":2,"action_noise":0.15,"location_history":"[2,8]","action_history":"[1]","mutagen_history":"[1]","location_rts":"[1102]","trial_type":"fractal-mutation","trial_index":65,"time_elapsed":6433265,"internal_node_id":"0.0-5.0-26.0"},{"group":"dihedral group of order 12","fractal_assignment":["../images/wht_red.png","../images/cyn_red.png","../images/pnk_blu.png","../images/blu_wht.png","../images/org_blu.png","../images/red_prp.png","../images/grn_red.png","../images/ylw_pnk.png","../images/ylw_slt.png","../images/grn_prp.png","../images/grn_blu.png","../images/gry_blk.png"],"mutagen_generator_assignment":[0,1],"goal":0,"start":8,"action_noise":0.15,"location_history":"[8,2,3,4,5,11,5,0]","action_history":"[1,0,1,0,1,0,0]","mutagen_history":"[1,0,1,0,1,0,0]","location_rts":"[1250,586,646,546,699,708,746]","trial_type":"fractal-mutation","trial_index":66,"time_elapsed":6452029,"internal_node_id":"0.0-5.0-27.0"},{"group":"dihedral group of order 12","fractal_assignment":["../images/wht_red.png","../images/cyn_red.png","../images/pnk_blu.png","../images/blu_wht.png","../images/org_blu.png","../images/red_prp.png","../images/grn_red.png","../images/ylw_pnk.png","../images/ylw_slt.png","../images/grn_prp.png","../images/grn_blu.png","../images/gry_blk.png"],"mutagen_generator_assignment":[0,1],"goal":3,"start":0,"action_noise":0.15,"location_history":"[0,6,11,10,4,10,4,5,11,10,9,3]","action_history":"[1,0,1,1,1,1,0,1,0,0,1]","mutagen_history":"[1,0,1,1,1,1,0,1,0,0,1]","location_rts":"[920,718,430,485,416,667,558,425,747,503,522]","trial_type":"fractal-mutation","trial_index":67,"time_elapsed":6478414,"internal_node_id":"0.0-5.0-28.0"},{"group":"dihedral group of order 12","fractal_assignment":["../images/wht_red.png","../images/cyn_red.png","../images/pnk_blu.png","../images/blu_wht.png","../images/org_blu.png","../images/red_prp.png","../images/grn_red.png","../images/ylw_pnk.png","../images/ylw_slt.png","../images/grn_prp.png","../images/grn_blu.png","../images/gry_blk.png"],"mutagen_generator_assignment":[0,1],"goal":4,"start":3,"action_noise":0.15,"location_history":"[3,4]","action_history":"[0]","mutagen_history":"[0]","location_rts":"[2841]","trial_type":"fractal-mutation","trial_index":68,"time_elapsed":6485807,"internal_node_id":"0.0-5.0-29.0"},{"group":"dihedral group of order 12","fractal_assignment":["../images/wht_red.png","../images/cyn_red.png","../images/pnk_blu.png","../images/blu_wht.png","../images/org_blu.png","../images/red_prp.png","../images/grn_red.png","../images/ylw_pnk.png","../images/ylw_slt.png","../images/grn_prp.png","../images/grn_blu.png","../images/gry_blk.png"],"mutagen_generator_assignment":[0,1],"goal":10,"start":4,"action_noise":0.15,"location_history":"[4,10]","action_history":"[1]","mutagen_history":"[1]","location_rts":"[1215]","trial_type":"fractal-mutation","trial_index":69,"time_elapsed":6492421,"internal_node_id":"0.0-5.0-30.0"},{"group":"dihedral group of order 12","fractal_assignment":["../images/wht_red.png","../images/cyn_red.png","../images/pnk_blu.png","../images/blu_wht.png","../images/org_blu.png","../images/red_prp.png","../images/grn_red.png","../images/ylw_pnk.png","../images/ylw_slt.png","../images/grn_prp.png","../images/grn_blu.png","../images/gry_blk.png"],"mutagen_generator_assignment":[0,1],"goal":11,"start":10,"action_noise":0.15,"location_history":"[10,9,8,7,6,11]","action_history":"[0,0,0,0,0]","mutagen_history":"[0,0,0,0,0]","location_rts":"[1032,566,522,434,469]","trial_type":"fractal-mutation","trial_index":70,"time_elapsed":6504287,"internal_node_id":"0.0-5.0-31.0"},{"group":"dihedral group of order 12","fractal_assignment":["../images/wht_red.png","../images/cyn_red.png","../images/pnk_blu.png","../images/blu_wht.png","../images/org_blu.png","../images/red_prp.png","../images/grn_red.png","../images/ylw_pnk.png","../images/ylw_slt.png","../images/grn_prp.png","../images/grn_blu.png","../images/gry_blk.png"],"mutagen_generator_assignment":[0,1],"goal":1,"start":11,"action_noise":0.15,"location_history":"[11,10,9,3,4,5,11,5,0,1]","action_history":"[0,0,0,0,0,0,1,0,0]","mutagen_history":"[0,0,0,0,0,0,1,0,0]","location_rts":"[1838,1037,718,715,809,595,656,595,1723]","trial_type":"fractal-mutation","trial_index":71,"time_elapsed":6527442,"internal_node_id":"0.0-5.0-32.0"},{"group":"dihedral group of order 12","fractal_assignment":["../images/wht_red.png","../images/cyn_red.png","../images/pnk_blu.png","../images/blu_wht.png","../images/org_blu.png","../images/red_prp.png","../images/grn_red.png","../images/ylw_pnk.png","../images/ylw_slt.png","../images/grn_prp.png","../images/grn_blu.png","../images/gry_blk.png"],"mutagen_generator_assignment":[0,1],"goal":5,"start":1,"action_noise":0.15,"location_history":"[1,7,6,0,1,2,8,7,6,0,1,2,3,4,5]","action_history":"[1,1,1,0,0,1,0,1,1,0,0,0,1,0]","mutagen_history":"[1,1,1,0,0,1,0,1,1,0,0,0,1,0]","location_rts":"[993,793,802,656,628,680,636,393,848,496,651,635,1257,575]","trial_type":"fractal-mutation","trial_index":72,"time_elapsed":6561355,"internal_node_id":"0.0-5.0-33.0"},{"group":"dihedral group of order 12","fractal_assignment":["../images/wht_red.png","../images/cyn_red.png","../images/pnk_blu.png","../images/blu_wht.png","../images/org_blu.png","../images/red_prp.png","../images/grn_red.png","../images/ylw_pnk.png","../images/ylw_slt.png","../images/grn_prp.png","../images/grn_blu.png","../images/gry_blk.png"],"mutagen_generator_assignment":[0,1],"goal":9,"start":5,"action_noise":0.15,"location_history":"[5,11,10,4,10,4,5,0,6,0,1,2,8,2,3,4,5,11,5,0,1,7,1,7,1,7,6,11,10,9]","action_history":"[1,0,1,1,1,0,0,1,0,0,1,1,0,0,0,0,1,1,1,0,1,1,0,1,1,0,0,0,1]","mutagen_history":"[1,0,1,1,1,0,0,1,0,0,1,1,0,0,0,0,1,1,1,0,1,1,0,1,1,0,0,0,1]","location_rts":"[1113,946,512,387,557,419,624,627,1266,742,853,1266,782,1108,813,638,628,615,655,277,199,372,704,228,1026,798,1652,1010,1757]","trial_type":"fractal-mutation","trial_index":73,"time_elapsed":6632835,"internal_node_id":"0.0-5.0-34.0"},{"view_history":"[{\"page_index\":0,\"viewing_time\":5204}]","rt":5206,"trial_type":"instructions","trial_index":74,"time_elapsed":6639041,"internal_node_id":"0.0-6.0"},{"rt":9568,"responses":"{\"Q0\":\"It's so hard\"}","trial_type":"survey-text","trial_index":75,"time_elapsed":6649619,"internal_node_id":"0.0-7.0"}]