[{"view_history":"[{\"page_index\":0,\"viewing_time\":3184961},{\"page_index\":1,\"viewing_time\":137903},{\"page_index\":2,\"viewing_time\":71536},{\"page_index\":3,\"viewing_time\":6664}]","rt":3401065,"trial_type":"instructions","trial_index":0,"time_elapsed":3401065,"internal_node_id":"0.0-0.0"},{"view_history":"[{\"page_index\":0,\"viewing_time\":3083},{\"page_index\":1,\"viewing_time\":432809}]","rt":435892,"trial_type":"instructions","trial_index":1,"time_elapsed":3837960,"internal_node_id":"0.0-1.0"},{"group":"dicyclic group of order 12","room_assignment":["orange","red","olive","blue","grey","yellow","ivory","brown","green","cyan","purple","pink"],"door_color_assignment":["black","white"],"door_generator_assignment":[1,0],"goal":4,"start":0,"action_noise":0.15,"location_history":"[0,1,2,6,11,4]","action_history":"[1,1,1,0,0]","door_history":"[0,0,0,1,1]","location_rts":"[17358,589,2939,1846,1497]","trial_type":"two-door-navigation","trial_index":2,"time_elapsed":3870892,"internal_node_id":"0.0-2.0-0.0"},{"group":"dicyclic group of order 12","room_assignment":["orange","red","olive","blue","grey","yellow","ivory","brown","green","cyan","purple","pink"],"door_color_assignment":["black","white"],"door_generator_assignment":[1,0],"goal":9,"start":4,"action_noise":0.15,"location_history":"[4,8,0,4,8,5,9]","action_history":"[1,1,1,0,0,0]","door_history":"[0,0,0,1,1,1]","location_rts":"[2433,787,548,888,587,443]","trial_type":"two-door-navigation","trial_index":3,"time_elapsed":3886268,"internal_node_id":"0.0-2.0-1.0"},{"group":"dicyclic group of order 12","room_assignment":["orange","red","olive","blue","grey","yellow","ivory","brown","green","cyan","purple","pink"],"door_color_assignment":["black","white"],"door_generator_assignment":[1,0],"goal":10,"start":9,"action_noise":0.15,"location_history":"[9,6,11,4,9,6,10]","action_history":"[0,0,0,0,1,1]","door_history":"[1,1,1,1,0,0]","location_rts":"[3097,430,432,501,1609,262]","trial_type":"two-door-navigation","trial_index":4,"time_elapsed":3902302,"internal_node_id":"0.0-2.0-2.0"},{"group":"dicyclic group of order 12","room_assignment":["orange","red","olive","blue","grey","yellow","ivory","brown","green","cyan","purple","pink"],"door_color_assignment":["black","white"],"door_generator_assignment":[1,0],"goal":2,"start":10,"action_noise":0.15,"location_history":"[10,7,8,5,10,2]","action_history":"[0,0,0,0,1]","door_history":"[1,1,1,1,0]","location_rts":"[3074,2855,295,341,306]","trial_type":"two-door-navigation","trial_index":5,"time_elapsed":3917801,"internal_node_id":"0.0-2.0-3.0"},{"group":"dicyclic group of order 12","room_assignment":["orange","red","olive","blue","grey","yellow","ivory","brown","green","cyan","purple","pink"],"door_color_assignment":["black","white"],"door_generator_assignment":[1,0],"goal":5,"start":2,"action_noise":0.15,"location_history":"[2,6,10,2,3,0,1,2,3,7,8,0,1,5]","action_history":"[1,1,1,0,0,0,0,0,1,1,1,1,0]","door_history":"[0,0,0,1,1,1,1,1,0,0,0,0,1]","location_rts":"[3910,325,285,734,369,290,405,649,309,425,392,529,881]","trial_type":"two-door-navigation","trial_index":6,"time_elapsed":3944234,"internal_node_id":"0.0-2.0-4.0"},{"group":"dicyclic group of order 12","room_assignment":["orange","red","olive","blue","grey","yellow","ivory","brown","green","cyan","purple","pink"],"door_color_assignment":["black","white"],"door_generator_assignment":[1,0],"goal":11,"start":5,"action_noise":0.15,"location_history":"[5,9,6,10,7,8,5,10,2,6,10,2,6,11]","action_history":"[0,0,1,0,0,0,0,1,1,1,1,1,1]","door_history":"[1,1,0,1,1,1,1,0,0,0,0,0,0]","location_rts":"[1942,257,1036,8334,421,360,300,357,286,1109,761,399,393]","trial_type":"two-door-navigation","trial_index":7,"time_elapsed":3977067,"internal_node_id":"0.0-2.0-5.0"},{"group":"dicyclic group of order 12","room_assignment":["orange","red","olive","blue","grey","yellow","ivory","brown","green","cyan","purple","pink"],"door_color_assignment":["black","white"],"door_generator_assignment":[1,0],"goal":6,"start":11,"action_noise":0.15,"location_history":"[11,3,7,11,3,7,11,4,9,6]","action_history":"[1,1,1,1,1,1,0,0,0]","door_history":"[0,0,0,0,0,0,1,1,1]","location_rts":"[2061,1989,3060,744,478,347,325,319,358]","trial_type":"two-door-navigation","trial_index":8,"time_elapsed":3999532,"internal_node_id":"0.0-2.0-6.0"},{"group":"dicyclic group of order 12","room_assignment":["orange","red","olive","blue","grey","yellow","ivory","brown","green","cyan","purple","pink"],"door_color_assignment":["black","white"],"door_generator_assignment":[1,0],"goal":3,"start":6,"action_noise":0.15,"location_history":"[6,11,4,9,6,11,4,9,1,2,6,10,2,3]","action_history":"[0,0,0,0,0,0,0,1,1,1,1,1,0]","door_history":"[1,1,1,1,1,1,1,0,0,0,0,0,1]","location_rts":"[2268,44407,10657,12468,244,286,4503,5409,8823,1936,1469,516,13652]","trial_type":"two-door-navigation","trial_index":9,"time_elapsed":4123043,"internal_node_id":"0.0-2.0-7.0"},{"group":"dicyclic group of order 12","room_assignment":["orange","red","olive","blue","grey","yellow","ivory","brown","green","cyan","purple","pink"],"door_color_assignment":["black","white"],"door_generator_assignment":[1,0],"goal":8,"start":3,"action_noise":0.15,"location_history":"[3,7,8]","action_history":"[0,0]","door_history":"[1,1]","location_rts":"[948,491]","trial_type":"two-door-navigation","trial_index":10,"time_elapsed":4130035,"internal_node_id":"0.0-2.0-8.0"},{"group":"dicyclic group of order 12","room_assignment":["orange","red","olive","blue","grey","yellow","ivory","brown","green","cyan","purple","pink"],"door_color_assignment":["black","white"],"door_generator_assignment":[1,0],"goal":1,"start":8,"action_noise":0.15,"location_history":"[8,0,4,8,0,1]","action_history":"[1,1,1,1,0]","door_history":"[0,0,0,0,1]","location_rts":"[771,276,284,273,410]","trial_type":"two-door-navigation","trial_index":11,"time_elapsed":4140739,"internal_node_id":"0.0-2.0-9.0"},{"group":"dicyclic group of order 12","room_assignment":["orange","red","olive","blue","grey","yellow","ivory","brown","green","cyan","purple","pink"],"door_color_assignment":["black","white"],"door_generator_assignment":[1,0],"goal":7,"start":1,"action_noise":0.15,"location_history":"[1,2,3,0,1,5,9,1,5,9,1,2,3,0,1,2,6,11,4,8,0,1,5,10,2,6,10,2,6,10,2,6,10,7]","action_history":"[0,0,0,0,1,1,1,1,1,1,0,0,0,0,0,1,0,1,1,0,0,0,0,1,1,1,1,1,1,1,1,0,0]","door_history":"[1,1,1,1,0,0,0,0,0,0,1,1,1,1,1,0,1,0,0,1,1,1,1,0,0,0,0,0,0,0,0,1,1]","location_rts":"[318,231,248,450,461,343,328,416,574,307,530,336,632,391,444,1249,564,528,418,309,197,492,573,1075,276,297,204,68,973,302,336,276,358]","trial_type":"two-door-navigation","trial_index":12,"time_elapsed":4192607,"internal_node_id":"0.0-2.0-10.0"},{"group":"dicyclic group of order 12","room_assignment":["orange","red","olive","blue","grey","yellow","ivory","brown","green","cyan","purple","pink"],"door_color_assignment":["black","white"],"door_generator_assignment":[1,0],"goal":5,"start":7,"action_noise":0.15,"location_history":"[7,11,3,7,11,3,0,4,9,6,11,4,8,5]","action_history":"[1,1,1,1,1,0,0,0,0,0,0,0,0]","door_history":"[0,0,0,0,0,1,1,1,1,1,1,1,1]","location_rts":"[1447,230,440,270,268,377,334,338,481,588,8284,413,796]","trial_type":"two-door-navigation","trial_index":13,"time_elapsed":4223738,"internal_node_id":"0.0-2.0-11.0"},{"group":"dicyclic group of order 12","room_assignment":["orange","red","olive","blue","grey","yellow","ivory","brown","green","cyan","purple","pink"],"door_color_assignment":["black","white"],"door_generator_assignment":[1,0],"goal":8,"start":5,"action_noise":0.15,"location_history":"[5,9,6,11,4,9,1,2,3,7,8]","action_history":"[1,0,0,0,0,0,0,0,1,0]","door_history":"[0,1,1,1,1,1,1,1,0,1]","location_rts":"[1667,18329,51,3804,51,303,341,301,370,301]","trial_type":"two-door-navigation","trial_index":14,"time_elapsed":4263120,"internal_node_id":"0.0-2.0-12.0"},{"group":"dicyclic group of order 12","room_assignment":["orange","red","olive","blue","grey","yellow","ivory","brown","green","cyan","purple","pink"],"door_color_assignment":["black","white"],"door_generator_assignment":[1,0],"goal":11,"start":8,"action_noise":0.15,"location_history":"[8,5,9,6,10,2,6,11]","action_history":"[0,1,0,1,1,0,0]","door_history":"[1,0,1,0,0,1,1]","location_rts":"[768,272,290,345,329,237,327]","trial_type":"two-door-navigation","trial_index":15,"time_elapsed":4276380,"internal_node_id":"0.0-2.0-13.0"},{"group":"dicyclic group of order 12","room_assignment":["orange","red","olive","blue","grey","yellow","ivory","brown","green","cyan","purple","pink"],"door_color_assignment":["black","white"],"door_generator_assignment":[1,0],"goal":6,"start":11,"action_noise":0.15,"location_history":"[11,3,7,8,0,1,2,6]","action_history":"[1,1,0,1,0,0,1]","door_history":"[0,0,1,0,1,1,0]","location_rts":"[1187,1199,61,983,303,311,347]","trial_type":"two-door-navigation","trial_index":16,"time_elapsed":4291474,"internal_node_id":"0.0-2.0-14.0"},{"group":"dicyclic group of order 12","room_assignment":["orange","red","olive","blue","grey","yellow","ivory","brown","green","cyan","purple","pink"],"door_color_assignment":["black","white"],"door_generator_assignment":[1,0],"goal":7,"start":6,"action_noise":0.15,"location_history":"[6,10,7]","action_history":"[0,0]","door_history":"[1,1]","location_rts":"[1157,519]","trial_type":"two-door-navigation","trial_index":17,"time_elapsed":4298710,"internal_node_id":"0.0-2.0-15.0"},{"group":"dicyclic group of order 12","room_assignment":["orange","red","olive","blue","grey","yellow","ivory","brown","green","cyan","purple","pink"],"door_color_assignment":["black","white"],"door_generator_assignment":[1,0],"goal":10,"start":7,"action_noise":0.15,"location_history":"[7,8,0,1,2,3,7,8,0,1,5,10]","action_history":"[0,1,0,0,0,1,0,1,0,1,0]","door_history":"[1,0,1,1,1,0,1,0,1,0,1]","location_rts":"[1123,438,2061,3021,978,728,399,471,332,874,937]","trial_type":"two-door-navigation","trial_index":18,"time_elapsed":4324949,"internal_node_id":"0.0-2.0-16.0"},{"group":"dicyclic group of order 12","room_assignment":["orange","red","olive","blue","grey","yellow","ivory","brown","green","cyan","purple","pink"],"door_color_assignment":["black","white"],"door_generator_assignment":[1,0],"goal":0,"start":10,"action_noise":0.15,"location_history":"[10,2,6,10,7,11,3,0]","action_history":"[1,0,1,0,1,0,0]","door_history":"[0,1,0,1,0,1,1]","location_rts":"[3152,2291,109,449,181,979,635]","trial_type":"two-door-navigation","trial_index":19,"time_elapsed":4343426,"internal_node_id":"0.0-2.0-17.0"},{"group":"dicyclic group of order 12","room_assignment":["orange","red","olive","blue","grey","yellow","ivory","brown","green","cyan","purple","pink"],"door_color_assignment":["black","white"],"door_generator_assignment":[1,0],"goal":9,"start":0,"action_noise":0.15,"location_history":"[0,4,9]","action_history":"[1,0]","door_history":"[0,1]","location_rts":"[703,372]","trial_type":"two-door-navigation","trial_index":20,"time_elapsed":4350065,"internal_node_id":"0.0-2.0-18.0"},{"group":"dicyclic group of order 12","room_assignment":["orange","red","olive","blue","grey","yellow","ivory","brown","green","cyan","purple","pink"],"door_color_assignment":["black","white"],"door_generator_assignment":[1,0],"goal":4,"start":9,"action_noise":0.15,"location_history":"[9,6,10,7,11,3,7,11,4]","action_history":"[1,0,0,1,1,0,1,0]","door_history":"[0,1,1,0,0,1,0,1]","location_rts":"[615,671,901,614,491,514,4790,861]","trial_type":"two-door-navigation","trial_index":21,"time_elapsed":4371189,"internal_node_id":"0.0-2.0-19.0"},{"group":"dicyclic group of order 12","room_assignment":["orange","red","olive","blue","grey","yellow","ivory","brown","green","cyan","purple","pink"],"door_color_assignment":["black","white"],"door_generator_assignment":[1,0],"goal":2,"start":4,"action_noise":0.15,"location_history":"[4,8,5,10,7,8,0,1,2]","action_history":"[0,1,0,1,0,1,0,1]","door_history":"[1,0,1,0,1,0,1,0]","location_rts":"[623,47,242,183,292,226,238,5052]","trial_type":"two-door-navigation","trial_index":22,"time_elapsed":4389790,"internal_node_id":"0.0-2.0-20.0"},{"group":"dicyclic group of order 12","room_assignment":["orange","red","olive","blue","grey","yellow","ivory","brown","green","cyan","purple","pink"],"door_color_assignment":["black","white"],"door_generator_assignment":[1,0],"goal":1,"start":2,"action_noise":0.15,"location_history":"[2,3,7,8,0,1]","action_history":"[0,1,0,1,0]","door_history":"[1,0,1,0,1]","location_rts":"[298,285,1183,103,1149]","trial_type":"two-door-navigation","trial_index":23,"time_elapsed":4401489,"internal_node_id":"0.0-2.0-21.0"},{"group":"dicyclic group of order 12","room_assignment":["orange","red","olive","blue","grey","yellow","ivory","brown","green","cyan","purple","pink"],"door_color_assignment":["black","white"],"door_generator_assignment":[1,0],"goal":3,"start":1,"action_noise":0.15,"location_history":"[1,2,6,11,3]","action_history":"[0,1,0,1]","door_history":"[1,0,1,0]","location_rts":"[771,302,876,871]","trial_type":"two-door-navigation","trial_index":24,"time_elapsed":4411932,"internal_node_id":"0.0-2.0-22.0"},{"group":"dicyclic group of order 12","room_assignment":["orange","red","olive","blue","grey","yellow","ivory","brown","green","cyan","purple","pink"],"door_color_assignment":["black","white"],"door_generator_assignment":[1,0],"goal":7,"start":3,"action_noise":0.15,"location_history":"[3,0,4,9,1,2,6,10,2,3,0,1,5,10,2,6,11,3,0,4,9,6,11,4,9,1,5,10,7]","action_history":"[0,1,0,1,0,0,1,0,1,0,0,1,0,1,1,1,1,1,1,0,0,0,0,0,0,0,0,0]","door_history":"[1,0,1,0,1,1,0,1,0,1,1,0,1,0,0,0,0,0,0,1,1,1,1,1,1,1,1,1]","location_rts":"[6316,280,545,130,1232,986,732,118,209,48,2045,657,368,255,402,202,265,446,286,513,48,214,477,17756,307,320,340,217]","trial_type":"two-door-navigation","trial_index":25,"time_elapsed":4479979,"internal_node_id":"0.0-2.0-23.0"},{"group":"dicyclic group of order 12","room_assignment":["orange","red","olive","blue","grey","yellow","ivory","brown","green","cyan","purple","pink"],"door_color_assignment":["black","white"],"door_generator_assignment":[1,0],"goal":6,"start":7,"action_noise":0.15,"location_history":"[7,8,5,10,7,11,4,8,5,9,1,2,3,0,1,2,3,0,1,5,10,2,3,0,1,5,9,1,5,9,1,5,10,7,8,5,9,6]","action_history":"[0,0,0,0,1,0,1,1,0,1,0,0,0,0,0,0,0,1,1,1,0,0,0,0,0,1,1,1,1,1,1,0,0,0,0,1,1]","door_history":"[1,1,1,1,0,1,0,0,1,0,1,1,1,1,1,1,1,0,0,0,1,1,1,1,1,0,0,0,0,0,0,1,1,1,1,0,0]","location_rts":"[5669,604,999,275,1020,504,256,675,259,580,13261,903,260,343,655,356,907,1608,2120,147,845,199,165,150,322,1216,948,1470,148,491,157,431,1542,893,729,760,40]","trial_type":"two-door-navigation","trial_index":26,"time_elapsed":4563353,"internal_node_id":"0.0-2.0-24.0"},{"group":"dicyclic group of order 12","room_assignment":["orange","red","olive","blue","grey","yellow","ivory","brown","green","cyan","purple","pink"],"door_color_assignment":["black","white"],"door_generator_assignment":[1,0],"goal":2,"start":6,"action_noise":0.15,"location_history":"[6,11,4,9,6,11,3,7,11,3,0,4,8,5,9,1,5,10,2]","action_history":"[0,0,0,0,0,1,1,1,1,1,1,1,0,1,0,1,0,1]","door_history":"[1,1,1,1,1,0,0,0,0,0,0,0,1,0,1,0,1,0]","location_rts":"[1118,296,311,324,315,306,252,305,272,363,375,184,1105,561,1497,697,624,464]","trial_type":"two-door-navigation","trial_index":27,"time_elapsed":4594762,"internal_node_id":"0.0-2.0-25.0"},{"group":"dicyclic group of order 12","room_assignment":["orange","red","olive","blue","grey","yellow","ivory","brown","green","cyan","purple","pink"],"door_color_assignment":["black","white"],"door_generator_assignment":[1,0],"goal":8,"start":2,"action_noise":0.15,"location_history":"[2,6,10,7,8]","action_history":"[1,1,0,0]","door_history":"[0,0,1,1]","location_rts":"[1427,346,859,276]","trial_type":"two-door-navigation","trial_index":28,"time_elapsed":4605292,"internal_node_id":"0.0-2.0-26.0"},{"group":"dicyclic group of order 12","room_assignment":["orange","red","olive","blue","grey","yellow","ivory","brown","green","cyan","purple","pink"],"door_color_assignment":["black","white"],"door_generator_assignment":[1,0],"goal":0,"start":8,"action_noise":0.15,"location_history":"[8,5,10,7,11,3,7,11,3,7,11,3,7,11,4,9,1,2,6,11,3,0]","action_history":"[0,0,1,1,1,1,1,1,1,1,1,1,1,0,0,1,0,1,0,1,0]","door_history":"[1,1,0,0,0,0,0,0,0,0,0,0,0,1,1,0,1,0,1,0,1]","location_rts":"[524,405,1625,14832,385,526,317,650,190,320,782,398,327,109,323,436,224,286,115,1499,578]","trial_type":"two-door-navigation","trial_index":29,"time_elapsed":4655249,"internal_node_id":"0.0-2.0-27.0"},{"group":"dicyclic group of order 12","room_assignment":["orange","red","olive","blue","grey","yellow","ivory","brown","green","cyan","purple","pink"],"door_color_assignment":["black","white"],"door_generator_assignment":[1,0],"goal":3,"start":0,"action_noise":0.15,"location_history":"[0,4,8,0,1,5,9,1,2,3]","action_history":"[1,1,1,1,1,1,1,0,1]","door_history":"[0,0,0,0,0,0,0,1,0]","location_rts":"[10457,490,628,58,1365,1759,667,375,876]","trial_type":"two-door-navigation","trial_index":30,"time_elapsed":4684656,"internal_node_id":"0.0-2.0-28.0"},{"group":"dicyclic group of order 12","room_assignment":["orange","red","olive","blue","grey","yellow","ivory","brown","green","cyan","purple","pink"],"door_color_assignment":["black","white"],"door_generator_assignment":[1,0],"goal":4,"start":3,"action_noise":0.15,"location_history":"[3,7,11,4]","action_history":"[1,1,0]","door_history":"[0,0,1]","location_rts":"[990,582,1378]","trial_type":"two-door-navigation","trial_index":31,"time_elapsed":4694202,"internal_node_id":"0.0-2.0-29.0"},{"group":"dicyclic group of order 12","room_assignment":["orange","red","olive","blue","grey","yellow","ivory","brown","green","cyan","purple","pink"],"door_color_assignment":["black","white"],"door_generator_assignment":[1,0],"goal":10,"start":4,"action_noise":0.15,"location_history":"[4,9,6,10]","action_history":"[0,0,0]","door_history":"[1,1,1]","location_rts":"[333,311,235]","trial_type":"two-door-navigation","trial_index":32,"time_elapsed":4701691,"internal_node_id":"0.0-2.0-30.0"},{"group":"dicyclic group of order 12","room_assignment":["orange","red","olive","blue","grey","yellow","ivory","brown","green","cyan","purple","pink"],"door_color_assignment":["black","white"],"door_generator_assignment":[1,0],"goal":11,"start":10,"action_noise":0.15,"location_history":"[10,2,3,0,1,5,9,6,11]","action_history":"[1,0,0,0,1,1,0,0]","door_history":"[0,1,1,1,0,0,1,1]","location_rts":"[866,751,297,247,1540,1817,283,236]","trial_type":"two-door-navigation","trial_index":33,"time_elapsed":4719498,"internal_node_id":"0.0-2.0-31.0"},{"group":"dicyclic group of order 12","room_assignment":["orange","red","olive","blue","grey","yellow","ivory","brown","green","cyan","purple","pink"],"door_color_assignment":["black","white"],"door_generator_assignment":[1,0],"goal":1,"start":11,"action_noise":0.15,"location_history":"[11,4,9,6,10,2,3,0,1]","action_history":"[0,0,1,1,0,0,0,0]","door_history":"[1,1,0,0,1,1,1,1]","location_rts":"[823,302,637,344,11836,393,722,498]","trial_type":"two-door-navigation","trial_index":34,"time_elapsed":4746820,"internal_node_id":"0.0-2.0-32.0"},{"group":"dicyclic group of order 12","room_assignment":["orange","red","olive","blue","grey","yellow","ivory","brown","green","cyan","purple","pink"],"door_color_assignment":["black","white"],"door_generator_assignment":[1,0],"goal":5,"start":1,"action_noise":0.15,"location_history":"[1,5]","action_history":"[1]","door_history":"[0]","location_rts":"[1094]","trial_type":"two-door-navigation","trial_index":35,"time_elapsed":4752437,"internal_node_id":"0.0-2.0-33.0"},{"group":"dicyclic group of order 12","room_assignment":["orange","red","olive","blue","grey","yellow","ivory","brown","green","cyan","purple","pink"],"door_color_assignment":["black","white"],"door_generator_assignment":[1,0],"goal":9,"start":5,"action_noise":0.15,"location_history":"[5,9]","action_history":"[1]","door_history":"[0]","location_rts":"[1674]","trial_type":"two-door-navigation","trial_index":36,"time_elapsed":4758641,"internal_node_id":"0.0-2.0-34.0"},{"view_history":"[{\"page_index\":0,\"viewing_time\":4237}]","rt":4239,"trial_type":"instructions","trial_index":37,"time_elapsed":4763881,"internal_node_id":"0.0-3.0"},{"view_history":"[{\"page_index\":0,\"viewing_time\":3677},{\"page_index\":1,\"viewing_time\":34080}]","rt":37757,"trial_type":"instructions","trial_index":38,"time_elapsed":4802639,"internal_node_id":"0.0-4.0"},{"group":"dicyclic group of order 12","fractal_assignment":["../images/gry_blk.png","../images/grn_prp.png","../images/grn_red.png","../images/pnk_blu.png","../images/ylw_pnk.png","../images/ylw_slt.png","../images/org_blu.png","../images/cyn_red.png","../images/red_prp.png","../images/grn_blu.png","../images/blu_wht.png","../images/wht_red.png"],"mutagen_generator_assignment":[0,1],"goal":4,"start":0,"action_noise":0.15,"location_history":"[0,4]","action_history":"[1]","mutagen_history":"[1]","location_rts":"[51073]","trial_type":"fractal-mutation","trial_index":39,"time_elapsed":4858424,"internal_node_id":"0.0-5.0-0.0"},{"group":"dicyclic group of order 12","fractal_assignment":["../images/gry_blk.png","../images/grn_prp.png","../images/grn_red.png","../images/pnk_blu.png","../images/ylw_pnk.png","../images/ylw_slt.png","../images/org_blu.png","../images/cyn_red.png","../images/red_prp.png","../images/grn_blu.png","../images/blu_wht.png","../images/wht_red.png"],"mutagen_generator_assignment":[0,1],"goal":9,"start":4,"action_noise":0.15,"location_history":"[4,8,5,10,2,3,0,1,5,9]","action_history":"[1,0,1,1,0,0,0,1,1]","mutagen_history":"[1,0,1,1,0,0,0,1,1]","location_rts":"[2845,3509,5311,1739,1048,4520,1529,3852,1186]","trial_type":"fractal-mutation","trial_index":40,"time_elapsed":4897838,"internal_node_id":"0.0-5.0-1.0"},{"group":"dicyclic group of order 12","fractal_assignment":["../images/gry_blk.png","../images/grn_prp.png","../images/grn_red.png","../images/pnk_blu.png","../images/ylw_pnk.png","../images/ylw_slt.png","../images/org_blu.png","../images/cyn_red.png","../images/red_prp.png","../images/grn_blu.png","../images/blu_wht.png","../images/wht_red.png"],"mutagen_generator_assignment":[0,1],"goal":10,"start":9,"action_noise":0.15,"location_history":"[9,1,5,9,6,11,4,8,5,10]","action_history":"[0,1,1,0,0,1,1,0,0]","mutagen_history":"[0,1,1,0,0,1,1,0,0]","location_rts":"[2008,4603,3886,1575,2389,2112,1419,669,1210]","trial_type":"fractal-mutation","trial_index":41,"time_elapsed":4931414,"internal_node_id":"0.0-5.0-2.0"},{"group":"dicyclic group of order 12","fractal_assignment":["../images/gry_blk.png","../images/grn_prp.png","../images/grn_red.png","../images/pnk_blu.png","../images/ylw_pnk.png","../images/ylw_slt.png","../images/org_blu.png","../images/cyn_red.png","../images/red_prp.png","../images/grn_blu.png","../images/blu_wht.png","../images/wht_red.png"],"mutagen_generator_assignment":[0,1],"goal":2,"start":10,"action_noise":0.15,"location_history":"[10,7,11,3,7,11,3,0,4,8,0,1,5,9,6,11,4,9,1,5,10,7,11,3,0,1,5,9,6,10,2]","action_history":"[0,0,1,1,1,1,0,1,1,0,0,1,1,1,0,0,0,1,1,0,0,1,0,0,0,1,1,1,1,1]","mutagen_history":"[0,0,1,1,1,1,0,1,1,0,0,1,1,1,0,0,0,1,1,0,0,1,0,0,0,1,1,1,1,1]","location_rts":"[4423,3971,771,1314,478,738,14377,1051,471,1074,1205,275,890,644,1069,444,22,546,2501,981,799,722,649,643,1268,1142,1122,741,991,546]","trial_type":"fractal-mutation","trial_index":42,"time_elapsed":5018607,"internal_node_id":"0.0-5.0-3.0"},{"group":"dicyclic group of order 12","fractal_assignment":["../images/gry_blk.png","../images/grn_prp.png","../images/grn_red.png","../images/pnk_blu.png","../images/ylw_pnk.png","../images/ylw_slt.png","../images/org_blu.png","../images/cyn_red.png","../images/red_prp.png","../images/grn_blu.png","../images/blu_wht.png","../images/wht_red.png"],"mutagen_generator_assignment":[0,1],"goal":5,"start":2,"action_noise":0.15,"location_history":"[2,3,7,11,3,7,8,5]","action_history":"[0,1,1,1,0,0,0]","mutagen_history":"[0,1,1,1,0,0,0]","location_rts":"[2948,2952,1034,1188,2141,1541,945]","trial_type":"fractal-mutation","trial_index":43,"time_elapsed":5043648,"internal_node_id":"0.0-5.0-4.0"},{"group":"dicyclic group of order 12","fractal_assignment":["../images/gry_blk.png","../images/grn_prp.png","../images/grn_red.png","../images/pnk_blu.png","../images/ylw_pnk.png","../images/ylw_slt.png","../images/org_blu.png","../images/cyn_red.png","../images/red_prp.png","../images/grn_blu.png","../images/blu_wht.png","../images/wht_red.png"],"mutagen_generator_assignment":[0,1],"goal":11,"start":5,"action_noise":0.15,"location_history":"[5,9,6,10,2,3,7,8,5,10,2,3,0,4,8,5,10,7,11]","action_history":"[1,0,0,1,1,1,0,0,0,1,0,0,1,1,0,0,0,0]","mutagen_history":"[1,0,0,1,1,1,0,0,0,1,0,0,1,1,0,0,0,0]","location_rts":"[2406,4092,1584,2449,1881,4636,1413,5505,3536,1855,1903,2446,2138,1269,1261,3092,198,656]","trial_type":"fractal-mutation","trial_index":44,"time_elapsed":5112091,"internal_node_id":"0.0-5.0-5.0"},{"group":"dicyclic group of order 12","fractal_assignment":["../images/gry_blk.png","../images/grn_prp.png","../images/grn_red.png","../images/pnk_blu.png","../images/ylw_pnk.png","../images/ylw_slt.png","../images/org_blu.png","../images/cyn_red.png","../images/red_prp.png","../images/grn_blu.png","../images/blu_wht.png","../images/wht_red.png"],"mutagen_generator_assignment":[0,1],"goal":6,"start":11,"action_noise":0.15,"location_history":"[11,3,7,11,4,9,1,2,3,0,1,5,9,1,5,10,7,11,4,9,6]","action_history":"[1,1,1,1,0,1,0,0,0,0,1,1,1,1,0,0,0,0,0,0]","mutagen_history":"[1,1,1,1,0,1,0,0,0,0,1,1,1,1,0,0,0,0,0,0]","location_rts":"[2525,572,428,394,1018,1757,1041,1665,547,8989,420,4302,141,606,4745,2017,247,21,89,1428]","trial_type":"fractal-mutation","trial_index":45,"time_elapsed":5174032,"internal_node_id":"0.0-5.0-6.0"},{"group":"dicyclic group of order 12","fractal_assignment":["../images/gry_blk.png","../images/grn_prp.png","../images/grn_red.png","../images/pnk_blu.png","../images/ylw_pnk.png","../images/ylw_slt.png","../images/org_blu.png","../images/cyn_red.png","../images/red_prp.png","../images/grn_blu.png","../images/blu_wht.png","../images/wht_red.png"],"mutagen_generator_assignment":[0,1],"goal":3,"start":6,"action_noise":0.15,"location_history":"[6,10,2,3]","action_history":"[1,1,1]","mutagen_history":"[1,1,1]","location_rts":"[1965,16,1657]","trial_type":"fractal-mutation","trial_index":46,"time_elapsed":5185176,"internal_node_id":"0.0-5.0-7.0"},{"group":"dicyclic group of order 12","fractal_assignment":["../images/gry_blk.png","../images/grn_prp.png","../images/grn_red.png","../images/pnk_blu.png","../images/ylw_pnk.png","../images/ylw_slt.png","../images/org_blu.png","../images/cyn_red.png","../images/red_prp.png","../images/grn_blu.png","../images/blu_wht.png","../images/wht_red.png"],"mutagen_generator_assignment":[0,1],"goal":8,"start":3,"action_noise":0.15,"location_history":"[3,7,11,3,0,4,9,6,11,4,8]","action_history":"[1,1,1,1,0,0,0,0,1,1]","mutagen_history":"[1,1,1,1,0,0,0,0,1,1]","location_rts":"[1703,243,1385,1146,1753,594,1635,692,16646,1000]","trial_type":"fractal-mutation","trial_index":47,"time_elapsed":5228518,"internal_node_id":"0.0-5.0-8.0"},{"group":"dicyclic group of order 12","fractal_assignment":["../images/gry_blk.png","../images/grn_prp.png","../images/grn_red.png","../images/pnk_blu.png","../images/ylw_pnk.png","../images/ylw_slt.png","../images/org_blu.png","../images/cyn_red.png","../images/red_prp.png","../images/grn_blu.png","../images/blu_wht.png","../images/wht_red.png"],"mutagen_generator_assignment":[0,1],"goal":1,"start":8,"action_noise":0.15,"location_history":"[8,5,10,2,6,10,2,6,10,7,11,3,0,4,8,0,4,8,0,4,9,6,10,7,8,5,9,1]","action_history":"[0,0,1,1,1,1,1,1,0,0,0,0,1,1,1,1,1,1,1,1,0,0,0,0,0,1,1]","mutagen_history":"[0,0,1,1,1,1,1,1,0,0,0,0,1,1,1,1,1,1,1,1,0,0,0,0,0,1,1]","location_rts":"[876,1225,53,2653,3114,442,817,309,792,1463,4331,27626,944,2191,2750,4207,3805,308,165,1077,1560,0,173,317,542,43,531]","trial_type":"fractal-mutation","trial_index":48,"time_elapsed":5328670,"internal_node_id":"0.0-5.0-9.0"},{"group":"dicyclic group of order 12","fractal_assignment":["../images/gry_blk.png","../images/grn_prp.png","../images/grn_red.png","../images/pnk_blu.png","../images/ylw_pnk.png","../images/ylw_slt.png","../images/org_blu.png","../images/cyn_red.png","../images/red_prp.png","../images/grn_blu.png","../images/blu_wht.png","../images/wht_red.png"],"mutagen_generator_assignment":[0,1],"goal":7,"start":1,"action_noise":0.15,"location_history":"[1,5,10,7]","action_history":"[1,0,0]","mutagen_history":"[1,0,0]","location_rts":"[1112,245,739]","trial_type":"fractal-mutation","trial_index":49,"time_elapsed":5337974,"internal_node_id":"0.0-5.0-10.0"},{"group":"dicyclic group of order 12","fractal_assignment":["../images/gry_blk.png","../images/grn_prp.png","../images/grn_red.png","../images/pnk_blu.png","../images/ylw_pnk.png","../images/ylw_slt.png","../images/org_blu.png","../images/cyn_red.png","../images/red_prp.png","../images/grn_blu.png","../images/blu_wht.png","../images/wht_red.png"],"mutagen_generator_assignment":[0,1],"goal":5,"start":7,"action_noise":0.15,"location_history":"[7,11,4,9,6,10,7,8,0,4,8,5]","action_history":"[1,0,0,1,1,0,0,1,1,1,0]","mutagen_history":"[1,0,0,1,1,0,0,1,1,1,0]","location_rts":"[1653,255,34452,9331,1229,889,1018,475,687,720,1328]","trial_type":"fractal-mutation","trial_index":50,"time_elapsed":5407732,"internal_node_id":"0.0-5.0-11.0"},{"group":"dicyclic group of order 12","fractal_assignment":["../images/gry_blk.png","../images/grn_prp.png","../images/grn_red.png","../images/pnk_blu.png","../images/ylw_pnk.png","../images/ylw_slt.png","../images/org_blu.png","../images/cyn_red.png","../images/red_prp.png","../images/grn_blu.png","../images/blu_wht.png","../images/wht_red.png"],"mutagen_generator_assignment":[0,1],"goal":8,"start":5,"action_noise":0.15,"location_history":"[5,10,7,11,4,9,6,11,3,0,1,5,9,6,11,3,7,11,3,7,8]","action_history":"[0,0,1,0,0,0,0,1,0,0,1,1,0,0,1,0,1,1,1,1]","mutagen_history":"[0,0,1,0,0,0,0,1,0,0,1,1,0,0,1,0,1,1,1,1]","location_rts":"[5609,68,19563,3708,2433,1165,325,15867,1571,129,223,19527,15233,546,1172,573,235,15936,93,36]","trial_type":"fractal-mutation","trial_index":51,"time_elapsed":5540469,"internal_node_id":"0.0-5.0-12.0"},{"group":"dicyclic group of order 12","fractal_assignment":["../images/gry_blk.png","../images/grn_prp.png","../images/grn_red.png","../images/pnk_blu.png","../images/ylw_pnk.png","../images/ylw_slt.png","../images/org_blu.png","../images/cyn_red.png","../images/red_prp.png","../images/grn_blu.png","../images/blu_wht.png","../images/wht_red.png"],"mutagen_generator_assignment":[0,1],"goal":11,"start":8,"action_noise":0.15,"location_history":"[8,0,4,9,1,5,9,6,10,2,6,10,7,8,5,9,1,5,9,6,11]","action_history":"[1,1,0,1,1,1,1,1,1,1,1,1,0,1,1,0,1,1,0,0]","mutagen_history":"[1,1,0,1,1,1,1,1,1,1,1,1,0,1,1,0,1,1,0,0]","location_rts":"[2174,595,19337,1907,1350,668,394,420,28493,18,564,375,339,511,8,412,374,6707,722,2103]","trial_type":"fractal-mutation","trial_index":52,"time_elapsed":5637167,"internal_node_id":"0.0-5.0-13.0"},{"group":"dicyclic group of order 12","fractal_assignment":["../images/gry_blk.png","../images/grn_prp.png","../images/grn_red.png","../images/pnk_blu.png","../images/ylw_pnk.png","../images/ylw_slt.png","../images/org_blu.png","../images/cyn_red.png","../images/red_prp.png","../images/grn_blu.png","../images/blu_wht.png","../images/wht_red.png"],"mutagen_generator_assignment":[0,1],"goal":6,"start":11,"action_noise":0.15,"location_history":"[11,4,9,1,5,10,2,3,0,4,9,1,5,9,6]","action_history":"[0,0,1,1,0,0,0,1,1,0,1,1,1,0]","mutagen_history":"[0,0,1,1,0,0,0,1,1,0,1,1,1,0]","location_rts":"[7788,535,2802,1067,228,140,4436,6704,885,562,1382,53,640,7676]","trial_type":"fractal-mutation","trial_index":53,"time_elapsed":5693314,"internal_node_id":"0.0-5.0-14.0"},{"group":"dicyclic group of order 12","fractal_assignment":["../images/gry_blk.png","../images/grn_prp.png","../images/grn_red.png","../images/pnk_blu.png","../images/ylw_pnk.png","../images/ylw_slt.png","../images/org_blu.png","../images/cyn_red.png","../images/red_prp.png","../images/grn_blu.png","../images/blu_wht.png","../images/wht_red.png"],"mutagen_generator_assignment":[0,1],"goal":7,"start":6,"action_noise":0.15,"location_history":"[6,10,2,6,10,7]","action_history":"[1,1,1,1,0]","mutagen_history":"[1,1,1,1,0]","location_rts":"[1046,770,17,192,716]","trial_type":"fractal-mutation","trial_index":54,"time_elapsed":5706163,"internal_node_id":"0.0-5.0-15.0"},{"group":"dicyclic group of order 12","fractal_assignment":["../images/gry_blk.png","../images/grn_prp.png","../images/grn_red.png","../images/pnk_blu.png","../images/ylw_pnk.png","../images/ylw_slt.png","../images/org_blu.png","../images/cyn_red.png","../images/red_prp.png","../images/grn_blu.png","../images/blu_wht.png","../images/wht_red.png"],"mutagen_generator_assignment":[0,1],"goal":10,"start":7,"action_noise":0.15,"location_history":"[7,11,3,7,8,5,10]","action_history":"[0,1,0,0,0,0]","mutagen_history":"[0,1,0,0,0,0]","location_rts":"[83314,140,2071,5796,3704,616]","trial_type":"fractal-mutation","trial_index":55,"time_elapsed":5812554,"internal_node_id":"0.0-5.0-16.0"},{"group":"dicyclic group of order 12","fractal_assignment":["../images/gry_blk.png","../images/grn_prp.png","../images/grn_red.png","../images/pnk_blu.png","../images/ylw_pnk.png","../images/ylw_slt.png","../images/org_blu.png","../images/cyn_red.png","../images/red_prp.png","../images/grn_blu.png","../images/blu_wht.png","../images/wht_red.png"],"mutagen_generator_assignment":[0,1],"goal":0,"start":10,"action_noise":0.15,"location_history":"[10,7,8,0]","action_history":"[0,0,1]","mutagen_history":"[0,0,1]","location_rts":"[36641,278,346]","trial_type":"fractal-mutation","trial_index":56,"time_elapsed":5856751,"internal_node_id":"0.0-5.0-17.0"},{"group":"dicyclic group of order 12","fractal_assignment":["../images/gry_blk.png","../images/grn_prp.png","../images/grn_red.png","../images/pnk_blu.png","../images/ylw_pnk.png","../images/ylw_slt.png","../images/org_blu.png","../images/cyn_red.png","../images/red_prp.png","../images/grn_blu.png","../images/blu_wht.png","../images/wht_red.png"],"mutagen_generator_assignment":[0,1],"goal":9,"start":0,"action_noise":0.15,"location_history":"[0,4,8,0,4,9]","action_history":"[1,0,1,0,0]","mutagen_history":"[1,0,1,0,0]","location_rts":"[453,472,1995,1651,1007]","trial_type":"fractal-mutation","trial_index":57,"time_elapsed":5872218,"internal_node_id":"0.0-5.0-18.0"},{"group":"dicyclic group of order 12","fractal_assignment":["../images/gry_blk.png","../images/grn_prp.png","../images/grn_red.png","../images/pnk_blu.png","../images/ylw_pnk.png","../images/ylw_slt.png","../images/org_blu.png","../images/cyn_red.png","../images/red_prp.png","../images/grn_blu.png","../images/blu_wht.png","../images/wht_red.png"],"mutagen_generator_assignment":[0,1],"goal":4,"start":9,"action_noise":0.15,"location_history":"[9,6,11,4]","action_history":"[0,0,0]","mutagen_history":"[0,0,0]","location_rts":"[2489,1321,988]","trial_type":"fractal-mutation","trial_index":58,"time_elapsed":5883892,"internal_node_id":"0.0-5.0-19.0"},{"group":"dicyclic group of order 12","fractal_assignment":["../images/gry_blk.png","../images/grn_prp.png","../images/grn_red.png","../images/pnk_blu.png","../images/ylw_pnk.png","../images/ylw_slt.png","../images/org_blu.png","../images/cyn_red.png","../images/red_prp.png","../images/grn_blu.png","../images/blu_wht.png","../images/wht_red.png"],"mutagen_generator_assignment":[0,1],"goal":2,"start":4,"action_noise":0.15,"location_history":"[4,9,6,11,4,9,6,10,7,8,5,10,7,11,4,8,5,10,2]","action_history":"[0,0,0,0,0,0,1,0,0,0,0,1,0,0,1,0,0,1]","mutagen_history":"[0,0,0,0,0,0,1,0,0,0,0,1,0,0,1,0,0,1]","location_rts":"[1465,592,630,1109,2472,2912,2856,1375,627,802,1279,10205,1943,432,2087,2594,819,1049]","trial_type":"fractal-mutation","trial_index":59,"time_elapsed":5944362,"internal_node_id":"0.0-5.0-20.0"},{"group":"dicyclic group of order 12","fractal_assignment":["../images/gry_blk.png","../images/grn_prp.png","../images/grn_red.png","../images/pnk_blu.png","../images/ylw_pnk.png","../images/ylw_slt.png","../images/org_blu.png","../images/cyn_red.png","../images/red_prp.png","../images/grn_blu.png","../images/blu_wht.png","../images/wht_red.png"],"mutagen_generator_assignment":[0,1],"goal":1,"start":2,"action_noise":0.15,"location_history":"[2,6,11,3,0,1]","action_history":"[1,0,0,0,0]","mutagen_history":"[1,0,0,0,0]","location_rts":"[2618,1183,29,451,532]","trial_type":"fractal-mutation","trial_index":60,"time_elapsed":5958945,"internal_node_id":"0.0-5.0-21.0"},{"group":"dicyclic group of order 12","fractal_assignment":["../images/gry_blk.png","../images/grn_prp.png","../images/grn_red.png","../images/pnk_blu.png","../images/ylw_pnk.png","../images/ylw_slt.png","../images/org_blu.png","../images/cyn_red.png","../images/red_prp.png","../images/grn_blu.png","../images/blu_wht.png","../images/wht_red.png"],"mutagen_generator_assignment":[0,1],"goal":3,"start":1,"action_noise":0.15,"location_history":"[1,2,3]","action_history":"[0,0]","mutagen_history":"[0,0]","location_rts":"[11031,1195]","trial_type":"fractal-mutation","trial_index":61,"time_elapsed":5976886,"internal_node_id":"0.0-5.0-22.0"},{"group":"dicyclic group of order 12","fractal_assignment":["../images/gry_blk.png","../images/grn_prp.png","../images/grn_red.png","../images/pnk_blu.png","../images/ylw_pnk.png","../images/ylw_slt.png","../images/org_blu.png","../images/cyn_red.png","../images/red_prp.png","../images/grn_blu.png","../images/blu_wht.png","../images/wht_red.png"],"mutagen_generator_assignment":[0,1],"goal":7,"start":3,"action_noise":0.15,"location_history":"[3,0,4,8,5,10,2,3,0,1,5,10,7]","action_history":"[1,1,1,0,0,1,0,0,0,0,0,0]","mutagen_history":"[1,1,1,0,0,1,0,0,0,0,0,0]","location_rts":"[1226,11469,0,633,288,66,5972,618,449,33,491,455]","trial_type":"fractal-mutation","trial_index":62,"time_elapsed":6016939,"internal_node_id":"0.0-5.0-23.0"},{"group":"dicyclic group of order 12","fractal_assignment":["../images/gry_blk.png","../images/grn_prp.png","../images/grn_red.png","../images/pnk_blu.png","../images/ylw_pnk.png","../images/ylw_slt.png","../images/org_blu.png","../images/cyn_red.png","../images/red_prp.png","../images/grn_blu.png","../images/blu_wht.png","../images/wht_red.png"],"mutagen_generator_assignment":[0,1],"goal":6,"start":7,"action_noise":0.15,"location_history":"[7,11,3,7,8,5,10,2,6]","action_history":"[1,0,0,0,0,0,1,1]","mutagen_history":"[1,0,0,0,0,0,1,1]","location_rts":"[29386,3892,70,447,1484,271,10820,95]","trial_type":"fractal-mutation","trial_index":63,"time_elapsed":6076807,"internal_node_id":"0.0-5.0-24.0"},{"group":"dicyclic group of order 12","fractal_assignment":["../images/gry_blk.png","../images/grn_prp.png","../images/grn_red.png","../images/pnk_blu.png","../images/ylw_pnk.png","../images/ylw_slt.png","../images/org_blu.png","../images/cyn_red.png","../images/red_prp.png","../images/grn_blu.png","../images/blu_wht.png","../images/wht_red.png"],"mutagen_generator_assignment":[0,1],"goal":2,"start":6,"action_noise":0.15,"location_history":"[6,11,4,8,0,1,5,10,7,8,5,10,2]","action_history":"[0,0,0,0,0,1,0,0,0,0,0,1]","mutagen_history":"[0,0,0,0,0,1,0,0,0,0,0,1]","location_rts":"[2710,597,4228,1353,486,835,454,635,2,415,405,775]","trial_type":"fractal-mutation","trial_index":64,"time_elapsed":6107372,"internal_node_id":"0.0-5.0-25.0"},{"group":"dicyclic group of order 12","fractal_assignment":["../images/gry_blk.png","../images/grn_prp.png","../images/grn_red.png","../images/pnk_blu.png","../images/ylw_pnk.png","../images/ylw_slt.png","../images/org_blu.png","../images/cyn_red.png","../images/red_prp.png","../images/grn_blu.png","../images/blu_wht.png","../images/wht_red.png"],"mutagen_generator_assignment":[0,1],"goal":8,"start":2,"action_noise":0.15,"location_history":"[2,6,11,4,9,6,10,2,3,0,1,5,10,7,8]","action_history":"[1,0,0,0,0,0,1,0,0,0,0,0,0,0]","mutagen_history":"[1,0,0,0,0,0,1,0,0,0,0,0,0,0]","location_rts":"[3618,1305,674,532,657,1453,1599,426,684,586,20290,1839,0,409]","trial_type":"fractal-mutation","trial_index":65,"time_elapsed":6161918,"internal_node_id":"0.0-5.0-26.0"},{"group":"dicyclic group of order 12","fractal_assignment":["../images/gry_blk.png","../images/grn_prp.png","../images/grn_red.png","../images/pnk_blu.png","../images/ylw_pnk.png","../images/ylw_slt.png","../images/org_blu.png","../images/cyn_red.png","../images/red_prp.png","../images/grn_blu.png","../images/blu_wht.png","../images/wht_red.png"],"mutagen_generator_assignment":[0,1],"goal":0,"start":8,"action_noise":0.15,"location_history":"[8,0]","action_history":"[1]","mutagen_history":"[1]","location_rts":"[468]","trial_type":"fractal-mutation","trial_index":66,"time_elapsed":6167116,"internal_node_id":"0.0-5.0-27.0"},{"group":"dicyclic group of order 12","fractal_assignment":["../images/gry_blk.png","../images/grn_prp.png","../images/grn_red.png","../images/pnk_blu.png","../images/ylw_pnk.png","../images/ylw_slt.png","../images/org_blu.png","../images/cyn_red.png","../images/red_prp.png","../images/grn_blu.png","../images/blu_wht.png","../images/wht_red.png"],"mutagen_generator_assignment":[0,1],"goal":3,"start":0,"action_noise":0.15,"location_history":"[0,4,9,6,11,4,9,1,5,9,1,2,6,11,4,9,6,11,4,8,0,1,2,3]","action_history":"[1,1,0,0,0,0,1,1,1,1,0,0,0,1,0,0,0,0,1,1,0,0,0]","mutagen_history":"[1,1,0,0,0,0,1,1,1,1,0,0,0,1,0,0,0,0,1,1,0,0,0]","location_rts":"[529,19,88,414,449,799,875,468,10845,8321,1639,636,526,776,546,33,545,557,891,431,174,441,407]","trial_type":"fractal-mutation","trial_index":67,"time_elapsed":6229924,"internal_node_id":"0.0-5.0-28.0"},{"group":"dicyclic group of order 12","fractal_assignment":["../images/gry_blk.png","../images/grn_prp.png","../images/grn_red.png","../images/pnk_blu.png","../images/ylw_pnk.png","../images/ylw_slt.png","../images/org_blu.png","../images/cyn_red.png","../images/red_prp.png","../images/grn_blu.png","../images/blu_wht.png","../images/wht_red.png"],"mutagen_generator_assignment":[0,1],"goal":4,"start":3,"action_noise":0.15,"location_history":"[3,0,4]","action_history":"[0,1]","mutagen_history":"[0,1]","location_rts":"[2814,134]","trial_type":"fractal-mutation","trial_index":68,"time_elapsed":6238732,"internal_node_id":"0.0-5.0-29.0"},{"group":"dicyclic group of order 12","fractal_assignment":["../images/gry_blk.png","../images/grn_prp.png","../images/grn_red.png","../images/pnk_blu.png","../images/ylw_pnk.png","../images/ylw_slt.png","../images/org_blu.png","../images/cyn_red.png","../images/red_prp.png","../images/grn_blu.png","../images/blu_wht.png","../images/wht_red.png"],"mutagen_generator_assignment":[0,1],"goal":10,"start":4,"action_noise":0.15,"location_history":"[4,9,6,11,4,9,6,11,4,9,1,5,9,1,5,9,1,5,10]","action_history":"[0,0,0,0,0,0,0,0,1,1,1,1,1,1,1,1,1,0]","mutagen_history":"[0,0,0,0,0,0,0,0,1,1,1,1,1,1,1,1,1,0]","location_rts":"[486,198,396,461,318,10235,132,217,1685,430,604,191,152,1827,1315,2746,516,635]","trial_type":"fractal-mutation","trial_index":69,"time_elapsed":6286728,"internal_node_id":"0.0-5.0-30.0"},{"group":"dicyclic group of order 12","fractal_assignment":["../images/gry_blk.png","../images/grn_prp.png","../images/grn_red.png","../images/pnk_blu.png","../images/ylw_pnk.png","../images/ylw_slt.png","../images/org_blu.png","../images/cyn_red.png","../images/red_prp.png","../images/grn_blu.png","../images/blu_wht.png","../images/wht_red.png"],"mutagen_generator_assignment":[0,1],"goal":11,"start":10,"action_noise":0.15,"location_history":"[10,2,3,0,1,5,10,7,8,0,4,8,0,1,5,9,1,2,3,0,4,8,5,10,7,11]","action_history":"[0,0,0,0,1,0,1,0,0,1,1,1,0,1,1,1,0,0,0,1,0,0,0,0,0]","mutagen_history":"[0,0,0,0,1,0,1,0,0,1,1,1,0,1,1,1,0,0,0,1,0,0,0,0,0]","location_rts":"[1401,105,1322,307,38,875,405,187,174,213,152,260,360,213,110,459,437,74,490,299,1599,0,1727,327,218]","trial_type":"fractal-mutation","trial_index":70,"time_elapsed":6332178,"internal_node_id":"0.0-5.0-31.0"},{"group":"dicyclic group of order 12","fractal_assignment":["../images/gry_blk.png","../images/grn_prp.png","../images/grn_red.png","../images/pnk_blu.png","../images/ylw_pnk.png","../images/ylw_slt.png","../images/org_blu.png","../images/cyn_red.png","../images/red_prp.png","../images/grn_blu.png","../images/blu_wht.png","../images/wht_red.png"],"mutagen_generator_assignment":[0,1],"goal":1,"start":11,"action_noise":0.15,"location_history":"[11,3,7,11,3,7,8,5,9,1]","action_history":"[1,1,1,1,1,0,0,1,1]","mutagen_history":"[1,1,1,1,1,0,0,1,1]","location_rts":"[977,52,523,105,848,12743,5,255,305]","trial_type":"fractal-mutation","trial_index":71,"time_elapsed":6363102,"internal_node_id":"0.0-5.0-32.0"},{"group":"dicyclic group of order 12","fractal_assignment":["../images/gry_blk.png","../images/grn_prp.png","../images/grn_red.png","../images/pnk_blu.png","../images/ylw_pnk.png","../images/ylw_slt.png","../images/org_blu.png","../images/cyn_red.png","../images/red_prp.png","../images/grn_blu.png","../images/blu_wht.png","../images/wht_red.png"],"mutagen_generator_assignment":[0,1],"goal":5,"start":1,"action_noise":0.15,"location_history":"[1,2,3,0,1,5]","action_history":"[0,0,0,0,1]","mutagen_history":"[0,0,0,0,1]","location_rts":"[30455,442,21,839,1626]","trial_type":"fractal-mutation","trial_index":72,"time_elapsed":6405634,"internal_node_id":"0.0-5.0-33.0"},{"group":"dicyclic group of order 12","fractal_assignment":["../images/gry_blk.png","../images/grn_prp.png","../images/grn_red.png","../images/pnk_blu.png","../images/ylw_pnk.png","../images/ylw_slt.png","../images/org_blu.png","../images/cyn_red.png","../images/red_prp.png","../images/grn_blu.png","../images/blu_wht.png","../images/wht_red.png"],"mutagen_generator_assignment":[0,1],"goal":9,"start":5,"action_noise":0.15,"location_history":"[5,9]","action_history":"[1]","mutagen_history":"[1]","location_rts":"[2342]","trial_type":"fractal-mutation","trial_index":73,"time_elapsed":6412857,"internal_node_id":"0.0-5.0-34.0"},{"view_history":"[{\"page_index\":0,\"viewing_time\":7806}]","rt":7806,"trial_type":"instructions","trial_index":74,"time_elapsed":6421663,"internal_node_id":"0.0-6.0"},{"rt":1915,"responses":"{\"Q0\":\"\"}","trial_type":"survey-text","trial_index":75,"time_elapsed":6424585,"internal_node_id":"0.0-7.0"}]