[{"view_history":"[{\"page_index\":0,\"viewing_time\":965},{\"page_index\":1,\"viewing_time\":19373},{\"page_index\":2,\"viewing_time\":22301},{\"page_index\":3,\"viewing_time\":47711}]","rt":90350,"trial_type":"instructions","trial_index":0,"time_elapsed":90351,"internal_node_id":"0.0-0.0"},{"view_history":"[{\"page_index\":0,\"viewing_time\":2534},{\"page_index\":1,\"viewing_time\":30883}]","rt":33418,"trial_type":"instructions","trial_index":1,"time_elapsed":124769,"internal_node_id":"0.0-1.0"},{"group":"dicyclic group of order 12","room_assignment":["yellow","ivory","orange","pink","green","brown","blue","olive","purple","grey","red","cyan"],"door_color_assignment":["black","white"],"door_generator_assignment":[1,0],"goal":4,"start":0,"action_noise":0.15,"location_history":"[0,1,2,6,10,2,6,11,3,7,8,5,10,7,11,4]","action_history":"[0,0,0,1,0,1,0,0,0,0,1,1,0,1,1]","door_history":"[1,1,1,0,1,0,1,1,1,1,0,0,1,0,0]","location_rts":"[3230,3540,5250,1280,2691,1842,1058,2742,2486,5699,1179,1069,1217,877,1130]","trial_type":"two-door-navigation","trial_index":2,"time_elapsed":178667,"internal_node_id":"0.0-2.0-0.0"},{"group":"dicyclic group of order 12","room_assignment":["yellow","ivory","orange","pink","green","brown","blue","olive","purple","grey","red","cyan"],"door_color_assignment":["black","white"],"door_generator_assignment":[1,0],"goal":9,"start":4,"action_noise":0.15,"location_history":"[4,9]","action_history":"[1]","door_history":"[0]","location_rts":"[2290]","trial_type":"two-door-navigation","trial_index":3,"time_elapsed":185468,"internal_node_id":"0.0-2.0-1.0"},{"group":"dicyclic group of order 12","room_assignment":["yellow","ivory","orange","pink","green","brown","blue","olive","purple","grey","red","cyan"],"door_color_assignment":["black","white"],"door_generator_assignment":[1,0],"goal":10,"start":9,"action_noise":0.15,"location_history":"[9,6,11,4,9,6,11,4,9,1,2,6,11,3,0,4,9,6,10]","action_history":"[0,0,0,0,0,0,0,0,1,0,0,0,1,0,0,0,0,1]","door_history":"[1,1,1,1,1,1,1,1,0,1,1,1,0,1,1,1,1,0]","location_rts":"[2662,505,435,486,1894,450,1200,994,816,707,424,667,437,649,429,392,527,1360]","trial_type":"two-door-navigation","trial_index":4,"time_elapsed":222102,"internal_node_id":"0.0-2.0-2.0"},{"group":"dicyclic group of order 12","room_assignment":["yellow","ivory","orange","pink","green","brown","blue","olive","purple","grey","red","cyan"],"door_color_assignment":["black","white"],"door_generator_assignment":[1,0],"goal":2,"start":10,"action_noise":0.15,"location_history":"[10,2]","action_history":"[1]","door_history":"[0]","location_rts":"[1777]","trial_type":"two-door-navigation","trial_index":5,"time_elapsed":228388,"internal_node_id":"0.0-2.0-3.0"},{"group":"dicyclic group of order 12","room_assignment":["yellow","ivory","orange","pink","green","brown","blue","olive","purple","grey","red","cyan"],"door_color_assignment":["black","white"],"door_generator_assignment":[1,0],"goal":5,"start":2,"action_noise":0.15,"location_history":"[2,6,11,4,9,6,11,4,9,1,5]","action_history":"[0,0,0,0,0,0,0,0,1,1]","door_history":"[1,1,1,1,1,1,1,1,0,0]","location_rts":"[2203,393,410,508,456,803,619,604,354,1179]","trial_type":"two-door-navigation","trial_index":6,"time_elapsed":249488,"internal_node_id":"0.0-2.0-4.0"},{"group":"dicyclic group of order 12","room_assignment":["yellow","ivory","orange","pink","green","brown","blue","olive","purple","grey","red","cyan"],"door_color_assignment":["black","white"],"door_generator_assignment":[1,0],"goal":11,"start":5,"action_noise":0.15,"location_history":"[5,9,6,11]","action_history":"[1,0,0]","door_history":"[0,1,1]","location_rts":"[2351,503,500]","trial_type":"two-door-navigation","trial_index":7,"time_elapsed":259359,"internal_node_id":"0.0-2.0-5.0"},{"group":"dicyclic group of order 12","room_assignment":["yellow","ivory","orange","pink","green","brown","blue","olive","purple","grey","red","cyan"],"door_color_assignment":["black","white"],"door_generator_assignment":[1,0],"goal":6,"start":11,"action_noise":0.15,"location_history":"[11,4,9,6]","action_history":"[0,0,0]","door_history":"[1,1,1]","location_rts":"[1634,399,395]","trial_type":"two-door-navigation","trial_index":8,"time_elapsed":268304,"internal_node_id":"0.0-2.0-6.0"},{"group":"dicyclic group of order 12","room_assignment":["yellow","ivory","orange","pink","green","brown","blue","olive","purple","grey","red","cyan"],"door_color_assignment":["black","white"],"door_generator_assignment":[1,0],"goal":3,"start":6,"action_noise":0.15,"location_history":"[6,10,7,8,5,9,6,10,7,11,4,8,0,1,5,10,2,3]","action_history":"[1,0,0,0,1,0,1,0,1,1,1,1,0,1,0,1,0]","door_history":"[0,1,1,1,0,1,0,1,0,0,0,0,1,0,1,0,1]","location_rts":"[2049,1477,447,669,1226,430,1027,435,480,381,470,842,672,812,702,638,529]","trial_type":"two-door-navigation","trial_index":9,"time_elapsed":302193,"internal_node_id":"0.0-2.0-7.0"},{"group":"dicyclic group of order 12","room_assignment":["yellow","ivory","orange","pink","green","brown","blue","olive","purple","grey","red","cyan"],"door_color_assignment":["black","white"],"door_generator_assignment":[1,0],"goal":8,"start":3,"action_noise":0.15,"location_history":"[3,0,1,2,3,7,11,3,0,1,2,3,0,4,9,6,11,4,9,6,10,7,11,4,9,1,5,9,1,5,10,7,11,4,8]","action_history":"[0,0,0,0,1,1,0,0,0,0,0,0,1,0,0,0,0,0,0,1,0,0,0,1,1,1,1,1,1,0,0,1,0,1]","door_history":"[1,1,1,1,0,0,1,1,1,1,1,1,0,1,1,1,1,1,1,0,1,1,1,0,0,0,0,0,0,1,1,0,1,0]","location_rts":"[1411,503,402,1250,267,1340,522,610,416,427,421,1849,493,945,418,272,578,492,1261,477,769,402,431,341,455,462,1074,1216,726,842,397,792,681,426]","trial_type":"two-door-navigation","trial_index":10,"time_elapsed":363273,"internal_node_id":"0.0-2.0-8.0"},{"group":"dicyclic group of order 12","room_assignment":["yellow","ivory","orange","pink","green","brown","blue","olive","purple","grey","red","cyan"],"door_color_assignment":["black","white"],"door_generator_assignment":[1,0],"goal":1,"start":8,"action_noise":0.15,"location_history":"[8,5,10,7,8,0,4,8,5,9,6,10,2,3,0,4,9,1]","action_history":"[0,0,0,0,1,0,0,0,1,0,0,1,0,0,0,0,1]","door_history":"[1,1,1,1,0,1,1,1,0,1,1,0,1,1,1,1,0]","location_rts":"[2020,1010,735,2528,1466,874,446,402,491,952,378,407,837,509,418,988,487]","trial_type":"two-door-navigation","trial_index":11,"time_elapsed":398826,"internal_node_id":"0.0-2.0-9.0"},{"group":"dicyclic group of order 12","room_assignment":["yellow","ivory","orange","pink","green","brown","blue","olive","purple","grey","red","cyan"],"door_color_assignment":["black","white"],"door_generator_assignment":[1,0],"goal":7,"start":1,"action_noise":0.15,"location_history":"[1,2,3,7]","action_history":"[0,0,1]","door_history":"[1,1,0]","location_rts":"[2765,414,406]","trial_type":"two-door-navigation","trial_index":12,"time_elapsed":408935,"internal_node_id":"0.0-2.0-10.0"},{"group":"dicyclic group of order 12","room_assignment":["yellow","ivory","orange","pink","green","brown","blue","olive","purple","grey","red","cyan"],"door_color_assignment":["black","white"],"door_generator_assignment":[1,0],"goal":5,"start":7,"action_noise":0.15,"location_history":"[7,11,3,7,11,4,8,0,1,2,6,10,2,3,7,8,0,4,8,0,1,2,3,0,1,2,6,10,7,8,5]","action_history":"[1,1,1,1,1,1,0,1,0,1,1,1,0,1,0,1,0,1,1,0,0,0,0,0,0,1,0,0,0,0]","door_history":"[0,0,0,0,0,0,1,0,1,0,0,0,1,0,1,0,1,0,0,1,1,1,1,1,1,0,1,1,1,1]","location_rts":"[3237,1145,426,397,358,354,384,401,576,455,1346,451,398,1790,467,738,620,722,801,497,363,358,277,363,936,1907,247,263,307,299]","trial_type":"two-door-navigation","trial_index":13,"time_elapsed":463513,"internal_node_id":"0.0-2.0-11.0"},{"group":"dicyclic group of order 12","room_assignment":["yellow","ivory","orange","pink","green","brown","blue","olive","purple","grey","red","cyan"],"door_color_assignment":["black","white"],"door_generator_assignment":[1,0],"goal":8,"start":5,"action_noise":0.15,"location_history":"[5,10,7,8]","action_history":"[0,0,0]","door_history":"[1,1,1]","location_rts":"[1891,384,490]","trial_type":"two-door-navigation","trial_index":14,"time_elapsed":472804,"internal_node_id":"0.0-2.0-12.0"},{"group":"dicyclic group of order 12","room_assignment":["yellow","ivory","orange","pink","green","brown","blue","olive","purple","grey","red","cyan"],"door_color_assignment":["black","white"],"door_generator_assignment":[1,0],"goal":11,"start":8,"action_noise":0.15,"location_history":"[8,5,9,6,10,7,8,0,1,2,3,7,8,5,9,1,2,3,0,1,2,3,0,1,2,3,7,11]","action_history":"[0,0,0,1,0,0,0,0,0,0,1,0,0,1,1,0,0,0,0,0,0,0,1,0,0,1,1]","door_history":"[1,1,1,0,1,1,1,1,1,1,0,1,1,0,0,1,1,1,1,1,1,1,0,1,1,0,0]","location_rts":"[1738,388,389,600,450,403,380,371,494,468,413,407,230,690,754,873,801,546,393,406,567,340,355,727,338,942,293]","trial_type":"two-door-navigation","trial_index":15,"time_elapsed":518222,"internal_node_id":"0.0-2.0-13.0"},{"group":"dicyclic group of order 12","room_assignment":["yellow","ivory","orange","pink","green","brown","blue","olive","purple","grey","red","cyan"],"door_color_assignment":["black","white"],"door_generator_assignment":[1,0],"goal":6,"start":11,"action_noise":0.15,"location_history":"[11,4,9,6]","action_history":"[0,0,0]","door_history":"[1,1,1]","location_rts":"[1438,359,506]","trial_type":"two-door-navigation","trial_index":16,"time_elapsed":527046,"internal_node_id":"0.0-2.0-14.0"},{"group":"dicyclic group of order 12","room_assignment":["yellow","ivory","orange","pink","green","brown","blue","olive","purple","grey","red","cyan"],"door_color_assignment":["black","white"],"door_generator_assignment":[1,0],"goal":7,"start":6,"action_noise":0.15,"location_history":"[6,10,2,6,10,7]","action_history":"[1,1,1,0,0]","door_history":"[0,0,0,1,1]","location_rts":"[1463,775,512,311,534]","trial_type":"two-door-navigation","trial_index":17,"time_elapsed":539258,"internal_node_id":"0.0-2.0-15.0"},{"group":"dicyclic group of order 12","room_assignment":["yellow","ivory","orange","pink","green","brown","blue","olive","purple","grey","red","cyan"],"door_color_assignment":["black","white"],"door_generator_assignment":[1,0],"goal":10,"start":7,"action_noise":0.15,"location_history":"[7,8,0,1,2,6,11,4,9,6,11,4,8,0,1,2,6,10]","action_history":"[0,0,0,0,1,0,0,0,0,0,0,1,0,0,0,1,1]","door_history":"[1,1,1,1,0,1,1,1,1,1,1,0,1,1,1,0,0]","location_rts":"[7888,480,403,429,398,418,344,418,366,1455,785,800,731,366,338,548,349]","trial_type":"two-door-navigation","trial_index":18,"time_elapsed":576388,"internal_node_id":"0.0-2.0-16.0"},{"group":"dicyclic group of order 12","room_assignment":["yellow","ivory","orange","pink","green","brown","blue","olive","purple","grey","red","cyan"],"door_color_assignment":["black","white"],"door_generator_assignment":[1,0],"goal":0,"start":10,"action_noise":0.15,"location_history":"[10,2,3,7,8,0]","action_history":"[0,0,0,0,1]","door_history":"[1,1,1,1,0]","location_rts":"[1395,441,442,405,438]","trial_type":"two-door-navigation","trial_index":19,"time_elapsed":588259,"internal_node_id":"0.0-2.0-17.0"},{"group":"dicyclic group of order 12","room_assignment":["yellow","ivory","orange","pink","green","brown","blue","olive","purple","grey","red","cyan"],"door_color_assignment":["black","white"],"door_generator_assignment":[1,0],"goal":9,"start":0,"action_noise":0.15,"location_history":"[0,4,8,0,4,8,0,1,2,3,0,1,2,3,0,4,9]","action_history":"[0,1,1,1,1,1,0,0,0,0,1,0,0,0,1,0]","door_history":"[1,0,0,0,0,0,1,1,1,1,0,1,1,1,0,1]","location_rts":"[4963,934,472,486,343,355,359,284,467,1333,471,624,335,432,389,576]","trial_type":"two-door-navigation","trial_index":20,"time_elapsed":620688,"internal_node_id":"0.0-2.0-18.0"},{"group":"dicyclic group of order 12","room_assignment":["yellow","ivory","orange","pink","green","brown","blue","olive","purple","grey","red","cyan"],"door_color_assignment":["black","white"],"door_generator_assignment":[1,0],"goal":4,"start":9,"action_noise":0.15,"location_history":"[9,6,11,3,0,1,5,10,7,8,5,10,2,6,11,4]","action_history":"[0,0,0,0,0,0,0,0,0,0,0,0,1,0,0]","door_history":"[1,1,1,1,1,1,1,1,1,1,1,1,0,1,1]","location_rts":"[1752,405,597,588,433,356,548,1091,647,575,398,913,437,393,452]","trial_type":"two-door-navigation","trial_index":21,"time_elapsed":648872,"internal_node_id":"0.0-2.0-19.0"},{"group":"dicyclic group of order 12","room_assignment":["yellow","ivory","orange","pink","green","brown","blue","olive","purple","grey","red","cyan"],"door_color_assignment":["black","white"],"door_generator_assignment":[1,0],"goal":2,"start":4,"action_noise":0.15,"location_history":"[4,8,5,10,7,8,0,1,2]","action_history":"[1,0,0,0,0,1,0,0]","door_history":"[0,1,1,1,1,0,1,1]","location_rts":"[1250,415,280,487,712,485,480,429]","trial_type":"two-door-navigation","trial_index":22,"time_elapsed":664961,"internal_node_id":"0.0-2.0-20.0"},{"group":"dicyclic group of order 12","room_assignment":["yellow","ivory","orange","pink","green","brown","blue","olive","purple","grey","red","cyan"],"door_color_assignment":["black","white"],"door_generator_assignment":[1,0],"goal":1,"start":2,"action_noise":0.15,"location_history":"[2,6,11,3,0,1]","action_history":"[1,0,1,0,0]","door_history":"[0,1,0,1,1]","location_rts":"[1564,861,527,557,384]","trial_type":"two-door-navigation","trial_index":23,"time_elapsed":677382,"internal_node_id":"0.0-2.0-21.0"},{"group":"dicyclic group of order 12","room_assignment":["yellow","ivory","orange","pink","green","brown","blue","olive","purple","grey","red","cyan"],"door_color_assignment":["black","white"],"door_generator_assignment":[1,0],"goal":3,"start":1,"action_noise":0.15,"location_history":"[1,5,9,1,2,3]","action_history":"[1,0,0,0,0]","door_history":"[0,1,1,1,1]","location_rts":"[1348,483,328,557,1337]","trial_type":"two-door-navigation","trial_index":24,"time_elapsed":689975,"internal_node_id":"0.0-2.0-22.0"},{"group":"dicyclic group of order 12","room_assignment":["yellow","ivory","orange","pink","green","brown","blue","olive","purple","grey","red","cyan"],"door_color_assignment":["black","white"],"door_generator_assignment":[1,0],"goal":7,"start":3,"action_noise":0.15,"location_history":"[3,0,1,2,6,11,4,8,5,10,7]","action_history":"[0,1,0,0,0,0,1,0,0,0]","door_history":"[1,0,1,1,1,1,0,1,1,1]","location_rts":"[2208,457,410,376,383,541,930,449,532,412]","trial_type":"two-door-navigation","trial_index":25,"time_elapsed":710244,"internal_node_id":"0.0-2.0-23.0"},{"group":"dicyclic group of order 12","room_assignment":["yellow","ivory","orange","pink","green","brown","blue","olive","purple","grey","red","cyan"],"door_color_assignment":["black","white"],"door_generator_assignment":[1,0],"goal":6,"start":7,"action_noise":0.15,"location_history":"[7,8,5,9,1,5,10,2,6]","action_history":"[0,0,1,1,1,0,0,1]","door_history":"[1,1,0,0,0,1,1,0]","location_rts":"[1949,1030,751,558,509,393,1754,446]","trial_type":"two-door-navigation","trial_index":26,"time_elapsed":729184,"internal_node_id":"0.0-2.0-24.0"},{"group":"dicyclic group of order 12","room_assignment":["yellow","ivory","orange","pink","green","brown","blue","olive","purple","grey","red","cyan"],"door_color_assignment":["black","white"],"door_generator_assignment":[1,0],"goal":2,"start":6,"action_noise":0.15,"location_history":"[6,11,4,9,6,11,3,0,1,2]","action_history":"[0,0,0,0,0,1,0,0,0]","door_history":"[1,1,1,1,1,0,1,1,1]","location_rts":"[1430,423,359,670,339,325,475,433,458]","trial_type":"two-door-navigation","trial_index":27,"time_elapsed":746655,"internal_node_id":"0.0-2.0-25.0"},{"group":"dicyclic group of order 12","room_assignment":["yellow","ivory","orange","pink","green","brown","blue","olive","purple","grey","red","cyan"],"door_color_assignment":["black","white"],"door_generator_assignment":[1,0],"goal":8,"start":2,"action_noise":0.15,"location_history":"[2,3,0,1,5,9,6,11,4,9,1,5,10,7,11,4,9,1,2,3,7,11,4,8]","action_history":"[0,0,0,0,1,0,0,0,0,1,0,0,0,1,0,0,0,0,0,0,1,1,1]","door_history":"[1,1,1,1,0,1,1,1,1,0,1,1,1,0,1,1,1,1,1,1,0,0,0]","location_rts":"[1644,767,388,185,383,323,328,467,404,488,373,369,659,459,367,360,375,241,376,571,671,600,548]","trial_type":"two-door-navigation","trial_index":28,"time_elapsed":784637,"internal_node_id":"0.0-2.0-26.0"},{"group":"dicyclic group of order 12","room_assignment":["yellow","ivory","orange","pink","green","brown","blue","olive","purple","grey","red","cyan"],"door_color_assignment":["black","white"],"door_generator_assignment":[1,0],"goal":0,"start":8,"action_noise":0.15,"location_history":"[8,5,9,6,11,4,9,6,10,2,3,0]","action_history":"[0,1,0,0,0,0,0,1,0,0,0]","door_history":"[1,0,1,1,1,1,1,0,1,1,1]","location_rts":"[2144,524,980,859,477,230,361,423,471,414,456]","trial_type":"two-door-navigation","trial_index":29,"time_elapsed":806537,"internal_node_id":"0.0-2.0-27.0"},{"group":"dicyclic group of order 12","room_assignment":["yellow","ivory","orange","pink","green","brown","blue","olive","purple","grey","red","cyan"],"door_color_assignment":["black","white"],"door_generator_assignment":[1,0],"goal":3,"start":0,"action_noise":0.15,"location_history":"[0,4,9,6,11,4,9,1,2,3]","action_history":"[1,0,0,0,0,0,1,0,0]","door_history":"[0,1,1,1,1,1,0,1,1]","location_rts":"[1553,564,829,415,408,847,500,404,344]","trial_type":"two-door-navigation","trial_index":30,"time_elapsed":824956,"internal_node_id":"0.0-2.0-28.0"},{"group":"dicyclic group of order 12","room_assignment":["yellow","ivory","orange","pink","green","brown","blue","olive","purple","grey","red","cyan"],"door_color_assignment":["black","white"],"door_generator_assignment":[1,0],"goal":4,"start":3,"action_noise":0.15,"location_history":"[3,7,11,4]","action_history":"[1,0,0]","door_history":"[0,1,1]","location_rts":"[1052,635,403]","trial_type":"two-door-navigation","trial_index":31,"time_elapsed":833562,"internal_node_id":"0.0-2.0-29.0"},{"group":"dicyclic group of order 12","room_assignment":["yellow","ivory","orange","pink","green","brown","blue","olive","purple","grey","red","cyan"],"door_color_assignment":["black","white"],"door_generator_assignment":[1,0],"goal":10,"start":4,"action_noise":0.15,"location_history":"[4,8,0,4,9,6,10]","action_history":"[1,0,0,0,0,0]","door_history":"[0,1,1,1,1,1]","location_rts":"[976,427,396,340,373,540]","trial_type":"two-door-navigation","trial_index":32,"time_elapsed":846147,"internal_node_id":"0.0-2.0-30.0"},{"group":"dicyclic group of order 12","room_assignment":["yellow","ivory","orange","pink","green","brown","blue","olive","purple","grey","red","cyan"],"door_color_assignment":["black","white"],"door_generator_assignment":[1,0],"goal":11,"start":10,"action_noise":0.15,"location_history":"[10,7,8,0,1,2,6,11]","action_history":"[0,0,0,0,0,1,0]","door_history":"[1,1,1,1,1,0,1]","location_rts":"[1722,458,370,524,330,278,429]","trial_type":"two-door-navigation","trial_index":33,"time_elapsed":860804,"internal_node_id":"0.0-2.0-31.0"},{"group":"dicyclic group of order 12","room_assignment":["yellow","ivory","orange","pink","green","brown","blue","olive","purple","grey","red","cyan"],"door_color_assignment":["black","white"],"door_generator_assignment":[1,0],"goal":1,"start":11,"action_noise":0.15,"location_history":"[11,4,9,6,10,7,8,0,1]","action_history":"[0,0,0,1,0,0,1,0]","door_history":"[1,1,1,0,1,1,0,1]","location_rts":"[1251,771,543,552,543,450,297,456]","trial_type":"two-door-navigation","trial_index":34,"time_elapsed":877215,"internal_node_id":"0.0-2.0-32.0"},{"group":"dicyclic group of order 12","room_assignment":["yellow","ivory","orange","pink","green","brown","blue","olive","purple","grey","red","cyan"],"door_color_assignment":["black","white"],"door_generator_assignment":[1,0],"goal":5,"start":1,"action_noise":0.15,"location_history":"[1,5]","action_history":"[0]","door_history":"[1]","location_rts":"[1220]","trial_type":"two-door-navigation","trial_index":35,"time_elapsed":882944,"internal_node_id":"0.0-2.0-33.0"},{"group":"dicyclic group of order 12","room_assignment":["yellow","ivory","orange","pink","green","brown","blue","olive","purple","grey","red","cyan"],"door_color_assignment":["black","white"],"door_generator_assignment":[1,0],"goal":9,"start":5,"action_noise":0.15,"location_history":"[5,9]","action_history":"[1]","door_history":"[0]","location_rts":"[1827]","trial_type":"two-door-navigation","trial_index":36,"time_elapsed":889279,"internal_node_id":"0.0-2.0-34.0"},{"view_history":"[{\"page_index\":0,\"viewing_time\":3905}]","rt":3905,"trial_type":"instructions","trial_index":37,"time_elapsed":894184,"internal_node_id":"0.0-3.0"},{"view_history":"[{\"page_index\":0,\"viewing_time\":4148},{\"page_index\":1,\"viewing_time\":66166}]","rt":70314,"trial_type":"instructions","trial_index":38,"time_elapsed":965498,"internal_node_id":"0.0-4.0"},{"group":"dicyclic group of order 12","fractal_assignment":["../images/grn_blu.png","../images/wht_red.png","../images/org_blu.png","../images/grn_red.png","../images/red_prp.png","../images/gry_blk.png","../images/ylw_pnk.png","../images/pnk_blu.png","../images/ylw_slt.png","../images/blu_wht.png","../images/grn_prp.png","../images/cyn_red.png"],"mutagen_generator_assignment":[1,0],"goal":4,"start":0,"action_noise":0.15,"location_history":"[0,4]","action_history":"[1]","mutagen_history":"[0]","location_rts":"[5621]","trial_type":"fractal-mutation","trial_index":39,"time_elapsed":975646,"internal_node_id":"0.0-5.0-0.0"},{"group":"dicyclic group of order 12","fractal_assignment":["../images/grn_blu.png","../images/wht_red.png","../images/org_blu.png","../images/grn_red.png","../images/red_prp.png","../images/gry_blk.png","../images/ylw_pnk.png","../images/pnk_blu.png","../images/ylw_slt.png","../images/blu_wht.png","../images/grn_prp.png","../images/cyn_red.png"],"mutagen_generator_assignment":[1,0],"goal":9,"start":4,"action_noise":0.15,"location_history":"[4,9]","action_history":"[0]","mutagen_history":"[1]","location_rts":"[2236]","trial_type":"fractal-mutation","trial_index":40,"time_elapsed":982623,"internal_node_id":"0.0-5.0-1.0"},{"group":"dicyclic group of order 12","fractal_assignment":["../images/grn_blu.png","../images/wht_red.png","../images/org_blu.png","../images/grn_red.png","../images/red_prp.png","../images/gry_blk.png","../images/ylw_pnk.png","../images/pnk_blu.png","../images/ylw_slt.png","../images/blu_wht.png","../images/grn_prp.png","../images/cyn_red.png"],"mutagen_generator_assignment":[1,0],"goal":10,"start":9,"action_noise":0.15,"location_history":"[9,6,10]","action_history":"[0,1]","mutagen_history":"[1,0]","location_rts":"[1933,511]","trial_type":"fractal-mutation","trial_index":41,"time_elapsed":990969,"internal_node_id":"0.0-5.0-2.0"},{"group":"dicyclic group of order 12","fractal_assignment":["../images/grn_blu.png","../images/wht_red.png","../images/org_blu.png","../images/grn_red.png","../images/red_prp.png","../images/gry_blk.png","../images/ylw_pnk.png","../images/pnk_blu.png","../images/ylw_slt.png","../images/blu_wht.png","../images/grn_prp.png","../images/cyn_red.png"],"mutagen_generator_assignment":[1,0],"goal":2,"start":10,"action_noise":0.15,"location_history":"[10,2]","action_history":"[1]","mutagen_history":"[0]","location_rts":"[1303]","trial_type":"fractal-mutation","trial_index":42,"time_elapsed":996790,"internal_node_id":"0.0-5.0-3.0"},{"group":"dicyclic group of order 12","fractal_assignment":["../images/grn_blu.png","../images/wht_red.png","../images/org_blu.png","../images/grn_red.png","../images/red_prp.png","../images/gry_blk.png","../images/ylw_pnk.png","../images/pnk_blu.png","../images/ylw_slt.png","../images/blu_wht.png","../images/grn_prp.png","../images/cyn_red.png"],"mutagen_generator_assignment":[1,0],"goal":5,"start":2,"action_noise":0.15,"location_history":"[2,3,7,8,0,4,9,1,5]","action_history":"[0,0,0,1,1,0,1,0]","mutagen_history":"[1,1,1,0,0,1,0,1]","location_rts":"[2071,156,1491,558,1110,566,1040,1700]","trial_type":"fractal-mutation","trial_index":43,"time_elapsed":1018447,"internal_node_id":"0.0-5.0-4.0"},{"group":"dicyclic group of order 12","fractal_assignment":["../images/grn_blu.png","../images/wht_red.png","../images/org_blu.png","../images/grn_red.png","../images/red_prp.png","../images/gry_blk.png","../images/ylw_pnk.png","../images/pnk_blu.png","../images/ylw_slt.png","../images/blu_wht.png","../images/grn_prp.png","../images/cyn_red.png"],"mutagen_generator_assignment":[1,0],"goal":11,"start":5,"action_noise":0.15,"location_history":"[5,10,7,8,0,1,2,3,0,4,8,0,4,9,6,10,7,11]","action_history":"[0,0,0,1,0,0,0,0,1,1,1,0,1,1,1,0,1]","mutagen_history":"[1,1,1,0,1,1,1,1,0,0,0,1,0,0,0,1,0]","location_rts":"[1837,954,793,460,483,1383,762,868,1139,850,1211,804,557,2024,1480,1092,1182]","trial_type":"fractal-mutation","trial_index":44,"time_elapsed":1059859,"internal_node_id":"0.0-5.0-5.0"},{"group":"dicyclic group of order 12","fractal_assignment":["../images/grn_blu.png","../images/wht_red.png","../images/org_blu.png","../images/grn_red.png","../images/red_prp.png","../images/gry_blk.png","../images/ylw_pnk.png","../images/pnk_blu.png","../images/ylw_slt.png","../images/blu_wht.png","../images/grn_prp.png","../images/cyn_red.png"],"mutagen_generator_assignment":[1,0],"goal":6,"start":11,"action_noise":0.15,"location_history":"[11,3,0,4,9,6]","action_history":"[1,1,1,0,0]","mutagen_history":"[0,0,0,1,1]","location_rts":"[2652,932,881,523,1125]","trial_type":"fractal-mutation","trial_index":45,"time_elapsed":1074844,"internal_node_id":"0.0-5.0-6.0"},{"group":"dicyclic group of order 12","fractal_assignment":["../images/grn_blu.png","../images/wht_red.png","../images/org_blu.png","../images/grn_red.png","../images/red_prp.png","../images/gry_blk.png","../images/ylw_pnk.png","../images/pnk_blu.png","../images/ylw_slt.png","../images/blu_wht.png","../images/grn_prp.png","../images/cyn_red.png"],"mutagen_generator_assignment":[1,0],"goal":3,"start":6,"action_noise":0.15,"location_history":"[6,11,4,9,6,11,3]","action_history":"[0,0,0,0,1,1]","mutagen_history":"[1,1,1,1,0,0]","location_rts":"[1419,990,624,522,579,804]","trial_type":"fractal-mutation","trial_index":46,"time_elapsed":1090404,"internal_node_id":"0.0-5.0-7.0"},{"group":"dicyclic group of order 12","fractal_assignment":["../images/grn_blu.png","../images/wht_red.png","../images/org_blu.png","../images/grn_red.png","../images/red_prp.png","../images/gry_blk.png","../images/ylw_pnk.png","../images/pnk_blu.png","../images/ylw_slt.png","../images/blu_wht.png","../images/grn_prp.png","../images/cyn_red.png"],"mutagen_generator_assignment":[1,0],"goal":8,"start":3,"action_noise":0.15,"location_history":"[3,7,8]","action_history":"[0,0]","mutagen_history":"[1,1]","location_rts":"[1922,371]","trial_type":"fractal-mutation","trial_index":47,"time_elapsed":1098573,"internal_node_id":"0.0-5.0-8.0"},{"group":"dicyclic group of order 12","fractal_assignment":["../images/grn_blu.png","../images/wht_red.png","../images/org_blu.png","../images/grn_red.png","../images/red_prp.png","../images/gry_blk.png","../images/ylw_pnk.png","../images/pnk_blu.png","../images/ylw_slt.png","../images/blu_wht.png","../images/grn_prp.png","../images/cyn_red.png"],"mutagen_generator_assignment":[1,0],"goal":1,"start":8,"action_noise":0.15,"location_history":"[8,0,4,8,0,1]","action_history":"[1,1,1,1,0]","mutagen_history":"[0,0,0,0,1]","location_rts":"[1431,491,465,638,857]","trial_type":"fractal-mutation","trial_index":48,"time_elapsed":1111289,"internal_node_id":"0.0-5.0-9.0"},{"group":"dicyclic group of order 12","fractal_assignment":["../images/grn_blu.png","../images/wht_red.png","../images/org_blu.png","../images/grn_red.png","../images/red_prp.png","../images/gry_blk.png","../images/ylw_pnk.png","../images/pnk_blu.png","../images/ylw_slt.png","../images/blu_wht.png","../images/grn_prp.png","../images/cyn_red.png"],"mutagen_generator_assignment":[1,0],"goal":7,"start":1,"action_noise":0.15,"location_history":"[1,5,10,7]","action_history":"[1,0,0]","mutagen_history":"[0,1,1]","location_rts":"[1339,477,487]","trial_type":"fractal-mutation","trial_index":49,"time_elapsed":1120504,"internal_node_id":"0.0-5.0-10.0"},{"group":"dicyclic group of order 12","fractal_assignment":["../images/grn_blu.png","../images/wht_red.png","../images/org_blu.png","../images/grn_red.png","../images/red_prp.png","../images/gry_blk.png","../images/ylw_pnk.png","../images/pnk_blu.png","../images/ylw_slt.png","../images/blu_wht.png","../images/grn_prp.png","../images/cyn_red.png"],"mutagen_generator_assignment":[1,0],"goal":5,"start":7,"action_noise":0.15,"location_history":"[7,8,0,4,9,6,11,4,8,5]","action_history":"[0,1,1,0,0,0,0,1,0]","mutagen_history":"[1,0,0,1,1,1,1,0,1]","location_rts":"[1772,1529,3839,379,429,566,697,345,1077]","trial_type":"fractal-mutation","trial_index":50,"time_elapsed":1145370,"internal_node_id":"0.0-5.0-11.0"},{"group":"dicyclic group of order 12","fractal_assignment":["../images/grn_blu.png","../images/wht_red.png","../images/org_blu.png","../images/grn_red.png","../images/red_prp.png","../images/gry_blk.png","../images/ylw_pnk.png","../images/pnk_blu.png","../images/ylw_slt.png","../images/blu_wht.png","../images/grn_prp.png","../images/cyn_red.png"],"mutagen_generator_assignment":[1,0],"goal":8,"start":5,"action_noise":0.15,"location_history":"[5,9,6,10,2,3,0,1,5,9,1,2,6,11,3,0,1,5,10,7,8]","action_history":"[1,0,1,1,0,0,0,1,1,1,0,0,0,1,0,0,1,0,0,0]","mutagen_history":"[0,1,0,0,1,1,1,0,0,0,1,1,1,0,1,1,0,1,1,1]","location_rts":"[1874,906,834,727,877,1080,536,865,1272,666,373,437,480,419,863,1199,1251,1019,416,504]","trial_type":"fractal-mutation","trial_index":51,"time_elapsed":1188812,"internal_node_id":"0.0-5.0-12.0"},{"group":"dicyclic group of order 12","fractal_assignment":["../images/grn_blu.png","../images/wht_red.png","../images/org_blu.png","../images/grn_red.png","../images/red_prp.png","../images/gry_blk.png","../images/ylw_pnk.png","../images/pnk_blu.png","../images/ylw_slt.png","../images/blu_wht.png","../images/grn_prp.png","../images/cyn_red.png"],"mutagen_generator_assignment":[1,0],"goal":11,"start":8,"action_noise":0.15,"location_history":"[8,5,9,6,11]","action_history":"[1,0,0,1]","mutagen_history":"[0,1,1,0]","location_rts":"[1325,593,527,442]","trial_type":"fractal-mutation","trial_index":52,"time_elapsed":1199647,"internal_node_id":"0.0-5.0-13.0"},{"group":"dicyclic group of order 12","fractal_assignment":["../images/grn_blu.png","../images/wht_red.png","../images/org_blu.png","../images/grn_red.png","../images/red_prp.png","../images/gry_blk.png","../images/ylw_pnk.png","../images/pnk_blu.png","../images/ylw_slt.png","../images/blu_wht.png","../images/grn_prp.png","../images/cyn_red.png"],"mutagen_generator_assignment":[1,0],"goal":6,"start":11,"action_noise":0.15,"location_history":"[11,4,8,0,4,9,1,5,9,6]","action_history":"[0,1,0,1,1,1,1,1,0]","mutagen_history":"[1,0,1,0,0,0,0,0,1]","location_rts":"[1149,1018,810,650,1097,600,560,480,435]","trial_type":"fractal-mutation","trial_index":53,"time_elapsed":1220395,"internal_node_id":"0.0-5.0-14.0"},{"group":"dicyclic group of order 12","fractal_assignment":["../images/grn_blu.png","../images/wht_red.png","../images/org_blu.png","../images/grn_red.png","../images/red_prp.png","../images/gry_blk.png","../images/ylw_pnk.png","../images/pnk_blu.png","../images/ylw_slt.png","../images/blu_wht.png","../images/grn_prp.png","../images/cyn_red.png"],"mutagen_generator_assignment":[1,0],"goal":7,"start":6,"action_noise":0.15,"location_history":"[6,11,4,8,5,9,6,10,2,3,7]","action_history":"[0,0,0,0,0,0,1,0,0,1]","mutagen_history":"[1,1,1,1,1,1,0,1,1,0]","location_rts":"[1109,427,562,533,795,654,401,932,1014,600]","trial_type":"fractal-mutation","trial_index":54,"time_elapsed":1242831,"internal_node_id":"0.0-5.0-15.0"},{"group":"dicyclic group of order 12","fractal_assignment":["../images/grn_blu.png","../images/wht_red.png","../images/org_blu.png","../images/grn_red.png","../images/red_prp.png","../images/gry_blk.png","../images/ylw_pnk.png","../images/pnk_blu.png","../images/ylw_slt.png","../images/blu_wht.png","../images/grn_prp.png","../images/cyn_red.png"],"mutagen_generator_assignment":[1,0],"goal":10,"start":7,"action_noise":0.15,"location_history":"[7,8,0,1,2,6,10]","action_history":"[0,1,0,0,0,1]","mutagen_history":"[1,0,1,1,1,0]","location_rts":"[823,586,540,399,901,556]","trial_type":"fractal-mutation","trial_index":55,"time_elapsed":1257256,"internal_node_id":"0.0-5.0-16.0"},{"group":"dicyclic group of order 12","fractal_assignment":["../images/grn_blu.png","../images/wht_red.png","../images/org_blu.png","../images/grn_red.png","../images/red_prp.png","../images/gry_blk.png","../images/ylw_pnk.png","../images/pnk_blu.png","../images/ylw_slt.png","../images/blu_wht.png","../images/grn_prp.png","../images/cyn_red.png"],"mutagen_generator_assignment":[1,0],"goal":0,"start":10,"action_noise":0.15,"location_history":"[10,2,3,0]","action_history":"[0,0,0]","mutagen_history":"[1,1,1]","location_rts":"[1889,406,442]","trial_type":"fractal-mutation","trial_index":56,"time_elapsed":1267084,"internal_node_id":"0.0-5.0-17.0"},{"group":"dicyclic group of order 12","fractal_assignment":["../images/grn_blu.png","../images/wht_red.png","../images/org_blu.png","../images/grn_red.png","../images/red_prp.png","../images/gry_blk.png","../images/ylw_pnk.png","../images/pnk_blu.png","../images/ylw_slt.png","../images/blu_wht.png","../images/grn_prp.png","../images/cyn_red.png"],"mutagen_generator_assignment":[1,0],"goal":9,"start":0,"action_noise":0.15,"location_history":"[0,1,2,3,0,1,5,10,2,6,10,7,11,4,9]","action_history":"[0,0,0,0,0,1,0,1,1,1,0,1,0,0]","mutagen_history":"[1,1,1,1,1,0,1,0,0,0,1,0,1,1]","location_rts":"[1457,526,460,454,539,403,436,467,850,1044,985,1183,1158,971]","trial_type":"fractal-mutation","trial_index":57,"time_elapsed":1298061,"internal_node_id":"0.0-5.0-18.0"},{"group":"dicyclic group of order 12","fractal_assignment":["../images/grn_blu.png","../images/wht_red.png","../images/org_blu.png","../images/grn_red.png","../images/red_prp.png","../images/gry_blk.png","../images/ylw_pnk.png","../images/pnk_blu.png","../images/ylw_slt.png","../images/blu_wht.png","../images/grn_prp.png","../images/cyn_red.png"],"mutagen_generator_assignment":[1,0],"goal":4,"start":9,"action_noise":0.15,"location_history":"[9,1,2,6,11,4]","action_history":"[1,0,0,0,1]","mutagen_history":"[0,1,1,1,0]","location_rts":"[1890,940,700,671,511]","trial_type":"fractal-mutation","trial_index":58,"time_elapsed":1312058,"internal_node_id":"0.0-5.0-19.0"},{"group":"dicyclic group of order 12","fractal_assignment":["../images/grn_blu.png","../images/wht_red.png","../images/org_blu.png","../images/grn_red.png","../images/red_prp.png","../images/gry_blk.png","../images/ylw_pnk.png","../images/pnk_blu.png","../images/ylw_slt.png","../images/blu_wht.png","../images/grn_prp.png","../images/cyn_red.png"],"mutagen_generator_assignment":[1,0],"goal":2,"start":4,"action_noise":0.15,"location_history":"[4,9,6,10,2]","action_history":"[0,0,1,0]","mutagen_history":"[1,1,0,1]","location_rts":"[1005,640,829,663]","trial_type":"fractal-mutation","trial_index":59,"time_elapsed":1323527,"internal_node_id":"0.0-5.0-20.0"},{"group":"dicyclic group of order 12","fractal_assignment":["../images/grn_blu.png","../images/wht_red.png","../images/org_blu.png","../images/grn_red.png","../images/red_prp.png","../images/gry_blk.png","../images/ylw_pnk.png","../images/pnk_blu.png","../images/ylw_slt.png","../images/blu_wht.png","../images/grn_prp.png","../images/cyn_red.png"],"mutagen_generator_assignment":[1,0],"goal":1,"start":2,"action_noise":0.15,"location_history":"[2,3,7,8,0,4,9,6,10,2,3,7,11,3,7,11,3,7,11,3,0,4,8,5,9,1]","action_history":"[0,0,0,1,1,0,1,1,1,0,1,1,1,1,1,0,1,0,0,0,1,1,0,1,1]","mutagen_history":"[1,1,1,0,0,1,0,0,0,1,0,0,0,0,0,1,0,1,1,1,0,0,1,0,0]","location_rts":"[1017,719,720,347,507,1219,637,571,473,1215,748,961,707,761,1712,1069,814,1021,443,1186,548,1516,969,644,634]","trial_type":"fractal-mutation","trial_index":60,"time_elapsed":1377169,"internal_node_id":"0.0-5.0-21.0"},{"group":"dicyclic group of order 12","fractal_assignment":["../images/grn_blu.png","../images/wht_red.png","../images/org_blu.png","../images/grn_red.png","../images/red_prp.png","../images/gry_blk.png","../images/ylw_pnk.png","../images/pnk_blu.png","../images/ylw_slt.png","../images/blu_wht.png","../images/grn_prp.png","../images/cyn_red.png"],"mutagen_generator_assignment":[1,0],"goal":3,"start":1,"action_noise":0.15,"location_history":"[1,2,3]","action_history":"[0,0]","mutagen_history":"[1,1]","location_rts":"[1061,1296]","trial_type":"fractal-mutation","trial_index":61,"time_elapsed":1386740,"internal_node_id":"0.0-5.0-22.0"},{"group":"dicyclic group of order 12","fractal_assignment":["../images/grn_blu.png","../images/wht_red.png","../images/org_blu.png","../images/grn_red.png","../images/red_prp.png","../images/gry_blk.png","../images/ylw_pnk.png","../images/pnk_blu.png","../images/ylw_slt.png","../images/blu_wht.png","../images/grn_prp.png","../images/cyn_red.png"],"mutagen_generator_assignment":[1,0],"goal":7,"start":3,"action_noise":0.15,"location_history":"[3,0,1,2,3,0,4,9,6,11,4,9,6,10,7]","action_history":"[0,0,0,0,0,1,0,0,1,0,0,0,1,0]","mutagen_history":"[1,1,1,1,1,0,1,1,0,1,1,1,0,1]","location_rts":"[1117,370,461,470,446,423,481,736,388,517,863,1182,378,751]","trial_type":"fractal-mutation","trial_index":62,"time_elapsed":1415528,"internal_node_id":"0.0-5.0-23.0"},{"group":"dicyclic group of order 12","fractal_assignment":["../images/grn_blu.png","../images/wht_red.png","../images/org_blu.png","../images/grn_red.png","../images/red_prp.png","../images/gry_blk.png","../images/ylw_pnk.png","../images/pnk_blu.png","../images/ylw_slt.png","../images/blu_wht.png","../images/grn_prp.png","../images/cyn_red.png"],"mutagen_generator_assignment":[1,0],"goal":6,"start":7,"action_noise":0.15,"location_history":"[7,11,3,7,11,4,8,0,4,9,1,5,9,6]","action_history":"[1,1,1,1,0,1,1,1,0,1,1,1,0]","mutagen_history":"[0,0,0,0,1,0,0,0,1,0,0,0,1]","location_rts":"[799,644,542,816,562,734,745,789,516,602,725,906,414]","trial_type":"fractal-mutation","trial_index":63,"time_elapsed":1442418,"internal_node_id":"0.0-5.0-24.0"},{"group":"dicyclic group of order 12","fractal_assignment":["../images/grn_blu.png","../images/wht_red.png","../images/org_blu.png","../images/grn_red.png","../images/red_prp.png","../images/gry_blk.png","../images/ylw_pnk.png","../images/pnk_blu.png","../images/ylw_slt.png","../images/blu_wht.png","../images/grn_prp.png","../images/cyn_red.png"],"mutagen_generator_assignment":[1,0],"goal":2,"start":6,"action_noise":0.15,"location_history":"[6,11,3,7,11,4,9,6,11,4,8,5,10,7,11,4,9,6,11,4,8,0,1,5,10,7,11,4,9,1,2]","action_history":"[0,0,1,1,1,1,0,0,0,1,0,1,1,1,1,0,0,0,0,0,1,0,0,0,0,1,0,0,0,0]","mutagen_history":"[1,1,0,0,0,0,1,1,1,0,1,0,0,0,0,1,1,1,1,1,0,1,1,1,1,0,1,1,1,1]","location_rts":"[1206,702,524,589,526,870,767,1190,487,906,445,919,760,460,528,781,226,1038,568,538,350,356,721,481,387,585,380,171,744,847]","trial_type":"fractal-mutation","trial_index":64,"time_elapsed":1500658,"internal_node_id":"0.0-5.0-25.0"},{"group":"dicyclic group of order 12","fractal_assignment":["../images/grn_blu.png","../images/wht_red.png","../images/org_blu.png","../images/grn_red.png","../images/red_prp.png","../images/gry_blk.png","../images/ylw_pnk.png","../images/pnk_blu.png","../images/ylw_slt.png","../images/blu_wht.png","../images/grn_prp.png","../images/cyn_red.png"],"mutagen_generator_assignment":[1,0],"goal":8,"start":2,"action_noise":0.15,"location_history":"[2,3,7,11,3,0,4,8]","action_history":"[1,1,0,1,0,1,1]","mutagen_history":"[0,0,1,0,1,0,0]","location_rts":"[1301,325,429,359,411,558,597]","trial_type":"fractal-mutation","trial_index":65,"time_elapsed":1516023,"internal_node_id":"0.0-5.0-26.0"},{"group":"dicyclic group of order 12","fractal_assignment":["../images/grn_blu.png","../images/wht_red.png","../images/org_blu.png","../images/grn_red.png","../images/red_prp.png","../images/gry_blk.png","../images/ylw_pnk.png","../images/pnk_blu.png","../images/ylw_slt.png","../images/blu_wht.png","../images/grn_prp.png","../images/cyn_red.png"],"mutagen_generator_assignment":[1,0],"goal":0,"start":8,"action_noise":0.15,"location_history":"[8,5,10,7,11,3,0]","action_history":"[0,0,0,1,1,1]","mutagen_history":"[1,1,1,0,0,0]","location_rts":"[1403,590,549,373,486,529]","trial_type":"fractal-mutation","trial_index":66,"time_elapsed":1530522,"internal_node_id":"0.0-5.0-27.0"},{"group":"dicyclic group of order 12","fractal_assignment":["../images/grn_blu.png","../images/wht_red.png","../images/org_blu.png","../images/grn_red.png","../images/red_prp.png","../images/gry_blk.png","../images/ylw_pnk.png","../images/pnk_blu.png","../images/ylw_slt.png","../images/blu_wht.png","../images/grn_prp.png","../images/cyn_red.png"],"mutagen_generator_assignment":[1,0],"goal":3,"start":0,"action_noise":0.15,"location_history":"[0,4,8,5,9,6,11,4,8,0,1,2,3]","action_history":"[1,1,0,1,0,0,1,1,1,0,0,0]","mutagen_history":"[0,0,1,0,1,1,0,0,0,1,1,1]","location_rts":"[768,548,538,620,513,658,822,498,543,1116,857,920]","trial_type":"fractal-mutation","trial_index":67,"time_elapsed":1556298,"internal_node_id":"0.0-5.0-28.0"},{"group":"dicyclic group of order 12","fractal_assignment":["../images/grn_blu.png","../images/wht_red.png","../images/org_blu.png","../images/grn_red.png","../images/red_prp.png","../images/gry_blk.png","../images/ylw_pnk.png","../images/pnk_blu.png","../images/ylw_slt.png","../images/blu_wht.png","../images/grn_prp.png","../images/cyn_red.png"],"mutagen_generator_assignment":[1,0],"goal":4,"start":3,"action_noise":0.15,"location_history":"[3,0,1,2,6,11,4]","action_history":"[0,0,0,1,0,0]","mutagen_history":"[1,1,1,0,1,1]","location_rts":"[1000,621,617,693,1123,593]","trial_type":"fractal-mutation","trial_index":68,"time_elapsed":1571569,"internal_node_id":"0.0-5.0-29.0"},{"group":"dicyclic group of order 12","fractal_assignment":["../images/grn_blu.png","../images/wht_red.png","../images/org_blu.png","../images/grn_red.png","../images/red_prp.png","../images/gry_blk.png","../images/ylw_pnk.png","../images/pnk_blu.png","../images/ylw_slt.png","../images/blu_wht.png","../images/grn_prp.png","../images/cyn_red.png"],"mutagen_generator_assignment":[1,0],"goal":10,"start":4,"action_noise":0.15,"location_history":"[4,9,6,11,3,7,8,0,4,9,1,2,6,10]","action_history":"[0,0,0,0,1,0,0,0,0,1,0,0,1]","mutagen_history":"[1,1,1,1,0,1,1,1,1,0,1,1,0]","location_rts":"[916,624,903,563,861,521,510,687,507,361,531,560,875]","trial_type":"fractal-mutation","trial_index":69,"time_elapsed":1599097,"internal_node_id":"0.0-5.0-30.0"},{"group":"dicyclic group of order 12","fractal_assignment":["../images/grn_blu.png","../images/wht_red.png","../images/org_blu.png","../images/grn_red.png","../images/red_prp.png","../images/gry_blk.png","../images/ylw_pnk.png","../images/pnk_blu.png","../images/ylw_slt.png","../images/blu_wht.png","../images/grn_prp.png","../images/cyn_red.png"],"mutagen_generator_assignment":[1,0],"goal":11,"start":10,"action_noise":0.15,"location_history":"[10,7,8,5,10,2,3,0,1,5,10,2,3,0,4,8,5,10,7,11]","action_history":"[0,0,0,1,1,0,0,0,1,0,0,0,0,1,1,0,0,0,0]","mutagen_history":"[1,1,1,0,0,1,1,1,0,1,1,1,1,0,0,1,1,1,1]","location_rts":"[1279,312,394,1063,776,593,595,867,441,520,811,502,480,557,534,2690,486,732,783]","trial_type":"fractal-mutation","trial_index":70,"time_elapsed":1639575,"internal_node_id":"0.0-5.0-31.0"},{"group":"dicyclic group of order 12","fractal_assignment":["../images/grn_blu.png","../images/wht_red.png","../images/org_blu.png","../images/grn_red.png","../images/red_prp.png","../images/gry_blk.png","../images/ylw_pnk.png","../images/pnk_blu.png","../images/ylw_slt.png","../images/blu_wht.png","../images/grn_prp.png","../images/cyn_red.png"],"mutagen_generator_assignment":[1,0],"goal":1,"start":11,"action_noise":0.15,"location_history":"[11,4,9,6,10,7,11,4,9,1]","action_history":"[1,0,0,1,0,1,0,1,1]","mutagen_history":"[0,1,1,0,1,0,1,0,0]","location_rts":"[796,676,582,785,470,435,760,2171,366]","trial_type":"fractal-mutation","trial_index":71,"time_elapsed":1660374,"internal_node_id":"0.0-5.0-32.0"},{"group":"dicyclic group of order 12","fractal_assignment":["../images/grn_blu.png","../images/wht_red.png","../images/org_blu.png","../images/grn_red.png","../images/red_prp.png","../images/gry_blk.png","../images/ylw_pnk.png","../images/pnk_blu.png","../images/ylw_slt.png","../images/blu_wht.png","../images/grn_prp.png","../images/cyn_red.png"],"mutagen_generator_assignment":[1,0],"goal":5,"start":1,"action_noise":0.15,"location_history":"[1,2,3,0,4,9,6,10,7,8,5]","action_history":"[0,0,0,1,0,0,1,0,0,0]","mutagen_history":"[1,1,1,0,1,1,0,1,1,1]","location_rts":"[851,588,644,447,556,611,816,547,448,646]","trial_type":"fractal-mutation","trial_index":72,"time_elapsed":1682024,"internal_node_id":"0.0-5.0-33.0"},{"group":"dicyclic group of order 12","fractal_assignment":["../images/grn_blu.png","../images/wht_red.png","../images/org_blu.png","../images/grn_red.png","../images/red_prp.png","../images/gry_blk.png","../images/ylw_pnk.png","../images/pnk_blu.png","../images/ylw_slt.png","../images/blu_wht.png","../images/grn_prp.png","../images/cyn_red.png"],"mutagen_generator_assignment":[1,0],"goal":9,"start":5,"action_noise":0.15,"location_history":"[5,10,7,11,4,9]","action_history":"[0,1,1,0,0]","mutagen_history":"[1,0,0,1,1]","location_rts":"[2092,926,662,609,726]","trial_type":"fractal-mutation","trial_index":73,"time_elapsed":1696548,"internal_node_id":"0.0-5.0-34.0"},{"view_history":"[{\"page_index\":0,\"viewing_time\":32737}]","rt":32738,"trial_type":"instructions","trial_index":74,"time_elapsed":1730286,"internal_node_id":"0.0-6.0"},{"rt":7788,"responses":"{\"Q0\":\"I liked it, thanks!\"}","trial_type":"survey-text","trial_index":75,"time_elapsed":1739080,"internal_node_id":"0.0-7.0"}]