[{"view_history":"[{\"page_index\":0,\"viewing_time\":4995739},{\"page_index\":1,\"viewing_time\":5077},{\"page_index\":2,\"viewing_time\":9831},{\"page_index\":3,\"viewing_time\":5031}]","rt":5015680,"trial_type":"instructions","trial_index":0,"time_elapsed":5015682,"internal_node_id":"0.0-0.0"},{"view_history":"[{\"page_index\":0,\"viewing_time\":2147},{\"page_index\":1,\"viewing_time\":10664}]","rt":12812,"trial_type":"instructions","trial_index":1,"time_elapsed":5029496,"internal_node_id":"0.0-1.0"},{"group":"dicyclic group of order 12","room_assignment":["red","pink","blue","purple","grey","green","orange","cyan","olive","ivory","brown","yellow"],"door_color_assignment":["white","black"],"door_generator_assignment":[1,0],"goal":4,"start":0,"action_noise":0.15,"location_history":"[0,4]","action_history":"[1]","door_history":"[0]","location_rts":"[2787]","trial_type":"two-door-navigation","trial_index":2,"time_elapsed":5036831,"internal_node_id":"0.0-2.0-0.0"},{"group":"dicyclic group of order 12","room_assignment":["red","pink","blue","purple","grey","green","orange","cyan","olive","ivory","brown","yellow"],"door_color_assignment":["white","black"],"door_generator_assignment":[1,0],"goal":9,"start":4,"action_noise":0.15,"location_history":"[4,9]","action_history":"[1]","door_history":"[0]","location_rts":"[2011]","trial_type":"two-door-navigation","trial_index":3,"time_elapsed":5043500,"internal_node_id":"0.0-2.0-1.0"},{"group":"dicyclic group of order 12","room_assignment":["red","pink","blue","purple","grey","green","orange","cyan","olive","ivory","brown","yellow"],"door_color_assignment":["white","black"],"door_generator_assignment":[1,0],"goal":10,"start":9,"action_noise":0.15,"location_history":"[9,1,2,6,10]","action_history":"[1,1,1,1]","door_history":"[0,0,0,0]","location_rts":"[36177,1259,625,455]","trial_type":"two-door-navigation","trial_index":4,"time_elapsed":5089566,"internal_node_id":"0.0-2.0-2.0"},{"group":"dicyclic group of order 12","room_assignment":["red","pink","blue","purple","grey","green","orange","cyan","olive","ivory","brown","yellow"],"door_color_assignment":["white","black"],"door_generator_assignment":[1,0],"goal":2,"start":10,"action_noise":0.15,"location_history":"[10,7,11,3,7,11,4,8,0,1,5,9,6,10,2]","action_history":"[1,1,1,1,1,1,1,1,1,1,1,1,1,1]","door_history":"[0,0,0,0,0,0,0,0,0,0,0,0,0,0]","location_rts":"[1128,885,457,409,606,561,630,491,455,410,545,419,595,951]","trial_type":"two-door-navigation","trial_index":5,"time_elapsed":5115733,"internal_node_id":"0.0-2.0-3.0"},{"group":"dicyclic group of order 12","room_assignment":["red","pink","blue","purple","grey","green","orange","cyan","olive","ivory","brown","yellow"],"door_color_assignment":["white","black"],"door_generator_assignment":[1,0],"goal":5,"start":2,"action_noise":0.15,"location_history":"[2,6,10,2,6,11,4,9,1,5]","action_history":"[1,1,1,1,1,1,1,1,1]","door_history":"[0,0,0,0,0,0,0,0,0]","location_rts":"[1322,320,341,242,370,359,433,619,51490]","trial_type":"two-door-navigation","trial_index":6,"time_elapsed":5183918,"internal_node_id":"0.0-2.0-4.0"},{"group":"dicyclic group of order 12","room_assignment":["red","pink","blue","purple","grey","green","orange","cyan","olive","ivory","brown","yellow"],"door_color_assignment":["white","black"],"door_generator_assignment":[1,0],"goal":11,"start":5,"action_noise":0.15,"location_history":"[5,9,1,2,6,11]","action_history":"[1,1,1,1,1]","door_history":"[0,0,0,0,0]","location_rts":"[830,220,301,61,97]","trial_type":"two-door-navigation","trial_index":7,"time_elapsed":5194013,"internal_node_id":"0.0-2.0-5.0"},{"group":"dicyclic group of order 12","room_assignment":["red","pink","blue","purple","grey","green","orange","cyan","olive","ivory","brown","yellow"],"door_color_assignment":["white","black"],"door_generator_assignment":[1,0],"goal":6,"start":11,"action_noise":0.15,"location_history":"[11,3,7,8,0,4,8,0,4,8,0,4,8,0,4,8,0,1,5,9,1,5,9,1,5,9,6]","action_history":"[1,1,1,1,1,1,1,1,1,1,1,1,1,1,1,1,1,1,1,1,1,1,1,1,1,0]","door_history":"[0,0,0,0,0,0,0,0,0,0,0,0,0,0,0,0,0,0,0,0,0,0,0,0,0,1]","location_rts":"[784,350,232,56,147,2,72,242,70,247,258,392,667,367,307,260,384,402,503,644,417,391,406,663,600,2081]","trial_type":"two-door-navigation","trial_index":8,"time_elapsed":5234810,"internal_node_id":"0.0-2.0-6.0"},{"group":"dicyclic group of order 12","room_assignment":["red","pink","blue","purple","grey","green","orange","cyan","olive","ivory","brown","yellow"],"door_color_assignment":["white","black"],"door_generator_assignment":[1,0],"goal":3,"start":6,"action_noise":0.15,"location_history":"[6,11,4,8,5,9,1,5,9,1,5,9,6,11,3]","action_history":"[1,1,1,1,1,1,1,1,1,1,1,0,0,0]","door_history":"[0,0,0,0,0,0,0,0,0,0,0,1,1,1]","location_rts":"[968,320,111,10,112,97,97,16,95,71,115,554,373,304]","trial_type":"two-door-navigation","trial_index":9,"time_elapsed":5255687,"internal_node_id":"0.0-2.0-7.0"},{"group":"dicyclic group of order 12","room_assignment":["red","pink","blue","purple","grey","green","orange","cyan","olive","ivory","brown","yellow"],"door_color_assignment":["white","black"],"door_generator_assignment":[1,0],"goal":8,"start":3,"action_noise":0.15,"location_history":"[3,7,11,3,7,8]","action_history":"[1,1,1,1,1]","door_history":"[0,0,0,0,0]","location_rts":"[786,98,21,38,445]","trial_type":"two-door-navigation","trial_index":10,"time_elapsed":5265625,"internal_node_id":"0.0-2.0-8.0"},{"group":"dicyclic group of order 12","room_assignment":["red","pink","blue","purple","grey","green","orange","cyan","olive","ivory","brown","yellow"],"door_color_assignment":["white","black"],"door_generator_assignment":[1,0],"goal":1,"start":8,"action_noise":0.15,"location_history":"[8,0,4,8,0,4,9,1]","action_history":"[1,1,1,1,1,1,1]","door_history":"[0,0,0,0,0,0,0]","location_rts":"[453,68,18,1101,620,123,45]","trial_type":"two-door-navigation","trial_index":11,"time_elapsed":5279415,"internal_node_id":"0.0-2.0-9.0"},{"group":"dicyclic group of order 12","room_assignment":["red","pink","blue","purple","grey","green","orange","cyan","olive","ivory","brown","yellow"],"door_color_assignment":["white","black"],"door_generator_assignment":[1,0],"goal":7,"start":1,"action_noise":0.15,"location_history":"[1,5,9,1,5,9,1,5,9,6,11,4,9,6,11,4,9,6,11,4,9,1,5,10,2,6,11,3,7]","action_history":"[1,1,1,1,1,1,1,0,0,0,0,0,0,0,0,0,0,0,0,0,1,1,1,1,1,1,1,1]","door_history":"[0,0,0,0,0,0,0,1,1,1,1,1,1,1,1,1,1,1,1,1,0,0,0,0,0,0,0,0]","location_rts":"[414,238,272,326,402,357,357,667,319,356,396,361,329,401,356,81,343,307,409,537,492,315,108,98,526,212,350,28]","trial_type":"two-door-navigation","trial_index":12,"time_elapsed":5320736,"internal_node_id":"0.0-2.0-10.0"},{"group":"dicyclic group of order 12","room_assignment":["red","pink","blue","purple","grey","green","orange","cyan","olive","ivory","brown","yellow"],"door_color_assignment":["white","black"],"door_generator_assignment":[1,0],"goal":5,"start":7,"action_noise":0.15,"location_history":"[7,11,3,7,11,4,8,0,4,8,5]","action_history":"[1,1,1,1,1,1,1,1,1,1]","door_history":"[0,0,0,0,0,0,0,0,0,0]","location_rts":"[924,258,192,158,433,193,299,18,84,63]","trial_type":"two-door-navigation","trial_index":13,"time_elapsed":5336988,"internal_node_id":"0.0-2.0-11.0"},{"group":"dicyclic group of order 12","room_assignment":["red","pink","blue","purple","grey","green","orange","cyan","olive","ivory","brown","yellow"],"door_color_assignment":["white","black"],"door_generator_assignment":[1,0],"goal":8,"start":5,"action_noise":0.15,"location_history":"[5,9,1,5,9,1,2,6,10,2,6,10,2,6,11,4,9,6,11,4,9,6,10,2,6,10,2,6,10,2,6,11,4,8]","action_history":"[1,1,1,1,1,1,1,1,1,1,1,1,1,0,0,0,0,0,0,0,0,0,1,1,1,1,1,1,1,1,0,0,0]","door_history":"[0,0,0,0,0,0,0,0,0,0,0,0,0,1,1,1,1,1,1,1,1,1,0,0,0,0,0,0,0,0,1,1,1]","location_rts":"[369,85,55,351,151,70,623,366,388,347,771,365,402,144,256,325,164,71,171,22,234,573,672,244,81,51,369,84,113,312,465,130,78]","trial_type":"two-door-navigation","trial_index":14,"time_elapsed":5382732,"internal_node_id":"0.0-2.0-12.0"},{"group":"dicyclic group of order 12","room_assignment":["red","pink","blue","purple","grey","green","orange","cyan","olive","ivory","brown","yellow"],"door_color_assignment":["white","black"],"door_generator_assignment":[1,0],"goal":11,"start":8,"action_noise":0.15,"location_history":"[8,0,4,8,0,1,5,9,1,2,6,10,2,6,10,2,6,10,2,3,0,1,5,10,2,3,0,1,2,3,7,11]","action_history":"[1,1,1,1,1,1,1,1,1,1,1,1,1,1,1,1,1,1,1,0,0,0,0,0,0,0,0,0,0,1,1]","door_history":"[0,0,0,0,0,0,0,0,0,0,0,0,0,0,0,0,0,0,0,1,1,1,1,1,1,1,1,1,1,0,0]","location_rts":"[658,75,81,83,54,78,113,36,50,468,97,329,516,226,138,268,74,21,30,73,154,56,80,159,114,31,134,76,71,315,139]","trial_type":"two-door-navigation","trial_index":15,"time_elapsed":5422373,"internal_node_id":"0.0-2.0-13.0"},{"group":"dicyclic group of order 12","room_assignment":["red","pink","blue","purple","grey","green","orange","cyan","olive","ivory","brown","yellow"],"door_color_assignment":["white","black"],"door_generator_assignment":[1,0],"goal":6,"start":11,"action_noise":0.15,"location_history":"[11,3,7,11,3,0,4,8,0,4,8,5,10,2,3,0,1,2,3,0,4,8,0,4,8,0,1,2,3,0,1,5,9,1,5,9,1,5,9,6]","action_history":"[1,1,1,1,1,1,1,1,1,1,0,0,0,0,0,0,0,0,0,1,1,1,1,1,1,0,0,0,0,0,0,1,1,1,1,1,1,1,0]","door_history":"[0,0,0,0,0,0,0,0,0,0,1,1,1,1,1,1,1,1,1,0,0,0,0,0,0,1,1,1,1,1,1,0,0,0,0,0,0,0,1]","location_rts":"[712,388,160,407,420,131,416,366,287,116,378,336,324,74,99,373,946,434,864,737,155,361,45,106,76,225,192,370,69,375,145,181,157,96,48,57,36,81,20]","trial_type":"two-door-navigation","trial_index":16,"time_elapsed":5477266,"internal_node_id":"0.0-2.0-14.0"},{"group":"dicyclic group of order 12","room_assignment":["red","pink","blue","purple","grey","green","orange","cyan","olive","ivory","brown","yellow"],"door_color_assignment":["white","black"],"door_generator_assignment":[1,0],"goal":7,"start":6,"action_noise":0.15,"location_history":"[6,11,3,7]","action_history":"[0,1,1]","door_history":"[1,0,0]","location_rts":"[669,626,486]","trial_type":"two-door-navigation","trial_index":17,"time_elapsed":5485610,"internal_node_id":"0.0-2.0-15.0"},{"group":"dicyclic group of order 12","room_assignment":["red","pink","blue","purple","grey","green","orange","cyan","olive","ivory","brown","yellow"],"door_color_assignment":["white","black"],"door_generator_assignment":[1,0],"goal":10,"start":7,"action_noise":0.15,"location_history":"[7,11,3,7,11,3,0,1,2,3,7,11,3,0,4,8,0,1,5,9,1,5,10]","action_history":"[1,1,1,1,1,0,0,0,0,0,0,0,0,1,1,1,1,1,1,1,1,0]","door_history":"[0,0,0,0,0,1,1,1,1,1,1,1,1,0,0,0,0,0,0,0,0,1]","location_rts":"[1133,120,54,451,126,168,240,22,71,12,17,85,63,524,183,431,27,78,35,341,324,708]","trial_type":"two-door-navigation","trial_index":18,"time_elapsed":5516627,"internal_node_id":"0.0-2.0-16.0"},{"group":"dicyclic group of order 12","room_assignment":["red","pink","blue","purple","grey","green","orange","cyan","olive","ivory","brown","yellow"],"door_color_assignment":["white","black"],"door_generator_assignment":[1,0],"goal":0,"start":10,"action_noise":0.15,"location_history":"[10,2,6,10,2,6,10,2,6,10,7,11,3,7,8,5,10,7,8,5,10,7,8,0]","action_history":"[1,1,1,1,1,1,1,1,1,0,0,0,0,0,0,0,0,0,0,0,0,0,1]","door_history":"[0,0,0,0,0,0,0,0,0,1,1,1,1,1,1,1,1,1,1,1,1,1,0]","location_rts":"[818,162,4,93,8,116,5,12,51,107,224,29,14,96,334,88,340,58,148,721,229,108,136]","trial_type":"two-door-navigation","trial_index":19,"time_elapsed":5547296,"internal_node_id":"0.0-2.0-17.0"},{"group":"dicyclic group of order 12","room_assignment":["red","pink","blue","purple","grey","green","orange","cyan","olive","ivory","brown","yellow"],"door_color_assignment":["white","black"],"door_generator_assignment":[1,0],"goal":9,"start":0,"action_noise":0.15,"location_history":"[0,4,8,5,10,2,3,7,8,5,9]","action_history":"[1,1,1,1,1,1,1,1,1,1]","door_history":"[0,0,0,0,0,0,0,0,0,0]","location_rts":"[3739,124,28,487,32,55,27,52,55,85]","trial_type":"two-door-navigation","trial_index":20,"time_elapsed":5565665,"internal_node_id":"0.0-2.0-18.0"},{"group":"dicyclic group of order 12","room_assignment":["red","pink","blue","purple","grey","green","orange","cyan","olive","ivory","brown","yellow"],"door_color_assignment":["white","black"],"door_generator_assignment":[1,0],"goal":4,"start":9,"action_noise":0.15,"location_history":"[9,1,5,9,1,2,3,0,1,2,6,11,3,0,4]","action_history":"[1,1,1,1,0,0,0,0,0,0,0,0,0,0]","door_history":"[0,0,0,0,1,1,1,1,1,1,1,1,1,1]","location_rts":"[769,91,66,459,513,158,16,5,4,126,87,273,62,79]","trial_type":"two-door-navigation","trial_index":21,"time_elapsed":5586133,"internal_node_id":"0.0-2.0-19.0"},{"group":"dicyclic group of order 12","room_assignment":["red","pink","blue","purple","grey","green","orange","cyan","olive","ivory","brown","yellow"],"door_color_assignment":["white","black"],"door_generator_assignment":[1,0],"goal":2,"start":4,"action_noise":0.15,"location_history":"[4,8,0,4,8,5,9,6,11,3,0,1,2]","action_history":"[1,1,1,1,1,1,0,0,0,0,0,0]","door_history":"[0,0,0,0,0,0,1,1,1,1,1,1]","location_rts":"[1043,187,397,123,125,19,534,113,108,216,516,84]","trial_type":"two-door-navigation","trial_index":22,"time_elapsed":5605210,"internal_node_id":"0.0-2.0-20.0"},{"group":"dicyclic group of order 12","room_assignment":["red","pink","blue","purple","grey","green","orange","cyan","olive","ivory","brown","yellow"],"door_color_assignment":["white","black"],"door_generator_assignment":[1,0],"goal":1,"start":2,"action_noise":0.15,"location_history":"[2,6,11,3,7,11,3,7,11,3,7,11,4,9,6,11,3,0,1]","action_history":"[1,1,1,1,1,1,1,1,1,1,1,0,0,0,0,0,0,0]","door_history":"[0,0,0,0,0,0,0,0,0,0,0,1,1,1,1,1,1,1]","location_rts":"[804,349,297,84,264,12,271,33,147,98,73,96,88,85,22,386,111,309]","trial_type":"two-door-navigation","trial_index":23,"time_elapsed":5630745,"internal_node_id":"0.0-2.0-21.0"},{"group":"dicyclic group of order 12","room_assignment":["red","pink","blue","purple","grey","green","orange","cyan","olive","ivory","brown","yellow"],"door_color_assignment":["white","black"],"door_generator_assignment":[1,0],"goal":3,"start":1,"action_noise":0.15,"location_history":"[1,2,3]","action_history":"[1,1]","door_history":"[0,0]","location_rts":"[962,243]","trial_type":"two-door-navigation","trial_index":24,"time_elapsed":5637467,"internal_node_id":"0.0-2.0-22.0"},{"group":"dicyclic group of order 12","room_assignment":["red","pink","blue","purple","grey","green","orange","cyan","olive","ivory","brown","yellow"],"door_color_assignment":["white","black"],"door_generator_assignment":[1,0],"goal":7,"start":3,"action_noise":0.15,"location_history":"[3,7]","action_history":"[1]","door_history":"[0]","location_rts":"[869]","trial_type":"two-door-navigation","trial_index":25,"time_elapsed":5642845,"internal_node_id":"0.0-2.0-23.0"},{"group":"dicyclic group of order 12","room_assignment":["red","pink","blue","purple","grey","green","orange","cyan","olive","ivory","brown","yellow"],"door_color_assignment":["white","black"],"door_generator_assignment":[1,0],"goal":6,"start":7,"action_noise":0.15,"location_history":"[7,8,5,9,1,5,9,1,2,3,0,1,2,6]","action_history":"[1,1,1,1,1,1,1,1,0,0,0,0,0]","door_history":"[0,0,0,0,0,0,0,0,1,1,1,1,1]","location_rts":"[880,142,64,450,33,33,25,2,250,208,62,90,435]","trial_type":"two-door-navigation","trial_index":26,"time_elapsed":5662272,"internal_node_id":"0.0-2.0-24.0"},{"group":"dicyclic group of order 12","room_assignment":["red","pink","blue","purple","grey","green","orange","cyan","olive","ivory","brown","yellow"],"door_color_assignment":["white","black"],"door_generator_assignment":[1,0],"goal":2,"start":6,"action_noise":0.15,"location_history":"[6,10,2]","action_history":"[1,1]","door_history":"[0,0]","location_rts":"[511,204]","trial_type":"two-door-navigation","trial_index":27,"time_elapsed":5668500,"internal_node_id":"0.0-2.0-25.0"},{"group":"dicyclic group of order 12","room_assignment":["red","pink","blue","purple","grey","green","orange","cyan","olive","ivory","brown","yellow"],"door_color_assignment":["white","black"],"door_generator_assignment":[1,0],"goal":8,"start":2,"action_noise":0.15,"location_history":"[2,6,11,4,8]","action_history":"[1,1,1,1]","door_history":"[0,0,0,0]","location_rts":"[650,257,327,488]","trial_type":"two-door-navigation","trial_index":28,"time_elapsed":5677777,"internal_node_id":"0.0-2.0-26.0"},{"group":"dicyclic group of order 12","room_assignment":["red","pink","blue","purple","grey","green","orange","cyan","olive","ivory","brown","yellow"],"door_color_assignment":["white","black"],"door_generator_assignment":[1,0],"goal":0,"start":8,"action_noise":0.15,"location_history":"[8,0]","action_history":"[1]","door_history":"[0]","location_rts":"[677]","trial_type":"two-door-navigation","trial_index":29,"time_elapsed":5682973,"internal_node_id":"0.0-2.0-27.0"},{"group":"dicyclic group of order 12","room_assignment":["red","pink","blue","purple","grey","green","orange","cyan","olive","ivory","brown","yellow"],"door_color_assignment":["white","black"],"door_generator_assignment":[1,0],"goal":3,"start":0,"action_noise":0.15,"location_history":"[0,4,8,0,4,8,0,1,2,3]","action_history":"[1,1,1,1,1,1,0,0,0]","door_history":"[0,0,0,0,0,0,1,1,1]","location_rts":"[481,288,365,140,65,51,257,205,158]","trial_type":"two-door-navigation","trial_index":30,"time_elapsed":5697626,"internal_node_id":"0.0-2.0-28.0"},{"group":"dicyclic group of order 12","room_assignment":["red","pink","blue","purple","grey","green","orange","cyan","olive","ivory","brown","yellow"],"door_color_assignment":["white","black"],"door_generator_assignment":[1,0],"goal":4,"start":3,"action_noise":0.15,"location_history":"[3,7,8,0,4]","action_history":"[1,1,1,1]","door_history":"[0,0,0,0]","location_rts":"[652,169,6,157]","trial_type":"two-door-navigation","trial_index":31,"time_elapsed":5706148,"internal_node_id":"0.0-2.0-29.0"},{"group":"dicyclic group of order 12","room_assignment":["red","pink","blue","purple","grey","green","orange","cyan","olive","ivory","brown","yellow"],"door_color_assignment":["white","black"],"door_generator_assignment":[1,0],"goal":10,"start":4,"action_noise":0.15,"location_history":"[4,8,0,4,8,0,1,2,3,0,1,2,6,11,3,7,11,3,0,1,2,3,0,4,8,0,4,8,0,4,9,6,10]","action_history":"[1,1,1,1,1,0,0,0,0,0,0,1,1,1,1,1,1,0,0,0,0,0,1,1,1,1,1,1,1,0,0,0]","door_history":"[0,0,0,0,0,1,1,1,1,1,1,0,0,0,0,0,0,1,1,1,1,1,0,0,0,0,0,0,0,1,1,1]","location_rts":"[554,28,347,67,9,21,108,41,21,70,66,970,168,381,457,343,335,673,184,188,46,113,29,109,91,64,316,455,601,25,247,535]","trial_type":"two-door-navigation","trial_index":32,"time_elapsed":5749651,"internal_node_id":"0.0-2.0-30.0"},{"group":"dicyclic group of order 12","room_assignment":["red","pink","blue","purple","grey","green","orange","cyan","olive","ivory","brown","yellow"],"door_color_assignment":["white","black"],"door_generator_assignment":[1,0],"goal":11,"start":10,"action_noise":0.15,"location_history":"[10,2,6,10,7,11]","action_history":"[1,1,1,1,1]","door_history":"[0,0,0,0,0]","location_rts":"[1060,239,23,40,485]","trial_type":"two-door-navigation","trial_index":33,"time_elapsed":5760051,"internal_node_id":"0.0-2.0-31.0"},{"group":"dicyclic group of order 12","room_assignment":["red","pink","blue","purple","grey","green","orange","cyan","olive","ivory","brown","yellow"],"door_color_assignment":["white","black"],"door_generator_assignment":[1,0],"goal":1,"start":11,"action_noise":0.15,"location_history":"[11,3,0,4,8,0,1]","action_history":"[1,1,1,1,1,1]","door_history":"[0,0,0,0,0,0]","location_rts":"[699,201,399,404,178,105]","trial_type":"two-door-navigation","trial_index":34,"time_elapsed":5771588,"internal_node_id":"0.0-2.0-32.0"},{"group":"dicyclic group of order 12","room_assignment":["red","pink","blue","purple","grey","green","orange","cyan","olive","ivory","brown","yellow"],"door_color_assignment":["white","black"],"door_generator_assignment":[1,0],"goal":5,"start":1,"action_noise":0.15,"location_history":"[1,5]","action_history":"[1]","door_history":"[0]","location_rts":"[698]","trial_type":"two-door-navigation","trial_index":35,"time_elapsed":5776793,"internal_node_id":"0.0-2.0-33.0"},{"group":"dicyclic group of order 12","room_assignment":["red","pink","blue","purple","grey","green","orange","cyan","olive","ivory","brown","yellow"],"door_color_assignment":["white","black"],"door_generator_assignment":[1,0],"goal":9,"start":5,"action_noise":0.15,"location_history":"[5,9]","action_history":"[1]","door_history":"[0]","location_rts":"[637]","trial_type":"two-door-navigation","trial_index":36,"time_elapsed":5781939,"internal_node_id":"0.0-2.0-34.0"},{"view_history":"[{\"page_index\":0,\"viewing_time\":2396}]","rt":2398,"trial_type":"instructions","trial_index":37,"time_elapsed":5785337,"internal_node_id":"0.0-3.0"},{"view_history":"[{\"page_index\":0,\"viewing_time\":1729},{\"page_index\":1,\"viewing_time\":16478}]","rt":18208,"trial_type":"instructions","trial_index":38,"time_elapsed":5804545,"internal_node_id":"0.0-4.0"},{"group":"dicyclic group of order 12","fractal_assignment":["../images/cyn_red.png","../images/pnk_blu.png","../images/blu_wht.png","../images/grn_prp.png","../images/ylw_pnk.png","../images/grn_blu.png","../images/ylw_slt.png","../images/grn_red.png","../images/org_blu.png","../images/gry_blk.png","../images/wht_red.png","../images/red_prp.png"],"mutagen_generator_assignment":[0,1],"goal":4,"start":0,"action_noise":0.15,"location_history":"[0,1,5,9,1,2,3,0,1,5,10,7,8,5,9,6,10,7,11,3,7,8,0,4]","action_history":"[0,1,1,1,0,0,0,0,1,0,0,0,0,0,0,0,0,1,1,1,0,1,1]","mutagen_history":"[0,1,1,1,0,0,0,0,1,0,0,0,0,0,0,0,0,1,1,1,0,1,1]","location_rts":"[3519,1980,1111,688,1057,955,796,1011,892,575,502,1026,1047,653,474,541,803,1111,713,539,2614,388,465]","trial_type":"fractal-mutation","trial_index":39,"time_elapsed":5864013,"internal_node_id":"0.0-5.0-0.0"},{"group":"dicyclic group of order 12","fractal_assignment":["../images/cyn_red.png","../images/pnk_blu.png","../images/blu_wht.png","../images/grn_prp.png","../images/ylw_pnk.png","../images/grn_blu.png","../images/ylw_slt.png","../images/grn_red.png","../images/org_blu.png","../images/gry_blk.png","../images/wht_red.png","../images/red_prp.png"],"mutagen_generator_assignment":[0,1],"goal":9,"start":4,"action_noise":0.15,"location_history":"[4,9]","action_history":"[0]","mutagen_history":"[0]","location_rts":"[1760]","trial_type":"fractal-mutation","trial_index":40,"time_elapsed":5870424,"internal_node_id":"0.0-5.0-1.0"},{"group":"dicyclic group of order 12","fractal_assignment":["../images/cyn_red.png","../images/pnk_blu.png","../images/blu_wht.png","../images/grn_prp.png","../images/ylw_pnk.png","../images/grn_blu.png","../images/ylw_slt.png","../images/grn_red.png","../images/org_blu.png","../images/gry_blk.png","../images/wht_red.png","../images/red_prp.png"],"mutagen_generator_assignment":[0,1],"goal":10,"start":9,"action_noise":0.15,"location_history":"[9,6,11,4,9,1,5,9,1,2,6,11,4,9,6,11,4,8,0,4,8,5,10]","action_history":"[0,0,0,0,0,1,1,1,0,1,1,0,0,0,0,1,1,1,1,1,0,0]","mutagen_history":"[0,0,0,0,0,1,1,1,0,1,1,0,0,0,0,1,1,1,1,1,0,0]","location_rts":"[1224,562,604,525,751,1219,1089,773,675,997,574,1454,614,484,445,622,567,977,670,1080,930,404]","trial_type":"fractal-mutation","trial_index":41,"time_elapsed":5921928,"internal_node_id":"0.0-5.0-2.0"},{"group":"dicyclic group of order 12","fractal_assignment":["../images/cyn_red.png","../images/pnk_blu.png","../images/blu_wht.png","../images/grn_prp.png","../images/ylw_pnk.png","../images/grn_blu.png","../images/ylw_slt.png","../images/grn_red.png","../images/org_blu.png","../images/gry_blk.png","../images/wht_red.png","../images/red_prp.png"],"mutagen_generator_assignment":[0,1],"goal":2,"start":10,"action_noise":0.15,"location_history":"[10,7,8,5,9,1,2]","action_history":"[0,0,0,0,0,0]","mutagen_history":"[0,0,0,0,0,0]","location_rts":"[714,537,634,438,532,515]","trial_type":"fractal-mutation","trial_index":42,"time_elapsed":5935253,"internal_node_id":"0.0-5.0-3.0"},{"group":"dicyclic group of order 12","fractal_assignment":["../images/cyn_red.png","../images/pnk_blu.png","../images/blu_wht.png","../images/grn_prp.png","../images/ylw_pnk.png","../images/grn_blu.png","../images/ylw_slt.png","../images/grn_red.png","../images/org_blu.png","../images/gry_blk.png","../images/wht_red.png","../images/red_prp.png"],"mutagen_generator_assignment":[0,1],"goal":5,"start":2,"action_noise":0.15,"location_history":"[2,3,0,1,2,3,0,4,8,5]","action_history":"[0,0,0,0,0,0,1,1,1]","mutagen_history":"[0,0,0,0,0,0,1,1,1]","location_rts":"[1191,449,414,416,369,1175,829,460,421]","trial_type":"fractal-mutation","trial_index":43,"time_elapsed":5955647,"internal_node_id":"0.0-5.0-4.0"},{"group":"dicyclic group of order 12","fractal_assignment":["../images/cyn_red.png","../images/pnk_blu.png","../images/blu_wht.png","../images/grn_prp.png","../images/ylw_pnk.png","../images/grn_blu.png","../images/ylw_slt.png","../images/grn_red.png","../images/org_blu.png","../images/gry_blk.png","../images/wht_red.png","../images/red_prp.png"],"mutagen_generator_assignment":[0,1],"goal":11,"start":5,"action_noise":0.15,"location_history":"[5,10,7,8,5,9,1,5,9,1,5,9,6,11]","action_history":"[0,0,0,0,1,1,1,1,1,1,0,0,0]","mutagen_history":"[0,0,0,0,1,1,1,1,1,1,0,0,0]","location_rts":"[815,405,598,871,671,355,390,597,539,1030,893,378,432]","trial_type":"fractal-mutation","trial_index":44,"time_elapsed":5984949,"internal_node_id":"0.0-5.0-5.0"},{"group":"dicyclic group of order 12","fractal_assignment":["../images/cyn_red.png","../images/pnk_blu.png","../images/blu_wht.png","../images/grn_prp.png","../images/ylw_pnk.png","../images/grn_blu.png","../images/ylw_slt.png","../images/grn_red.png","../images/org_blu.png","../images/gry_blk.png","../images/wht_red.png","../images/red_prp.png"],"mutagen_generator_assignment":[0,1],"goal":6,"start":11,"action_noise":0.15,"location_history":"[11,3,0,1,2,3,0,1,5,9,1,5,9,6]","action_history":"[0,0,0,0,0,0,0,1,1,1,1,1,0]","mutagen_history":"[0,0,0,0,0,0,0,1,1,1,1,1,0]","location_rts":"[758,400,402,327,367,424,448,676,608,384,276,685,594]","trial_type":"fractal-mutation","trial_index":45,"time_elapsed":6011367,"internal_node_id":"0.0-5.0-6.0"},{"group":"dicyclic group of order 12","fractal_assignment":["../images/cyn_red.png","../images/pnk_blu.png","../images/blu_wht.png","../images/grn_prp.png","../images/ylw_pnk.png","../images/grn_blu.png","../images/ylw_slt.png","../images/grn_red.png","../images/org_blu.png","../images/gry_blk.png","../images/wht_red.png","../images/red_prp.png"],"mutagen_generator_assignment":[0,1],"goal":3,"start":6,"action_noise":0.15,"location_history":"[6,11,4,9,6,11,4,9,6,10,2,6,10,7,8,5,10,7,11,3]","action_history":"[0,0,0,0,0,0,0,0,1,1,1,1,0,0,0,0,0,1,1]","mutagen_history":"[0,0,0,0,0,0,0,0,1,1,1,1,0,0,0,0,0,1,1]","location_rts":"[559,244,421,473,475,395,583,914,644,513,563,499,860,424,803,540,520,615,464]","trial_type":"fractal-mutation","trial_index":46,"time_elapsed":6051648,"internal_node_id":"0.0-5.0-7.0"},{"group":"dicyclic group of order 12","fractal_assignment":["../images/cyn_red.png","../images/pnk_blu.png","../images/blu_wht.png","../images/grn_prp.png","../images/ylw_pnk.png","../images/grn_blu.png","../images/ylw_slt.png","../images/grn_red.png","../images/org_blu.png","../images/gry_blk.png","../images/wht_red.png","../images/red_prp.png"],"mutagen_generator_assignment":[0,1],"goal":8,"start":3,"action_noise":0.15,"location_history":"[3,7,11,4,9,1,2,3,7,8]","action_history":"[1,1,0,0,0,0,0,0,1]","mutagen_history":"[1,1,0,0,0,0,0,0,1]","location_rts":"[705,483,799,627,424,427,409,469,756]","trial_type":"fractal-mutation","trial_index":47,"time_elapsed":6072910,"internal_node_id":"0.0-5.0-8.0"},{"group":"dicyclic group of order 12","fractal_assignment":["../images/cyn_red.png","../images/pnk_blu.png","../images/blu_wht.png","../images/grn_prp.png","../images/ylw_pnk.png","../images/grn_blu.png","../images/ylw_slt.png","../images/grn_red.png","../images/org_blu.png","../images/gry_blk.png","../images/wht_red.png","../images/red_prp.png"],"mutagen_generator_assignment":[0,1],"goal":1,"start":8,"action_noise":0.15,"location_history":"[8,5,10,2,3,0,4,9,1]","action_history":"[0,0,0,0,0,1,1,1]","mutagen_history":"[0,0,0,0,0,1,1,1]","location_rts":"[710,490,498,502,798,716,717,458]","trial_type":"fractal-mutation","trial_index":48,"time_elapsed":6091293,"internal_node_id":"0.0-5.0-9.0"},{"group":"dicyclic group of order 12","fractal_assignment":["../images/cyn_red.png","../images/pnk_blu.png","../images/blu_wht.png","../images/grn_prp.png","../images/ylw_pnk.png","../images/grn_blu.png","../images/ylw_slt.png","../images/grn_red.png","../images/org_blu.png","../images/gry_blk.png","../images/wht_red.png","../images/red_prp.png"],"mutagen_generator_assignment":[0,1],"goal":7,"start":1,"action_noise":0.15,"location_history":"[1,2,3,0,1,2,3,0,4,9,1,2,6,11,3,7]","action_history":"[0,0,0,0,0,0,0,0,0,0,0,1,1,1,1]","mutagen_history":"[0,0,0,0,0,0,0,0,0,0,0,1,1,1,1]","location_rts":"[539,562,456,515,509,468,506,252,541,455,341,438,331,461,560]","trial_type":"fractal-mutation","trial_index":49,"time_elapsed":6119651,"internal_node_id":"0.0-5.0-10.0"},{"group":"dicyclic group of order 12","fractal_assignment":["../images/cyn_red.png","../images/pnk_blu.png","../images/blu_wht.png","../images/grn_prp.png","../images/ylw_pnk.png","../images/grn_blu.png","../images/ylw_slt.png","../images/grn_red.png","../images/org_blu.png","../images/gry_blk.png","../images/wht_red.png","../images/red_prp.png"],"mutagen_generator_assignment":[0,1],"goal":5,"start":7,"action_noise":0.15,"location_history":"[7,11,3,0,4,8,5]","action_history":"[1,1,1,1,0,0]","mutagen_history":"[1,1,1,1,0,0]","location_rts":"[649,40,367,395,318,144]","trial_type":"fractal-mutation","trial_index":50,"time_elapsed":6133920,"internal_node_id":"0.0-5.0-11.0"},{"group":"dicyclic group of order 12","fractal_assignment":["../images/cyn_red.png","../images/pnk_blu.png","../images/blu_wht.png","../images/grn_prp.png","../images/ylw_pnk.png","../images/grn_blu.png","../images/ylw_slt.png","../images/grn_red.png","../images/org_blu.png","../images/gry_blk.png","../images/wht_red.png","../images/red_prp.png"],"mutagen_generator_assignment":[0,1],"goal":8,"start":5,"action_noise":0.15,"location_history":"[5,10,7,8]","action_history":"[0,0,0]","mutagen_history":"[0,0,0]","location_rts":"[598,388,365]","trial_type":"fractal-mutation","trial_index":51,"time_elapsed":6142036,"internal_node_id":"0.0-5.0-12.0"},{"group":"dicyclic group of order 12","fractal_assignment":["../images/cyn_red.png","../images/pnk_blu.png","../images/blu_wht.png","../images/grn_prp.png","../images/ylw_pnk.png","../images/grn_blu.png","../images/ylw_slt.png","../images/grn_red.png","../images/org_blu.png","../images/gry_blk.png","../images/wht_red.png","../images/red_prp.png"],"mutagen_generator_assignment":[0,1],"goal":11,"start":8,"action_noise":0.15,"location_history":"[8,5,10,2,6,10,7,11]","action_history":"[0,0,0,1,1,1,1]","mutagen_history":"[0,0,0,1,1,1,1]","location_rts":"[912,691,22008,536,565,413,358]","trial_type":"fractal-mutation","trial_index":52,"time_elapsed":6180517,"internal_node_id":"0.0-5.0-13.0"},{"group":"dicyclic group of order 12","fractal_assignment":["../images/cyn_red.png","../images/pnk_blu.png","../images/blu_wht.png","../images/grn_prp.png","../images/ylw_pnk.png","../images/grn_blu.png","../images/ylw_slt.png","../images/grn_red.png","../images/org_blu.png","../images/gry_blk.png","../images/wht_red.png","../images/red_prp.png"],"mutagen_generator_assignment":[0,1],"goal":6,"start":11,"action_noise":0.15,"location_history":"[11,4,9,6]","action_history":"[0,0,0]","mutagen_history":"[0,0,0]","location_rts":"[972,461,391]","trial_type":"fractal-mutation","trial_index":53,"time_elapsed":6189008,"internal_node_id":"0.0-5.0-14.0"},{"group":"dicyclic group of order 12","fractal_assignment":["../images/cyn_red.png","../images/pnk_blu.png","../images/blu_wht.png","../images/grn_prp.png","../images/ylw_pnk.png","../images/grn_blu.png","../images/ylw_slt.png","../images/grn_red.png","../images/org_blu.png","../images/gry_blk.png","../images/wht_red.png","../images/red_prp.png"],"mutagen_generator_assignment":[0,1],"goal":7,"start":6,"action_noise":0.15,"location_history":"[6,11,4,9,6,10,2,6,10,2,3,0,1,2,3,0,4,9,6,10,2,3,0,4,8,5,9,1,5,9,1,2,6,11,3,7]","action_history":"[0,0,0,0,1,1,1,1,1,0,0,0,0,0,0,1,1,1,1,1,0,0,0,1,1,1,1,1,1,1,0,0,1,1,1]","mutagen_history":"[0,0,0,0,1,1,1,1,1,0,0,0,0,0,0,1,1,1,1,1,0,0,0,1,1,1,1,1,1,1,0,0,1,1,1]","location_rts":"[406,633,444,473,573,315,318,353,424,618,471,617,458,381,614,106,423,394,370,690,273,189,110,851,599,390,383,1040,566,419,664,683,771,414,352]","trial_type":"fractal-mutation","trial_index":54,"time_elapsed":6259418,"internal_node_id":"0.0-5.0-15.0"},{"group":"dicyclic group of order 12","fractal_assignment":["../images/cyn_red.png","../images/pnk_blu.png","../images/blu_wht.png","../images/grn_prp.png","../images/ylw_pnk.png","../images/grn_blu.png","../images/ylw_slt.png","../images/grn_red.png","../images/org_blu.png","../images/gry_blk.png","../images/wht_red.png","../images/red_prp.png"],"mutagen_generator_assignment":[0,1],"goal":10,"start":7,"action_noise":0.15,"location_history":"[7,11,4,9,1,2,3,7,8,5,9,6,11,4,8,0,4,8,0,1,2,3,0,1,5,10]","action_history":"[0,0,0,0,0,0,0,0,0,0,0,0,0,1,1,1,1,1,0,0,0,0,0,1,1]","mutagen_history":"[0,0,0,0,0,0,0,0,0,0,0,0,0,1,1,1,1,1,0,0,0,0,0,1,1]","location_rts":"[932,584,502,656,447,812,775,510,496,552,518,605,877,810,462,392,419,590,619,425,497,414,499,708,403]","trial_type":"fractal-mutation","trial_index":55,"time_elapsed":6308783,"internal_node_id":"0.0-5.0-16.0"},{"group":"dicyclic group of order 12","fractal_assignment":["../images/cyn_red.png","../images/pnk_blu.png","../images/blu_wht.png","../images/grn_prp.png","../images/ylw_pnk.png","../images/grn_blu.png","../images/ylw_slt.png","../images/grn_red.png","../images/org_blu.png","../images/gry_blk.png","../images/wht_red.png","../images/red_prp.png"],"mutagen_generator_assignment":[0,1],"goal":0,"start":10,"action_noise":0.15,"location_history":"[10,7,8,5,9,6,10,2,6,10,2,3,7,11,3,7,8,0]","action_history":"[0,0,0,0,0,1,1,1,1,1,0,1,1,1,1,0,1]","mutagen_history":"[0,0,0,0,0,1,1,1,1,1,0,1,1,1,1,0,1]","location_rts":"[874,961,486,498,414,442,339,1239,551,376,618,551,518,440,506,527,641]","trial_type":"fractal-mutation","trial_index":56,"time_elapsed":6345877,"internal_node_id":"0.0-5.0-17.0"},{"group":"dicyclic group of order 12","fractal_assignment":["../images/cyn_red.png","../images/pnk_blu.png","../images/blu_wht.png","../images/grn_prp.png","../images/ylw_pnk.png","../images/grn_blu.png","../images/ylw_slt.png","../images/grn_red.png","../images/org_blu.png","../images/gry_blk.png","../images/wht_red.png","../images/red_prp.png"],"mutagen_generator_assignment":[0,1],"goal":9,"start":0,"action_noise":0.15,"location_history":"[0,1,2,3,0,1,5,9]","action_history":"[0,0,0,0,0,1,1]","mutagen_history":"[0,0,0,0,0,1,1]","location_rts":"[1240,642,597,444,627,88,466]","trial_type":"fractal-mutation","trial_index":57,"time_elapsed":6362077,"internal_node_id":"0.0-5.0-18.0"},{"group":"dicyclic group of order 12","fractal_assignment":["../images/cyn_red.png","../images/pnk_blu.png","../images/blu_wht.png","../images/grn_prp.png","../images/ylw_pnk.png","../images/grn_blu.png","../images/ylw_slt.png","../images/grn_red.png","../images/org_blu.png","../images/gry_blk.png","../images/wht_red.png","../images/red_prp.png"],"mutagen_generator_assignment":[0,1],"goal":4,"start":9,"action_noise":0.15,"location_history":"[9,6,11,4]","action_history":"[0,0,0]","mutagen_history":"[0,0,0]","location_rts":"[648,1452,496]","trial_type":"fractal-mutation","trial_index":58,"time_elapsed":6371386,"internal_node_id":"0.0-5.0-19.0"},{"group":"dicyclic group of order 12","fractal_assignment":["../images/cyn_red.png","../images/pnk_blu.png","../images/blu_wht.png","../images/grn_prp.png","../images/ylw_pnk.png","../images/grn_blu.png","../images/ylw_slt.png","../images/grn_red.png","../images/org_blu.png","../images/gry_blk.png","../images/wht_red.png","../images/red_prp.png"],"mutagen_generator_assignment":[0,1],"goal":2,"start":4,"action_noise":0.15,"location_history":"[4,9,1,2]","action_history":"[0,0,0]","mutagen_history":"[0,0,0]","location_rts":"[762,458,746]","trial_type":"fractal-mutation","trial_index":59,"time_elapsed":6380103,"internal_node_id":"0.0-5.0-20.0"},{"group":"dicyclic group of order 12","fractal_assignment":["../images/cyn_red.png","../images/pnk_blu.png","../images/blu_wht.png","../images/grn_prp.png","../images/ylw_pnk.png","../images/grn_blu.png","../images/ylw_slt.png","../images/grn_red.png","../images/org_blu.png","../images/gry_blk.png","../images/wht_red.png","../images/red_prp.png"],"mutagen_generator_assignment":[0,1],"goal":1,"start":2,"action_noise":0.15,"location_history":"[2,6,11,4,8,5,10,7,8,5,10,7,11,3,7,8,5,9,6,10,2,3,7,8,5,10,2,6,10,2,3,0,4,8,0,4,9,1]","action_history":"[0,0,0,0,0,0,0,0,0,0,1,1,1,1,0,0,1,1,1,1,1,1,0,0,0,1,1,1,1,0,1,1,1,1,1,0,1]","mutagen_history":"[0,0,0,0,0,0,0,0,0,0,1,1,1,1,0,0,1,1,1,1,1,1,0,0,0,1,1,1,1,0,1,1,1,1,1,0,1]","location_rts":"[1436,185,392,409,493,488,505,418,447,510,1092,569,596,1412,1102,538,239,437,393,379,654,793,608,439,421,511,401,445,434,539,151,370,399,401,406,156,409]","trial_type":"fractal-mutation","trial_index":60,"time_elapsed":6454472,"internal_node_id":"0.0-5.0-21.0"},{"group":"dicyclic group of order 12","fractal_assignment":["../images/cyn_red.png","../images/pnk_blu.png","../images/blu_wht.png","../images/grn_prp.png","../images/ylw_pnk.png","../images/grn_blu.png","../images/ylw_slt.png","../images/grn_red.png","../images/org_blu.png","../images/gry_blk.png","../images/wht_red.png","../images/red_prp.png"],"mutagen_generator_assignment":[0,1],"goal":3,"start":1,"action_noise":0.15,"location_history":"[1,2,6,11,3]","action_history":"[0,1,0,1]","mutagen_history":"[0,1,0,1]","location_rts":"[564,704,738,271]","trial_type":"fractal-mutation","trial_index":61,"time_elapsed":6465638,"internal_node_id":"0.0-5.0-22.0"},{"group":"dicyclic group of order 12","fractal_assignment":["../images/cyn_red.png","../images/pnk_blu.png","../images/blu_wht.png","../images/grn_prp.png","../images/ylw_pnk.png","../images/grn_blu.png","../images/ylw_slt.png","../images/grn_red.png","../images/org_blu.png","../images/gry_blk.png","../images/wht_red.png","../images/red_prp.png"],"mutagen_generator_assignment":[0,1],"goal":7,"start":3,"action_noise":0.15,"location_history":"[3,0,1,5,10,7]","action_history":"[0,0,0,0,0]","mutagen_history":"[0,0,0,0,0]","location_rts":"[946,421,263,542,2835]","trial_type":"fractal-mutation","trial_index":62,"time_elapsed":6479446,"internal_node_id":"0.0-5.0-23.0"},{"group":"dicyclic group of order 12","fractal_assignment":["../images/cyn_red.png","../images/pnk_blu.png","../images/blu_wht.png","../images/grn_prp.png","../images/ylw_pnk.png","../images/grn_blu.png","../images/ylw_slt.png","../images/grn_red.png","../images/org_blu.png","../images/gry_blk.png","../images/wht_red.png","../images/red_prp.png"],"mutagen_generator_assignment":[0,1],"goal":6,"start":7,"action_noise":0.15,"location_history":"[7,8,0,1,5,10,7,11,4,9,1,2,6]","action_history":"[0,0,0,0,1,0,1,0,0,1,1,1]","mutagen_history":"[0,0,0,0,1,0,1,0,0,1,1,1]","location_rts":"[717,389,346,459,806,419,441,516,734,251,511,495]","trial_type":"fractal-mutation","trial_index":63,"time_elapsed":6504876,"internal_node_id":"0.0-5.0-24.0"},{"group":"dicyclic group of order 12","fractal_assignment":["../images/cyn_red.png","../images/pnk_blu.png","../images/blu_wht.png","../images/grn_prp.png","../images/ylw_pnk.png","../images/grn_blu.png","../images/ylw_slt.png","../images/grn_red.png","../images/org_blu.png","../images/gry_blk.png","../images/wht_red.png","../images/red_prp.png"],"mutagen_generator_assignment":[0,1],"goal":2,"start":6,"action_noise":0.15,"location_history":"[6,10,2]","action_history":"[1,1]","mutagen_history":"[1,1]","location_rts":"[1758,453]","trial_type":"fractal-mutation","trial_index":64,"time_elapsed":6513687,"internal_node_id":"0.0-5.0-25.0"},{"group":"dicyclic group of order 12","fractal_assignment":["../images/cyn_red.png","../images/pnk_blu.png","../images/blu_wht.png","../images/grn_prp.png","../images/ylw_pnk.png","../images/grn_blu.png","../images/ylw_slt.png","../images/grn_red.png","../images/org_blu.png","../images/gry_blk.png","../images/wht_red.png","../images/red_prp.png"],"mutagen_generator_assignment":[0,1],"goal":8,"start":2,"action_noise":0.15,"location_history":"[2,6,11,4,9,6,11,3,7,8]","action_history":"[1,0,0,0,0,0,1,0,0]","mutagen_history":"[1,0,0,0,0,0,1,0,0]","location_rts":"[1326,877,251,405,384,423,695,768,463]","trial_type":"fractal-mutation","trial_index":65,"time_elapsed":6534794,"internal_node_id":"0.0-5.0-26.0"},{"group":"dicyclic group of order 12","fractal_assignment":["../images/cyn_red.png","../images/pnk_blu.png","../images/blu_wht.png","../images/grn_prp.png","../images/ylw_pnk.png","../images/grn_blu.png","../images/ylw_slt.png","../images/grn_red.png","../images/org_blu.png","../images/gry_blk.png","../images/wht_red.png","../images/red_prp.png"],"mutagen_generator_assignment":[0,1],"goal":0,"start":8,"action_noise":0.15,"location_history":"[8,0]","action_history":"[0]","mutagen_history":"[0]","location_rts":"[635]","trial_type":"fractal-mutation","trial_index":66,"time_elapsed":6540003,"internal_node_id":"0.0-5.0-27.0"},{"group":"dicyclic group of order 12","fractal_assignment":["../images/cyn_red.png","../images/pnk_blu.png","../images/blu_wht.png","../images/grn_prp.png","../images/ylw_pnk.png","../images/grn_blu.png","../images/ylw_slt.png","../images/grn_red.png","../images/org_blu.png","../images/gry_blk.png","../images/wht_red.png","../images/red_prp.png"],"mutagen_generator_assignment":[0,1],"goal":3,"start":0,"action_noise":0.15,"location_history":"[0,1,2,3]","action_history":"[0,0,0]","mutagen_history":"[0,0,0]","location_rts":"[850,576,585]","trial_type":"fractal-mutation","trial_index":67,"time_elapsed":6548667,"internal_node_id":"0.0-5.0-28.0"},{"group":"dicyclic group of order 12","fractal_assignment":["../images/cyn_red.png","../images/pnk_blu.png","../images/blu_wht.png","../images/grn_prp.png","../images/ylw_pnk.png","../images/grn_blu.png","../images/ylw_slt.png","../images/grn_red.png","../images/org_blu.png","../images/gry_blk.png","../images/wht_red.png","../images/red_prp.png"],"mutagen_generator_assignment":[0,1],"goal":4,"start":3,"action_noise":0.15,"location_history":"[3,0,1,2,6,10,2,6,10,7,8,5,10,2,6,11,4]","action_history":"[0,0,0,0,1,1,1,1,0,0,0,1,1,1,0,0]","mutagen_history":"[0,0,0,0,1,1,1,1,0,0,0,1,1,1,0,0]","location_rts":"[617,398,589,689,810,420,504,416,300,352,370,377,399,585,364,395]","trial_type":"fractal-mutation","trial_index":68,"time_elapsed":6581768,"internal_node_id":"0.0-5.0-29.0"},{"group":"dicyclic group of order 12","fractal_assignment":["../images/cyn_red.png","../images/pnk_blu.png","../images/blu_wht.png","../images/grn_prp.png","../images/ylw_pnk.png","../images/grn_blu.png","../images/ylw_slt.png","../images/grn_red.png","../images/org_blu.png","../images/gry_blk.png","../images/wht_red.png","../images/red_prp.png"],"mutagen_generator_assignment":[0,1],"goal":10,"start":4,"action_noise":0.15,"location_history":"[4,8,5,10]","action_history":"[1,0,0]","mutagen_history":"[1,0,0]","location_rts":"[979,626,589]","trial_type":"fractal-mutation","trial_index":69,"time_elapsed":6591690,"internal_node_id":"0.0-5.0-30.0"},{"group":"dicyclic group of order 12","fractal_assignment":["../images/cyn_red.png","../images/pnk_blu.png","../images/blu_wht.png","../images/grn_prp.png","../images/ylw_pnk.png","../images/grn_blu.png","../images/ylw_slt.png","../images/grn_red.png","../images/org_blu.png","../images/gry_blk.png","../images/wht_red.png","../images/red_prp.png"],"mutagen_generator_assignment":[0,1],"goal":11,"start":10,"action_noise":0.15,"location_history":"[10,7,8,0,1,2,3,7,11]","action_history":"[0,0,0,0,0,0,1,1]","mutagen_history":"[0,0,0,0,0,0,1,1]","location_rts":"[590,372,442,409,396,429,476,438]","trial_type":"fractal-mutation","trial_index":70,"time_elapsed":6608502,"internal_node_id":"0.0-5.0-31.0"},{"group":"dicyclic group of order 12","fractal_assignment":["../images/cyn_red.png","../images/pnk_blu.png","../images/blu_wht.png","../images/grn_prp.png","../images/ylw_pnk.png","../images/grn_blu.png","../images/ylw_slt.png","../images/grn_red.png","../images/org_blu.png","../images/gry_blk.png","../images/wht_red.png","../images/red_prp.png"],"mutagen_generator_assignment":[0,1],"goal":1,"start":11,"action_noise":0.15,"location_history":"[11,3,7,8,0,4,8,0,4,9,1]","action_history":"[1,1,1,1,1,1,1,1,0,1]","mutagen_history":"[1,1,1,1,1,1,1,1,0,1]","location_rts":"[896,1930,413,406,567,481,645,552,556,463]","trial_type":"fractal-mutation","trial_index":71,"time_elapsed":6634293,"internal_node_id":"0.0-5.0-32.0"},{"group":"dicyclic group of order 12","fractal_assignment":["../images/cyn_red.png","../images/pnk_blu.png","../images/blu_wht.png","../images/grn_prp.png","../images/ylw_pnk.png","../images/grn_blu.png","../images/ylw_slt.png","../images/grn_red.png","../images/org_blu.png","../images/gry_blk.png","../images/wht_red.png","../images/red_prp.png"],"mutagen_generator_assignment":[0,1],"goal":5,"start":1,"action_noise":0.15,"location_history":"[1,5]","action_history":"[1]","mutagen_history":"[1]","location_rts":"[878]","trial_type":"fractal-mutation","trial_index":72,"time_elapsed":6640244,"internal_node_id":"0.0-5.0-33.0"},{"group":"dicyclic group of order 12","fractal_assignment":["../images/cyn_red.png","../images/pnk_blu.png","../images/blu_wht.png","../images/grn_prp.png","../images/ylw_pnk.png","../images/grn_blu.png","../images/ylw_slt.png","../images/grn_red.png","../images/org_blu.png","../images/gry_blk.png","../images/wht_red.png","../images/red_prp.png"],"mutagen_generator_assignment":[0,1],"goal":9,"start":5,"action_noise":0.15,"location_history":"[5,9]","action_history":"[1]","mutagen_history":"[1]","location_rts":"[1410]","trial_type":"fractal-mutation","trial_index":73,"time_elapsed":6646775,"internal_node_id":"0.0-5.0-34.0"},{"view_history":"[{\"page_index\":0,\"viewing_time\":7129}]","rt":7130,"trial_type":"instructions","trial_index":74,"time_elapsed":6654905,"internal_node_id":"0.0-6.0"},{"rt":2590,"responses":"{\"Q0\":\"n\"}","trial_type":"survey-text","trial_index":75,"time_elapsed":6658509,"internal_node_id":"0.0-7.0"}]