[{"view_history":"[{\"page_index\":0,\"viewing_time\":23618},{\"page_index\":1,\"viewing_time\":20126},{\"page_index\":2,\"viewing_time\":19727},{\"page_index\":3,\"viewing_time\":5731}]","rt":69203,"trial_type":"instructions","trial_index":0,"time_elapsed":69203,"internal_node_id":"0.0-0.0"},{"view_history":"[{\"page_index\":0,\"viewing_time\":2758},{\"page_index\":1,\"viewing_time\":28342}]","rt":31101,"trial_type":"instructions","trial_index":1,"time_elapsed":101305,"internal_node_id":"0.0-1.0"},{"group":"dihedral group of order 12","room_assignment":["red","cyan","green","pink","blue","grey","yellow","olive","brown","orange","ivory","purple"],"door_color_assignment":["black","white"],"door_generator_assignment":[0,1],"goal":4,"start":0,"action_noise":0.15,"location_history":"[0,6,0,1,2,3,4]","action_history":"[0,0,0,0,0,0]","door_history":"[0,0,0,0,0,0]","location_rts":"[3319,2362,1693,1189,1188,1055]","trial_type":"two-door-navigation","trial_index":2,"time_elapsed":121703,"internal_node_id":"0.0-2.0-0.0"},{"group":"dihedral group of order 12","room_assignment":["red","cyan","green","pink","blue","grey","yellow","olive","brown","orange","ivory","purple"],"door_color_assignment":["black","white"],"door_generator_assignment":[0,1],"goal":9,"start":4,"action_noise":0.15,"location_history":"[4,10,4,10,4,10,4,10,9]","action_history":"[1,1,1,1,1,1,0,0]","door_history":"[1,1,1,1,1,1,0,0]","location_rts":"[2641,297,235,237,232,523,1233,1217]","trial_type":"two-door-navigation","trial_index":3,"time_elapsed":139946,"internal_node_id":"0.0-2.0-1.0"},{"group":"dihedral group of order 12","room_assignment":["red","cyan","green","pink","blue","grey","yellow","olive","brown","orange","ivory","purple"],"door_color_assignment":["black","white"],"door_generator_assignment":[0,1],"goal":10,"start":9,"action_noise":0.15,"location_history":"[9,8,2,8,2,3,4,10]","action_history":"[1,1,1,1,0,0,0]","door_history":"[1,1,1,1,0,0,0]","location_rts":"[2292,675,395,1644,268,285,338]","trial_type":"two-door-navigation","trial_index":4,"time_elapsed":156464,"internal_node_id":"0.0-2.0-2.0"},{"group":"dihedral group of order 12","room_assignment":["red","cyan","green","pink","blue","grey","yellow","olive","brown","orange","ivory","purple"],"door_color_assignment":["black","white"],"door_generator_assignment":[0,1],"goal":2,"start":10,"action_noise":0.15,"location_history":"[10,4,10,9,3,9,3,4,5,0,1,2]","action_history":"[1,1,1,1,1,1,0,0,0,0,0]","door_history":"[1,1,1,1,1,1,0,0,0,0,0]","location_rts":"[2098,280,313,614,311,281,765,1173,369,418,396]","trial_type":"two-door-navigation","trial_index":5,"time_elapsed":178138,"internal_node_id":"0.0-2.0-3.0"},{"group":"dihedral group of order 12","room_assignment":["red","cyan","green","pink","blue","grey","yellow","olive","brown","orange","ivory","purple"],"door_color_assignment":["black","white"],"door_generator_assignment":[0,1],"goal":5,"start":2,"action_noise":0.15,"location_history":"[2,8,7,1,7,1,2,3,4,5]","action_history":"[1,1,1,1,1,0,0,0,0]","door_history":"[1,1,1,1,1,0,0,0,0]","location_rts":"[2603,1181,1466,652,527,502,678,991,710]","trial_type":"two-door-navigation","trial_index":6,"time_elapsed":200086,"internal_node_id":"0.0-2.0-4.0"},{"group":"dihedral group of order 12","room_assignment":["red","cyan","green","pink","blue","grey","yellow","olive","brown","orange","ivory","purple"],"door_color_assignment":["black","white"],"door_generator_assignment":[0,1],"goal":11,"start":5,"action_noise":0.15,"location_history":"[5,11]","action_history":"[1]","door_history":"[1]","location_rts":"[2423]","trial_type":"two-door-navigation","trial_index":7,"time_elapsed":207029,"internal_node_id":"0.0-2.0-5.0"},{"group":"dihedral group of order 12","room_assignment":["red","cyan","green","pink","blue","grey","yellow","olive","brown","orange","ivory","purple"],"door_color_assignment":["black","white"],"door_generator_assignment":[0,1],"goal":6,"start":11,"action_noise":0.15,"location_history":"[11,10,9,3,4,10,4,5,11,5,0,1,2,3,4,10,9,8,2,3,4,5,0,1,2,3,4,5,0,1,7,1,7,1,2,3,9,8,2,8,7,6]","action_history":"[0,0,1,0,1,1,1,0,0,0,0,0,0,0,1,1,0,0,0,0,0,0,0,0,0,0,0,1,0,1,1,1,1,1,0,1,1,1,1,0,0]","door_history":"[0,0,1,0,1,1,1,0,0,0,0,0,0,0,1,1,0,0,0,0,0,0,0,0,0,0,0,1,0,1,1,1,1,1,0,1,1,1,1,0,0]","location_rts":"[2592,1804,2208,660,425,565,682,221,933,332,329,269,255,840,620,325,643,360,292,395,305,736,441,439,246,411,748,183,734,783,1297,350,364,478,96,656,919,663,540,352,322]","trial_type":"two-door-navigation","trial_index":8,"time_elapsed":277943,"internal_node_id":"0.0-2.0-6.0"},{"group":"dihedral group of order 12","room_assignment":["red","cyan","green","pink","blue","grey","yellow","olive","brown","orange","ivory","purple"],"door_color_assignment":["black","white"],"door_generator_assignment":[0,1],"goal":3,"start":6,"action_noise":0.15,"location_history":"[6,0,6,0,6,0,6,11,5,0,6,11,5,0,6,0,1,7,6,11,5,0,1,7,6,11,5,0,1,2,3]","action_history":"[1,1,1,0,1,0,0,1,1,1,0,0,1,1,0,0,0,0,0,0,1,0,1,1,0,0,0,0,0,0]","door_history":"[1,1,1,0,1,0,0,1,1,1,0,0,1,1,0,0,0,0,0,0,1,0,1,1,0,0,0,0,0,0]","location_rts":"[1484,322,446,736,595,883,225,1296,585,456,1169,634,1097,2122,1027,209,331,913,860,1192,1067,1928,922,1496,199,439,257,2010,1388,1500]","trial_type":"two-door-navigation","trial_index":9,"time_elapsed":339660,"internal_node_id":"0.0-2.0-7.0"},{"group":"dihedral group of order 12","room_assignment":["red","cyan","green","pink","blue","grey","yellow","olive","brown","orange","ivory","purple"],"door_color_assignment":["black","white"],"door_generator_assignment":[0,1],"goal":8,"start":3,"action_noise":0.15,"location_history":"[3,9,8]","action_history":"[0,0]","door_history":"[0,0]","location_rts":"[3155,598]","trial_type":"two-door-navigation","trial_index":10,"time_elapsed":348937,"internal_node_id":"0.0-2.0-8.0"},{"group":"dihedral group of order 12","room_assignment":["red","cyan","green","pink","blue","grey","yellow","olive","brown","orange","ivory","purple"],"door_color_assignment":["black","white"],"door_generator_assignment":[0,1],"goal":1,"start":8,"action_noise":0.15,"location_history":"[8,7,1]","action_history":"[1,1]","door_history":"[1,1]","location_rts":"[1634,1099]","trial_type":"two-door-navigation","trial_index":11,"time_elapsed":357203,"internal_node_id":"0.0-2.0-9.0"},{"group":"dihedral group of order 12","room_assignment":["red","cyan","green","pink","blue","grey","yellow","olive","brown","orange","ivory","purple"],"door_color_assignment":["black","white"],"door_generator_assignment":[0,1],"goal":7,"start":1,"action_noise":0.15,"location_history":"[1,2,3,4,5,0,6,0,6,11,5,11,5,11,10,4,10,9,3,9,8,7]","action_history":"[0,0,0,0,0,1,1,1,0,1,1,1,1,0,1,1,0,1,1,0,1]","door_history":"[0,0,0,0,0,1,1,1,0,1,1,1,1,0,1,1,0,1,1,0,1]","location_rts":"[1762,578,362,399,1099,3491,1104,453,517,711,818,1630,1051,704,1010,506,588,1063,681,480,851]","trial_type":"two-door-navigation","trial_index":12,"time_elapsed":401872,"internal_node_id":"0.0-2.0-10.0"},{"group":"dihedral group of order 12","room_assignment":["red","cyan","green","pink","blue","grey","yellow","olive","brown","orange","ivory","purple"],"door_color_assignment":["black","white"],"door_generator_assignment":[0,1],"goal":5,"start":7,"action_noise":0.15,"location_history":"[7,1,2,3,9,3,9,3,4,10,4,10,9,8,2,8,7,1,7,6,0,6,11,5]","action_history":"[1,1,1,1,1,1,1,0,1,1,1,0,0,1,1,0,1,1,0,1,1,0,1]","door_history":"[1,1,1,1,1,1,1,0,1,1,1,0,0,1,1,0,1,1,0,1,1,0,1]","location_rts":"[1504,384,307,201,395,306,317,561,504,243,337,242,402,415,474,703,841,669,224,549,359,250,693]","trial_type":"two-door-navigation","trial_index":13,"time_elapsed":439578,"internal_node_id":"0.0-2.0-11.0"},{"group":"dihedral group of order 12","room_assignment":["red","cyan","green","pink","blue","grey","yellow","olive","brown","orange","ivory","purple"],"door_color_assignment":["black","white"],"door_generator_assignment":[0,1],"goal":8,"start":5,"action_noise":0.15,"location_history":"[5,0,1,2,3,9,3,4,10,9,3,4,5,11,5,11,10,9,8]","action_history":"[0,1,0,1,0,1,0,1,0,0,0,0,1,1,1,0,0,0]","door_history":"[0,1,0,1,0,1,0,1,0,0,0,0,1,1,1,0,0,0]","location_rts":"[1003,891,496,134,148,158,326,573,255,930,371,1156,840,476,409,339,946,601]","trial_type":"two-door-navigation","trial_index":14,"time_elapsed":471398,"internal_node_id":"0.0-2.0-12.0"},{"group":"dihedral group of order 12","room_assignment":["red","cyan","green","pink","blue","grey","yellow","olive","brown","orange","ivory","purple"],"door_color_assignment":["black","white"],"door_generator_assignment":[0,1],"goal":11,"start":8,"action_noise":0.15,"location_history":"[8,7,1,2,8,2,8,7,6,0,1,7,6,11]","action_history":"[0,1,0,1,1,1,1,1,1,0,1,1,0]","door_history":"[0,1,0,1,1,1,1,1,1,0,1,1,0]","location_rts":"[2334,476,339,244,272,288,341,817,908,453,368,505,270]","trial_type":"two-door-navigation","trial_index":15,"time_elapsed":495691,"internal_node_id":"0.0-2.0-13.0"},{"group":"dihedral group of order 12","room_assignment":["red","cyan","green","pink","blue","grey","yellow","olive","brown","orange","ivory","purple"],"door_color_assignment":["black","white"],"door_generator_assignment":[0,1],"goal":6,"start":11,"action_noise":0.15,"location_history":"[11,10,4,5,11,5,11,10,9,8,7,6]","action_history":"[0,1,0,1,1,1,0,0,0,0,0]","door_history":"[0,1,0,1,1,1,0,0,0,0,0]","location_rts":"[866,760,440,1297,289,389,382,686,524,385,293]","trial_type":"two-door-navigation","trial_index":16,"time_elapsed":516672,"internal_node_id":"0.0-2.0-14.0"},{"group":"dihedral group of order 12","room_assignment":["red","cyan","green","pink","blue","grey","yellow","olive","brown","orange","ivory","purple"],"door_color_assignment":["black","white"],"door_generator_assignment":[0,1],"goal":7,"start":6,"action_noise":0.15,"location_history":"[6,11,5,11,10,4,10,9,3,9,8,2,8,7]","action_history":"[0,1,1,0,1,1,0,1,1,0,1,1,0]","door_history":"[0,1,1,0,1,1,0,1,1,0,1,1,0]","location_rts":"[783,641,402,1187,624,470,365,424,722,191,482,441,420]","trial_type":"two-door-navigation","trial_index":17,"time_elapsed":540513,"internal_node_id":"0.0-2.0-15.0"},{"group":"dihedral group of order 12","room_assignment":["red","cyan","green","pink","blue","grey","yellow","olive","brown","orange","ivory","purple"],"door_color_assignment":["black","white"],"door_generator_assignment":[0,1],"goal":10,"start":7,"action_noise":0.15,"location_history":"[7,6,0,6,0,6,0,1,7,1,2,8,7,6,11,10]","action_history":"[0,1,1,0,1,1,0,1,1,0,1,1,0,1,0]","door_history":"[0,1,1,0,1,1,0,1,1,0,1,1,0,1,0]","location_rts":"[3144,487,357,259,311,1596,146,642,1437,1565,761,427,301,601,670]","trial_type":"two-door-navigation","trial_index":18,"time_elapsed":571942,"internal_node_id":"0.0-2.0-16.0"},{"group":"dihedral group of order 12","room_assignment":["red","cyan","green","pink","blue","grey","yellow","olive","brown","orange","ivory","purple"],"door_color_assignment":["black","white"],"door_generator_assignment":[0,1],"goal":0,"start":10,"action_noise":0.15,"location_history":"[10,4,10,9,3,4,10,4,10,4,5,0]","action_history":"[1,1,0,0,0,1,1,1,1,0,1]","door_history":"[1,1,0,0,0,1,1,1,1,0,1]","location_rts":"[1882,9953,1313,403,717,647,390,646,323,201,1293]","trial_type":"two-door-navigation","trial_index":19,"time_elapsed":604376,"internal_node_id":"0.0-2.0-17.0"},{"group":"dihedral group of order 12","room_assignment":["red","cyan","green","pink","blue","grey","yellow","olive","brown","orange","ivory","purple"],"door_color_assignment":["black","white"],"door_generator_assignment":[0,1],"goal":9,"start":0,"action_noise":0.15,"location_history":"[0,1,2,8,7,6,11,5,11,5,0,1,7,1,2,8,2,3,4,10,9]","action_history":"[0,0,1,1,0,1,1,1,1,0,1,1,1,0,1,1,0,1,1,1]","door_history":"[0,0,1,1,0,1,1,1,1,0,1,1,1,0,1,1,0,1,1,1]","location_rts":"[850,32,983,283,229,521,307,728,1845,656,774,290,495,441,475,303,974,404,355,576]","trial_type":"two-door-navigation","trial_index":20,"time_elapsed":639662,"internal_node_id":"0.0-2.0-18.0"},{"group":"dihedral group of order 12","room_assignment":["red","cyan","green","pink","blue","grey","yellow","olive","brown","orange","ivory","purple"],"door_color_assignment":["black","white"],"door_generator_assignment":[0,1],"goal":4,"start":9,"action_noise":0.15,"location_history":"[9,8,2,8,7,6,0,6,0,6,0,1,7,1,2,8,2,3,9,3,4]","action_history":"[0,1,1,0,1,1,1,0,1,1,0,1,1,0,1,1,0,1,1,0]","door_history":"[0,1,1,0,1,1,1,0,1,1,0,1,1,0,1,1,0,1,1,0]","location_rts":"[1330,437,563,538,659,321,885,1821,438,252,1399,645,540,774,328,408,876,451,423,1277]","trial_type":"two-door-navigation","trial_index":21,"time_elapsed":677811,"internal_node_id":"0.0-2.0-19.0"},{"group":"dihedral group of order 12","room_assignment":["red","cyan","green","pink","blue","grey","yellow","olive","brown","orange","ivory","purple"],"door_color_assignment":["black","white"],"door_generator_assignment":[0,1],"goal":2,"start":4,"action_noise":0.15,"location_history":"[4,5,11,5,0,6,0,1,7,1,2]","action_history":"[0,1,1,0,1,1,0,1,1,0]","door_history":"[0,1,1,0,1,1,0,1,1,0]","location_rts":"[1227,410,385,465,400,401,429,358,467,548]","trial_type":"two-door-navigation","trial_index":22,"time_elapsed":696551,"internal_node_id":"0.0-2.0-20.0"},{"group":"dihedral group of order 12","room_assignment":["red","cyan","green","pink","blue","grey","yellow","olive","brown","orange","ivory","purple"],"door_color_assignment":["black","white"],"door_generator_assignment":[0,1],"goal":1,"start":2,"action_noise":0.15,"location_history":"[2,3,9,3,4,10,4,5,11,5,11,5,11,10,4,10,9,3,9,8,2,8,7,6,0,6,11,5,11,10,4,5,0,6,0,6,11,10,9,8,7,6,0,6,0,6,11,10,9,3,9,8,7,1]","action_history":"[0,1,0,1,1,1,0,1,1,0,1,1,0,1,1,0,1,1,0,1,1,0,1,1,1,0,1,1,0,1,1,0,1,1,0,0,1,1,0,1,1,1,1,1,1,0,1,0,1,1,1,1,1]","door_history":"[0,1,0,1,1,1,0,1,1,0,1,1,0,1,1,0,1,1,0,1,1,0,1,1,1,0,1,1,0,1,1,0,1,1,0,0,1,1,0,1,1,1,1,1,1,0,1,0,1,1,1,1,1]","location_rts":"[1529,249,173,359,258,1187,1122,429,396,756,223,237,323,1073,400,633,398,355,461,313,609,442,824,1595,954,1209,458,369,426,3259,691,1501,534,402,707,1098,679,1994,2190,1970,607,855,1010,2619,1610,371,1103,671,842,538,433,2181,432]","trial_type":"two-door-navigation","trial_index":23,"time_elapsed":799880,"internal_node_id":"0.0-2.0-21.0"},{"group":"dihedral group of order 12","room_assignment":["red","cyan","green","pink","blue","grey","yellow","olive","brown","orange","ivory","purple"],"door_color_assignment":["black","white"],"door_generator_assignment":[0,1],"goal":3,"start":1,"action_noise":0.15,"location_history":"[1,2,8,2,3]","action_history":"[0,1,1,0]","door_history":"[0,1,1,0]","location_rts":"[1016,602,341,553]","trial_type":"two-door-navigation","trial_index":24,"time_elapsed":809956,"internal_node_id":"0.0-2.0-22.0"},{"group":"dihedral group of order 12","room_assignment":["red","cyan","green","pink","blue","grey","yellow","olive","brown","orange","ivory","purple"],"door_color_assignment":["black","white"],"door_generator_assignment":[0,1],"goal":7,"start":3,"action_noise":0.15,"location_history":"[3,9,3,9,8,7]","action_history":"[0,1,1,0,1]","door_history":"[0,1,1,0,1]","location_rts":"[1184,509,254,420,301]","trial_type":"two-door-navigation","trial_index":25,"time_elapsed":821196,"internal_node_id":"0.0-2.0-23.0"},{"group":"dihedral group of order 12","room_assignment":["red","cyan","green","pink","blue","grey","yellow","olive","brown","orange","ivory","purple"],"door_color_assignment":["black","white"],"door_generator_assignment":[0,1],"goal":6,"start":7,"action_noise":0.15,"location_history":"[7,1,7,1,7,1,7,6]","action_history":"[0,1,1,0,1,1,0]","door_history":"[0,1,1,0,1,1,0]","location_rts":"[510,247,306,291,271,247,220]","trial_type":"two-door-navigation","trial_index":26,"time_elapsed":833907,"internal_node_id":"0.0-2.0-24.0"},{"group":"dihedral group of order 12","room_assignment":["red","cyan","green","pink","blue","grey","yellow","olive","brown","orange","ivory","purple"],"door_color_assignment":["black","white"],"door_generator_assignment":[0,1],"goal":2,"start":6,"action_noise":0.15,"location_history":"[6,11,5,11,10,4,10,4,5,11,5,11,10,4,10,9,3,9,8,2]","action_history":"[0,1,1,0,1,1,0,1,1,1,1,0,1,1,0,1,1,0,1]","door_history":"[0,1,1,0,1,1,0,1,1,1,1,0,1,1,0,1,1,0,1]","location_rts":"[1286,133,294,256,208,284,485,251,247,1120,900,238,1276,442,1635,540,494,360,334]","trial_type":"two-door-navigation","trial_index":27,"time_elapsed":867476,"internal_node_id":"0.0-2.0-25.0"},{"group":"dihedral group of order 12","room_assignment":["red","cyan","green","pink","blue","grey","yellow","olive","brown","orange","ivory","purple"],"door_color_assignment":["black","white"],"door_generator_assignment":[0,1],"goal":8,"start":2,"action_noise":0.15,"location_history":"[2,3,9,8]","action_history":"[0,1,0]","door_history":"[0,1,0]","location_rts":"[581,541,511]","trial_type":"two-door-navigation","trial_index":28,"time_elapsed":875653,"internal_node_id":"0.0-2.0-26.0"},{"group":"dihedral group of order 12","room_assignment":["red","cyan","green","pink","blue","grey","yellow","olive","brown","orange","ivory","purple"],"door_color_assignment":["black","white"],"door_generator_assignment":[0,1],"goal":0,"start":8,"action_noise":0.15,"location_history":"[8,7,1,7,1,7,6,11,5,11,10,9,3,9,8,2,8,7,1,7,1,2,3,4,10,4,5,0]","action_history":"[0,1,1,0,1,1,0,1,1,0,0,1,1,0,1,1,0,1,1,1,0,0,0,1,1,0,1]","door_history":"[0,1,1,0,1,1,0,1,1,0,0,1,1,0,1,1,0,1,1,1,0,0,0,1,1,0,1]","location_rts":"[779,346,443,394,336,366,192,601,356,1156,1481,497,889,569,369,784,602,648,756,447,207,1610,1237,3763,873,314,1240]","trial_type":"two-door-navigation","trial_index":29,"time_elapsed":927804,"internal_node_id":"0.0-2.0-27.0"},{"group":"dihedral group of order 12","room_assignment":["red","cyan","green","pink","blue","grey","yellow","olive","brown","orange","ivory","purple"],"door_color_assignment":["black","white"],"door_generator_assignment":[0,1],"goal":3,"start":0,"action_noise":0.15,"location_history":"[0,1,7,6,11,5,11,10,9,8,2,8,7,1,7,1,2,8,2,3]","action_history":"[0,1,1,1,1,1,0,0,1,1,1,0,1,1,1,0,1,1,0]","door_history":"[0,1,1,1,1,1,0,0,1,1,1,0,1,1,1,0,1,1,0]","location_rts":"[1664,255,330,2862,858,1160,676,854,584,951,1295,1315,1243,516,964,99,361,805,412]","trial_type":"two-door-navigation","trial_index":30,"time_elapsed":967787,"internal_node_id":"0.0-2.0-28.0"},{"group":"dihedral group of order 12","room_assignment":["red","cyan","green","pink","blue","grey","yellow","olive","brown","orange","ivory","purple"],"door_color_assignment":["black","white"],"door_generator_assignment":[0,1],"goal":4,"start":3,"action_noise":0.15,"location_history":"[3,4]","action_history":"[0]","door_history":"[0]","location_rts":"[634]","trial_type":"two-door-navigation","trial_index":31,"time_elapsed":972934,"internal_node_id":"0.0-2.0-29.0"},{"group":"dihedral group of order 12","room_assignment":["red","cyan","green","pink","blue","grey","yellow","olive","brown","orange","ivory","purple"],"door_color_assignment":["black","white"],"door_generator_assignment":[0,1],"goal":10,"start":4,"action_noise":0.15,"location_history":"[4,5,11,5,0,6,11,5,11,10]","action_history":"[0,1,1,0,1,1,1,1,0]","door_history":"[0,1,1,0,1,1,1,1,0]","location_rts":"[563,560,539,898,442,429,666,835,79]","trial_type":"two-door-navigation","trial_index":32,"time_elapsed":990574,"internal_node_id":"0.0-2.0-30.0"},{"group":"dihedral group of order 12","room_assignment":["red","cyan","green","pink","blue","grey","yellow","olive","brown","orange","ivory","purple"],"door_color_assignment":["black","white"],"door_generator_assignment":[0,1],"goal":11,"start":10,"action_noise":0.15,"location_history":"[10,9,3,9,8,7,1,7,6,0,6,0,1,7,1,7,6,11]","action_history":"[0,1,1,0,1,1,1,0,1,1,1,0,1,1,0,0,0]","door_history":"[0,1,1,0,1,1,1,0,1,1,1,0,1,1,0,0,0]","location_rts":"[577,425,327,453,643,440,548,1539,646,944,393,159,813,495,744,794,1037]","trial_type":"two-door-navigation","trial_index":33,"time_elapsed":1022287,"internal_node_id":"0.0-2.0-31.0"},{"group":"dihedral group of order 12","room_assignment":["red","cyan","green","pink","blue","grey","yellow","olive","brown","orange","ivory","purple"],"door_color_assignment":["black","white"],"door_generator_assignment":[0,1],"goal":1,"start":11,"action_noise":0.15,"location_history":"[11,10,4,10,9,8,7,1]","action_history":"[0,1,1,0,0,0,1]","door_history":"[0,1,1,0,0,0,1]","location_rts":"[729,324,586,340,296,354,1073]","trial_type":"two-door-navigation","trial_index":34,"time_elapsed":1036587,"internal_node_id":"0.0-2.0-32.0"},{"group":"dihedral group of order 12","room_assignment":["red","cyan","green","pink","blue","grey","yellow","olive","brown","orange","ivory","purple"],"door_color_assignment":["black","white"],"door_generator_assignment":[0,1],"goal":5,"start":1,"action_noise":0.15,"location_history":"[1,7,1,2,8,2,3,9,3,4,10,9,3,9,8,2,3,9,8,2,3,9,8,2,8,7,1,7,6,11,10,4,10,9,3,4,5]","action_history":"[1,1,0,1,1,0,1,1,0,1,0,1,1,0,1,1,1,1,1,0,1,0,1,1,0,1,1,0,1,1,1,1,0,1,0,0]","door_history":"[1,1,0,1,1,0,1,1,0,1,0,1,1,0,1,1,1,1,1,0,1,0,1,1,0,1,1,0,1,1,1,1,0,1,0,0]","location_rts":"[1634,534,346,482,347,869,315,350,847,607,2648,456,302,351,653,1372,958,780,728,613,659,816,312,739,1427,1212,563,706,2126,425,1207,548,1027,913,1375,895]","trial_type":"two-door-navigation","trial_index":35,"time_elapsed":1106734,"internal_node_id":"0.0-2.0-33.0"},{"group":"dihedral group of order 12","room_assignment":["red","cyan","green","pink","blue","grey","yellow","olive","brown","orange","ivory","purple"],"door_color_assignment":["black","white"],"door_generator_assignment":[0,1],"goal":9,"start":5,"action_noise":0.15,"location_history":"[5,11,5,11,10,4,10,9]","action_history":"[0,1,1,0,1,1,0]","door_history":"[0,1,1,0,1,1,0]","location_rts":"[613,406,348,442,623,324,369]","trial_type":"two-door-navigation","trial_index":36,"time_elapsed":1120454,"internal_node_id":"0.0-2.0-34.0"},{"view_history":"[{\"page_index\":0,\"viewing_time\":3174}]","rt":3174,"trial_type":"instructions","trial_index":37,"time_elapsed":1124628,"internal_node_id":"0.0-3.0"},{"view_history":"[{\"page_index\":0,\"viewing_time\":4651},{\"page_index\":1,\"viewing_time\":43871}]","rt":48523,"trial_type":"instructions","trial_index":38,"time_elapsed":1174152,"internal_node_id":"0.0-4.0"},{"group":"dihedral group of order 12","fractal_assignment":["../images/grn_prp.png","../images/pnk_blu.png","../images/grn_blu.png","../images/blu_wht.png","../images/ylw_pnk.png","../images/ylw_slt.png","../images/gry_blk.png","../images/cyn_red.png","../images/grn_red.png","../images/wht_red.png","../images/red_prp.png","../images/org_blu.png"],"mutagen_generator_assignment":[1,0],"goal":4,"start":0,"action_noise":0.15,"location_history":"[0,1,7,1,2,8,7,6,0,1,2,3,9,8,7,1,7,6,0,6,11,10,4]","action_history":"[1,1,0,0,1,0,0,0,0,1,0,1,0,0,1,1,0,1,0,1,0,1]","mutagen_history":"[0,0,1,1,0,1,1,1,1,0,1,0,1,1,0,0,1,0,1,0,1,0]","location_rts":"[4907,1951,442,1072,860,704,497,623,471,1060,1932,1223,1069,1002,931,2143,861,974,2203,1053,1104,1207]","trial_type":"fractal-mutation","trial_index":39,"time_elapsed":1229420,"internal_node_id":"0.0-5.0-0.0"},{"group":"dihedral group of order 12","fractal_assignment":["../images/grn_prp.png","../images/pnk_blu.png","../images/grn_blu.png","../images/blu_wht.png","../images/ylw_pnk.png","../images/ylw_slt.png","../images/gry_blk.png","../images/cyn_red.png","../images/grn_red.png","../images/wht_red.png","../images/red_prp.png","../images/org_blu.png"],"mutagen_generator_assignment":[1,0],"goal":9,"start":4,"action_noise":0.15,"location_history":"[4,5,0,6,11,10,4,5,11,5,0,1,7,6,11,5,11,5,0,6,0,6,11,10,4,10,4,5,0,1,7,6,0,6,0,6,11,5,11,5,11,5,0,6,11,5,11,5,11,10,4,10,9]","action_history":"[0,1,1,0,0,0,0,0,1,0,0,0,0,0,1,1,1,0,1,1,1,1,0,1,1,1,0,1,0,1,0,0,1,1,1,0,1,0,1,1,0,0,1,0,1,1,1,0,0,1,0,0]","mutagen_history":"[1,0,0,1,1,1,1,1,0,1,1,1,1,1,0,0,0,1,0,0,0,0,1,0,0,0,1,0,1,0,1,1,0,0,0,1,0,1,0,0,1,1,0,1,0,0,0,1,1,0,1,1]","location_rts":"[975,606,530,1210,1137,1360,711,588,1592,1751,699,748,393,1049,1352,709,1116,279,517,1042,963,792,261,429,960,1219,345,848,1432,930,1160,584,435,393,599,809,1238,317,1194,324,819,923,995,1336,1292,397,717,205,870,3012,962,1979]","trial_type":"fractal-mutation","trial_index":40,"time_elapsed":1335510,"internal_node_id":"0.0-5.0-1.0"},{"group":"dihedral group of order 12","fractal_assignment":["../images/grn_prp.png","../images/pnk_blu.png","../images/grn_blu.png","../images/blu_wht.png","../images/ylw_pnk.png","../images/ylw_slt.png","../images/gry_blk.png","../images/cyn_red.png","../images/grn_red.png","../images/wht_red.png","../images/red_prp.png","../images/org_blu.png"],"mutagen_generator_assignment":[1,0],"goal":10,"start":9,"action_noise":0.15,"location_history":"[9,3,9,3,4,5,11,10]","action_history":"[1,1,1,0,0,1,0]","mutagen_history":"[0,0,0,1,1,0,1]","location_rts":"[793,455,866,132,1214,1221,3310]","trial_type":"fractal-mutation","trial_index":41,"time_elapsed":1354373,"internal_node_id":"0.0-5.0-2.0"},{"group":"dihedral group of order 12","fractal_assignment":["../images/grn_prp.png","../images/pnk_blu.png","../images/grn_blu.png","../images/blu_wht.png","../images/ylw_pnk.png","../images/ylw_slt.png","../images/gry_blk.png","../images/cyn_red.png","../images/grn_red.png","../images/wht_red.png","../images/red_prp.png","../images/org_blu.png"],"mutagen_generator_assignment":[1,0],"goal":2,"start":10,"action_noise":0.15,"location_history":"[10,4,10,4,5,0,6,0,6,11,10,9,8,7,6,11,5,11,10,4,10,4,5,0,1,2]","action_history":"[1,1,0,0,1,1,1,1,0,0,0,0,0,0,0,1,1,0,1,0,1,1,0,1,1]","mutagen_history":"[0,0,1,1,0,0,0,0,1,1,1,1,1,1,1,0,0,1,0,1,0,0,1,0,0]","location_rts":"[1089,336,548,543,999,711,315,371,32,357,545,678,600,554,517,523,695,1320,515,422,881,212,1644,1332,1453]","trial_type":"fractal-mutation","trial_index":42,"time_elapsed":1401675,"internal_node_id":"0.0-5.0-3.0"},{"group":"dihedral group of order 12","fractal_assignment":["../images/grn_prp.png","../images/pnk_blu.png","../images/grn_blu.png","../images/blu_wht.png","../images/ylw_pnk.png","../images/ylw_slt.png","../images/gry_blk.png","../images/cyn_red.png","../images/grn_red.png","../images/wht_red.png","../images/red_prp.png","../images/org_blu.png"],"mutagen_generator_assignment":[1,0],"goal":5,"start":2,"action_noise":0.15,"location_history":"[2,8,2,8,7,6,11,5]","action_history":"[1,1,0,0,0,0,1]","mutagen_history":"[0,0,1,1,1,1,0]","location_rts":"[276,213,244,574,550,705,1379]","trial_type":"fractal-mutation","trial_index":43,"time_elapsed":1416544,"internal_node_id":"0.0-5.0-4.0"},{"group":"dihedral group of order 12","fractal_assignment":["../images/grn_prp.png","../images/pnk_blu.png","../images/grn_blu.png","../images/blu_wht.png","../images/ylw_pnk.png","../images/ylw_slt.png","../images/gry_blk.png","../images/cyn_red.png","../images/grn_red.png","../images/wht_red.png","../images/red_prp.png","../images/org_blu.png"],"mutagen_generator_assignment":[1,0],"goal":11,"start":5,"action_noise":0.15,"location_history":"[5,11]","action_history":"[1]","mutagen_history":"[0]","location_rts":"[631]","trial_type":"fractal-mutation","trial_index":44,"time_elapsed":1421703,"internal_node_id":"0.0-5.0-5.0"},{"group":"dihedral group of order 12","fractal_assignment":["../images/grn_prp.png","../images/pnk_blu.png","../images/grn_blu.png","../images/blu_wht.png","../images/ylw_pnk.png","../images/ylw_slt.png","../images/gry_blk.png","../images/cyn_red.png","../images/grn_red.png","../images/wht_red.png","../images/red_prp.png","../images/org_blu.png"],"mutagen_generator_assignment":[1,0],"goal":6,"start":11,"action_noise":0.15,"location_history":"[11,10,9,3,9,3,4,10,9,8,7,6]","action_history":"[0,1,1,1,1,0,0,1,0,0,0]","mutagen_history":"[1,0,0,0,0,1,1,0,1,1,1]","location_rts":"[2332,1772,497,353,94,153,381,3482,661,498,428]","trial_type":"fractal-mutation","trial_index":45,"time_elapsed":1447610,"internal_node_id":"0.0-5.0-6.0"},{"group":"dihedral group of order 12","fractal_assignment":["../images/grn_prp.png","../images/pnk_blu.png","../images/grn_blu.png","../images/blu_wht.png","../images/ylw_pnk.png","../images/ylw_slt.png","../images/gry_blk.png","../images/cyn_red.png","../images/grn_red.png","../images/wht_red.png","../images/red_prp.png","../images/org_blu.png"],"mutagen_generator_assignment":[1,0],"goal":3,"start":6,"action_noise":0.15,"location_history":"[6,0,1,2,3]","action_history":"[1,0,0,0]","mutagen_history":"[0,1,1,1]","location_rts":"[579,551,372,494]","trial_type":"fractal-mutation","trial_index":46,"time_elapsed":1457383,"internal_node_id":"0.0-5.0-7.0"},{"group":"dihedral group of order 12","fractal_assignment":["../images/grn_prp.png","../images/pnk_blu.png","../images/grn_blu.png","../images/blu_wht.png","../images/ylw_pnk.png","../images/ylw_slt.png","../images/gry_blk.png","../images/cyn_red.png","../images/grn_red.png","../images/wht_red.png","../images/red_prp.png","../images/org_blu.png"],"mutagen_generator_assignment":[1,0],"goal":8,"start":3,"action_noise":0.15,"location_history":"[3,9,8]","action_history":"[1,0]","mutagen_history":"[0,1]","location_rts":"[219,792]","trial_type":"fractal-mutation","trial_index":47,"time_elapsed":1463996,"internal_node_id":"0.0-5.0-8.0"},{"group":"dihedral group of order 12","fractal_assignment":["../images/grn_prp.png","../images/pnk_blu.png","../images/grn_blu.png","../images/blu_wht.png","../images/ylw_pnk.png","../images/ylw_slt.png","../images/gry_blk.png","../images/cyn_red.png","../images/grn_red.png","../images/wht_red.png","../images/red_prp.png","../images/org_blu.png"],"mutagen_generator_assignment":[1,0],"goal":1,"start":8,"action_noise":0.15,"location_history":"[8,7,1]","action_history":"[0,1]","mutagen_history":"[1,0]","location_rts":"[1374,585]","trial_type":"fractal-mutation","trial_index":48,"time_elapsed":1471593,"internal_node_id":"0.0-5.0-9.0"},{"group":"dihedral group of order 12","fractal_assignment":["../images/grn_prp.png","../images/pnk_blu.png","../images/grn_blu.png","../images/blu_wht.png","../images/ylw_pnk.png","../images/ylw_slt.png","../images/gry_blk.png","../images/cyn_red.png","../images/grn_red.png","../images/wht_red.png","../images/red_prp.png","../images/org_blu.png"],"mutagen_generator_assignment":[1,0],"goal":7,"start":1,"action_noise":0.15,"location_history":"[1,7]","action_history":"[0]","mutagen_history":"[1]","location_rts":"[283]","trial_type":"fractal-mutation","trial_index":49,"time_elapsed":1476458,"internal_node_id":"0.0-5.0-10.0"},{"group":"dihedral group of order 12","fractal_assignment":["../images/grn_prp.png","../images/pnk_blu.png","../images/grn_blu.png","../images/blu_wht.png","../images/ylw_pnk.png","../images/ylw_slt.png","../images/gry_blk.png","../images/cyn_red.png","../images/grn_red.png","../images/wht_red.png","../images/red_prp.png","../images/org_blu.png"],"mutagen_generator_assignment":[1,0],"goal":5,"start":7,"action_noise":0.15,"location_history":"[7,6,11,10,9,3,9,8,2,8,2,3,9,3,4,10,9,8,7,6,0,1,2,3,4,10,4,5]","action_history":"[0,0,0,1,1,1,0,1,1,1,0,1,1,0,1,0,0,0,0,0,0,0,0,0,1,1,0]","mutagen_history":"[1,1,1,0,0,0,1,0,0,0,1,0,0,1,0,1,1,1,1,1,1,1,1,1,0,0,1]","location_rts":"[841,361,2220,2269,426,657,893,691,567,367,59,1059,381,472,750,1224,1816,378,405,623,424,629,562,651,766,556,14]","trial_type":"fractal-mutation","trial_index":50,"time_elapsed":1528930,"internal_node_id":"0.0-5.0-11.0"},{"group":"dihedral group of order 12","fractal_assignment":["../images/grn_prp.png","../images/pnk_blu.png","../images/grn_blu.png","../images/blu_wht.png","../images/ylw_pnk.png","../images/ylw_slt.png","../images/gry_blk.png","../images/cyn_red.png","../images/grn_red.png","../images/wht_red.png","../images/red_prp.png","../images/org_blu.png"],"mutagen_generator_assignment":[1,0],"goal":8,"start":5,"action_noise":0.15,"location_history":"[5,11,5,0,1,7,1,2,8]","action_history":"[1,1,0,0,0,0,0,1]","mutagen_history":"[0,0,1,1,1,1,1,0]","location_rts":"[1048,1744,1671,436,335,618,400,132]","trial_type":"fractal-mutation","trial_index":51,"time_elapsed":1547316,"internal_node_id":"0.0-5.0-12.0"},{"group":"dihedral group of order 12","fractal_assignment":["../images/grn_prp.png","../images/pnk_blu.png","../images/grn_blu.png","../images/blu_wht.png","../images/ylw_pnk.png","../images/ylw_slt.png","../images/gry_blk.png","../images/cyn_red.png","../images/grn_red.png","../images/wht_red.png","../images/red_prp.png","../images/org_blu.png"],"mutagen_generator_assignment":[1,0],"goal":11,"start":8,"action_noise":0.15,"location_history":"[8,2,3,4,5,11]","action_history":"[0,0,0,0,1]","mutagen_history":"[1,1,1,1,0]","location_rts":"[641,732,577,583,1499]","trial_type":"fractal-mutation","trial_index":52,"time_elapsed":1560229,"internal_node_id":"0.0-5.0-13.0"},{"group":"dihedral group of order 12","fractal_assignment":["../images/grn_prp.png","../images/pnk_blu.png","../images/grn_blu.png","../images/blu_wht.png","../images/ylw_pnk.png","../images/ylw_slt.png","../images/gry_blk.png","../images/cyn_red.png","../images/grn_red.png","../images/wht_red.png","../images/red_prp.png","../images/org_blu.png"],"mutagen_generator_assignment":[1,0],"goal":6,"start":11,"action_noise":0.15,"location_history":"[11,5,11,10,9,3,9,3,4,10,9,3,9,3,9,3,9,3,9,8,7,6]","action_history":"[0,1,1,1,1,1,1,0,1,0,1,1,1,0,0,1,1,1,0,0,0]","mutagen_history":"[1,0,0,0,0,0,0,1,0,1,0,0,0,1,1,0,0,0,1,1,1]","location_rts":"[1861,1671,321,256,251,446,379,1226,867,1060,652,615,1023,298,888,1068,805,751,262,224,494]","trial_type":"fractal-mutation","trial_index":53,"time_elapsed":1601470,"internal_node_id":"0.0-5.0-14.0"},{"group":"dihedral group of order 12","fractal_assignment":["../images/grn_prp.png","../images/pnk_blu.png","../images/grn_blu.png","../images/blu_wht.png","../images/ylw_pnk.png","../images/ylw_slt.png","../images/gry_blk.png","../images/cyn_red.png","../images/grn_red.png","../images/wht_red.png","../images/red_prp.png","../images/org_blu.png"],"mutagen_generator_assignment":[1,0],"goal":7,"start":6,"action_noise":0.15,"location_history":"[6,0,1,2,3,4,5,0,6,0,6,11,5,11,10,4,10,4,10,9,8,2,3,9,3,9,8,7]","action_history":"[1,0,0,0,0,0,0,1,1,1,0,1,1,0,1,1,0,1,1,0,0,1,1,1,1,0,0]","mutagen_history":"[0,1,1,1,1,1,1,0,0,0,1,0,0,1,0,0,1,0,0,1,1,0,0,0,0,1,1]","location_rts":"[319,228,362,137,349,351,780,274,975,385,340,341,632,239,619,772,1530,795,520,91,1184,497,228,391,37,1029,879]","trial_type":"fractal-mutation","trial_index":54,"time_elapsed":1648001,"internal_node_id":"0.0-5.0-15.0"},{"group":"dihedral group of order 12","fractal_assignment":["../images/grn_prp.png","../images/pnk_blu.png","../images/grn_blu.png","../images/blu_wht.png","../images/ylw_pnk.png","../images/ylw_slt.png","../images/gry_blk.png","../images/cyn_red.png","../images/grn_red.png","../images/wht_red.png","../images/red_prp.png","../images/org_blu.png"],"mutagen_generator_assignment":[1,0],"goal":10,"start":7,"action_noise":0.15,"location_history":"[7,1,2,3,4,10]","action_history":"[1,0,0,0,0]","mutagen_history":"[0,1,1,1,1]","location_rts":"[231,195,83,104,1985]","trial_type":"fractal-mutation","trial_index":55,"time_elapsed":1659456,"internal_node_id":"0.0-5.0-16.0"},{"group":"dihedral group of order 12","fractal_assignment":["../images/grn_prp.png","../images/pnk_blu.png","../images/grn_blu.png","../images/blu_wht.png","../images/ylw_pnk.png","../images/ylw_slt.png","../images/gry_blk.png","../images/cyn_red.png","../images/grn_red.png","../images/wht_red.png","../images/red_prp.png","../images/org_blu.png"],"mutagen_generator_assignment":[1,0],"goal":0,"start":10,"action_noise":0.15,"location_history":"[10,9,3,4,10,4,10,9,3,9,3,4,10,4,10,9,8,2,8,7,1,7,1,2,8,2,3,9,8,2,8,7,1,7,6,11,10,4,10,9,3,4,5,11,10,9,8,7,6,11,10,9,8,7,1,7,1,2,8,2,3,9,3,4,10,4,5,11,5,0]","action_history":"[0,1,0,1,1,1,0,1,1,1,0,1,1,0,0,0,1,1,0,1,1,0,0,1,1,0,1,1,1,1,0,1,1,1,0,1,1,0,0,1,0,0,0,0,0,0,0,0,0,0,0,0,0,0,1,1,0,1,1,0,1,1,0,1,1,0,1,1,0]","mutagen_history":"[1,0,1,0,0,0,1,0,0,0,1,0,0,1,1,1,0,0,1,0,0,1,1,0,0,1,0,0,0,0,1,0,0,0,1,0,0,1,1,0,1,1,1,1,1,1,1,1,1,1,1,1,1,1,0,0,1,0,0,1,0,0,1,0,0,1,0,0,1]","location_rts":"[218,225,449,874,90,95,65,234,92,155,229,620,148,71,226,106,822,931,883,424,388,589,1334,857,645,1078,552,178,1245,1022,1262,1164,616,465,1312,1013,569,792,1031,1046,925,146,356,221,193,349,659,654,584,485,122,70,74,381,569,681,1081,532,464,902,538,440,664,1014,538,370,1135,795,51]","trial_type":"fractal-mutation","trial_index":56,"time_elapsed":1775655,"internal_node_id":"0.0-5.0-17.0"},{"group":"dihedral group of order 12","fractal_assignment":["../images/grn_prp.png","../images/pnk_blu.png","../images/grn_blu.png","../images/blu_wht.png","../images/ylw_pnk.png","../images/ylw_slt.png","../images/gry_blk.png","../images/cyn_red.png","../images/grn_red.png","../images/wht_red.png","../images/red_prp.png","../images/org_blu.png"],"mutagen_generator_assignment":[1,0],"goal":9,"start":0,"action_noise":0.15,"location_history":"[0,6,0,1,7,6,0,1,7,6,11,5,11,10,9]","action_history":"[1,0,0,0,0,0,0,1,0,0,1,1,0,0]","mutagen_history":"[0,1,1,1,1,1,1,0,1,1,0,0,1,1]","location_rts":"[490,555,59,524,336,62,301,748,452,156,136,475,138,364]","trial_type":"fractal-mutation","trial_index":57,"time_elapsed":1798933,"internal_node_id":"0.0-5.0-18.0"},{"group":"dihedral group of order 12","fractal_assignment":["../images/grn_prp.png","../images/pnk_blu.png","../images/grn_blu.png","../images/blu_wht.png","../images/ylw_pnk.png","../images/ylw_slt.png","../images/gry_blk.png","../images/cyn_red.png","../images/grn_red.png","../images/wht_red.png","../images/red_prp.png","../images/org_blu.png"],"mutagen_generator_assignment":[1,0],"goal":4,"start":9,"action_noise":0.15,"location_history":"[9,8,7,6,0,1,2,3,4]","action_history":"[0,0,0,0,0,0,0,0]","mutagen_history":"[1,1,1,1,1,1,1,1]","location_rts":"[684,218,212,158,28,200,10,12]","trial_type":"fractal-mutation","trial_index":58,"time_elapsed":1812613,"internal_node_id":"0.0-5.0-19.0"},{"group":"dihedral group of order 12","fractal_assignment":["../images/grn_prp.png","../images/pnk_blu.png","../images/grn_blu.png","../images/blu_wht.png","../images/ylw_pnk.png","../images/ylw_slt.png","../images/gry_blk.png","../images/cyn_red.png","../images/grn_red.png","../images/wht_red.png","../images/red_prp.png","../images/org_blu.png"],"mutagen_generator_assignment":[1,0],"goal":2,"start":4,"action_noise":0.15,"location_history":"[4,5,0,6,11,5,11,10,4,10,4,5,11,10,9,3,9,3,4,10,4,5,11,10,9,8,2]","action_history":"[0,0,1,1,1,1,0,1,1,0,1,1,0,0,1,1,1,0,1,1,0,1,0,0,0,1]","mutagen_history":"[1,1,0,0,0,0,1,0,0,1,0,0,1,1,0,0,0,1,0,0,1,0,1,1,1,0]","location_rts":"[1715,1,1391,400,675,684,83,154,241,86,418,846,218,224,1275,427,302,142,480,342,695,1759,197,179,1292,472]","trial_type":"fractal-mutation","trial_index":59,"time_elapsed":1858508,"internal_node_id":"0.0-5.0-20.0"},{"group":"dihedral group of order 12","fractal_assignment":["../images/grn_prp.png","../images/pnk_blu.png","../images/grn_blu.png","../images/blu_wht.png","../images/ylw_pnk.png","../images/ylw_slt.png","../images/gry_blk.png","../images/cyn_red.png","../images/grn_red.png","../images/wht_red.png","../images/red_prp.png","../images/org_blu.png"],"mutagen_generator_assignment":[1,0],"goal":1,"start":2,"action_noise":0.15,"location_history":"[2,8,2,3,9,3,9,8,2,8,7,1]","action_history":"[1,1,0,1,1,0,0,1,1,0,1]","mutagen_history":"[0,0,1,0,0,1,1,0,0,1,0]","location_rts":"[4554,554,664,328,38,196,661,1114,64,277,484]","trial_type":"fractal-mutation","trial_index":60,"time_elapsed":1882573,"internal_node_id":"0.0-5.0-21.0"},{"group":"dihedral group of order 12","fractal_assignment":["../images/grn_prp.png","../images/pnk_blu.png","../images/grn_blu.png","../images/blu_wht.png","../images/ylw_pnk.png","../images/ylw_slt.png","../images/gry_blk.png","../images/cyn_red.png","../images/grn_red.png","../images/wht_red.png","../images/red_prp.png","../images/org_blu.png"],"mutagen_generator_assignment":[1,0],"goal":3,"start":1,"action_noise":0.15,"location_history":"[1,2,3]","action_history":"[0,0]","mutagen_history":"[1,1]","location_rts":"[638,1019]","trial_type":"fractal-mutation","trial_index":61,"time_elapsed":1889891,"internal_node_id":"0.0-5.0-22.0"},{"group":"dihedral group of order 12","fractal_assignment":["../images/grn_prp.png","../images/pnk_blu.png","../images/grn_blu.png","../images/blu_wht.png","../images/ylw_pnk.png","../images/ylw_slt.png","../images/gry_blk.png","../images/cyn_red.png","../images/grn_red.png","../images/wht_red.png","../images/red_prp.png","../images/org_blu.png"],"mutagen_generator_assignment":[1,0],"goal":7,"start":3,"action_noise":0.15,"location_history":"[3,4,5,0,1,7]","action_history":"[0,0,0,0,0]","mutagen_history":"[1,1,1,1,1]","location_rts":"[205,514,81,204,14]","trial_type":"fractal-mutation","trial_index":62,"time_elapsed":1899815,"internal_node_id":"0.0-5.0-23.0"},{"group":"dihedral group of order 12","fractal_assignment":["../images/grn_prp.png","../images/pnk_blu.png","../images/grn_blu.png","../images/blu_wht.png","../images/ylw_pnk.png","../images/ylw_slt.png","../images/gry_blk.png","../images/cyn_red.png","../images/grn_red.png","../images/wht_red.png","../images/red_prp.png","../images/org_blu.png"],"mutagen_generator_assignment":[1,0],"goal":6,"start":7,"action_noise":0.15,"location_history":"[7,6]","action_history":"[0]","mutagen_history":"[1]","location_rts":"[909]","trial_type":"fractal-mutation","trial_index":63,"time_elapsed":1905312,"internal_node_id":"0.0-5.0-24.0"},{"group":"dihedral group of order 12","fractal_assignment":["../images/grn_prp.png","../images/pnk_blu.png","../images/grn_blu.png","../images/blu_wht.png","../images/ylw_pnk.png","../images/ylw_slt.png","../images/gry_blk.png","../images/cyn_red.png","../images/grn_red.png","../images/wht_red.png","../images/red_prp.png","../images/org_blu.png"],"mutagen_generator_assignment":[1,0],"goal":2,"start":6,"action_noise":0.15,"location_history":"[6,11,10,9,8,2]","action_history":"[0,0,0,0,1]","mutagen_history":"[1,1,1,1,0]","location_rts":"[1269,2,148,451,617]","trial_type":"fractal-mutation","trial_index":64,"time_elapsed":1916688,"internal_node_id":"0.0-5.0-25.0"},{"group":"dihedral group of order 12","fractal_assignment":["../images/grn_prp.png","../images/pnk_blu.png","../images/grn_blu.png","../images/blu_wht.png","../images/ylw_pnk.png","../images/ylw_slt.png","../images/gry_blk.png","../images/cyn_red.png","../images/grn_red.png","../images/wht_red.png","../images/red_prp.png","../images/org_blu.png"],"mutagen_generator_assignment":[1,0],"goal":8,"start":2,"action_noise":0.15,"location_history":"[2,3,9,8]","action_history":"[0,0,0]","mutagen_history":"[1,1,1]","location_rts":"[537,361,82]","trial_type":"fractal-mutation","trial_index":65,"time_elapsed":1924423,"internal_node_id":"0.0-5.0-26.0"},{"group":"dihedral group of order 12","fractal_assignment":["../images/grn_prp.png","../images/pnk_blu.png","../images/grn_blu.png","../images/blu_wht.png","../images/ylw_pnk.png","../images/ylw_slt.png","../images/gry_blk.png","../images/cyn_red.png","../images/grn_red.png","../images/wht_red.png","../images/red_prp.png","../images/org_blu.png"],"mutagen_generator_assignment":[1,0],"goal":0,"start":8,"action_noise":0.15,"location_history":"[8,7,1,7,1,2,8,7,1,7,6,0]","action_history":"[0,0,1,1,0,1,0,1,1,0,1]","mutagen_history":"[1,1,0,0,1,0,1,0,0,1,0]","location_rts":"[832,488,850,490,392,420,530,1705,281,456,814]","trial_type":"fractal-mutation","trial_index":66,"time_elapsed":1946889,"internal_node_id":"0.0-5.0-27.0"},{"group":"dihedral group of order 12","fractal_assignment":["../images/grn_prp.png","../images/pnk_blu.png","../images/grn_blu.png","../images/blu_wht.png","../images/ylw_pnk.png","../images/ylw_slt.png","../images/gry_blk.png","../images/cyn_red.png","../images/grn_red.png","../images/wht_red.png","../images/red_prp.png","../images/org_blu.png"],"mutagen_generator_assignment":[1,0],"goal":3,"start":0,"action_noise":0.15,"location_history":"[0,1,2,3]","action_history":"[0,0,0]","mutagen_history":"[1,1,1]","location_rts":"[742,419,555]","trial_type":"fractal-mutation","trial_index":67,"time_elapsed":1955351,"internal_node_id":"0.0-5.0-28.0"},{"group":"dihedral group of order 12","fractal_assignment":["../images/grn_prp.png","../images/pnk_blu.png","../images/grn_blu.png","../images/blu_wht.png","../images/ylw_pnk.png","../images/ylw_slt.png","../images/gry_blk.png","../images/cyn_red.png","../images/grn_red.png","../images/wht_red.png","../images/red_prp.png","../images/org_blu.png"],"mutagen_generator_assignment":[1,0],"goal":4,"start":3,"action_noise":0.15,"location_history":"[3,4]","action_history":"[0]","mutagen_history":"[1]","location_rts":"[716]","trial_type":"fractal-mutation","trial_index":68,"time_elapsed":1960649,"internal_node_id":"0.0-5.0-29.0"},{"group":"dihedral group of order 12","fractal_assignment":["../images/grn_prp.png","../images/pnk_blu.png","../images/grn_blu.png","../images/blu_wht.png","../images/ylw_pnk.png","../images/ylw_slt.png","../images/gry_blk.png","../images/cyn_red.png","../images/grn_red.png","../images/wht_red.png","../images/red_prp.png","../images/org_blu.png"],"mutagen_generator_assignment":[1,0],"goal":10,"start":4,"action_noise":0.15,"location_history":"[4,5,11,10]","action_history":"[0,0,0]","mutagen_history":"[1,1,1]","location_rts":"[1210,7,892]","trial_type":"fractal-mutation","trial_index":69,"time_elapsed":1969510,"internal_node_id":"0.0-5.0-30.0"},{"group":"dihedral group of order 12","fractal_assignment":["../images/grn_prp.png","../images/pnk_blu.png","../images/grn_blu.png","../images/blu_wht.png","../images/ylw_pnk.png","../images/ylw_slt.png","../images/gry_blk.png","../images/cyn_red.png","../images/grn_red.png","../images/wht_red.png","../images/red_prp.png","../images/org_blu.png"],"mutagen_generator_assignment":[1,0],"goal":11,"start":10,"action_noise":0.15,"location_history":"[10,4,10,4,5,11]","action_history":"[1,1,1,0,0]","mutagen_history":"[0,0,0,1,1]","location_rts":"[1795,397,1403,338,307]","trial_type":"fractal-mutation","trial_index":70,"time_elapsed":1982481,"internal_node_id":"0.0-5.0-31.0"},{"group":"dihedral group of order 12","fractal_assignment":["../images/grn_prp.png","../images/pnk_blu.png","../images/grn_blu.png","../images/blu_wht.png","../images/ylw_pnk.png","../images/ylw_slt.png","../images/gry_blk.png","../images/cyn_red.png","../images/grn_red.png","../images/wht_red.png","../images/red_prp.png","../images/org_blu.png"],"mutagen_generator_assignment":[1,0],"goal":1,"start":11,"action_noise":0.15,"location_history":"[11,10,9,8,2,8,2,3,9,3,9,8,2,8,7,1]","action_history":"[0,0,0,0,1,1,0,1,1,1,0,1,1,0,1]","mutagen_history":"[1,1,1,1,0,0,1,0,0,0,1,0,0,1,0]","location_rts":"[1895,58,1095,2829,1756,836,1187,629,371,259,47,236,395,123,381]","trial_type":"fractal-mutation","trial_index":71,"time_elapsed":2014057,"internal_node_id":"0.0-5.0-32.0"},{"group":"dihedral group of order 12","fractal_assignment":["../images/grn_prp.png","../images/pnk_blu.png","../images/grn_blu.png","../images/blu_wht.png","../images/ylw_pnk.png","../images/ylw_slt.png","../images/gry_blk.png","../images/cyn_red.png","../images/grn_red.png","../images/wht_red.png","../images/red_prp.png","../images/org_blu.png"],"mutagen_generator_assignment":[1,0],"goal":5,"start":1,"action_noise":0.15,"location_history":"[1,2,3,4,5]","action_history":"[0,0,0,0]","mutagen_history":"[1,1,1,1]","location_rts":"[1630,424,368,429]","trial_type":"fractal-mutation","trial_index":72,"time_elapsed":2024735,"internal_node_id":"0.0-5.0-33.0"},{"group":"dihedral group of order 12","fractal_assignment":["../images/grn_prp.png","../images/pnk_blu.png","../images/grn_blu.png","../images/blu_wht.png","../images/ylw_pnk.png","../images/ylw_slt.png","../images/gry_blk.png","../images/cyn_red.png","../images/grn_red.png","../images/wht_red.png","../images/red_prp.png","../images/org_blu.png"],"mutagen_generator_assignment":[1,0],"goal":9,"start":5,"action_noise":0.15,"location_history":"[5,0,1,2,8,2,8,7,6,0,1,2,3,9]","action_history":"[0,0,0,0,1,1,0,0,0,0,1,0,1]","mutagen_history":"[1,1,1,1,0,0,1,1,1,1,0,1,0]","location_rts":"[3436,786,246,3728,1569,725,25,1050,89,268,732,641,553]","trial_type":"fractal-mutation","trial_index":73,"time_elapsed":2056025,"internal_node_id":"0.0-5.0-34.0"},{"view_history":"[{\"page_index\":0,\"viewing_time\":7443}]","rt":7443,"trial_type":"instructions","trial_index":74,"time_elapsed":2064468,"internal_node_id":"0.0-6.0"},{"rt":4599,"responses":"{\"Q0\":\"\"}","trial_type":"survey-text","trial_index":75,"time_elapsed":2070071,"internal_node_id":"0.0-7.0"}]