[{"view_history":"[{\"page_index\":0,\"viewing_time\":10640},{\"page_index\":1,\"viewing_time\":7104},{\"page_index\":2,\"viewing_time\":9019},{\"page_index\":3,\"viewing_time\":3189}]","rt":29953,"trial_type":"instructions","trial_index":0,"time_elapsed":29953,"internal_node_id":"0.0-0.0"},{"view_history":"[{\"page_index\":0,\"viewing_time\":1764},{\"page_index\":1,\"viewing_time\":26275}]","rt":28039,"trial_type":"instructions","trial_index":1,"time_elapsed":58994,"internal_node_id":"0.0-1.0"},{"group":"dihedral group of order 12","room_assignment":["olive","grey","red","blue","brown","yellow","cyan","pink","orange","green","purple","ivory"],"door_color_assignment":["black","white"],"door_generator_assignment":[1,0],"goal":4,"start":0,"action_noise":0.15,"location_history":"[0,6,0,6,11,10,9,8,7,6,0,1,2,3,9,8,7,1,7,6,0,6,11,5,11,10,4]","action_history":"[1,1,0,0,0,0,0,0,0,0,0,0,0,0,0,0,1,1,0,1,1,0,0,1,0,1]","door_history":"[0,0,1,1,1,1,1,1,1,1,1,1,1,1,1,1,0,0,1,0,0,1,1,0,1,0]","location_rts":"[2366,1503,1501,1857,2033,1275,1760,1682,2031,5386,2651,1800,1356,1398,2203,2906,5031,1329,1472,1173,804,1300,2028,2349,1468,2049]","trial_type":"two-door-navigation","trial_index":2,"time_elapsed":141767,"internal_node_id":"0.0-2.0-0.0"},{"group":"dihedral group of order 12","room_assignment":["olive","grey","red","blue","brown","yellow","cyan","pink","orange","green","purple","ivory"],"door_color_assignment":["black","white"],"door_generator_assignment":[1,0],"goal":9,"start":4,"action_noise":0.15,"location_history":"[4,10,4,5,0,1,2,8,7,6,11,10,4,10,4,5,0,6,0,1,7,1,2,8,2,3,9]","action_history":"[0,0,0,0,0,0,0,0,0,0,0,0,1,1,0,1,1,1,0,1,1,0,1,1,0,1]","door_history":"[1,1,1,1,1,1,1,1,1,1,1,1,0,0,1,0,0,0,1,0,0,1,0,0,1,0]","location_rts":"[4030,1431,1492,1233,1891,888,679,660,821,623,648,881,1407,1218,940,1114,2315,944,908,1443,1538,1002,1473,1620,1251,1336]","trial_type":"two-door-navigation","trial_index":3,"time_elapsed":205620,"internal_node_id":"0.0-2.0-1.0"},{"group":"dihedral group of order 12","room_assignment":["olive","grey","red","blue","brown","yellow","cyan","pink","orange","green","purple","ivory"],"door_color_assignment":["black","white"],"door_generator_assignment":[1,0],"goal":10,"start":9,"action_noise":0.15,"location_history":"[9,8,7,6,0,6,11,5,11,10]","action_history":"[0,0,1,1,0,0,1,1,0]","door_history":"[1,1,0,0,1,1,0,0,1]","location_rts":"[3289,1397,1497,843,1150,972,1235,1419,8264]","trial_type":"two-door-navigation","trial_index":4,"time_elapsed":238375,"internal_node_id":"0.0-2.0-2.0"},{"group":"dihedral group of order 12","room_assignment":["olive","grey","red","blue","brown","yellow","cyan","pink","orange","green","purple","ivory"],"door_color_assignment":["black","white"],"door_generator_assignment":[1,0],"goal":2,"start":10,"action_noise":0.15,"location_history":"[10,4,5,11,10,9,8,2]","action_history":"[1,0,1,0,0,0,0]","door_history":"[0,1,0,1,1,1,1]","location_rts":"[8621,6252,1089,1354,3443,7069,10543]","trial_type":"two-door-navigation","trial_index":5,"time_elapsed":287394,"internal_node_id":"0.0-2.0-3.0"},{"group":"dihedral group of order 12","room_assignment":["olive","grey","red","blue","brown","yellow","cyan","pink","orange","green","purple","ivory"],"door_color_assignment":["black","white"],"door_generator_assignment":[1,0],"goal":5,"start":2,"action_noise":0.15,"location_history":"[2,8,7,1,2,3,4,10,4,5]","action_history":"[0,0,0,0,1,0,0,0,0]","door_history":"[1,1,1,1,0,1,1,1,1]","location_rts":"[10692,7275,6422,7088,1369,5769,6932,10227,10698]","trial_type":"two-door-navigation","trial_index":6,"time_elapsed":366543,"internal_node_id":"0.0-2.0-4.0"},{"group":"dihedral group of order 12","room_assignment":["olive","grey","red","blue","brown","yellow","cyan","pink","orange","green","purple","ivory"],"door_color_assignment":["black","white"],"door_generator_assignment":[1,0],"goal":11,"start":5,"action_noise":0.15,"location_history":"[5,0,1,7,6,11]","action_history":"[0,1,1,0,0]","door_history":"[1,0,0,1,1]","location_rts":"[11863,2674,1351,1133,1707]","trial_type":"two-door-navigation","trial_index":7,"time_elapsed":393875,"internal_node_id":"0.0-2.0-5.0"},{"group":"dihedral group of order 12","room_assignment":["olive","grey","red","blue","brown","yellow","cyan","pink","orange","green","purple","ivory"],"door_color_assignment":["black","white"],"door_generator_assignment":[1,0],"goal":6,"start":11,"action_noise":0.15,"location_history":"[11,5,11,10,4,10,9,8,7,1,2,8,7,6]","action_history":"[1,1,0,0,1,0,0,1,1,0,1,0,0]","door_history":"[0,0,1,1,0,1,1,0,0,1,0,1,1]","location_rts":"[11658,1953,1825,3810,4113,14117,4634,1226,1674,1779,1300,1065,633]","trial_type":"two-door-navigation","trial_index":8,"time_elapsed":460422,"internal_node_id":"0.0-2.0-6.0"},{"group":"dihedral group of order 12","room_assignment":["olive","grey","red","blue","brown","yellow","cyan","pink","orange","green","purple","ivory"],"door_color_assignment":["black","white"],"door_generator_assignment":[1,0],"goal":3,"start":6,"action_noise":0.15,"location_history":"[6,11,10,4,10,4,5,0,1,2,3]","action_history":"[1,0,1,1,0,0,0,0,0,0]","door_history":"[0,1,0,0,1,1,1,1,1,1]","location_rts":"[6311,1446,5872,8799,4064,755,9721,14014,13468,8297]","trial_type":"two-door-navigation","trial_index":9,"time_elapsed":546861,"internal_node_id":"0.0-2.0-7.0"},{"group":"dihedral group of order 12","room_assignment":["olive","grey","red","blue","brown","yellow","cyan","pink","orange","green","purple","ivory"],"door_color_assignment":["black","white"],"door_generator_assignment":[1,0],"goal":8,"start":3,"action_noise":0.15,"location_history":"[3,4,5,0,6,11,5,11,10,9,8]","action_history":"[1,0,0,1,0,1,1,0,0,1]","door_history":"[0,1,1,0,1,0,0,1,1,0]","location_rts":"[11371,7132,4229,9406,8323,7350,9835,12753,7221,1033]","trial_type":"two-door-navigation","trial_index":10,"time_elapsed":639228,"internal_node_id":"0.0-2.0-8.0"},{"group":"dihedral group of order 12","room_assignment":["olive","grey","red","blue","brown","yellow","cyan","pink","orange","green","purple","ivory"],"door_color_assignment":["black","white"],"door_generator_assignment":[1,0],"goal":1,"start":8,"action_noise":0.15,"location_history":"[8,7,1]","action_history":"[0,0]","door_history":"[1,1]","location_rts":"[8103,5593]","trial_type":"two-door-navigation","trial_index":11,"time_elapsed":658469,"internal_node_id":"0.0-2.0-9.0"},{"group":"dihedral group of order 12","room_assignment":["olive","grey","red","blue","brown","yellow","cyan","pink","orange","green","purple","ivory"],"door_color_assignment":["black","white"],"door_generator_assignment":[1,0],"goal":7,"start":1,"action_noise":0.15,"location_history":"[1,7]","action_history":"[1]","door_history":"[0]","location_rts":"[6742]","trial_type":"two-door-navigation","trial_index":12,"time_elapsed":669735,"internal_node_id":"0.0-2.0-10.0"},{"group":"dihedral group of order 12","room_assignment":["olive","grey","red","blue","brown","yellow","cyan","pink","orange","green","purple","ivory"],"door_color_assignment":["black","white"],"door_generator_assignment":[1,0],"goal":5,"start":7,"action_noise":0.15,"location_history":"[7,6,0,6,0,6,11,10,4,5]","action_history":"[0,0,0,1,1,0,0,1,0]","door_history":"[1,1,1,0,0,1,1,0,1]","location_rts":"[9447,1872,1754,1897,1887,850,737,3944,5285]","trial_type":"two-door-navigation","trial_index":13,"time_elapsed":710083,"internal_node_id":"0.0-2.0-11.0"},{"group":"dihedral group of order 12","room_assignment":["olive","grey","red","blue","brown","yellow","cyan","pink","orange","green","purple","ivory"],"door_color_assignment":["black","white"],"door_generator_assignment":[1,0],"goal":8,"start":5,"action_noise":0.15,"location_history":"[5,0,1,2,8]","action_history":"[0,0,0,0]","door_history":"[1,1,1,1]","location_rts":"[8027,2170,3389,1028]","trial_type":"two-door-navigation","trial_index":14,"time_elapsed":732280,"internal_node_id":"0.0-2.0-12.0"},{"group":"dihedral group of order 12","room_assignment":["olive","grey","red","blue","brown","yellow","cyan","pink","orange","green","purple","ivory"],"door_color_assignment":["black","white"],"door_generator_assignment":[1,0],"goal":11,"start":8,"action_noise":0.15,"location_history":"[8,7,6,11]","action_history":"[0,0,0]","door_history":"[1,1,1]","location_rts":"[8836,1345,4197]","trial_type":"two-door-navigation","trial_index":15,"time_elapsed":753224,"internal_node_id":"0.0-2.0-13.0"},{"group":"dihedral group of order 12","room_assignment":["olive","grey","red","blue","brown","yellow","cyan","pink","orange","green","purple","ivory"],"door_color_assignment":["black","white"],"door_generator_assignment":[1,0],"goal":6,"start":11,"action_noise":0.15,"location_history":"[11,5,11,10,9,8,7,6]","action_history":"[1,1,0,0,1,0,0]","door_history":"[0,0,1,1,0,1,1]","location_rts":"[2679,4938,2852,9534,5818,3948,6500]","trial_type":"two-door-navigation","trial_index":16,"time_elapsed":800128,"internal_node_id":"0.0-2.0-14.0"},{"group":"dihedral group of order 12","room_assignment":["olive","grey","red","blue","brown","yellow","cyan","pink","orange","green","purple","ivory"],"door_color_assignment":["black","white"],"door_generator_assignment":[1,0],"goal":7,"start":6,"action_noise":0.15,"location_history":"[6,11,5,11,5,0,6,11,10,4,5,0,1,7]","action_history":"[1,0,1,1,0,0,0,0,1,0,0,0,1]","door_history":"[0,1,0,0,1,1,1,1,0,1,1,1,0]","location_rts":"[2160,10979,5500,717,8548,4192,5281,2775,12097,6365,17148,8880,3187]","trial_type":"two-door-navigation","trial_index":17,"time_elapsed":904733,"internal_node_id":"0.0-2.0-15.0"},{"group":"dihedral group of order 12","room_assignment":["olive","grey","red","blue","brown","yellow","cyan","pink","orange","green","purple","ivory"],"door_color_assignment":["black","white"],"door_generator_assignment":[1,0],"goal":10,"start":7,"action_noise":0.15,"location_history":"[7,6,11,10]","action_history":"[0,0,1]","door_history":"[1,1,0]","location_rts":"[4926,1006,869]","trial_type":"two-door-navigation","trial_index":18,"time_elapsed":918093,"internal_node_id":"0.0-2.0-16.0"},{"group":"dihedral group of order 12","room_assignment":["olive","grey","red","blue","brown","yellow","cyan","pink","orange","green","purple","ivory"],"door_color_assignment":["black","white"],"door_generator_assignment":[1,0],"goal":0,"start":10,"action_noise":0.15,"location_history":"[10,9,8,7,1,2,8,7,6,0]","action_history":"[0,0,0,1,0,0,0,1,0]","door_history":"[1,1,1,0,1,1,1,0,1]","location_rts":"[2094,952,1603,835,3956,1106,1400,1161,716]","trial_type":"two-door-navigation","trial_index":19,"time_elapsed":944593,"internal_node_id":"0.0-2.0-17.0"},{"group":"dihedral group of order 12","room_assignment":["olive","grey","red","blue","brown","yellow","cyan","pink","orange","green","purple","ivory"],"door_color_assignment":["black","white"],"door_generator_assignment":[1,0],"goal":9,"start":0,"action_noise":0.15,"location_history":"[0,1,7,1,7,6,11,10,9]","action_history":"[0,1,0,0,0,0,1,0]","door_history":"[1,0,1,1,1,1,0,1]","location_rts":"[12701,1353,1130,1174,1726,1703,1274,1885]","trial_type":"two-door-navigation","trial_index":20,"time_elapsed":979198,"internal_node_id":"0.0-2.0-18.0"},{"group":"dihedral group of order 12","room_assignment":["olive","grey","red","blue","brown","yellow","cyan","pink","orange","green","purple","ivory"],"door_color_assignment":["black","white"],"door_generator_assignment":[1,0],"goal":4,"start":9,"action_noise":0.15,"location_history":"[9,8,2,8,7,1,7,6,0,6,11,5,11,10,4]","action_history":"[0,1,1,0,0,1,0,0,0,0,1,1,0,1]","door_history":"[1,0,0,1,1,0,1,1,1,1,0,0,1,0]","location_rts":"[1895,1338,923,660,1415,2409,1304,626,1541,1397,1006,5067,6388,3896]","trial_type":"two-door-navigation","trial_index":21,"time_elapsed":1026838,"internal_node_id":"0.0-2.0-19.0"},{"group":"dihedral group of order 12","room_assignment":["olive","grey","red","blue","brown","yellow","cyan","pink","orange","green","purple","ivory"],"door_color_assignment":["black","white"],"door_generator_assignment":[1,0],"goal":2,"start":4,"action_noise":0.15,"location_history":"[4,10,4,5,0,1,2]","action_history":"[0,1,0,0,0,0]","door_history":"[1,0,1,1,1,1]","location_rts":"[1927,1087,716,3349,1341,949]","trial_type":"two-door-navigation","trial_index":22,"time_elapsed":1045831,"internal_node_id":"0.0-2.0-20.0"},{"group":"dihedral group of order 12","room_assignment":["olive","grey","red","blue","brown","yellow","cyan","pink","orange","green","purple","ivory"],"door_color_assignment":["black","white"],"door_generator_assignment":[1,0],"goal":1,"start":2,"action_noise":0.15,"location_history":"[2,8,7,6,11,10,9,3,9,8,7,1]","action_history":"[0,0,0,0,0,0,1,1,0,1,1]","door_history":"[1,1,1,1,1,1,0,0,1,0,0]","location_rts":"[1864,2799,1410,1023,854,8308,7735,13555,15995,1133,2639]","trial_type":"two-door-navigation","trial_index":23,"time_elapsed":1117872,"internal_node_id":"0.0-2.0-21.0"},{"group":"dihedral group of order 12","room_assignment":["olive","grey","red","blue","brown","yellow","cyan","pink","orange","green","purple","ivory"],"door_color_assignment":["black","white"],"door_generator_assignment":[1,0],"goal":3,"start":1,"action_noise":0.15,"location_history":"[1,2,8,7,6,11,10,9,3]","action_history":"[0,1,0,0,0,0,0,1]","door_history":"[1,0,1,1,1,1,1,0]","location_rts":"[7609,1281,717,1004,622,886,3034,3429]","trial_type":"two-door-navigation","trial_index":24,"time_elapsed":1148115,"internal_node_id":"0.0-2.0-22.0"},{"group":"dihedral group of order 12","room_assignment":["olive","grey","red","blue","brown","yellow","cyan","pink","orange","green","purple","ivory"],"door_color_assignment":["black","white"],"door_generator_assignment":[1,0],"goal":7,"start":3,"action_noise":0.15,"location_history":"[3,9,8,2,8,7]","action_history":"[1,0,1,1,0]","door_history":"[0,1,0,0,1]","location_rts":"[4988,4095,2696,1791,6784]","trial_type":"two-door-navigation","trial_index":25,"time_elapsed":1177069,"internal_node_id":"0.0-2.0-23.0"},{"group":"dihedral group of order 12","room_assignment":["olive","grey","red","blue","brown","yellow","cyan","pink","orange","green","purple","ivory"],"door_color_assignment":["black","white"],"door_generator_assignment":[1,0],"goal":6,"start":7,"action_noise":0.15,"location_history":"[7,6]","action_history":"[0]","door_history":"[1]","location_rts":"[8116]","trial_type":"two-door-navigation","trial_index":26,"time_elapsed":1189705,"internal_node_id":"0.0-2.0-24.0"},{"group":"dihedral group of order 12","room_assignment":["olive","grey","red","blue","brown","yellow","cyan","pink","orange","green","purple","ivory"],"door_color_assignment":["black","white"],"door_generator_assignment":[1,0],"goal":2,"start":6,"action_noise":0.15,"location_history":"[6,11,5,0,6,0,1,7,1,7,6,11,5,11,10,9,3,4,10,9,8,7,6,11,5,11,10,9,3,9,8,7,1,7,6,11,10,9,8,7,6,11,10,4,10,4,5,11,10,4,5,11,5,0,1,7,6,11,5,11,10,9,8,7,6,11,10,9,8,2]","action_history":"[0,0,0,0,1,0,1,1,1,0,0,0,1,0,0,1,1,1,0,0,1,0,0,0,1,0,0,1,0,0,0,1,1,0,1,0,0,0,0,0,0,0,1,0,1,1,0,0,1,1,1,1,0,1,1,0,0,1,1,0,0,0,0,0,0,0,0,0,0]","door_history":"[1,1,1,1,0,1,0,0,0,1,1,1,0,1,1,0,0,0,1,1,0,1,1,1,0,1,1,0,1,1,1,0,0,1,0,1,1,1,1,1,1,1,0,1,0,0,1,1,0,0,0,0,1,0,0,1,1,0,0,1,1,1,1,1,1,1,1,1,1]","location_rts":"[1584,1268,4887,3980,3635,13639,1487,1541,1315,1146,770,1110,10230,1459,1294,4752,4482,5934,4809,4347,3345,1459,1360,1219,4910,955,3021,1093,9689,1396,4576,751,975,1331,4552,1718,3218,1116,13815,4898,715,722,2138,1635,2955,1028,4778,10925,3665,886,806,922,581,657,882,1063,362322,727,740,948,570,521,593,552,790,602,527,555,517]","trial_type":"two-door-navigation","trial_index":27,"time_elapsed":1806984,"internal_node_id":"0.0-2.0-25.0"},{"group":"dihedral group of order 12","room_assignment":["olive","grey","red","blue","brown","yellow","cyan","pink","orange","green","purple","ivory"],"door_color_assignment":["black","white"],"door_generator_assignment":[1,0],"goal":8,"start":2,"action_noise":0.15,"location_history":"[2,3,4,5,0,1,7,6,11,10,9,3,9,3,9,8]","action_history":"[0,0,0,0,0,0,0,0,0,0,0,1,1,1,0]","door_history":"[1,1,1,1,1,1,1,1,1,1,1,0,0,0,1]","location_rts":"[1843,703,637,649,1023,623,1625,701,910,1028,8301,1944,887,1074,788]","trial_type":"two-door-navigation","trial_index":28,"time_elapsed":1848862,"internal_node_id":"0.0-2.0-26.0"},{"group":"dihedral group of order 12","room_assignment":["olive","grey","red","blue","brown","yellow","cyan","pink","orange","green","purple","ivory"],"door_color_assignment":["black","white"],"door_generator_assignment":[1,0],"goal":0,"start":8,"action_noise":0.15,"location_history":"[8,7,6,0]","action_history":"[0,0,1]","door_history":"[1,1,0]","location_rts":"[404046,5583,4940]","trial_type":"two-door-navigation","trial_index":29,"time_elapsed":2270990,"internal_node_id":"0.0-2.0-27.0"},{"group":"dihedral group of order 12","room_assignment":["olive","grey","red","blue","brown","yellow","cyan","pink","orange","green","purple","ivory"],"door_color_assignment":["black","white"],"door_generator_assignment":[1,0],"goal":3,"start":0,"action_noise":0.15,"location_history":"[0,1,2,3]","action_history":"[0,0,0]","door_history":"[1,1,1]","location_rts":"[1803,1057,4541]","trial_type":"two-door-navigation","trial_index":30,"time_elapsed":2284948,"internal_node_id":"0.0-2.0-28.0"},{"group":"dihedral group of order 12","room_assignment":["olive","grey","red","blue","brown","yellow","cyan","pink","orange","green","purple","ivory"],"door_color_assignment":["black","white"],"door_generator_assignment":[1,0],"goal":4,"start":3,"action_noise":0.15,"location_history":"[3,4]","action_history":"[0]","door_history":"[1]","location_rts":"[5061]","trial_type":"two-door-navigation","trial_index":31,"time_elapsed":2294534,"internal_node_id":"0.0-2.0-29.0"},{"group":"dihedral group of order 12","room_assignment":["olive","grey","red","blue","brown","yellow","cyan","pink","orange","green","purple","ivory"],"door_color_assignment":["black","white"],"door_generator_assignment":[1,0],"goal":10,"start":4,"action_noise":0.15,"location_history":"[4,5,0,1,2,3,9,8,7,6,11,5,11,10]","action_history":"[0,0,0,0,0,1,0,0,0,1,0,1,0]","door_history":"[1,1,1,1,1,0,1,1,1,0,1,0,1]","location_rts":"[4470,725,685,848,4782,1119,1289,2915,5033,2893,4548,6229,1393]","trial_type":"two-door-navigation","trial_index":32,"time_elapsed":2348222,"internal_node_id":"0.0-2.0-30.0"},{"group":"dihedral group of order 12","room_assignment":["olive","grey","red","blue","brown","yellow","cyan","pink","orange","green","purple","ivory"],"door_color_assignment":["black","white"],"door_generator_assignment":[1,0],"goal":11,"start":10,"action_noise":0.15,"location_history":"[10,4,5,11]","action_history":"[1,0,1]","door_history":"[0,1,0]","location_rts":"[13125,1125,4510]","trial_type":"two-door-navigation","trial_index":33,"time_elapsed":2373541,"internal_node_id":"0.0-2.0-31.0"},{"group":"dihedral group of order 12","room_assignment":["olive","grey","red","blue","brown","yellow","cyan","pink","orange","green","purple","ivory"],"door_color_assignment":["black","white"],"door_generator_assignment":[1,0],"goal":1,"start":11,"action_noise":0.15,"location_history":"[11,10,9,8,7,6,11,5,0,1]","action_history":"[0,0,0,0,0,0,0,0,0]","door_history":"[1,1,1,1,1,1,1,1,1]","location_rts":"[2018,561,493,537,521,581,740,720,858]","trial_type":"two-door-navigation","trial_index":34,"time_elapsed":2393256,"internal_node_id":"0.0-2.0-32.0"},{"group":"dihedral group of order 12","room_assignment":["olive","grey","red","blue","brown","yellow","cyan","pink","orange","green","purple","ivory"],"door_color_assignment":["black","white"],"door_generator_assignment":[1,0],"goal":5,"start":1,"action_noise":0.15,"location_history":"[1,2,8,7,6,11,5]","action_history":"[0,0,0,0,0,1]","door_history":"[1,1,1,1,1,0]","location_rts":"[1806,562,700,900,3306,3448]","trial_type":"two-door-navigation","trial_index":35,"time_elapsed":2413597,"internal_node_id":"0.0-2.0-33.0"},{"group":"dihedral group of order 12","room_assignment":["olive","grey","red","blue","brown","yellow","cyan","pink","orange","green","purple","ivory"],"door_color_assignment":["black","white"],"door_generator_assignment":[1,0],"goal":9,"start":5,"action_noise":0.15,"location_history":"[5,0,6,11,10,9]","action_history":"[0,0,0,0,0]","door_history":"[1,1,1,1,1]","location_rts":"[1709,510,603,847,318]","trial_type":"two-door-navigation","trial_index":36,"time_elapsed":2426180,"internal_node_id":"0.0-2.0-34.0"},{"view_history":"[{\"page_index\":0,\"viewing_time\":4963}]","rt":4964,"trial_type":"instructions","trial_index":37,"time_elapsed":2432145,"internal_node_id":"0.0-3.0"},{"view_history":"[{\"page_index\":0,\"viewing_time\":2317},{\"page_index\":1,\"viewing_time\":17635}]","rt":19952,"trial_type":"instructions","trial_index":38,"time_elapsed":2453100,"internal_node_id":"0.0-4.0"},{"group":"dicyclic group of order 12","fractal_assignment":["../images/wht_red.png","../images/org_blu.png","../images/pnk_blu.png","../images/grn_red.png","../images/grn_prp.png","../images/red_prp.png","../images/blu_wht.png","../images/grn_blu.png","../images/gry_blk.png","../images/ylw_slt.png","../images/cyn_red.png","../images/ylw_pnk.png"],"mutagen_generator_assignment":[0,1],"goal":4,"start":0,"action_noise":0.15,"location_history":"[0,1,5,9,1,2,3,7,11,3,0,1,5,9,6,11,4]","action_history":"[0,1,1,1,0,0,1,1,1,0,0,1,1,0,0,0]","mutagen_history":"[0,1,1,1,0,0,1,1,1,0,0,1,1,0,0,0]","location_rts":"[6431,3177,1669,1247,886,964,972,1140,1369,830,1493,724,606,987,1394,1508]","trial_type":"fractal-mutation","trial_index":39,"time_elapsed":2499061,"internal_node_id":"0.0-5.0-0.0"},{"group":"dicyclic group of order 12","fractal_assignment":["../images/wht_red.png","../images/org_blu.png","../images/pnk_blu.png","../images/grn_red.png","../images/grn_prp.png","../images/red_prp.png","../images/blu_wht.png","../images/grn_blu.png","../images/gry_blk.png","../images/ylw_slt.png","../images/cyn_red.png","../images/ylw_pnk.png"],"mutagen_generator_assignment":[0,1],"goal":9,"start":4,"action_noise":0.15,"location_history":"[4,9]","action_history":"[0]","mutagen_history":"[0]","location_rts":"[1377]","trial_type":"fractal-mutation","trial_index":40,"time_elapsed":2504988,"internal_node_id":"0.0-5.0-1.0"},{"group":"dicyclic group of order 12","fractal_assignment":["../images/wht_red.png","../images/org_blu.png","../images/pnk_blu.png","../images/grn_red.png","../images/grn_prp.png","../images/red_prp.png","../images/blu_wht.png","../images/grn_blu.png","../images/gry_blk.png","../images/ylw_slt.png","../images/cyn_red.png","../images/ylw_pnk.png"],"mutagen_generator_assignment":[0,1],"goal":10,"start":9,"action_noise":0.15,"location_history":"[9,1,5,10]","action_history":"[1,1,0]","mutagen_history":"[1,1,0]","location_rts":"[2243,1189,929]","trial_type":"fractal-mutation","trial_index":41,"time_elapsed":2516062,"internal_node_id":"0.0-5.0-2.0"},{"group":"dicyclic group of order 12","fractal_assignment":["../images/wht_red.png","../images/org_blu.png","../images/pnk_blu.png","../images/grn_red.png","../images/grn_prp.png","../images/red_prp.png","../images/blu_wht.png","../images/grn_blu.png","../images/gry_blk.png","../images/ylw_slt.png","../images/cyn_red.png","../images/ylw_pnk.png"],"mutagen_generator_assignment":[0,1],"goal":2,"start":10,"action_noise":0.15,"location_history":"[10,7,11,4,8,5,9,1,2]","action_history":"[1,1,0,0,0,1,1,0]","mutagen_history":"[1,1,0,0,0,1,1,0]","location_rts":"[1744,1375,1432,898,997,1368,1270,814]","trial_type":"fractal-mutation","trial_index":42,"time_elapsed":2537983,"internal_node_id":"0.0-5.0-3.0"},{"group":"dicyclic group of order 12","fractal_assignment":["../images/wht_red.png","../images/org_blu.png","../images/pnk_blu.png","../images/grn_red.png","../images/grn_prp.png","../images/red_prp.png","../images/blu_wht.png","../images/grn_blu.png","../images/gry_blk.png","../images/ylw_slt.png","../images/cyn_red.png","../images/ylw_pnk.png"],"mutagen_generator_assignment":[0,1],"goal":5,"start":2,"action_noise":0.15,"location_history":"[2,6,10,2,3,0,1,5]","action_history":"[0,1,1,0,0,0,1]","mutagen_history":"[0,1,1,0,0,0,1]","location_rts":"[2511,1059,1090,1784,961,783,764]","trial_type":"fractal-mutation","trial_index":43,"time_elapsed":2557883,"internal_node_id":"0.0-5.0-4.0"},{"group":"dicyclic group of order 12","fractal_assignment":["../images/wht_red.png","../images/org_blu.png","../images/pnk_blu.png","../images/grn_red.png","../images/grn_prp.png","../images/red_prp.png","../images/blu_wht.png","../images/grn_blu.png","../images/gry_blk.png","../images/ylw_slt.png","../images/cyn_red.png","../images/ylw_pnk.png"],"mutagen_generator_assignment":[0,1],"goal":11,"start":5,"action_noise":0.15,"location_history":"[5,10,7,8,5,9,6,10,2,3,0,4,8,5,10,7,8,5,10,2,3,7,8,5,10,7,8,5,10,7,8,0,1,2,6,10,2,3,7,11]","action_history":"[0,0,0,0,1,0,1,1,0,0,1,1,0,1,0,0,0,0,1,0,1,0,0,0,0,0,0,0,0,0,1,0,0,1,1,1,0,1,1]","mutagen_history":"[0,0,0,0,1,0,1,1,0,0,1,1,0,1,0,0,0,0,1,0,1,0,0,0,0,0,0,0,0,0,1,0,0,1,1,1,0,1,1]","location_rts":"[2342,912,823,955,1297,765,1994,1169,1148,1155,1174,1047,904,1228,1135,909,1105,2150,1208,1059,1958,956,613,520,739,503,659,543,530,601,867,713,1595,838,1280,672,743,1007,801]","trial_type":"fractal-mutation","trial_index":44,"time_elapsed":2643332,"internal_node_id":"0.0-5.0-5.0"},{"group":"dicyclic group of order 12","fractal_assignment":["../images/wht_red.png","../images/org_blu.png","../images/pnk_blu.png","../images/grn_red.png","../images/grn_prp.png","../images/red_prp.png","../images/blu_wht.png","../images/grn_blu.png","../images/gry_blk.png","../images/ylw_slt.png","../images/cyn_red.png","../images/ylw_pnk.png"],"mutagen_generator_assignment":[0,1],"goal":6,"start":11,"action_noise":0.15,"location_history":"[11,4,9,6]","action_history":"[0,0,0]","mutagen_history":"[0,0,0]","location_rts":"[2309,564,568]","trial_type":"fractal-mutation","trial_index":45,"time_elapsed":2653428,"internal_node_id":"0.0-5.0-6.0"},{"group":"dicyclic group of order 12","fractal_assignment":["../images/wht_red.png","../images/org_blu.png","../images/pnk_blu.png","../images/grn_red.png","../images/grn_prp.png","../images/red_prp.png","../images/blu_wht.png","../images/grn_blu.png","../images/gry_blk.png","../images/ylw_slt.png","../images/cyn_red.png","../images/ylw_pnk.png"],"mutagen_generator_assignment":[0,1],"goal":3,"start":6,"action_noise":0.15,"location_history":"[6,11,3]","action_history":"[0,0]","mutagen_history":"[0,0]","location_rts":"[2197,1713]","trial_type":"fractal-mutation","trial_index":46,"time_elapsed":2662942,"internal_node_id":"0.0-5.0-7.0"},{"group":"dicyclic group of order 12","fractal_assignment":["../images/wht_red.png","../images/org_blu.png","../images/pnk_blu.png","../images/grn_red.png","../images/grn_prp.png","../images/red_prp.png","../images/blu_wht.png","../images/grn_blu.png","../images/gry_blk.png","../images/ylw_slt.png","../images/cyn_red.png","../images/ylw_pnk.png"],"mutagen_generator_assignment":[0,1],"goal":8,"start":3,"action_noise":0.15,"location_history":"[3,0,4,9,6,11,4,9,6,11,3,7,8]","action_history":"[0,0,0,0,0,0,0,0,0,0,1,0]","mutagen_history":"[0,0,0,0,0,0,0,0,0,0,1,0]","location_rts":"[1660,661,645,588,651,573,741,910,1350,894,898,830]","trial_type":"fractal-mutation","trial_index":47,"time_elapsed":2689473,"internal_node_id":"0.0-5.0-8.0"},{"group":"dicyclic group of order 12","fractal_assignment":["../images/wht_red.png","../images/org_blu.png","../images/pnk_blu.png","../images/grn_red.png","../images/grn_prp.png","../images/red_prp.png","../images/blu_wht.png","../images/grn_blu.png","../images/gry_blk.png","../images/ylw_slt.png","../images/cyn_red.png","../images/ylw_pnk.png"],"mutagen_generator_assignment":[0,1],"goal":1,"start":8,"action_noise":0.15,"location_history":"[8,5,9,6,11,3,0,1]","action_history":"[0,1,0,0,1,0,0]","mutagen_history":"[0,1,0,0,1,0,0]","location_rts":"[1641,786,732,715,694,746,859]","trial_type":"fractal-mutation","trial_index":48,"time_elapsed":2706563,"internal_node_id":"0.0-5.0-9.0"},{"group":"dicyclic group of order 12","fractal_assignment":["../images/wht_red.png","../images/org_blu.png","../images/pnk_blu.png","../images/grn_red.png","../images/grn_prp.png","../images/red_prp.png","../images/blu_wht.png","../images/grn_blu.png","../images/gry_blk.png","../images/ylw_slt.png","../images/cyn_red.png","../images/ylw_pnk.png"],"mutagen_generator_assignment":[0,1],"goal":7,"start":1,"action_noise":0.15,"location_history":"[1,2,3,7]","action_history":"[0,1,1]","mutagen_history":"[0,1,1]","location_rts":"[1808,707,750]","trial_type":"fractal-mutation","trial_index":49,"time_elapsed":2716534,"internal_node_id":"0.0-5.0-10.0"},{"group":"dicyclic group of order 12","fractal_assignment":["../images/wht_red.png","../images/org_blu.png","../images/pnk_blu.png","../images/grn_red.png","../images/grn_prp.png","../images/red_prp.png","../images/blu_wht.png","../images/grn_blu.png","../images/gry_blk.png","../images/ylw_slt.png","../images/cyn_red.png","../images/ylw_pnk.png"],"mutagen_generator_assignment":[0,1],"goal":5,"start":7,"action_noise":0.15,"location_history":"[7,8,5]","action_history":"[0,0]","mutagen_history":"[0,0]","location_rts":"[22188,1838]","trial_type":"fractal-mutation","trial_index":50,"time_elapsed":2746164,"internal_node_id":"0.0-5.0-11.0"},{"group":"dicyclic group of order 12","fractal_assignment":["../images/wht_red.png","../images/org_blu.png","../images/pnk_blu.png","../images/grn_red.png","../images/grn_prp.png","../images/red_prp.png","../images/blu_wht.png","../images/grn_blu.png","../images/gry_blk.png","../images/ylw_slt.png","../images/cyn_red.png","../images/ylw_pnk.png"],"mutagen_generator_assignment":[0,1],"goal":8,"start":5,"action_noise":0.15,"location_history":"[5,10,7,8]","action_history":"[0,0,0]","mutagen_history":"[0,0,0]","location_rts":"[1687,683,728]","trial_type":"fractal-mutation","trial_index":51,"time_elapsed":2755917,"internal_node_id":"0.0-5.0-12.0"},{"group":"dicyclic group of order 12","fractal_assignment":["../images/wht_red.png","../images/org_blu.png","../images/pnk_blu.png","../images/grn_red.png","../images/grn_prp.png","../images/red_prp.png","../images/blu_wht.png","../images/grn_blu.png","../images/gry_blk.png","../images/ylw_slt.png","../images/cyn_red.png","../images/ylw_pnk.png"],"mutagen_generator_assignment":[0,1],"goal":11,"start":8,"action_noise":0.15,"location_history":"[8,5,10,7,8,5,10,2,3,0,1,2,6,10,2,3,0,4,9,6,11]","action_history":"[0,0,0,0,0,0,1,0,0,0,0,1,0,0,0,1,1,0,0,0]","mutagen_history":"[0,0,0,0,0,0,1,0,0,0,0,1,0,0,0,1,1,0,0,0]","location_rts":"[1902,679,550,511,631,1016,1035,795,1067,1143,1124,1145,617,739,762,568,744,597,644,660]","trial_type":"fractal-mutation","trial_index":52,"time_elapsed":2797451,"internal_node_id":"0.0-5.0-13.0"},{"group":"dicyclic group of order 12","fractal_assignment":["../images/wht_red.png","../images/org_blu.png","../images/pnk_blu.png","../images/grn_red.png","../images/grn_prp.png","../images/red_prp.png","../images/blu_wht.png","../images/grn_blu.png","../images/gry_blk.png","../images/ylw_slt.png","../images/cyn_red.png","../images/ylw_pnk.png"],"mutagen_generator_assignment":[0,1],"goal":6,"start":11,"action_noise":0.15,"location_history":"[11,4,8,5,10,2,3,0,1,2,3,0,4,8,0,4,9,1,2,6]","action_history":"[0,0,0,0,0,0,0,0,0,0,0,1,1,1,1,0,1,0,1]","mutagen_history":"[0,0,0,0,0,0,0,0,0,0,0,1,1,1,1,0,1,0,1]","location_rts":"[2650,720,667,708,585,475,639,818,588,1088,696,808,1044,912,1394,979,1423,783,1102]","trial_type":"fractal-mutation","trial_index":53,"time_elapsed":2839150,"internal_node_id":"0.0-5.0-14.0"},{"group":"dicyclic group of order 12","fractal_assignment":["../images/wht_red.png","../images/org_blu.png","../images/pnk_blu.png","../images/grn_red.png","../images/grn_prp.png","../images/red_prp.png","../images/blu_wht.png","../images/grn_blu.png","../images/gry_blk.png","../images/ylw_slt.png","../images/cyn_red.png","../images/ylw_pnk.png"],"mutagen_generator_assignment":[0,1],"goal":7,"start":6,"action_noise":0.15,"location_history":"[6,10,7]","action_history":"[1,0]","mutagen_history":"[1,0]","location_rts":"[2184,653]","trial_type":"fractal-mutation","trial_index":54,"time_elapsed":2847615,"internal_node_id":"0.0-5.0-15.0"},{"group":"dicyclic group of order 12","fractal_assignment":["../images/wht_red.png","../images/org_blu.png","../images/pnk_blu.png","../images/grn_red.png","../images/grn_prp.png","../images/red_prp.png","../images/blu_wht.png","../images/grn_blu.png","../images/gry_blk.png","../images/ylw_slt.png","../images/cyn_red.png","../images/ylw_pnk.png"],"mutagen_generator_assignment":[0,1],"goal":10,"start":7,"action_noise":0.15,"location_history":"[7,8,5,9,6,11,4,9,1,2,3,0,1,2,6,10]","action_history":"[0,0,0,0,0,0,0,0,0,0,0,0,0,1,0]","mutagen_history":"[0,0,0,0,0,0,0,0,0,0,0,0,0,1,0]","location_rts":"[1552,633,697,655,810,877,649,627,673,653,735,681,527,1814,717]","trial_type":"fractal-mutation","trial_index":55,"time_elapsed":2879191,"internal_node_id":"0.0-5.0-16.0"},{"group":"dicyclic group of order 12","fractal_assignment":["../images/wht_red.png","../images/org_blu.png","../images/pnk_blu.png","../images/grn_red.png","../images/grn_prp.png","../images/red_prp.png","../images/blu_wht.png","../images/grn_blu.png","../images/gry_blk.png","../images/ylw_slt.png","../images/cyn_red.png","../images/ylw_pnk.png"],"mutagen_generator_assignment":[0,1],"goal":0,"start":10,"action_noise":0.15,"location_history":"[10,7,8,5,9,6,10,7,8,0]","action_history":"[0,0,0,0,0,1,0,0,0]","mutagen_history":"[0,0,0,0,0,1,0,0,0]","location_rts":"[2743,579,595,678,590,1713,1208,712,671]","trial_type":"fractal-mutation","trial_index":56,"time_elapsed":2901667,"internal_node_id":"0.0-5.0-17.0"},{"group":"dicyclic group of order 12","fractal_assignment":["../images/wht_red.png","../images/org_blu.png","../images/pnk_blu.png","../images/grn_red.png","../images/grn_prp.png","../images/red_prp.png","../images/blu_wht.png","../images/grn_blu.png","../images/gry_blk.png","../images/ylw_slt.png","../images/cyn_red.png","../images/ylw_pnk.png"],"mutagen_generator_assignment":[0,1],"goal":9,"start":0,"action_noise":0.15,"location_history":"[0,1,2,3,0,1,5,10,7,11,4,9]","action_history":"[0,0,0,0,0,0,0,0,1,0,0]","mutagen_history":"[0,0,0,0,0,0,0,0,1,0,0]","location_rts":"[19366,1163,591,618,625,723,674,999,4194,950,765]","trial_type":"fractal-mutation","trial_index":57,"time_elapsed":2947417,"internal_node_id":"0.0-5.0-18.0"},{"group":"dicyclic group of order 12","fractal_assignment":["../images/wht_red.png","../images/org_blu.png","../images/pnk_blu.png","../images/grn_red.png","../images/grn_prp.png","../images/red_prp.png","../images/blu_wht.png","../images/grn_blu.png","../images/gry_blk.png","../images/ylw_slt.png","../images/cyn_red.png","../images/ylw_pnk.png"],"mutagen_generator_assignment":[0,1],"goal":4,"start":9,"action_noise":0.15,"location_history":"[9,6,11,4]","action_history":"[0,0,0]","mutagen_history":"[0,0,0]","location_rts":"[1473,653,818]","trial_type":"fractal-mutation","trial_index":58,"time_elapsed":2957011,"internal_node_id":"0.0-5.0-19.0"},{"group":"dicyclic group of order 12","fractal_assignment":["../images/wht_red.png","../images/org_blu.png","../images/pnk_blu.png","../images/grn_red.png","../images/grn_prp.png","../images/red_prp.png","../images/blu_wht.png","../images/grn_blu.png","../images/gry_blk.png","../images/ylw_slt.png","../images/cyn_red.png","../images/ylw_pnk.png"],"mutagen_generator_assignment":[0,1],"goal":2,"start":4,"action_noise":0.15,"location_history":"[4,8,5,10,7,8,0,4,8,0,4,9,6,10,7,8,0,4,8,0,1,2]","action_history":"[1,0,0,0,0,1,1,1,1,1,0,0,1,0,0,1,1,1,1,0,0]","mutagen_history":"[1,0,0,0,0,1,1,1,1,1,0,0,1,0,0,1,1,1,1,0,0]","location_rts":"[1703,581,769,917,1009,782,1103,1109,1144,1495,644,1057,844,650,670,705,574,592,602,895,551]","trial_type":"fractal-mutation","trial_index":59,"time_elapsed":3001256,"internal_node_id":"0.0-5.0-20.0"},{"group":"dicyclic group of order 12","fractal_assignment":["../images/wht_red.png","../images/org_blu.png","../images/pnk_blu.png","../images/grn_red.png","../images/grn_prp.png","../images/red_prp.png","../images/blu_wht.png","../images/grn_blu.png","../images/gry_blk.png","../images/ylw_slt.png","../images/cyn_red.png","../images/ylw_pnk.png"],"mutagen_generator_assignment":[0,1],"goal":1,"start":2,"action_noise":0.15,"location_history":"[2,6,11,4,9,6,10,7,8,5,10,7,11,3,7,11,4,8,0,1]","action_history":"[0,0,0,0,0,1,0,0,0,0,0,1,1,1,1,0,1,1,0]","mutagen_history":"[0,0,0,0,0,1,0,0,0,0,0,1,1,1,1,0,1,1,0]","location_rts":"[30284,764,942,1137,916,618,1376,949,1638,655,935,734,856,2748,1369,932,1334,1495,1466]","trial_type":"fractal-mutation","trial_index":60,"time_elapsed":3076040,"internal_node_id":"0.0-5.0-21.0"},{"group":"dicyclic group of order 12","fractal_assignment":["../images/wht_red.png","../images/org_blu.png","../images/pnk_blu.png","../images/grn_red.png","../images/grn_prp.png","../images/red_prp.png","../images/blu_wht.png","../images/grn_blu.png","../images/gry_blk.png","../images/ylw_slt.png","../images/cyn_red.png","../images/ylw_pnk.png"],"mutagen_generator_assignment":[0,1],"goal":3,"start":1,"action_noise":0.15,"location_history":"[1,2,3]","action_history":"[0,0]","mutagen_history":"[0,0]","location_rts":"[3233,691]","trial_type":"fractal-mutation","trial_index":61,"time_elapsed":3085573,"internal_node_id":"0.0-5.0-22.0"},{"group":"dicyclic group of order 12","fractal_assignment":["../images/wht_red.png","../images/org_blu.png","../images/pnk_blu.png","../images/grn_red.png","../images/grn_prp.png","../images/red_prp.png","../images/blu_wht.png","../images/grn_blu.png","../images/gry_blk.png","../images/ylw_slt.png","../images/cyn_red.png","../images/ylw_pnk.png"],"mutagen_generator_assignment":[0,1],"goal":7,"start":3,"action_noise":0.15,"location_history":"[3,0,1,2,3,7]","action_history":"[0,0,0,0,1]","mutagen_history":"[0,0,0,0,1]","location_rts":"[1674,734,689,734,920]","trial_type":"fractal-mutation","trial_index":62,"time_elapsed":3099094,"internal_node_id":"0.0-5.0-23.0"},{"group":"dicyclic group of order 12","fractal_assignment":["../images/wht_red.png","../images/org_blu.png","../images/pnk_blu.png","../images/grn_red.png","../images/grn_prp.png","../images/red_prp.png","../images/blu_wht.png","../images/grn_blu.png","../images/gry_blk.png","../images/ylw_slt.png","../images/cyn_red.png","../images/ylw_pnk.png"],"mutagen_generator_assignment":[0,1],"goal":6,"start":7,"action_noise":0.15,"location_history":"[7,11,4,8,5,9,1,5,10,7,8,5,10,2,3,7,11,3,7,8,0,4,9,6]","action_history":"[1,1,1,0,1,1,1,1,0,0,0,0,1,0,1,1,1,1,1,1,1,0,0]","mutagen_history":"[1,1,1,0,1,1,1,1,0,0,0,0,1,0,1,1,1,1,1,1,1,0,0]","location_rts":"[8974,1012,1582,1489,997,609,1708,975,2237,798,688,781,1279,1196,853,1056,682,726,1074,811,1601,950,712]","trial_type":"fractal-mutation","trial_index":63,"time_elapsed":3159938,"internal_node_id":"0.0-5.0-24.0"},{"group":"dicyclic group of order 12","fractal_assignment":["../images/wht_red.png","../images/org_blu.png","../images/pnk_blu.png","../images/grn_red.png","../images/grn_prp.png","../images/red_prp.png","../images/blu_wht.png","../images/grn_blu.png","../images/gry_blk.png","../images/ylw_slt.png","../images/cyn_red.png","../images/ylw_pnk.png"],"mutagen_generator_assignment":[0,1],"goal":2,"start":6,"action_noise":0.15,"location_history":"[6,10,2]","action_history":"[1,1]","mutagen_history":"[1,1]","location_rts":"[2252,772]","trial_type":"fractal-mutation","trial_index":64,"time_elapsed":3168623,"internal_node_id":"0.0-5.0-25.0"},{"group":"dicyclic group of order 12","fractal_assignment":["../images/wht_red.png","../images/org_blu.png","../images/pnk_blu.png","../images/grn_red.png","../images/grn_prp.png","../images/red_prp.png","../images/blu_wht.png","../images/grn_blu.png","../images/gry_blk.png","../images/ylw_slt.png","../images/cyn_red.png","../images/ylw_pnk.png"],"mutagen_generator_assignment":[0,1],"goal":8,"start":2,"action_noise":0.15,"location_history":"[2,3,0,1,5,10,2,6,10,7,11,4,9,6,11,4,8]","action_history":"[0,0,0,0,0,1,1,1,0,0,0,0,0,0,0,1]","mutagen_history":"[0,0,0,0,0,1,1,1,0,0,0,0,0,0,0,1]","location_rts":"[1833,783,757,3584,1375,22301,567,948,885,713,563,834,922,1894,692,4534]","trial_type":"fractal-mutation","trial_index":65,"time_elapsed":3232206,"internal_node_id":"0.0-5.0-26.0"},{"group":"dicyclic group of order 12","fractal_assignment":["../images/wht_red.png","../images/org_blu.png","../images/pnk_blu.png","../images/grn_red.png","../images/grn_prp.png","../images/red_prp.png","../images/blu_wht.png","../images/grn_blu.png","../images/gry_blk.png","../images/ylw_slt.png","../images/cyn_red.png","../images/ylw_pnk.png"],"mutagen_generator_assignment":[0,1],"goal":0,"start":8,"action_noise":0.15,"location_history":"[8,5,9,6,11,3,7,11,4,8,0]","action_history":"[0,1,1,1,1,1,1,0,0,1]","mutagen_history":"[0,1,1,1,1,1,1,0,0,1]","location_rts":"[5867,659,593,703,606,644,817,1098,834,629]","trial_type":"fractal-mutation","trial_index":66,"time_elapsed":3258836,"internal_node_id":"0.0-5.0-27.0"},{"group":"dicyclic group of order 12","fractal_assignment":["../images/wht_red.png","../images/org_blu.png","../images/pnk_blu.png","../images/grn_red.png","../images/grn_prp.png","../images/red_prp.png","../images/blu_wht.png","../images/grn_blu.png","../images/gry_blk.png","../images/ylw_slt.png","../images/cyn_red.png","../images/ylw_pnk.png"],"mutagen_generator_assignment":[0,1],"goal":3,"start":0,"action_noise":0.15,"location_history":"[0,1,2,6,11,3]","action_history":"[0,0,0,0,0]","mutagen_history":"[0,0,0,0,0]","location_rts":"[2572,583,614,635,593]","trial_type":"fractal-mutation","trial_index":67,"time_elapsed":3272590,"internal_node_id":"0.0-5.0-28.0"},{"group":"dicyclic group of order 12","fractal_assignment":["../images/wht_red.png","../images/org_blu.png","../images/pnk_blu.png","../images/grn_red.png","../images/grn_prp.png","../images/red_prp.png","../images/blu_wht.png","../images/grn_blu.png","../images/gry_blk.png","../images/ylw_slt.png","../images/cyn_red.png","../images/ylw_pnk.png"],"mutagen_generator_assignment":[0,1],"goal":4,"start":3,"action_noise":0.15,"location_history":"[3,7,11,3,7,11,3,7,8,5,10,7,11,4]","action_history":"[1,1,1,1,1,1,1,0,0,0,0,1,0]","mutagen_history":"[1,1,1,1,1,1,1,0,0,0,0,1,0]","location_rts":"[2731,497,762,526,768,661,465,892,734,649,726,1016,659]","trial_type":"fractal-mutation","trial_index":68,"time_elapsed":3301045,"internal_node_id":"0.0-5.0-29.0"},{"group":"dicyclic group of order 12","fractal_assignment":["../images/wht_red.png","../images/org_blu.png","../images/pnk_blu.png","../images/grn_red.png","../images/grn_prp.png","../images/red_prp.png","../images/blu_wht.png","../images/grn_blu.png","../images/gry_blk.png","../images/ylw_slt.png","../images/cyn_red.png","../images/ylw_pnk.png"],"mutagen_generator_assignment":[0,1],"goal":10,"start":4,"action_noise":0.15,"location_history":"[4,8,0,1,2,6,11,3,7,11,3,0,4,9,6,10]","action_history":"[1,1,1,0,1,0,1,1,1,1,1,1,0,0,1]","mutagen_history":"[1,1,1,0,1,0,1,1,1,1,1,1,0,0,1]","location_rts":"[2130,918,669,818,731,1603,713,903,594,632,487,575,832,1150,1621]","trial_type":"fractal-mutation","trial_index":69,"time_elapsed":3334998,"internal_node_id":"0.0-5.0-30.0"},{"group":"dicyclic group of order 12","fractal_assignment":["../images/wht_red.png","../images/org_blu.png","../images/pnk_blu.png","../images/grn_red.png","../images/grn_prp.png","../images/red_prp.png","../images/blu_wht.png","../images/grn_blu.png","../images/gry_blk.png","../images/ylw_slt.png","../images/cyn_red.png","../images/ylw_pnk.png"],"mutagen_generator_assignment":[0,1],"goal":11,"start":10,"action_noise":0.15,"location_history":"[10,2,6,10,7,11]","action_history":"[1,1,1,0,1]","mutagen_history":"[1,1,1,0,1]","location_rts":"[1843,557,680,1010,1172]","trial_type":"fractal-mutation","trial_index":70,"time_elapsed":3349115,"internal_node_id":"0.0-5.0-31.0"},{"group":"dicyclic group of order 12","fractal_assignment":["../images/wht_red.png","../images/org_blu.png","../images/pnk_blu.png","../images/grn_red.png","../images/grn_prp.png","../images/red_prp.png","../images/blu_wht.png","../images/grn_blu.png","../images/gry_blk.png","../images/ylw_slt.png","../images/cyn_red.png","../images/ylw_pnk.png"],"mutagen_generator_assignment":[0,1],"goal":1,"start":11,"action_noise":0.15,"location_history":"[11,4,9,6,11,4,8,5,10,7,11,4,9,1]","action_history":"[0,0,0,0,0,1,0,0,0,1,0,0,1]","mutagen_history":"[0,0,0,0,0,1,0,0,0,1,0,0,1]","location_rts":"[2195,757,774,614,1183,1314,941,723,626,19756,3410,9988,19670]","trial_type":"fractal-mutation","trial_index":71,"time_elapsed":3428291,"internal_node_id":"0.0-5.0-32.0"},{"group":"dicyclic group of order 12","fractal_assignment":["../images/wht_red.png","../images/org_blu.png","../images/pnk_blu.png","../images/grn_red.png","../images/grn_prp.png","../images/red_prp.png","../images/blu_wht.png","../images/grn_blu.png","../images/gry_blk.png","../images/ylw_slt.png","../images/cyn_red.png","../images/ylw_pnk.png"],"mutagen_generator_assignment":[0,1],"goal":5,"start":1,"action_noise":0.15,"location_history":"[1,2,3,0,1,5]","action_history":"[0,0,0,0,1]","mutagen_history":"[0,0,0,0,1]","location_rts":"[1485,615,520,725,1562]","trial_type":"fractal-mutation","trial_index":72,"time_elapsed":3441975,"internal_node_id":"0.0-5.0-33.0"},{"group":"dicyclic group of order 12","fractal_assignment":["../images/wht_red.png","../images/org_blu.png","../images/pnk_blu.png","../images/grn_red.png","../images/grn_prp.png","../images/red_prp.png","../images/blu_wht.png","../images/grn_blu.png","../images/gry_blk.png","../images/ylw_slt.png","../images/cyn_red.png","../images/ylw_pnk.png"],"mutagen_generator_assignment":[0,1],"goal":9,"start":5,"action_noise":0.15,"location_history":"[5,10,2,3,0,4,8,5,10,2,6,11,4,9]","action_history":"[0,0,0,0,1,0,0,0,1,0,0,0,0]","mutagen_history":"[0,0,0,0,1,0,0,0,1,0,0,0,0]","location_rts":"[43448,785,583,589,725,762,891,625,684,799,620,641,664]","trial_type":"fractal-mutation","trial_index":73,"time_elapsed":3511019,"internal_node_id":"0.0-5.0-34.0"},{"view_history":"[{\"page_index\":0,\"viewing_time\":5695}]","rt":5695,"trial_type":"instructions","trial_index":74,"time_elapsed":3517714,"internal_node_id":"0.0-6.0"},{"rt":27432,"responses":"{\"Q0\":\"Seems long for the pay, but probably evens out over the 3 days.\"}","trial_type":"survey-text","trial_index":75,"time_elapsed":3546150,"internal_node_id":"0.0-7.0"}]