[{"view_history":"[{\"page_index\":0,\"viewing_time\":129764},{\"page_index\":1,\"viewing_time\":3438},{\"page_index\":2,\"viewing_time\":13441},{\"page_index\":3,\"viewing_time\":5808}]","rt":152452,"trial_type":"instructions","trial_index":0,"time_elapsed":152452,"internal_node_id":"0.0-0.0"},{"view_history":"[{\"page_index\":0,\"viewing_time\":1524},{\"page_index\":1,\"viewing_time\":19164}]","rt":20688,"trial_type":"instructions","trial_index":1,"time_elapsed":174144,"internal_node_id":"0.0-1.0"},{"group":"dihedral group of order 12","room_assignment":["ivory","blue","red","yellow","pink","green","grey","cyan","orange","olive","purple","brown"],"door_color_assignment":["white","black"],"door_generator_assignment":[1,0],"goal":4,"start":0,"action_noise":0.15,"location_history":"[0,1,7,1,2,3,4]","action_history":"[0,1,1,0,1,0]","door_history":"[1,0,0,1,0,1]","location_rts":"[3071,1355,1416,936,1345,1109]","trial_type":"two-door-navigation","trial_index":2,"time_elapsed":193033,"internal_node_id":"0.0-2.0-0.0"},{"group":"dihedral group of order 12","room_assignment":["ivory","blue","red","yellow","pink","green","grey","cyan","orange","olive","purple","brown"],"door_color_assignment":["white","black"],"door_generator_assignment":[1,0],"goal":9,"start":4,"action_noise":0.15,"location_history":"[4,10,9]","action_history":"[0,0]","door_history":"[1,1]","location_rts":"[2039,879]","trial_type":"two-door-navigation","trial_index":3,"time_elapsed":201510,"internal_node_id":"0.0-2.0-1.0"},{"group":"dihedral group of order 12","room_assignment":["ivory","blue","red","yellow","pink","green","grey","cyan","orange","olive","purple","brown"],"door_color_assignment":["white","black"],"door_generator_assignment":[1,0],"goal":10,"start":9,"action_noise":0.15,"location_history":"[9,8,2,3,4,10]","action_history":"[0,0,0,1,1]","door_history":"[1,1,1,0,0]","location_rts":"[787,842,758,759,1100]","trial_type":"two-door-navigation","trial_index":4,"time_elapsed":214384,"internal_node_id":"0.0-2.0-2.0"},{"group":"dihedral group of order 12","room_assignment":["ivory","blue","red","yellow","pink","green","grey","cyan","orange","olive","purple","brown"],"door_color_assignment":["white","black"],"door_generator_assignment":[1,0],"goal":2,"start":10,"action_noise":0.15,"location_history":"[10,9,8,2]","action_history":"[0,0,1]","door_history":"[1,1,0]","location_rts":"[1193,963,598]","trial_type":"two-door-navigation","trial_index":5,"time_elapsed":223724,"internal_node_id":"0.0-2.0-3.0"},{"group":"dihedral group of order 12","room_assignment":["ivory","blue","red","yellow","pink","green","grey","cyan","orange","olive","purple","brown"],"door_color_assignment":["white","black"],"door_generator_assignment":[1,0],"goal":5,"start":2,"action_noise":0.15,"location_history":"[2,3,9,3,9,8,2,8,2,3,9,8,2,3,4,10,4,5]","action_history":"[0,1,1,1,0,1,1,1,0,1,0,1,0,0,1,1,0]","door_history":"[1,0,0,0,1,0,0,0,1,0,1,0,1,1,0,0,1]","location_rts":"[2081,698,1212,832,1018,794,670,778,627,578,965,608,750,603,901,565,679]","trial_type":"two-door-navigation","trial_index":6,"time_elapsed":259105,"internal_node_id":"0.0-2.0-4.0"},{"group":"dihedral group of order 12","room_assignment":["ivory","blue","red","yellow","pink","green","grey","cyan","orange","olive","purple","brown"],"door_color_assignment":["white","black"],"door_generator_assignment":[1,0],"goal":11,"start":5,"action_noise":0.15,"location_history":"[5,11]","action_history":"[1]","door_history":"[0]","location_rts":"[1515]","trial_type":"two-door-navigation","trial_index":7,"time_elapsed":265145,"internal_node_id":"0.0-2.0-5.0"},{"group":"dihedral group of order 12","room_assignment":["ivory","blue","red","yellow","pink","green","grey","cyan","orange","olive","purple","brown"],"door_color_assignment":["white","black"],"door_generator_assignment":[1,0],"goal":6,"start":11,"action_noise":0.15,"location_history":"[11,5,0,6]","action_history":"[1,0,1]","door_history":"[0,1,0]","location_rts":"[1886,574,773]","trial_type":"two-door-navigation","trial_index":8,"time_elapsed":274964,"internal_node_id":"0.0-2.0-6.0"},{"group":"dihedral group of order 12","room_assignment":["ivory","blue","red","yellow","pink","green","grey","cyan","orange","olive","purple","brown"],"door_color_assignment":["white","black"],"door_generator_assignment":[1,0],"goal":3,"start":6,"action_noise":0.15,"location_history":"[6,11,10,9,8,7,1,2,8,7,6,11,5,0,1,2,3]","action_history":"[0,0,0,1,0,1,0,1,0,1,0,1,0,0,0,0]","door_history":"[1,1,1,0,1,0,1,0,1,0,1,0,1,1,1,1]","location_rts":"[1463,611,552,962,680,1157,628,785,539,446,459,659,507,1112,999,2330]","trial_type":"two-door-navigation","trial_index":9,"time_elapsed":308845,"internal_node_id":"0.0-2.0-7.0"},{"group":"dihedral group of order 12","room_assignment":["ivory","blue","red","yellow","pink","green","grey","cyan","orange","olive","purple","brown"],"door_color_assignment":["white","black"],"door_generator_assignment":[1,0],"goal":8,"start":3,"action_noise":0.15,"location_history":"[3,9,8]","action_history":"[1,0]","door_history":"[0,1]","location_rts":"[2132,480]","trial_type":"two-door-navigation","trial_index":10,"time_elapsed":317014,"internal_node_id":"0.0-2.0-8.0"},{"group":"dihedral group of order 12","room_assignment":["ivory","blue","red","yellow","pink","green","grey","cyan","orange","olive","purple","brown"],"door_color_assignment":["white","black"],"door_generator_assignment":[1,0],"goal":1,"start":8,"action_noise":0.15,"location_history":"[8,2,3,9,3,4,10,9,3,4,5,11,10,4,5,11,10,9,3,4,10,9,3,4,10,9,3,4,5,0,6,11,5,0,6,11,10,9,8,2,3,4,5,0,1]","action_history":"[1,0,1,0,0,1,0,1,0,0,1,0,1,0,1,0,0,0,0,1,0,1,0,1,0,1,0,0,0,1,0,1,0,1,0,0,1,0,1,0,0,0,0,0]","door_history":"[0,1,0,1,1,0,1,0,1,1,0,1,0,1,0,1,1,1,1,0,1,0,1,0,1,0,1,1,1,0,1,0,1,0,1,1,0,1,0,1,1,1,1,1]","location_rts":"[1705,473,423,330,531,1829,540,296,309,1241,638,352,446,392,462,264,746,1044,1198,920,495,609,396,629,446,813,376,887,661,666,817,465,376,715,359,389,875,477,750,437,720,824,616,802]","trial_type":"two-door-navigation","trial_index":11,"time_elapsed":394344,"internal_node_id":"0.0-2.0-9.0"},{"group":"dihedral group of order 12","room_assignment":["ivory","blue","red","yellow","pink","green","grey","cyan","orange","olive","purple","brown"],"door_color_assignment":["white","black"],"door_generator_assignment":[1,0],"goal":7,"start":1,"action_noise":0.15,"location_history":"[1,7]","action_history":"[1]","door_history":"[0]","location_rts":"[940]","trial_type":"two-door-navigation","trial_index":12,"time_elapsed":399808,"internal_node_id":"0.0-2.0-10.0"},{"group":"dihedral group of order 12","room_assignment":["ivory","blue","red","yellow","pink","green","grey","cyan","orange","olive","purple","brown"],"door_color_assignment":["white","black"],"door_generator_assignment":[1,0],"goal":5,"start":7,"action_noise":0.15,"location_history":"[7,6,11,5]","action_history":"[0,0,1]","door_history":"[1,1,0]","location_rts":"[1330,739,875]","trial_type":"two-door-navigation","trial_index":13,"time_elapsed":409321,"internal_node_id":"0.0-2.0-11.0"},{"group":"dihedral group of order 12","room_assignment":["ivory","blue","red","yellow","pink","green","grey","cyan","orange","olive","purple","brown"],"door_color_assignment":["white","black"],"door_generator_assignment":[1,0],"goal":8,"start":5,"action_noise":0.15,"location_history":"[5,11,5,0,1,7,6,11,10,9,3,4,5,11,5,0,1,7,6,11,10,9,8]","action_history":"[0,1,0,0,1,0,0,0,0,1,0,1,0,1,0,0,1,0,0,0,0,1]","door_history":"[1,0,1,1,0,1,1,1,1,0,1,0,1,0,1,1,0,1,1,1,1,0]","location_rts":"[693,731,404,714,514,311,648,746,946,1018,662,671,472,1008,437,1250,866,432,575,1087,1123,1153]","trial_type":"two-door-navigation","trial_index":14,"time_elapsed":451780,"internal_node_id":"0.0-2.0-12.0"},{"group":"dihedral group of order 12","room_assignment":["ivory","blue","red","yellow","pink","green","grey","cyan","orange","olive","purple","brown"],"door_color_assignment":["white","black"],"door_generator_assignment":[1,0],"goal":11,"start":8,"action_noise":0.15,"location_history":"[8,7,6,11]","action_history":"[0,0,0]","door_history":"[1,1,1]","location_rts":"[1693,624,846]","trial_type":"two-door-navigation","trial_index":15,"time_elapsed":461515,"internal_node_id":"0.0-2.0-13.0"},{"group":"dihedral group of order 12","room_assignment":["ivory","blue","red","yellow","pink","green","grey","cyan","orange","olive","purple","brown"],"door_color_assignment":["white","black"],"door_generator_assignment":[1,0],"goal":6,"start":11,"action_noise":0.15,"location_history":"[11,10,9,8,2,3,4,5,0,6]","action_history":"[0,0,0,0,0,0,0,0,1]","door_history":"[1,1,1,1,1,1,1,1,0]","location_rts":"[1458,449,456,514,456,466,507,473,720]","trial_type":"two-door-navigation","trial_index":16,"time_elapsed":479717,"internal_node_id":"0.0-2.0-14.0"},{"group":"dihedral group of order 12","room_assignment":["ivory","blue","red","yellow","pink","green","grey","cyan","orange","olive","purple","brown"],"door_color_assignment":["white","black"],"door_generator_assignment":[1,0],"goal":7,"start":6,"action_noise":0.15,"location_history":"[6,11,10,9,8,7]","action_history":"[0,0,0,0,0]","door_history":"[1,1,1,1,1]","location_rts":"[1510,444,505,450,559]","trial_type":"two-door-navigation","trial_index":17,"time_elapsed":491828,"internal_node_id":"0.0-2.0-15.0"},{"group":"dihedral group of order 12","room_assignment":["ivory","blue","red","yellow","pink","green","grey","cyan","orange","olive","purple","brown"],"door_color_assignment":["white","black"],"door_generator_assignment":[1,0],"goal":10,"start":7,"action_noise":0.15,"location_history":"[7,6,11,5,0,6,11,5,0,1,7,6,11,10]","action_history":"[0,0,1,0,0,0,0,0,0,0,0,0,0]","door_history":"[1,1,0,1,1,1,1,1,1,1,1,1,1]","location_rts":"[1541,604,689,437,663,624,931,857,652,2864,938,1420,2081]","trial_type":"two-door-navigation","trial_index":18,"time_elapsed":523007,"internal_node_id":"0.0-2.0-16.0"},{"group":"dihedral group of order 12","room_assignment":["ivory","blue","red","yellow","pink","green","grey","cyan","orange","olive","purple","brown"],"door_color_assignment":["white","black"],"door_generator_assignment":[1,0],"goal":0,"start":10,"action_noise":0.15,"location_history":"[10,9,8,7,6,0]","action_history":"[0,0,0,0,1]","door_history":"[1,1,1,1,0]","location_rts":"[2438,522,504,548,735]","trial_type":"two-door-navigation","trial_index":19,"time_elapsed":536447,"internal_node_id":"0.0-2.0-17.0"},{"group":"dihedral group of order 12","room_assignment":["ivory","blue","red","yellow","pink","green","grey","cyan","orange","olive","purple","brown"],"door_color_assignment":["white","black"],"door_generator_assignment":[1,0],"goal":9,"start":0,"action_noise":0.15,"location_history":"[0,1,2,3,9]","action_history":"[0,0,0,1]","door_history":"[1,1,1,0]","location_rts":"[1053,561,602,1747]","trial_type":"two-door-navigation","trial_index":20,"time_elapsed":548040,"internal_node_id":"0.0-2.0-18.0"},{"group":"dihedral group of order 12","room_assignment":["ivory","blue","red","yellow","pink","green","grey","cyan","orange","olive","purple","brown"],"door_color_assignment":["white","black"],"door_generator_assignment":[1,0],"goal":4,"start":9,"action_noise":0.15,"location_history":"[9,8,2,3,4]","action_history":"[0,1,0,0]","door_history":"[1,0,1,1]","location_rts":"[814,716,429,791]","trial_type":"two-door-navigation","trial_index":21,"time_elapsed":558382,"internal_node_id":"0.0-2.0-19.0"},{"group":"dihedral group of order 12","room_assignment":["ivory","blue","red","yellow","pink","green","grey","cyan","orange","olive","purple","brown"],"door_color_assignment":["white","black"],"door_generator_assignment":[1,0],"goal":2,"start":4,"action_noise":0.15,"location_history":"[4,10,9,8,2]","action_history":"[1,0,0,1]","door_history":"[0,1,1,0]","location_rts":"[827,291,662,837]","trial_type":"two-door-navigation","trial_index":22,"time_elapsed":568605,"internal_node_id":"0.0-2.0-20.0"},{"group":"dihedral group of order 12","room_assignment":["ivory","blue","red","yellow","pink","green","grey","cyan","orange","olive","purple","brown"],"door_color_assignment":["white","black"],"door_generator_assignment":[1,0],"goal":1,"start":2,"action_noise":0.15,"location_history":"[2,8,2,3,4,5,0,1]","action_history":"[0,1,0,0,0,0,0]","door_history":"[1,0,1,1,1,1,1]","location_rts":"[845,2441,553,445,419,534,444]","trial_type":"two-door-navigation","trial_index":23,"time_elapsed":584993,"internal_node_id":"0.0-2.0-21.0"},{"group":"dihedral group of order 12","room_assignment":["ivory","blue","red","yellow","pink","green","grey","cyan","orange","olive","purple","brown"],"door_color_assignment":["white","black"],"door_generator_assignment":[1,0],"goal":3,"start":1,"action_noise":0.15,"location_history":"[1,2,3]","action_history":"[0,0]","door_history":"[1,1]","location_rts":"[1240,542]","trial_type":"two-door-navigation","trial_index":24,"time_elapsed":592318,"internal_node_id":"0.0-2.0-22.0"},{"group":"dihedral group of order 12","room_assignment":["ivory","blue","red","yellow","pink","green","grey","cyan","orange","olive","purple","brown"],"door_color_assignment":["white","black"],"door_generator_assignment":[1,0],"goal":7,"start":3,"action_noise":0.15,"location_history":"[3,4,5,0,1,7]","action_history":"[0,0,0,0,1]","door_history":"[1,1,1,1,0]","location_rts":"[1518,509,562,430,711]","trial_type":"two-door-navigation","trial_index":25,"time_elapsed":604672,"internal_node_id":"0.0-2.0-23.0"},{"group":"dihedral group of order 12","room_assignment":["ivory","blue","red","yellow","pink","green","grey","cyan","orange","olive","purple","brown"],"door_color_assignment":["white","black"],"door_generator_assignment":[1,0],"goal":6,"start":7,"action_noise":0.15,"location_history":"[7,6]","action_history":"[0]","door_history":"[1]","location_rts":"[1492]","trial_type":"two-door-navigation","trial_index":26,"time_elapsed":610691,"internal_node_id":"0.0-2.0-24.0"},{"group":"dihedral group of order 12","room_assignment":["ivory","blue","red","yellow","pink","green","grey","cyan","orange","olive","purple","brown"],"door_color_assignment":["white","black"],"door_generator_assignment":[1,0],"goal":2,"start":6,"action_noise":0.15,"location_history":"[6,11,10,9,3,4,5,0,1,7,6,0,1,2]","action_history":"[0,0,0,0,0,0,0,0,0,0,0,0,0]","door_history":"[1,1,1,1,1,1,1,1,1,1,1,1,1]","location_rts":"[1242,780,550,541,607,585,594,557,527,539,527,562,474]","trial_type":"two-door-navigation","trial_index":27,"time_elapsed":635648,"internal_node_id":"0.0-2.0-25.0"},{"group":"dihedral group of order 12","room_assignment":["ivory","blue","red","yellow","pink","green","grey","cyan","orange","olive","purple","brown"],"door_color_assignment":["white","black"],"door_generator_assignment":[1,0],"goal":8,"start":2,"action_noise":0.15,"location_history":"[2,3,9,8]","action_history":"[0,0,0]","door_history":"[1,1,1]","location_rts":"[1365,743,382]","trial_type":"two-door-navigation","trial_index":28,"time_elapsed":644712,"internal_node_id":"0.0-2.0-26.0"},{"group":"dihedral group of order 12","room_assignment":["ivory","blue","red","yellow","pink","green","grey","cyan","orange","olive","purple","brown"],"door_color_assignment":["white","black"],"door_generator_assignment":[1,0],"goal":0,"start":8,"action_noise":0.15,"location_history":"[8,7,6,11,10,9,8,2,3,9,8,7,6,0]","action_history":"[0,0,1,0,0,0,0,0,1,0,1,0,1]","door_history":"[1,1,0,1,1,1,1,1,0,1,0,1,0]","location_rts":"[1228,511,738,2641,647,463,520,498,628,971,365,609,372]","trial_type":"two-door-navigation","trial_index":29,"time_elapsed":671748,"internal_node_id":"0.0-2.0-27.0"},{"group":"dihedral group of order 12","room_assignment":["ivory","blue","red","yellow","pink","green","grey","cyan","orange","olive","purple","brown"],"door_color_assignment":["white","black"],"door_generator_assignment":[1,0],"goal":3,"start":0,"action_noise":0.15,"location_history":"[0,1,7,6,11,5,0,1,2,8,7,6,0,1,2,8,2,3]","action_history":"[0,1,0,0,1,0,0,0,0,1,0,1,0,0,0,1,0]","door_history":"[1,0,1,1,0,1,1,1,1,0,1,0,1,1,1,0,1]","location_rts":"[1236,664,558,1136,1010,625,615,1459,1220,922,613,454,476,520,662,777,681]","trial_type":"two-door-navigation","trial_index":30,"time_elapsed":706296,"internal_node_id":"0.0-2.0-28.0"},{"group":"dihedral group of order 12","room_assignment":["ivory","blue","red","yellow","pink","green","grey","cyan","orange","olive","purple","brown"],"door_color_assignment":["white","black"],"door_generator_assignment":[1,0],"goal":4,"start":3,"action_noise":0.15,"location_history":"[3,9,8,7,6,11,10,9,3,4]","action_history":"[1,0,0,0,0,0,0,1,0]","door_history":"[0,1,1,1,1,1,1,0,1]","location_rts":"[1489,690,656,638,819,819,2136,561,471]","trial_type":"two-door-navigation","trial_index":31,"time_elapsed":727284,"internal_node_id":"0.0-2.0-29.0"},{"group":"dihedral group of order 12","room_assignment":["ivory","blue","red","yellow","pink","green","grey","cyan","orange","olive","purple","brown"],"door_color_assignment":["white","black"],"door_generator_assignment":[1,0],"goal":10,"start":4,"action_noise":0.15,"location_history":"[4,5,0,1,2,3,9,8,2,3,4,10]","action_history":"[0,0,0,0,0,1,0,1,0,0,1]","door_history":"[1,1,1,1,1,0,1,0,1,1,0]","location_rts":"[512,883,647,691,586,624,617,600,530,666,914]","trial_type":"two-door-navigation","trial_index":32,"time_elapsed":749353,"internal_node_id":"0.0-2.0-30.0"},{"group":"dihedral group of order 12","room_assignment":["ivory","blue","red","yellow","pink","green","grey","cyan","orange","olive","purple","brown"],"door_color_assignment":["white","black"],"door_generator_assignment":[1,0],"goal":11,"start":10,"action_noise":0.15,"location_history":"[10,4,5,11]","action_history":"[1,0,1]","door_history":"[0,1,0]","location_rts":"[2872,666,638]","trial_type":"two-door-navigation","trial_index":33,"time_elapsed":760099,"internal_node_id":"0.0-2.0-31.0"},{"group":"dihedral group of order 12","room_assignment":["ivory","blue","red","yellow","pink","green","grey","cyan","orange","olive","purple","brown"],"door_color_assignment":["white","black"],"door_generator_assignment":[1,0],"goal":1,"start":11,"action_noise":0.15,"location_history":"[11,10,4,5,11,10,9,3,4,5,0,1]","action_history":"[0,1,0,1,0,0,1,0,0,0,0]","door_history":"[1,0,1,0,1,1,0,1,1,1,1]","location_rts":"[1059,502,739,536,545,587,848,502,669,809,1002]","trial_type":"two-door-navigation","trial_index":34,"time_elapsed":782691,"internal_node_id":"0.0-2.0-32.0"},{"group":"dihedral group of order 12","room_assignment":["ivory","blue","red","yellow","pink","green","grey","cyan","orange","olive","purple","brown"],"door_color_assignment":["white","black"],"door_generator_assignment":[1,0],"goal":5,"start":1,"action_noise":0.15,"location_history":"[1,2,3,9,8,2,3,4,5]","action_history":"[0,0,1,0,1,0,0,0]","door_history":"[1,1,0,1,0,1,1,1]","location_rts":"[902,1151,761,618,848,701,867,506]","trial_type":"two-door-navigation","trial_index":35,"time_elapsed":800735,"internal_node_id":"0.0-2.0-33.0"},{"group":"dihedral group of order 12","room_assignment":["ivory","blue","red","yellow","pink","green","grey","cyan","orange","olive","purple","brown"],"door_color_assignment":["white","black"],"door_generator_assignment":[1,0],"goal":9,"start":5,"action_noise":0.15,"location_history":"[5,11,10,9]","action_history":"[1,0,0]","door_history":"[0,1,1]","location_rts":"[916,557,586]","trial_type":"two-door-navigation","trial_index":36,"time_elapsed":809356,"internal_node_id":"0.0-2.0-34.0"},{"view_history":"[{\"page_index\":0,\"viewing_time\":3586}]","rt":3587,"trial_type":"instructions","trial_index":37,"time_elapsed":813944,"internal_node_id":"0.0-3.0"},{"view_history":"[{\"page_index\":0,\"viewing_time\":2981},{\"page_index\":1,\"viewing_time\":14592}]","rt":17573,"trial_type":"instructions","trial_index":38,"time_elapsed":832518,"internal_node_id":"0.0-4.0"},{"group":"dicyclic group of order 12","fractal_assignment":["../images/gry_blk.png","../images/pnk_blu.png","../images/red_prp.png","../images/cyn_red.png","../images/blu_wht.png","../images/org_blu.png","../images/wht_red.png","../images/grn_red.png","../images/grn_prp.png","../images/grn_blu.png","../images/ylw_slt.png","../images/ylw_pnk.png"],"mutagen_generator_assignment":[0,1],"goal":4,"start":0,"action_noise":0.15,"location_history":"[0,1,5,10,7,8,0,1,2,6,10,2,3,7,8,5,9,1,5,10,7,8,5,10,2,3,7,11,4]","action_history":"[0,1,0,0,0,1,0,0,1,1,1,0,1,1,0,0,1,1,0,0,0,0,0,0,0,1,1,0]","mutagen_history":"[0,1,0,0,0,1,0,0,1,1,1,0,1,1,0,0,1,1,0,0,0,0,0,0,0,1,1,0]","location_rts":"[3929,137,588,164,558,1168,638,965,850,570,527,556,631,384,530,403,473,630,397,428,554,4834,809,720,366,1030,680,628]","trial_type":"fractal-mutation","trial_index":39,"time_elapsed":891009,"internal_node_id":"0.0-5.0-0.0"},{"group":"dicyclic group of order 12","fractal_assignment":["../images/gry_blk.png","../images/pnk_blu.png","../images/red_prp.png","../images/cyn_red.png","../images/blu_wht.png","../images/org_blu.png","../images/wht_red.png","../images/grn_red.png","../images/grn_prp.png","../images/grn_blu.png","../images/ylw_slt.png","../images/ylw_pnk.png"],"mutagen_generator_assignment":[0,1],"goal":9,"start":4,"action_noise":0.15,"location_history":"[4,8,5,10,2,6,10,7,11,4,9]","action_history":"[1,0,0,1,1,1,1,0,0,0]","mutagen_history":"[1,0,0,1,1,1,1,0,0,0]","location_rts":"[1149,667,812,490,495,418,584,762,527,513]","trial_type":"fractal-mutation","trial_index":40,"time_elapsed":911966,"internal_node_id":"0.0-5.0-1.0"},{"group":"dicyclic group of order 12","fractal_assignment":["../images/gry_blk.png","../images/pnk_blu.png","../images/red_prp.png","../images/cyn_red.png","../images/blu_wht.png","../images/org_blu.png","../images/wht_red.png","../images/grn_red.png","../images/grn_prp.png","../images/grn_blu.png","../images/ylw_slt.png","../images/ylw_pnk.png"],"mutagen_generator_assignment":[0,1],"goal":10,"start":9,"action_noise":0.15,"location_history":"[9,1,2,3,0,4,8,5,9,1,2,3,0,4,8,0,4,8,0,4,8,5,9,1,2,3,7,11,4,9,1,5,10]","action_history":"[1,0,0,0,1,1,0,0,0,0,0,0,1,1,1,1,1,1,1,0,0,0,1,0,1,1,1,0,0,1,1,1]","mutagen_history":"[1,0,0,0,1,1,0,0,0,0,0,0,1,1,1,1,1,1,1,0,0,0,1,0,1,1,1,0,0,1,1,1]","location_rts":"[758,24,384,527,429,752,494,438,396,822,411,466,566,193,113,357,619,501,833,565,348,634,613,483,1017,551,523,281,579,573,381,364]","trial_type":"fractal-mutation","trial_index":41,"time_elapsed":966980,"internal_node_id":"0.0-5.0-2.0"},{"group":"dicyclic group of order 12","fractal_assignment":["../images/gry_blk.png","../images/pnk_blu.png","../images/red_prp.png","../images/cyn_red.png","../images/blu_wht.png","../images/org_blu.png","../images/wht_red.png","../images/grn_red.png","../images/grn_prp.png","../images/grn_blu.png","../images/ylw_slt.png","../images/ylw_pnk.png"],"mutagen_generator_assignment":[0,1],"goal":2,"start":10,"action_noise":0.15,"location_history":"[10,7,11,4,8,0,4,8,0,4,9,6,10,2]","action_history":"[0,0,0,1,1,1,1,1,1,0,0,1,1]","mutagen_history":"[0,0,0,1,1,1,1,1,1,0,0,1,1]","location_rts":"[1101,366,499,404,118,261,303,390,525,154,212,180,490]","trial_type":"fractal-mutation","trial_index":42,"time_elapsed":989760,"internal_node_id":"0.0-5.0-3.0"},{"group":"dicyclic group of order 12","fractal_assignment":["../images/gry_blk.png","../images/pnk_blu.png","../images/red_prp.png","../images/cyn_red.png","../images/blu_wht.png","../images/org_blu.png","../images/wht_red.png","../images/grn_red.png","../images/grn_prp.png","../images/grn_blu.png","../images/ylw_slt.png","../images/ylw_pnk.png"],"mutagen_generator_assignment":[0,1],"goal":5,"start":2,"action_noise":0.15,"location_history":"[2,6,11,3,7,8,5]","action_history":"[0,0,0,1,0,0]","mutagen_history":"[0,0,0,1,0,0]","location_rts":"[1692,315,528,305,258,248]","trial_type":"fractal-mutation","trial_index":43,"time_elapsed":1003036,"internal_node_id":"0.0-5.0-4.0"},{"group":"dicyclic group of order 12","fractal_assignment":["../images/gry_blk.png","../images/pnk_blu.png","../images/red_prp.png","../images/cyn_red.png","../images/blu_wht.png","../images/org_blu.png","../images/wht_red.png","../images/grn_red.png","../images/grn_prp.png","../images/grn_blu.png","../images/ylw_slt.png","../images/ylw_pnk.png"],"mutagen_generator_assignment":[0,1],"goal":11,"start":5,"action_noise":0.15,"location_history":"[5,10,7,11]","action_history":"[1,1,1]","mutagen_history":"[1,1,1]","location_rts":"[271,92,126]","trial_type":"fractal-mutation","trial_index":44,"time_elapsed":1010470,"internal_node_id":"0.0-5.0-5.0"},{"group":"dicyclic group of order 12","fractal_assignment":["../images/gry_blk.png","../images/pnk_blu.png","../images/red_prp.png","../images/cyn_red.png","../images/blu_wht.png","../images/org_blu.png","../images/wht_red.png","../images/grn_red.png","../images/grn_prp.png","../images/grn_blu.png","../images/ylw_slt.png","../images/ylw_pnk.png"],"mutagen_generator_assignment":[0,1],"goal":6,"start":11,"action_noise":0.15,"location_history":"[11,3,0,1,2,3,0,1,2,3,7,11,3,0,4,8,5,9,6]","action_history":"[1,0,0,0,0,0,0,0,0,1,1,0,0,1,1,1,0,0]","mutagen_history":"[1,0,0,0,0,0,0,0,0,1,1,0,0,1,1,1,0,0]","location_rts":"[1758,133,345,282,495,281,443,420,596,110,87,58,333,325,96,404,238,553]","trial_type":"fractal-mutation","trial_index":45,"time_elapsed":1040724,"internal_node_id":"0.0-5.0-6.0"},{"group":"dicyclic group of order 12","fractal_assignment":["../images/gry_blk.png","../images/pnk_blu.png","../images/red_prp.png","../images/cyn_red.png","../images/blu_wht.png","../images/org_blu.png","../images/wht_red.png","../images/grn_red.png","../images/grn_prp.png","../images/grn_blu.png","../images/ylw_slt.png","../images/ylw_pnk.png"],"mutagen_generator_assignment":[0,1],"goal":3,"start":6,"action_noise":0.15,"location_history":"[6,10,7,8,0,1,2,3]","action_history":"[1,0,0,1,1,0,0]","mutagen_history":"[1,0,0,1,1,0,0]","location_rts":"[267,285,249,658,928,450,261]","trial_type":"fractal-mutation","trial_index":46,"time_elapsed":1055063,"internal_node_id":"0.0-5.0-7.0"},{"group":"dicyclic group of order 12","fractal_assignment":["../images/gry_blk.png","../images/pnk_blu.png","../images/red_prp.png","../images/cyn_red.png","../images/blu_wht.png","../images/org_blu.png","../images/wht_red.png","../images/grn_red.png","../images/grn_prp.png","../images/grn_blu.png","../images/ylw_slt.png","../images/ylw_pnk.png"],"mutagen_generator_assignment":[0,1],"goal":8,"start":3,"action_noise":0.15,"location_history":"[3,7,8]","action_history":"[1,0]","mutagen_history":"[1,0]","location_rts":"[249,169]","trial_type":"fractal-mutation","trial_index":47,"time_elapsed":1061188,"internal_node_id":"0.0-5.0-8.0"},{"group":"dicyclic group of order 12","fractal_assignment":["../images/gry_blk.png","../images/pnk_blu.png","../images/red_prp.png","../images/cyn_red.png","../images/blu_wht.png","../images/org_blu.png","../images/wht_red.png","../images/grn_red.png","../images/grn_prp.png","../images/grn_blu.png","../images/ylw_slt.png","../images/ylw_pnk.png"],"mutagen_generator_assignment":[0,1],"goal":1,"start":8,"action_noise":0.15,"location_history":"[8,0,4,8,0,1]","action_history":"[1,1,1,0,0]","mutagen_history":"[1,1,1,0,0]","location_rts":"[638,324,524,393,478]","trial_type":"fractal-mutation","trial_index":48,"time_elapsed":1072593,"internal_node_id":"0.0-5.0-9.0"},{"group":"dicyclic group of order 12","fractal_assignment":["../images/gry_blk.png","../images/pnk_blu.png","../images/red_prp.png","../images/cyn_red.png","../images/blu_wht.png","../images/org_blu.png","../images/wht_red.png","../images/grn_red.png","../images/grn_prp.png","../images/grn_blu.png","../images/ylw_slt.png","../images/ylw_pnk.png"],"mutagen_generator_assignment":[0,1],"goal":7,"start":1,"action_noise":0.15,"location_history":"[1,5,10,2,3,0,1,2,6,11,3,0,4,8,5,10,2,6,10,7]","action_history":"[1,0,0,0,0,1,1,1,0,0,0,1,1,0,0,1,1,1,0]","mutagen_history":"[1,0,0,0,0,1,1,1,0,0,0,1,1,0,0,1,1,1,0]","location_rts":"[178,219,346,478,480,147,255,267,555,358,434,928,438,75,405,166,341,308,827]","trial_type":"fractal-mutation","trial_index":49,"time_elapsed":1104453,"internal_node_id":"0.0-5.0-10.0"},{"group":"dicyclic group of order 12","fractal_assignment":["../images/gry_blk.png","../images/pnk_blu.png","../images/red_prp.png","../images/cyn_red.png","../images/blu_wht.png","../images/org_blu.png","../images/wht_red.png","../images/grn_red.png","../images/grn_prp.png","../images/grn_blu.png","../images/ylw_slt.png","../images/ylw_pnk.png"],"mutagen_generator_assignment":[0,1],"goal":5,"start":7,"action_noise":0.15,"location_history":"[7,11,4,9,1,5]","action_history":"[1,0,0,1,1]","mutagen_history":"[1,0,0,1,1]","location_rts":"[327,607,379,475,242]","trial_type":"fractal-mutation","trial_index":50,"time_elapsed":1115543,"internal_node_id":"0.0-5.0-11.0"},{"group":"dicyclic group of order 12","fractal_assignment":["../images/gry_blk.png","../images/pnk_blu.png","../images/red_prp.png","../images/cyn_red.png","../images/blu_wht.png","../images/org_blu.png","../images/wht_red.png","../images/grn_red.png","../images/grn_prp.png","../images/grn_blu.png","../images/ylw_slt.png","../images/ylw_pnk.png"],"mutagen_generator_assignment":[0,1],"goal":8,"start":5,"action_noise":0.15,"location_history":"[5,10,2,3,7,8]","action_history":"[1,0,0,1,0]","mutagen_history":"[1,0,0,1,0]","location_rts":"[72,366,765,401,685]","trial_type":"fractal-mutation","trial_index":51,"time_elapsed":1126888,"internal_node_id":"0.0-5.0-12.0"},{"group":"dicyclic group of order 12","fractal_assignment":["../images/gry_blk.png","../images/pnk_blu.png","../images/red_prp.png","../images/cyn_red.png","../images/blu_wht.png","../images/org_blu.png","../images/wht_red.png","../images/grn_red.png","../images/grn_prp.png","../images/grn_blu.png","../images/ylw_slt.png","../images/ylw_pnk.png"],"mutagen_generator_assignment":[0,1],"goal":11,"start":8,"action_noise":0.15,"location_history":"[8,0,4,8,5,10,2,6,11]","action_history":"[1,1,1,0,0,1,1,0]","mutagen_history":"[1,1,1,0,0,1,1,0]","location_rts":"[581,460,484,247,465,332,398,545]","trial_type":"fractal-mutation","trial_index":52,"time_elapsed":1142912,"internal_node_id":"0.0-5.0-13.0"},{"group":"dicyclic group of order 12","fractal_assignment":["../images/gry_blk.png","../images/pnk_blu.png","../images/red_prp.png","../images/cyn_red.png","../images/blu_wht.png","../images/org_blu.png","../images/wht_red.png","../images/grn_red.png","../images/grn_prp.png","../images/grn_blu.png","../images/ylw_slt.png","../images/ylw_pnk.png"],"mutagen_generator_assignment":[0,1],"goal":6,"start":11,"action_noise":0.15,"location_history":"[11,3,0,4,9,6]","action_history":"[1,0,1,0,0]","mutagen_history":"[1,0,1,0,0]","location_rts":"[361,398,311,757,259]","trial_type":"fractal-mutation","trial_index":53,"time_elapsed":1154004,"internal_node_id":"0.0-5.0-14.0"},{"group":"dicyclic group of order 12","fractal_assignment":["../images/gry_blk.png","../images/pnk_blu.png","../images/red_prp.png","../images/cyn_red.png","../images/blu_wht.png","../images/org_blu.png","../images/wht_red.png","../images/grn_red.png","../images/grn_prp.png","../images/grn_blu.png","../images/ylw_slt.png","../images/ylw_pnk.png"],"mutagen_generator_assignment":[0,1],"goal":7,"start":6,"action_noise":0.15,"location_history":"[6,10,7]","action_history":"[1,0]","mutagen_history":"[1,0]","location_rts":"[595,292]","trial_type":"fractal-mutation","trial_index":54,"time_elapsed":1160598,"internal_node_id":"0.0-5.0-15.0"},{"group":"dicyclic group of order 12","fractal_assignment":["../images/gry_blk.png","../images/pnk_blu.png","../images/red_prp.png","../images/cyn_red.png","../images/blu_wht.png","../images/org_blu.png","../images/wht_red.png","../images/grn_red.png","../images/grn_prp.png","../images/grn_blu.png","../images/ylw_slt.png","../images/ylw_pnk.png"],"mutagen_generator_assignment":[0,1],"goal":10,"start":7,"action_noise":0.15,"location_history":"[7,11,4,9,6,10]","action_history":"[1,0,0,1,1]","mutagen_history":"[1,0,0,1,1]","location_rts":"[695,401,464,395,326]","trial_type":"fractal-mutation","trial_index":55,"time_elapsed":1171936,"internal_node_id":"0.0-5.0-16.0"},{"group":"dicyclic group of order 12","fractal_assignment":["../images/gry_blk.png","../images/pnk_blu.png","../images/red_prp.png","../images/cyn_red.png","../images/blu_wht.png","../images/org_blu.png","../images/wht_red.png","../images/grn_red.png","../images/grn_prp.png","../images/grn_blu.png","../images/ylw_slt.png","../images/ylw_pnk.png"],"mutagen_generator_assignment":[0,1],"goal":0,"start":10,"action_noise":0.15,"location_history":"[10,7,11,3,0]","action_history":"[0,1,1,0]","mutagen_history":"[0,1,1,0]","location_rts":"[336,142,756,404]","trial_type":"fractal-mutation","trial_index":56,"time_elapsed":1181436,"internal_node_id":"0.0-5.0-17.0"},{"group":"dicyclic group of order 12","fractal_assignment":["../images/gry_blk.png","../images/pnk_blu.png","../images/red_prp.png","../images/cyn_red.png","../images/blu_wht.png","../images/org_blu.png","../images/wht_red.png","../images/grn_red.png","../images/grn_prp.png","../images/grn_blu.png","../images/ylw_slt.png","../images/ylw_pnk.png"],"mutagen_generator_assignment":[0,1],"goal":9,"start":0,"action_noise":0.15,"location_history":"[0,4,9]","action_history":"[1,0]","mutagen_history":"[1,0]","location_rts":"[908,1078]","trial_type":"fractal-mutation","trial_index":57,"time_elapsed":1189135,"internal_node_id":"0.0-5.0-18.0"},{"group":"dicyclic group of order 12","fractal_assignment":["../images/gry_blk.png","../images/pnk_blu.png","../images/red_prp.png","../images/cyn_red.png","../images/blu_wht.png","../images/org_blu.png","../images/wht_red.png","../images/grn_red.png","../images/grn_prp.png","../images/grn_blu.png","../images/ylw_slt.png","../images/ylw_pnk.png"],"mutagen_generator_assignment":[0,1],"goal":4,"start":9,"action_noise":0.15,"location_history":"[9,1,5,10,7,8,0,1,5,10,7,11,3,7,11,3,7,11,4]","action_history":"[1,1,0,0,0,1,0,1,1,0,1,1,1,1,1,1,1,0]","mutagen_history":"[1,1,0,0,0,1,0,1,1,0,1,1,1,1,1,1,1,0]","location_rts":"[1622,462,331,1202,604,2207,2149,962,408,537,804,280,564,470,1113,443,5315,1048]","trial_type":"fractal-mutation","trial_index":58,"time_elapsed":1233182,"internal_node_id":"0.0-5.0-19.0"},{"group":"dicyclic group of order 12","fractal_assignment":["../images/gry_blk.png","../images/pnk_blu.png","../images/red_prp.png","../images/cyn_red.png","../images/blu_wht.png","../images/org_blu.png","../images/wht_red.png","../images/grn_red.png","../images/grn_prp.png","../images/grn_blu.png","../images/ylw_slt.png","../images/ylw_pnk.png"],"mutagen_generator_assignment":[0,1],"goal":2,"start":4,"action_noise":0.15,"location_history":"[4,8,0,4,8,5,9,1,5,10,7,11,4,9,6,10,7,11,3,0,4,9,6,10,7,11,4,9,1,5,9,1,2]","action_history":"[1,1,0,1,0,1,1,1,0,0,1,1,0,0,1,1,0,1,1,1,0,0,1,1,1,0,0,1,1,0,1,1]","mutagen_history":"[1,1,0,1,0,1,1,1,0,0,1,1,0,0,1,1,0,1,1,1,0,0,1,1,1,0,0,1,1,0,1,1]","location_rts":"[436,781,471,1115,1177,971,1136,277,121,465,228,273,339,387,342,320,654,733,390,3436,400,328,444,874,416,104,927,499,1715,474,412,2490]","trial_type":"fractal-mutation","trial_index":59,"time_elapsed":1295452,"internal_node_id":"0.0-5.0-20.0"},{"group":"dicyclic group of order 12","fractal_assignment":["../images/gry_blk.png","../images/pnk_blu.png","../images/red_prp.png","../images/cyn_red.png","../images/blu_wht.png","../images/org_blu.png","../images/wht_red.png","../images/grn_red.png","../images/grn_prp.png","../images/grn_blu.png","../images/ylw_slt.png","../images/ylw_pnk.png"],"mutagen_generator_assignment":[0,1],"goal":1,"start":2,"action_noise":0.15,"location_history":"[2,6,10,7,11,3,0,4,8,5,10,2,6,11,3,0,1]","action_history":"[1,1,0,1,1,0,1,1,0,0,1,1,0,1,1,0]","mutagen_history":"[1,1,0,1,1,0,1,1,0,0,1,1,0,1,1,0]","location_rts":"[1767,438,1128,1991,3690,3206,1961,2235,2167,1151,672,622,2389,1570,1537,1266]","trial_type":"fractal-mutation","trial_index":60,"time_elapsed":1344588,"internal_node_id":"0.0-5.0-21.0"},{"group":"dicyclic group of order 12","fractal_assignment":["../images/gry_blk.png","../images/pnk_blu.png","../images/red_prp.png","../images/cyn_red.png","../images/blu_wht.png","../images/org_blu.png","../images/wht_red.png","../images/grn_red.png","../images/grn_prp.png","../images/grn_blu.png","../images/ylw_slt.png","../images/ylw_pnk.png"],"mutagen_generator_assignment":[0,1],"goal":3,"start":1,"action_noise":0.15,"location_history":"[1,5,9,1,5,10,7,8,0,4,9,1,5,9,1,5,10,7,8,0,4,8,0,1,5,10,2,3]","action_history":"[1,1,1,0,0,0,1,1,1,0,1,0,0,1,1,0,1,1,0,1,0,1,0,1,1,1,0]","mutagen_history":"[1,1,1,0,0,0,1,1,1,0,1,0,0,1,1,0,1,1,0,1,0,1,0,1,1,1,0]","location_rts":"[975,401,556,1116,1353,2152,393,1101,13805,476,693,1205,3281,1442,3781,1299,1365,3594,6577,2047,1892,4025,714,1036,1409,1030,805]","trial_type":"fractal-mutation","trial_index":61,"time_elapsed":1436654,"internal_node_id":"0.0-5.0-22.0"},{"group":"dicyclic group of order 12","fractal_assignment":["../images/gry_blk.png","../images/pnk_blu.png","../images/red_prp.png","../images/cyn_red.png","../images/blu_wht.png","../images/org_blu.png","../images/wht_red.png","../images/grn_red.png","../images/grn_prp.png","../images/grn_blu.png","../images/ylw_slt.png","../images/ylw_pnk.png"],"mutagen_generator_assignment":[0,1],"goal":7,"start":3,"action_noise":0.15,"location_history":"[3,0,4,8,5,10,7]","action_history":"[0,1,1,0,0,1]","mutagen_history":"[0,1,1,0,0,1]","location_rts":"[6704,731,87,180,369,253]","trial_type":"fractal-mutation","trial_index":62,"time_elapsed":1455066,"internal_node_id":"0.0-5.0-23.0"},{"group":"dicyclic group of order 12","fractal_assignment":["../images/gry_blk.png","../images/pnk_blu.png","../images/red_prp.png","../images/cyn_red.png","../images/blu_wht.png","../images/org_blu.png","../images/wht_red.png","../images/grn_red.png","../images/grn_prp.png","../images/grn_blu.png","../images/ylw_slt.png","../images/ylw_pnk.png"],"mutagen_generator_assignment":[0,1],"goal":6,"start":7,"action_noise":0.15,"location_history":"[7,11,3,0,1,5,10,7,8,5,10,2,3,7,8,0,1,5,9,6]","action_history":"[1,1,1,0,1,0,0,0,0,0,1,0,1,0,1,0,0,1,0]","mutagen_history":"[1,1,1,0,1,0,0,0,0,0,1,0,1,0,1,0,0,1,0]","location_rts":"[2214,1862,9498,173,644,329,605,4479,4942,652,6697,531,1191,1512,3866,606,927,1588,1464]","trial_type":"fractal-mutation","trial_index":63,"time_elapsed":1523356,"internal_node_id":"0.0-5.0-24.0"},{"group":"dicyclic group of order 12","fractal_assignment":["../images/gry_blk.png","../images/pnk_blu.png","../images/red_prp.png","../images/cyn_red.png","../images/blu_wht.png","../images/org_blu.png","../images/wht_red.png","../images/grn_red.png","../images/grn_prp.png","../images/grn_blu.png","../images/ylw_slt.png","../images/ylw_pnk.png"],"mutagen_generator_assignment":[0,1],"goal":2,"start":6,"action_noise":0.15,"location_history":"[6,11,3,7,8,0,1,2]","action_history":"[0,1,1,0,1,0,1]","mutagen_history":"[0,1,1,0,1,0,1]","location_rts":"[1028,661,438,1410,2657,1675,783]","trial_type":"fractal-mutation","trial_index":64,"time_elapsed":1543267,"internal_node_id":"0.0-5.0-25.0"},{"group":"dicyclic group of order 12","fractal_assignment":["../images/gry_blk.png","../images/pnk_blu.png","../images/red_prp.png","../images/cyn_red.png","../images/blu_wht.png","../images/org_blu.png","../images/wht_red.png","../images/grn_red.png","../images/grn_prp.png","../images/grn_blu.png","../images/ylw_slt.png","../images/ylw_pnk.png"],"mutagen_generator_assignment":[0,1],"goal":8,"start":2,"action_noise":0.15,"location_history":"[2,6,11,3,7,8]","action_history":"[1,0,1,0,0]","mutagen_history":"[1,0,1,0,0]","location_rts":"[675,577,1596,1475,1079]","trial_type":"fractal-mutation","trial_index":65,"time_elapsed":1557687,"internal_node_id":"0.0-5.0-26.0"},{"group":"dicyclic group of order 12","fractal_assignment":["../images/gry_blk.png","../images/pnk_blu.png","../images/red_prp.png","../images/cyn_red.png","../images/blu_wht.png","../images/org_blu.png","../images/wht_red.png","../images/grn_red.png","../images/grn_prp.png","../images/grn_blu.png","../images/ylw_slt.png","../images/ylw_pnk.png"],"mutagen_generator_assignment":[0,1],"goal":0,"start":8,"action_noise":0.15,"location_history":"[8,5,10,2,6,10,7,8,5,9,1,5,10,2,3,7,8,0]","action_history":"[0,0,1,1,1,0,1,0,1,1,1,0,1,0,1,0,1]","mutagen_history":"[0,0,1,1,1,0,1,0,1,1,1,0,1,0,1,0,1]","location_rts":"[1345,1058,590,10812,381,663,677,566,1144,801,593,887,1599,827,762,820,672]","trial_type":"fractal-mutation","trial_index":66,"time_elapsed":1604250,"internal_node_id":"0.0-5.0-27.0"},{"group":"dicyclic group of order 12","fractal_assignment":["../images/gry_blk.png","../images/pnk_blu.png","../images/red_prp.png","../images/cyn_red.png","../images/blu_wht.png","../images/org_blu.png","../images/wht_red.png","../images/grn_red.png","../images/grn_prp.png","../images/grn_blu.png","../images/ylw_slt.png","../images/ylw_pnk.png"],"mutagen_generator_assignment":[0,1],"goal":3,"start":0,"action_noise":0.15,"location_history":"[0,1,5,9,1,2,3]","action_history":"[0,1,0,1,0,1]","mutagen_history":"[0,1,0,1,0,1]","location_rts":"[1804,1299,601,1206,794,965]","trial_type":"fractal-mutation","trial_index":67,"time_elapsed":1621012,"internal_node_id":"0.0-5.0-28.0"},{"group":"dicyclic group of order 12","fractal_assignment":["../images/gry_blk.png","../images/pnk_blu.png","../images/red_prp.png","../images/cyn_red.png","../images/blu_wht.png","../images/org_blu.png","../images/wht_red.png","../images/grn_red.png","../images/grn_prp.png","../images/grn_blu.png","../images/ylw_slt.png","../images/ylw_pnk.png"],"mutagen_generator_assignment":[0,1],"goal":4,"start":3,"action_noise":0.15,"location_history":"[3,7,8,0,1,5,10,2,3,7,11,3,0,4]","action_history":"[1,0,1,0,1,0,1,0,1,0,1,0,1]","mutagen_history":"[1,0,1,0,1,0,1,0,1,0,1,0,1]","location_rts":"[291,1266,935,2467,1173,1595,1809,867,387,888,865,735,489]","trial_type":"fractal-mutation","trial_index":68,"time_elapsed":1652689,"internal_node_id":"0.0-5.0-29.0"},{"group":"dicyclic group of order 12","fractal_assignment":["../images/gry_blk.png","../images/pnk_blu.png","../images/red_prp.png","../images/cyn_red.png","../images/blu_wht.png","../images/org_blu.png","../images/wht_red.png","../images/grn_red.png","../images/grn_prp.png","../images/grn_blu.png","../images/ylw_slt.png","../images/ylw_pnk.png"],"mutagen_generator_assignment":[0,1],"goal":10,"start":4,"action_noise":0.15,"location_history":"[4,8,5,9,1,5,9,6,11,4,8,5,9,6,10]","action_history":"[1,0,0,1,1,1,0,1,0,1,1,1,0,1]","mutagen_history":"[1,0,0,1,1,1,0,1,0,1,1,1,0,1]","location_rts":"[879,353,294,681,347,318,325,892,402,667,303,2201,832,1146]","trial_type":"fractal-mutation","trial_index":69,"time_elapsed":1681436,"internal_node_id":"0.0-5.0-30.0"},{"group":"dicyclic group of order 12","fractal_assignment":["../images/gry_blk.png","../images/pnk_blu.png","../images/red_prp.png","../images/cyn_red.png","../images/blu_wht.png","../images/org_blu.png","../images/wht_red.png","../images/grn_red.png","../images/grn_prp.png","../images/grn_blu.png","../images/ylw_slt.png","../images/ylw_pnk.png"],"mutagen_generator_assignment":[0,1],"goal":11,"start":10,"action_noise":0.15,"location_history":"[10,2,3,7,8,0,1,2,3,7,11]","action_history":"[1,0,1,0,1,0,1,0,1,1]","mutagen_history":"[1,0,1,0,1,0,1,0,1,1]","location_rts":"[1696,597,790,984,1955,1023,1626,1575,1377,1285]","trial_type":"fractal-mutation","trial_index":70,"time_elapsed":1709007,"internal_node_id":"0.0-5.0-31.0"},{"group":"dicyclic group of order 12","fractal_assignment":["../images/gry_blk.png","../images/pnk_blu.png","../images/red_prp.png","../images/cyn_red.png","../images/blu_wht.png","../images/org_blu.png","../images/wht_red.png","../images/grn_red.png","../images/grn_prp.png","../images/grn_blu.png","../images/ylw_slt.png","../images/ylw_pnk.png"],"mutagen_generator_assignment":[0,1],"goal":1,"start":11,"action_noise":0.15,"location_history":"[11,4,8,5,9,6,11,4,9,1]","action_history":"[0,1,0,1,0,1,0,1,1]","mutagen_history":"[0,1,0,1,0,1,0,1,1]","location_rts":"[1125,439,896,1210,841,759,852,1190,512]","trial_type":"fractal-mutation","trial_index":71,"time_elapsed":1730266,"internal_node_id":"0.0-5.0-32.0"},{"group":"dicyclic group of order 12","fractal_assignment":["../images/gry_blk.png","../images/pnk_blu.png","../images/red_prp.png","../images/cyn_red.png","../images/blu_wht.png","../images/org_blu.png","../images/wht_red.png","../images/grn_red.png","../images/grn_prp.png","../images/grn_blu.png","../images/ylw_slt.png","../images/ylw_pnk.png"],"mutagen_generator_assignment":[0,1],"goal":5,"start":1,"action_noise":0.15,"location_history":"[1,2,3,0,4,9,1,2,6,11,3,0,4,9,1,5]","action_history":"[0,1,0,1,0,1,0,1,0,1,0,1,0,1,1]","mutagen_history":"[0,1,0,1,0,1,0,1,0,1,0,1,0,1,1]","location_rts":"[463,715,1214,1345,1020,803,921,840,1424,476,1010,595,949,402,1147]","trial_type":"fractal-mutation","trial_index":72,"time_elapsed":1763671,"internal_node_id":"0.0-5.0-33.0"},{"group":"dicyclic group of order 12","fractal_assignment":["../images/gry_blk.png","../images/pnk_blu.png","../images/red_prp.png","../images/cyn_red.png","../images/blu_wht.png","../images/org_blu.png","../images/wht_red.png","../images/grn_red.png","../images/grn_prp.png","../images/grn_blu.png","../images/ylw_slt.png","../images/ylw_pnk.png"],"mutagen_generator_assignment":[0,1],"goal":9,"start":5,"action_noise":0.15,"location_history":"[5,9]","action_history":"[1]","mutagen_history":"[1]","location_rts":"[3779]","trial_type":"fractal-mutation","trial_index":73,"time_elapsed":1772072,"internal_node_id":"0.0-5.0-34.0"},{"view_history":"[{\"page_index\":0,\"viewing_time\":25626}]","rt":25626,"trial_type":"instructions","trial_index":74,"time_elapsed":1798699,"internal_node_id":"0.0-6.0"},{"rt":19026,"responses":"{\"Q0\":\"That was fun yet difficult\"}","trial_type":"survey-text","trial_index":75,"time_elapsed":1818729,"internal_node_id":"0.0-7.0"}]