[{"view_history":"[{\"page_index\":0,\"viewing_time\":30930},{\"page_index\":1,\"viewing_time\":1069},{\"page_index\":2,\"viewing_time\":778},{\"page_index\":3,\"viewing_time\":1571},{\"page_index\":2,\"viewing_time\":1204},{\"page_index\":3,\"viewing_time\":14812}]","rt":50366,"trial_type":"instructions","trial_index":0,"time_elapsed":50367,"internal_node_id":"0.0-0.0"},{"view_history":"[{\"page_index\":0,\"viewing_time\":1592},{\"page_index\":1,\"viewing_time\":35317}]","rt":36909,"trial_type":"instructions","trial_index":1,"time_elapsed":88279,"internal_node_id":"0.0-1.0"},{"group":"dihedral group of order 12","room_assignment":["grey","red","blue","olive","orange","brown","yellow","ivory","green","purple","pink","cyan"],"door_color_assignment":["black","white"],"door_generator_assignment":[1,0],"goal":4,"start":0,"action_noise":0.15,"location_history":"[0,6,0,6,11,5,0,1,2,8,7,6,11,10,4]","action_history":"[1,1,1,1,1,0,0,0,0,0,0,0,0,1]","door_history":"[0,0,0,0,0,1,1,1,1,1,1,1,1,0]","location_rts":"[2002,823,380,384,1180,591,337,333,324,373,936,762,356,711]","trial_type":"two-door-navigation","trial_index":2,"time_elapsed":115676,"internal_node_id":"0.0-2.0-0.0"},{"group":"dihedral group of order 12","room_assignment":["grey","red","blue","olive","orange","brown","yellow","ivory","green","purple","pink","cyan"],"door_color_assignment":["black","white"],"door_generator_assignment":[1,0],"goal":9,"start":4,"action_noise":0.15,"location_history":"[4,10,4,10,9]","action_history":"[1,1,1,0]","door_history":"[0,0,0,1]","location_rts":"[3526,957,360,864]","trial_type":"two-door-navigation","trial_index":3,"time_elapsed":128973,"internal_node_id":"0.0-2.0-1.0"},{"group":"dihedral group of order 12","room_assignment":["grey","red","blue","olive","orange","brown","yellow","ivory","green","purple","pink","cyan"],"door_color_assignment":["black","white"],"door_generator_assignment":[1,0],"goal":10,"start":9,"action_noise":0.15,"location_history":"[9,8,2,8,7,6,11,10]","action_history":"[0,1,1,0,0,0,0]","door_history":"[1,0,0,1,1,1,1]","location_rts":"[5198,1959,1242,1524,4673,907,256]","trial_type":"two-door-navigation","trial_index":4,"time_elapsed":155491,"internal_node_id":"0.0-2.0-2.0"},{"group":"dihedral group of order 12","room_assignment":["grey","red","blue","olive","orange","brown","yellow","ivory","green","purple","pink","cyan"],"door_color_assignment":["black","white"],"door_generator_assignment":[1,0],"goal":2,"start":10,"action_noise":0.15,"location_history":"[10,4,10,4,5,11,10,9,8,7,1,7,6,11,10,9,8,2]","action_history":"[1,1,1,0,0,0,0,0,0,0,0,0,0,0,1,0,0]","door_history":"[0,0,0,1,1,1,1,1,1,1,1,1,1,1,0,1,1]","location_rts":"[3849,2453,1895,1524,372,967,277,366,316,321,305,325,396,387,349,577,201]","trial_type":"two-door-navigation","trial_index":5,"time_elapsed":191398,"internal_node_id":"0.0-2.0-3.0"},{"group":"dihedral group of order 12","room_assignment":["grey","red","blue","olive","orange","brown","yellow","ivory","green","purple","pink","cyan"],"door_color_assignment":["black","white"],"door_generator_assignment":[1,0],"goal":5,"start":2,"action_noise":0.15,"location_history":"[2,3,9,3,9,8,7,6,11,5]","action_history":"[0,1,1,1,0,0,0,0,1]","door_history":"[1,0,0,0,1,1,1,1,0]","location_rts":"[1901,868,320,1139,174,236,343,579,409]","trial_type":"two-door-navigation","trial_index":6,"time_elapsed":210067,"internal_node_id":"0.0-2.0-4.0"},{"group":"dihedral group of order 12","room_assignment":["grey","red","blue","olive","orange","brown","yellow","ivory","green","purple","pink","cyan"],"door_color_assignment":["black","white"],"door_generator_assignment":[1,0],"goal":11,"start":5,"action_noise":0.15,"location_history":"[5,0,1,7,6,11]","action_history":"[0,0,1,0,0]","door_history":"[1,1,0,1,1]","location_rts":"[3927,482,281,374,599]","trial_type":"two-door-navigation","trial_index":7,"time_elapsed":224354,"internal_node_id":"0.0-2.0-5.0"},{"group":"dihedral group of order 12","room_assignment":["grey","red","blue","olive","orange","brown","yellow","ivory","green","purple","pink","cyan"],"door_color_assignment":["black","white"],"door_generator_assignment":[1,0],"goal":6,"start":11,"action_noise":0.15,"location_history":"[11,5,0,1,7,6]","action_history":"[0,0,0,0,0]","door_history":"[1,1,1,1,1]","location_rts":"[1253,286,349,297,281]","trial_type":"two-door-navigation","trial_index":8,"time_elapsed":235640,"internal_node_id":"0.0-2.0-6.0"},{"group":"dihedral group of order 12","room_assignment":["grey","red","blue","olive","orange","brown","yellow","ivory","green","purple","pink","cyan"],"door_color_assignment":["black","white"],"door_generator_assignment":[1,0],"goal":3,"start":6,"action_noise":0.15,"location_history":"[6,0,1,2,3]","action_history":"[0,0,0,0]","door_history":"[1,1,1,1]","location_rts":"[463,4643,1136,397]","trial_type":"two-door-navigation","trial_index":9,"time_elapsed":249882,"internal_node_id":"0.0-2.0-7.0"},{"group":"dihedral group of order 12","room_assignment":["grey","red","blue","olive","orange","brown","yellow","ivory","green","purple","pink","cyan"],"door_color_assignment":["black","white"],"door_generator_assignment":[1,0],"goal":8,"start":3,"action_noise":0.15,"location_history":"[3,9,3,4,5,0,1,7,1,2,3,4,10,9,3,9,3,4,5,0,6,11,5,11,10,9,8]","action_history":"[1,0,0,0,0,0,1,0,0,0,0,1,0,0,0,1,0,0,1,0,1,1,1,0,0,0]","door_history":"[0,1,1,1,1,1,0,1,1,1,1,0,1,1,1,0,1,1,0,1,0,0,0,1,1,1]","location_rts":"[1120,597,473,398,358,349,961,315,314,407,376,274,293,287,507,960,277,457,788,422,391,232,339,814,75,146]","trial_type":"two-door-navigation","trial_index":10,"time_elapsed":292069,"internal_node_id":"0.0-2.0-8.0"},{"group":"dihedral group of order 12","room_assignment":["grey","red","blue","olive","orange","brown","yellow","ivory","green","purple","pink","cyan"],"door_color_assignment":["black","white"],"door_generator_assignment":[1,0],"goal":1,"start":8,"action_noise":0.15,"location_history":"[8,7,6,11,10,9,3,4,5,0,1]","action_history":"[0,0,0,0,0,0,0,0,0,0]","door_history":"[1,1,1,1,1,1,1,1,1,1]","location_rts":"[2492,60,289,57,187,2430,77,125,278,291]","trial_type":"two-door-navigation","trial_index":11,"time_elapsed":312097,"internal_node_id":"0.0-2.0-9.0"},{"group":"dihedral group of order 12","room_assignment":["grey","red","blue","olive","orange","brown","yellow","ivory","green","purple","pink","cyan"],"door_color_assignment":["black","white"],"door_generator_assignment":[1,0],"goal":7,"start":1,"action_noise":0.15,"location_history":"[1,7]","action_history":"[0]","door_history":"[1]","location_rts":"[3693]","trial_type":"two-door-navigation","trial_index":12,"time_elapsed":320322,"internal_node_id":"0.0-2.0-10.0"},{"group":"dihedral group of order 12","room_assignment":["grey","red","blue","olive","orange","brown","yellow","ivory","green","purple","pink","cyan"],"door_color_assignment":["black","white"],"door_generator_assignment":[1,0],"goal":5,"start":7,"action_noise":0.15,"location_history":"[7,6,11,10,9,8,7,6,11,10,4,5]","action_history":"[0,0,0,1,0,0,0,0,0,1,0]","door_history":"[1,1,1,0,1,1,1,1,1,0,1]","location_rts":"[393,375,229,275,248,269,78,108,97,448,469]","trial_type":"two-door-navigation","trial_index":13,"time_elapsed":338148,"internal_node_id":"0.0-2.0-11.0"},{"group":"dihedral group of order 12","room_assignment":["grey","red","blue","olive","orange","brown","yellow","ivory","green","purple","pink","cyan"],"door_color_assignment":["black","white"],"door_generator_assignment":[1,0],"goal":8,"start":5,"action_noise":0.15,"location_history":"[5,0,1,2,3,4,5,0,1,2,3,9,8]","action_history":"[0,0,0,1,0,0,0,0,0,0,0,1]","door_history":"[1,1,1,0,1,1,1,1,1,1,1,0]","location_rts":"[591,178,128,450,297,1626,349,256,201,317,341,438]","trial_type":"two-door-navigation","trial_index":14,"time_elapsed":359083,"internal_node_id":"0.0-2.0-12.0"},{"group":"dihedral group of order 12","room_assignment":["grey","red","blue","olive","orange","brown","yellow","ivory","green","purple","pink","cyan"],"door_color_assignment":["black","white"],"door_generator_assignment":[1,0],"goal":11,"start":8,"action_noise":0.15,"location_history":"[8,7,6,11]","action_history":"[0,0,0]","door_history":"[1,1,1]","location_rts":"[675,498,222]","trial_type":"two-door-navigation","trial_index":15,"time_elapsed":367053,"internal_node_id":"0.0-2.0-13.0"},{"group":"dihedral group of order 12","room_assignment":["grey","red","blue","olive","orange","brown","yellow","ivory","green","purple","pink","cyan"],"door_color_assignment":["black","white"],"door_generator_assignment":[1,0],"goal":6,"start":11,"action_noise":0.15,"location_history":"[11,10,9,8,2,8,7,1,7,1,2,3,4,5,0,6]","action_history":"[0,0,0,1,1,1,1,1,1,1,0,0,0,0,0]","door_history":"[1,1,1,0,0,0,0,0,0,0,1,1,1,1,1]","location_rts":"[3219,217,204,372,90,323,339,315,311,271,319,195,193,204,268]","trial_type":"two-door-navigation","trial_index":16,"time_elapsed":392842,"internal_node_id":"0.0-2.0-14.0"},{"group":"dihedral group of order 12","room_assignment":["grey","red","blue","olive","orange","brown","yellow","ivory","green","purple","pink","cyan"],"door_color_assignment":["black","white"],"door_generator_assignment":[1,0],"goal":7,"start":6,"action_noise":0.15,"location_history":"[6,11,10,4,5,0,1,2,3,4,5,11,10,9,8,7]","action_history":"[0,0,0,0,0,0,0,0,0,0,1,0,0,0,0]","door_history":"[1,1,1,1,1,1,1,1,1,1,0,1,1,1,1]","location_rts":"[1227,255,362,185,306,170,137,165,91,317,169,340,208,230,139]","trial_type":"two-door-navigation","trial_index":17,"time_elapsed":416077,"internal_node_id":"0.0-2.0-15.0"},{"group":"dihedral group of order 12","room_assignment":["grey","red","blue","olive","orange","brown","yellow","ivory","green","purple","pink","cyan"],"door_color_assignment":["black","white"],"door_generator_assignment":[1,0],"goal":10,"start":7,"action_noise":0.15,"location_history":"[7,6,11,5,11,10]","action_history":"[0,0,1,1,1]","door_history":"[1,1,0,0,0]","location_rts":"[329,10,790,161,236]","trial_type":"two-door-navigation","trial_index":18,"time_elapsed":426239,"internal_node_id":"0.0-2.0-16.0"},{"group":"dihedral group of order 12","room_assignment":["grey","red","blue","olive","orange","brown","yellow","ivory","green","purple","pink","cyan"],"door_color_assignment":["black","white"],"door_generator_assignment":[1,0],"goal":0,"start":10,"action_noise":0.15,"location_history":"[10,4,5,0]","action_history":"[1,0,0]","door_history":"[0,1,1]","location_rts":"[2266,276,228]","trial_type":"two-door-navigation","trial_index":19,"time_elapsed":435984,"internal_node_id":"0.0-2.0-17.0"},{"group":"dihedral group of order 12","room_assignment":["grey","red","blue","olive","orange","brown","yellow","ivory","green","purple","pink","cyan"],"door_color_assignment":["black","white"],"door_generator_assignment":[1,0],"goal":9,"start":0,"action_noise":0.15,"location_history":"[0,1,7,6,11,10,9]","action_history":"[0,0,0,0,0,0]","door_history":"[1,1,1,1,1,1]","location_rts":"[1758,445,1334,252,127,253]","trial_type":"two-door-navigation","trial_index":20,"time_elapsed":449784,"internal_node_id":"0.0-2.0-18.0"},{"group":"dihedral group of order 12","room_assignment":["grey","red","blue","olive","orange","brown","yellow","ivory","green","purple","pink","cyan"],"door_color_assignment":["black","white"],"door_generator_assignment":[1,0],"goal":4,"start":9,"action_noise":0.15,"location_history":"[9,3,4]","action_history":"[1,0]","door_history":"[0,1]","location_rts":"[11766,438]","trial_type":"two-door-navigation","trial_index":21,"time_elapsed":467598,"internal_node_id":"0.0-2.0-19.0"},{"group":"dihedral group of order 12","room_assignment":["grey","red","blue","olive","orange","brown","yellow","ivory","green","purple","pink","cyan"],"door_color_assignment":["black","white"],"door_generator_assignment":[1,0],"goal":2,"start":4,"action_noise":0.15,"location_history":"[4,5,0,1,7,6,11,10,4,5,0,1,2]","action_history":"[0,0,0,0,0,0,0,1,0,0,0,0]","door_history":"[1,1,1,1,1,1,1,0,1,1,1,1]","location_rts":"[109367,425,631,219,484,337,400,463,247,271,119,141]","trial_type":"two-door-navigation","trial_index":22,"time_elapsed":597481,"internal_node_id":"0.0-2.0-20.0"},{"group":"dihedral group of order 12","room_assignment":["grey","red","blue","olive","orange","brown","yellow","ivory","green","purple","pink","cyan"],"door_color_assignment":["black","white"],"door_generator_assignment":[1,0],"goal":1,"start":2,"action_noise":0.15,"location_history":"[2,3,4,5,0,1]","action_history":"[1,0,0,0,0]","door_history":"[0,1,1,1,1]","location_rts":"[1863,782,277,213,215]","trial_type":"two-door-navigation","trial_index":23,"time_elapsed":609449,"internal_node_id":"0.0-2.0-21.0"},{"group":"dihedral group of order 12","room_assignment":["grey","red","blue","olive","orange","brown","yellow","ivory","green","purple","pink","cyan"],"door_color_assignment":["black","white"],"door_generator_assignment":[1,0],"goal":3,"start":1,"action_noise":0.15,"location_history":"[1,7,1,7,6,11,10,9,8,7,1,2,3]","action_history":"[1,1,1,0,0,0,0,0,0,0,0,0]","door_history":"[0,0,0,1,1,1,1,1,1,1,1,1]","location_rts":"[80794,822,667,501,270,452,1177,318,280,179,45,57]","trial_type":"two-door-navigation","trial_index":24,"time_elapsed":712834,"internal_node_id":"0.0-2.0-22.0"},{"group":"dihedral group of order 12","room_assignment":["grey","red","blue","olive","orange","brown","yellow","ivory","green","purple","pink","cyan"],"door_color_assignment":["black","white"],"door_generator_assignment":[1,0],"goal":7,"start":3,"action_noise":0.15,"location_history":"[3,4,5,0,1,7]","action_history":"[0,0,0,0,0]","door_history":"[1,1,1,1,1]","location_rts":"[904,135,119,59,278]","trial_type":"two-door-navigation","trial_index":25,"time_elapsed":722968,"internal_node_id":"0.0-2.0-23.0"},{"group":"dihedral group of order 12","room_assignment":["grey","red","blue","olive","orange","brown","yellow","ivory","green","purple","pink","cyan"],"door_color_assignment":["black","white"],"door_generator_assignment":[1,0],"goal":6,"start":7,"action_noise":0.15,"location_history":"[7,6]","action_history":"[0]","door_history":"[1]","location_rts":"[403]","trial_type":"two-door-navigation","trial_index":26,"time_elapsed":727903,"internal_node_id":"0.0-2.0-24.0"},{"group":"dihedral group of order 12","room_assignment":["grey","red","blue","olive","orange","brown","yellow","ivory","green","purple","pink","cyan"],"door_color_assignment":["black","white"],"door_generator_assignment":[1,0],"goal":2,"start":6,"action_noise":0.15,"location_history":"[6,0,1,2]","action_history":"[1,0,0]","door_history":"[0,1,1]","location_rts":"[1601,700,1350]","trial_type":"two-door-navigation","trial_index":27,"time_elapsed":738598,"internal_node_id":"0.0-2.0-25.0"},{"group":"dihedral group of order 12","room_assignment":["grey","red","blue","olive","orange","brown","yellow","ivory","green","purple","pink","cyan"],"door_color_assignment":["black","white"],"door_generator_assignment":[1,0],"goal":8,"start":2,"action_noise":0.15,"location_history":"[2,8]","action_history":"[0]","door_history":"[1]","location_rts":"[2087]","trial_type":"two-door-navigation","trial_index":28,"time_elapsed":746585,"internal_node_id":"0.0-2.0-26.0"},{"group":"dihedral group of order 12","room_assignment":["grey","red","blue","olive","orange","brown","yellow","ivory","green","purple","pink","cyan"],"door_color_assignment":["black","white"],"door_generator_assignment":[1,0],"goal":0,"start":8,"action_noise":0.15,"location_history":"[8,2,3,4,5,0]","action_history":"[1,0,0,0,0]","door_history":"[0,1,1,1,1]","location_rts":"[6230,350,360,213,116]","trial_type":"two-door-navigation","trial_index":29,"time_elapsed":762596,"internal_node_id":"0.0-2.0-27.0"},{"group":"dihedral group of order 12","room_assignment":["grey","red","blue","olive","orange","brown","yellow","ivory","green","purple","pink","cyan"],"door_color_assignment":["black","white"],"door_generator_assignment":[1,0],"goal":3,"start":0,"action_noise":0.15,"location_history":"[0,1,2,3]","action_history":"[0,0,0]","door_history":"[1,1,1]","location_rts":"[120180,95,48]","trial_type":"two-door-navigation","trial_index":30,"time_elapsed":890488,"internal_node_id":"0.0-2.0-28.0"},{"group":"dihedral group of order 12","room_assignment":["grey","red","blue","olive","orange","brown","yellow","ivory","green","purple","pink","cyan"],"door_color_assignment":["black","white"],"door_generator_assignment":[1,0],"goal":4,"start":3,"action_noise":0.15,"location_history":"[3,9,8,7,1,2,3,4]","action_history":"[0,0,0,0,0,0,0]","door_history":"[1,1,1,1,1,1,1]","location_rts":"[9459,888,861,325,208,241,145]","trial_type":"two-door-navigation","trial_index":31,"time_elapsed":913390,"internal_node_id":"0.0-2.0-29.0"},{"group":"dihedral group of order 12","room_assignment":["grey","red","blue","olive","orange","brown","yellow","ivory","green","purple","pink","cyan"],"door_color_assignment":["black","white"],"door_generator_assignment":[1,0],"goal":10,"start":4,"action_noise":0.15,"location_history":"[4,10]","action_history":"[1]","door_history":"[0]","location_rts":"[2045]","trial_type":"two-door-navigation","trial_index":32,"time_elapsed":919968,"internal_node_id":"0.0-2.0-30.0"},{"group":"dihedral group of order 12","room_assignment":["grey","red","blue","olive","orange","brown","yellow","ivory","green","purple","pink","cyan"],"door_color_assignment":["black","white"],"door_generator_assignment":[1,0],"goal":11,"start":10,"action_noise":0.15,"location_history":"[10,9,8,7,6,11]","action_history":"[0,0,0,0,0]","door_history":"[1,1,1,1,1]","location_rts":"[21432,272,365,279,258]","trial_type":"two-door-navigation","trial_index":33,"time_elapsed":951209,"internal_node_id":"0.0-2.0-31.0"},{"group":"dihedral group of order 12","room_assignment":["grey","red","blue","olive","orange","brown","yellow","ivory","green","purple","pink","cyan"],"door_color_assignment":["black","white"],"door_generator_assignment":[1,0],"goal":1,"start":11,"action_noise":0.15,"location_history":"[11,10,9,8,7,6,11,5,11,10,9,8,2,8,7,6,11,10,9,8,2,8,2,8,7,6,11,10,9,8,7,6,11,5,11,10,4,5,0,1]","action_history":"[0,0,0,0,0,0,0,1,0,0,0,0,1,0,0,0,0,0,0,1,0,1,1,0,0,0,0,0,0,0,0,0,1,1,0,1,0,0,0]","door_history":"[1,1,1,1,1,1,1,0,1,1,1,1,0,1,1,1,1,1,1,0,1,0,0,1,1,1,1,1,1,1,1,1,0,0,1,0,1,1,1]","location_rts":"[12294,278,232,57,159,72,281,281,240,328,69,92,42,350,41,50,439,296,396,2378,960,1246,315,593,216,144,388,243,142,27,145,169,341,873,110,280,883,479,288]","trial_type":"two-door-navigation","trial_index":34,"time_elapsed":1021165,"internal_node_id":"0.0-2.0-32.0"},{"group":"dihedral group of order 12","room_assignment":["grey","red","blue","olive","orange","brown","yellow","ivory","green","purple","pink","cyan"],"door_color_assignment":["black","white"],"door_generator_assignment":[1,0],"goal":5,"start":1,"action_noise":0.15,"location_history":"[1,2,3,4,5]","action_history":"[0,0,0,0]","door_history":"[1,1,1,1]","location_rts":"[626,258,279,26898]","trial_type":"two-door-navigation","trial_index":35,"time_elapsed":1056831,"internal_node_id":"0.0-2.0-33.0"},{"group":"dihedral group of order 12","room_assignment":["grey","red","blue","olive","orange","brown","yellow","ivory","green","purple","pink","cyan"],"door_color_assignment":["black","white"],"door_generator_assignment":[1,0],"goal":9,"start":5,"action_noise":0.15,"location_history":"[5,0,1,7,6,11,10,9]","action_history":"[0,0,1,0,0,0,0]","door_history":"[1,1,0,1,1,1,1]","location_rts":"[1941,159,2848,275,74,105,271]","trial_type":"two-door-navigation","trial_index":36,"time_elapsed":1073144,"internal_node_id":"0.0-2.0-34.0"},{"view_history":"[{\"page_index\":0,\"viewing_time\":62783}]","rt":62784,"trial_type":"instructions","trial_index":37,"time_elapsed":1136930,"internal_node_id":"0.0-3.0"},{"view_history":"[{\"page_index\":0,\"viewing_time\":17600},{\"page_index\":1,\"viewing_time\":21011}]","rt":38612,"trial_type":"instructions","trial_index":38,"time_elapsed":1176542,"internal_node_id":"0.0-4.0"},{"group":"dicyclic group of order 12","fractal_assignment":["../images/ylw_slt.png","../images/org_blu.png","../images/grn_prp.png","../images/grn_red.png","../images/blu_wht.png","../images/ylw_pnk.png","../images/cyn_red.png","../images/wht_red.png","../images/gry_blk.png","../images/grn_blu.png","../images/red_prp.png","../images/pnk_blu.png"],"mutagen_generator_assignment":[0,1],"goal":4,"start":0,"action_noise":0.15,"location_history":"[0,1,5,10,2,6,10,7,8,0,4]","action_history":"[0,1,0,1,1,1,0,0,1,1]","mutagen_history":"[0,1,0,1,1,1,0,0,1,1]","location_rts":"[4314,1629,1940,1609,1471,2536,1104,535,391,17]","trial_type":"fractal-mutation","trial_index":39,"time_elapsed":1207586,"internal_node_id":"0.0-5.0-0.0"},{"group":"dicyclic group of order 12","fractal_assignment":["../images/ylw_slt.png","../images/org_blu.png","../images/grn_prp.png","../images/grn_red.png","../images/blu_wht.png","../images/ylw_pnk.png","../images/cyn_red.png","../images/wht_red.png","../images/gry_blk.png","../images/grn_blu.png","../images/red_prp.png","../images/pnk_blu.png"],"mutagen_generator_assignment":[0,1],"goal":9,"start":4,"action_noise":0.15,"location_history":"[4,9]","action_history":"[0]","mutagen_history":"[0]","location_rts":"[7011]","trial_type":"fractal-mutation","trial_index":40,"time_elapsed":1219143,"internal_node_id":"0.0-5.0-1.0"},{"group":"dicyclic group of order 12","fractal_assignment":["../images/ylw_slt.png","../images/org_blu.png","../images/grn_prp.png","../images/grn_red.png","../images/blu_wht.png","../images/ylw_pnk.png","../images/cyn_red.png","../images/wht_red.png","../images/gry_blk.png","../images/grn_blu.png","../images/red_prp.png","../images/pnk_blu.png"],"mutagen_generator_assignment":[0,1],"goal":10,"start":9,"action_noise":0.15,"location_history":"[9,6,10]","action_history":"[0,1]","mutagen_history":"[0,1]","location_rts":"[3130,1596]","trial_type":"fractal-mutation","trial_index":41,"time_elapsed":1229601,"internal_node_id":"0.0-5.0-2.0"},{"group":"dicyclic group of order 12","fractal_assignment":["../images/ylw_slt.png","../images/org_blu.png","../images/grn_prp.png","../images/grn_red.png","../images/blu_wht.png","../images/ylw_pnk.png","../images/cyn_red.png","../images/wht_red.png","../images/gry_blk.png","../images/grn_blu.png","../images/red_prp.png","../images/pnk_blu.png"],"mutagen_generator_assignment":[0,1],"goal":2,"start":10,"action_noise":0.15,"location_history":"[10,2]","action_history":"[1]","mutagen_history":"[1]","location_rts":"[1957]","trial_type":"fractal-mutation","trial_index":42,"time_elapsed":1236270,"internal_node_id":"0.0-5.0-3.0"},{"group":"dicyclic group of order 12","fractal_assignment":["../images/ylw_slt.png","../images/org_blu.png","../images/grn_prp.png","../images/grn_red.png","../images/blu_wht.png","../images/ylw_pnk.png","../images/cyn_red.png","../images/wht_red.png","../images/gry_blk.png","../images/grn_blu.png","../images/red_prp.png","../images/pnk_blu.png"],"mutagen_generator_assignment":[0,1],"goal":5,"start":2,"action_noise":0.15,"location_history":"[2,3,0,1,2,6,10,2,6,11,3,7,11,3,7,8,5]","action_history":"[0,0,0,0,1,1,1,0,1,1,1,1,0,1,1,1]","mutagen_history":"[0,0,0,0,1,1,1,0,1,1,1,1,0,1,1,1]","location_rts":"[466,1016,662,463,363,422,450,411,715,558,859,429,411,345,349,325]","trial_type":"fractal-mutation","trial_index":43,"time_elapsed":1266330,"internal_node_id":"0.0-5.0-4.0"},{"group":"dicyclic group of order 12","fractal_assignment":["../images/ylw_slt.png","../images/org_blu.png","../images/grn_prp.png","../images/grn_red.png","../images/blu_wht.png","../images/ylw_pnk.png","../images/cyn_red.png","../images/wht_red.png","../images/gry_blk.png","../images/grn_blu.png","../images/red_prp.png","../images/pnk_blu.png"],"mutagen_generator_assignment":[0,1],"goal":11,"start":5,"action_noise":0.15,"location_history":"[5,10,2,6,11]","action_history":"[0,1,1,1]","mutagen_history":"[0,1,1,1]","location_rts":"[13369,1893,198,524]","trial_type":"fractal-mutation","trial_index":44,"time_elapsed":1290410,"internal_node_id":"0.0-5.0-5.0"},{"group":"dicyclic group of order 12","fractal_assignment":["../images/ylw_slt.png","../images/org_blu.png","../images/grn_prp.png","../images/grn_red.png","../images/blu_wht.png","../images/ylw_pnk.png","../images/cyn_red.png","../images/wht_red.png","../images/gry_blk.png","../images/grn_blu.png","../images/red_prp.png","../images/pnk_blu.png"],"mutagen_generator_assignment":[0,1],"goal":6,"start":11,"action_noise":0.15,"location_history":"[11,3,7,8,0,1,2,6]","action_history":"[1,1,0,0,0,0,1]","mutagen_history":"[1,1,0,0,0,0,1]","location_rts":"[623,375,354,426,347,392,727]","trial_type":"fractal-mutation","trial_index":45,"time_elapsed":1305410,"internal_node_id":"0.0-5.0-6.0"},{"group":"dicyclic group of order 12","fractal_assignment":["../images/ylw_slt.png","../images/org_blu.png","../images/grn_prp.png","../images/grn_red.png","../images/blu_wht.png","../images/ylw_pnk.png","../images/cyn_red.png","../images/wht_red.png","../images/gry_blk.png","../images/grn_blu.png","../images/red_prp.png","../images/pnk_blu.png"],"mutagen_generator_assignment":[0,1],"goal":3,"start":6,"action_noise":0.15,"location_history":"[6,10,2,6,11,4,9,1,2,3]","action_history":"[1,1,1,0,0,0,1,0,0]","mutagen_history":"[1,1,1,0,0,0,1,0,0]","location_rts":"[602,507,248,290,509,347,409,9699,1178]","trial_type":"fractal-mutation","trial_index":46,"time_elapsed":1333268,"internal_node_id":"0.0-5.0-7.0"},{"group":"dicyclic group of order 12","fractal_assignment":["../images/ylw_slt.png","../images/org_blu.png","../images/grn_prp.png","../images/grn_red.png","../images/blu_wht.png","../images/ylw_pnk.png","../images/cyn_red.png","../images/wht_red.png","../images/gry_blk.png","../images/grn_blu.png","../images/red_prp.png","../images/pnk_blu.png"],"mutagen_generator_assignment":[0,1],"goal":8,"start":3,"action_noise":0.15,"location_history":"[3,7,8]","action_history":"[1,0]","mutagen_history":"[1,0]","location_rts":"[1076,356]","trial_type":"fractal-mutation","trial_index":47,"time_elapsed":1340646,"internal_node_id":"0.0-5.0-8.0"},{"group":"dicyclic group of order 12","fractal_assignment":["../images/ylw_slt.png","../images/org_blu.png","../images/grn_prp.png","../images/grn_red.png","../images/blu_wht.png","../images/ylw_pnk.png","../images/cyn_red.png","../images/wht_red.png","../images/gry_blk.png","../images/grn_blu.png","../images/red_prp.png","../images/pnk_blu.png"],"mutagen_generator_assignment":[0,1],"goal":1,"start":8,"action_noise":0.15,"location_history":"[8,0,4,8,0,1]","action_history":"[1,1,1,1,0]","mutagen_history":"[1,1,1,1,0]","location_rts":"[318,342,100,69,251]","trial_type":"fractal-mutation","trial_index":48,"time_elapsed":1351119,"internal_node_id":"0.0-5.0-9.0"},{"group":"dicyclic group of order 12","fractal_assignment":["../images/ylw_slt.png","../images/org_blu.png","../images/grn_prp.png","../images/grn_red.png","../images/blu_wht.png","../images/ylw_pnk.png","../images/cyn_red.png","../images/wht_red.png","../images/gry_blk.png","../images/grn_blu.png","../images/red_prp.png","../images/pnk_blu.png"],"mutagen_generator_assignment":[0,1],"goal":7,"start":1,"action_noise":0.15,"location_history":"[1,2,6,10,2,6,10,2,6,11,4,9,6,10,2,6,11,3,0,4,8,5,10,7]","action_history":"[0,0,1,1,1,1,0,1,0,0,0,0,1,1,0,0,0,0,1,1,0,0,0]","mutagen_history":"[0,0,1,1,1,1,0,1,0,0,0,0,1,1,0,0,0,0,1,1,0,0,0]","location_rts":"[9465,466,347,367,324,360,506,360,364,470,253,277,293,440,533,311,265,321,691,887,457,14797,1161]","trial_type":"fractal-mutation","trial_index":49,"time_elapsed":1415314,"internal_node_id":"0.0-5.0-10.0"},{"group":"dicyclic group of order 12","fractal_assignment":["../images/ylw_slt.png","../images/org_blu.png","../images/grn_prp.png","../images/grn_red.png","../images/blu_wht.png","../images/ylw_pnk.png","../images/cyn_red.png","../images/wht_red.png","../images/gry_blk.png","../images/grn_blu.png","../images/red_prp.png","../images/pnk_blu.png"],"mutagen_generator_assignment":[0,1],"goal":5,"start":7,"action_noise":0.15,"location_history":"[7,8,5]","action_history":"[0,0]","mutagen_history":"[0,0]","location_rts":"[18,401]","trial_type":"fractal-mutation","trial_index":50,"time_elapsed":1421308,"internal_node_id":"0.0-5.0-11.0"},{"group":"dicyclic group of order 12","fractal_assignment":["../images/ylw_slt.png","../images/org_blu.png","../images/grn_prp.png","../images/grn_red.png","../images/blu_wht.png","../images/ylw_pnk.png","../images/cyn_red.png","../images/wht_red.png","../images/gry_blk.png","../images/grn_blu.png","../images/red_prp.png","../images/pnk_blu.png"],"mutagen_generator_assignment":[0,1],"goal":8,"start":5,"action_noise":0.15,"location_history":"[5,10,7,11,3,0,1,2,3,0,1,2,3,0,4,9,1,2,3,0,4,9,1,2,3,0,1,5,10,7,8]","action_history":"[0,1,1,1,1,1,0,0,0,0,0,0,0,1,1,1,1,0,0,0,0,1,0,0,0,1,1,1,0,0]","mutagen_history":"[0,1,1,1,1,1,0,0,0,0,0,0,0,1,1,1,1,0,0,0,0,1,0,0,0,1,1,1,0,0]","location_rts":"[605,328,319,378,312,261,268,3138,391,447,570,578,452,323,448,427,468,364,472,170,252,53,312,80,21,26,43,309,7,124]","trial_type":"fractal-mutation","trial_index":51,"time_elapsed":1472150,"internal_node_id":"0.0-5.0-12.0"},{"group":"dicyclic group of order 12","fractal_assignment":["../images/ylw_slt.png","../images/org_blu.png","../images/grn_prp.png","../images/grn_red.png","../images/blu_wht.png","../images/ylw_pnk.png","../images/cyn_red.png","../images/wht_red.png","../images/gry_blk.png","../images/grn_blu.png","../images/red_prp.png","../images/pnk_blu.png"],"mutagen_generator_assignment":[0,1],"goal":11,"start":8,"action_noise":0.15,"location_history":"[8,5,9,1,5,10,2,6,10,2,6,10,7,11]","action_history":"[0,1,1,1,0,1,0,1,1,1,1,0,1]","mutagen_history":"[0,1,1,1,0,1,0,1,1,1,1,0,1]","location_rts":"[2596,810,258,326,342,415,202,342,140,264,485,246,651]","trial_type":"fractal-mutation","trial_index":52,"time_elapsed":1497978,"internal_node_id":"0.0-5.0-13.0"},{"group":"dicyclic group of order 12","fractal_assignment":["../images/ylw_slt.png","../images/org_blu.png","../images/grn_prp.png","../images/grn_red.png","../images/blu_wht.png","../images/ylw_pnk.png","../images/cyn_red.png","../images/wht_red.png","../images/gry_blk.png","../images/grn_blu.png","../images/red_prp.png","../images/pnk_blu.png"],"mutagen_generator_assignment":[0,1],"goal":6,"start":11,"action_noise":0.15,"location_history":"[11,4,8,0,4,9,1,5,9,1,5,10,2,6]","action_history":"[0,1,1,1,0,1,1,1,1,1,0,1,1]","mutagen_history":"[0,1,1,1,0,1,1,1,1,1,0,1,1]","location_rts":"[11932,689,89,126,227,201,115,332,75,145,301,337,291]","trial_type":"fractal-mutation","trial_index":53,"time_elapsed":1531514,"internal_node_id":"0.0-5.0-14.0"},{"group":"dicyclic group of order 12","fractal_assignment":["../images/ylw_slt.png","../images/org_blu.png","../images/grn_prp.png","../images/grn_red.png","../images/blu_wht.png","../images/ylw_pnk.png","../images/cyn_red.png","../images/wht_red.png","../images/gry_blk.png","../images/grn_blu.png","../images/red_prp.png","../images/pnk_blu.png"],"mutagen_generator_assignment":[0,1],"goal":7,"start":6,"action_noise":0.15,"location_history":"[6,11,4,8,5,9,1,5,9,6,10,7]","action_history":"[0,1,1,1,1,0,1,1,1,1,0]","mutagen_history":"[0,1,1,1,1,0,1,1,1,1,0]","location_rts":"[14984,703,178,6,175,214,363,84,7,16,226]","trial_type":"fractal-mutation","trial_index":54,"time_elapsed":1564996,"internal_node_id":"0.0-5.0-15.0"},{"group":"dicyclic group of order 12","fractal_assignment":["../images/ylw_slt.png","../images/org_blu.png","../images/grn_prp.png","../images/grn_red.png","../images/blu_wht.png","../images/ylw_pnk.png","../images/cyn_red.png","../images/wht_red.png","../images/gry_blk.png","../images/grn_blu.png","../images/red_prp.png","../images/pnk_blu.png"],"mutagen_generator_assignment":[0,1],"goal":10,"start":7,"action_noise":0.15,"location_history":"[7,8,0,4,9,1,2,3,7,11,3,0,1,5,9,6,10]","action_history":"[1,1,1,0,1,0,1,1,1,1,0,1,1,1,0,1]","mutagen_history":"[1,1,1,0,1,0,1,1,1,1,0,1,1,1,0,1]","location_rts":"[10900,389,309,379,514,287,360,43,123,375,273,517,104,358,503,573]","trial_type":"fractal-mutation","trial_index":55,"time_elapsed":1603534,"internal_node_id":"0.0-5.0-16.0"},{"group":"dicyclic group of order 12","fractal_assignment":["../images/ylw_slt.png","../images/org_blu.png","../images/grn_prp.png","../images/grn_red.png","../images/blu_wht.png","../images/ylw_pnk.png","../images/cyn_red.png","../images/wht_red.png","../images/gry_blk.png","../images/grn_blu.png","../images/red_prp.png","../images/pnk_blu.png"],"mutagen_generator_assignment":[0,1],"goal":0,"start":10,"action_noise":0.15,"location_history":"[10,7,11,3,7,11,3,0]","action_history":"[0,1,1,1,1,1,0]","mutagen_history":"[0,1,1,1,1,1,0]","location_rts":"[3162,753,239,54,0,1289,962]","trial_type":"fractal-mutation","trial_index":56,"time_elapsed":1621633,"internal_node_id":"0.0-5.0-17.0"},{"group":"dicyclic group of order 12","fractal_assignment":["../images/ylw_slt.png","../images/org_blu.png","../images/grn_prp.png","../images/grn_red.png","../images/blu_wht.png","../images/ylw_pnk.png","../images/cyn_red.png","../images/wht_red.png","../images/gry_blk.png","../images/grn_blu.png","../images/red_prp.png","../images/pnk_blu.png"],"mutagen_generator_assignment":[0,1],"goal":9,"start":0,"action_noise":0.15,"location_history":"[0,4,8,0,4,9]","action_history":"[0,1,1,1,0]","mutagen_history":"[0,1,1,1,0]","location_rts":"[519,299,21,124,249]","trial_type":"fractal-mutation","trial_index":57,"time_elapsed":1632107,"internal_node_id":"0.0-5.0-18.0"},{"group":"dicyclic group of order 12","fractal_assignment":["../images/ylw_slt.png","../images/org_blu.png","../images/grn_prp.png","../images/grn_red.png","../images/blu_wht.png","../images/ylw_pnk.png","../images/cyn_red.png","../images/wht_red.png","../images/gry_blk.png","../images/grn_blu.png","../images/red_prp.png","../images/pnk_blu.png"],"mutagen_generator_assignment":[0,1],"goal":4,"start":9,"action_noise":0.15,"location_history":"[9,6,11,3,7,8,0,4]","action_history":"[0,1,1,1,1,0,1]","mutagen_history":"[0,1,1,1,1,0,1]","location_rts":"[8161,70,124,114,137,78,271]","trial_type":"fractal-mutation","trial_index":58,"time_elapsed":1653024,"internal_node_id":"0.0-5.0-19.0"},{"group":"dicyclic group of order 12","fractal_assignment":["../images/ylw_slt.png","../images/org_blu.png","../images/grn_prp.png","../images/grn_red.png","../images/blu_wht.png","../images/ylw_pnk.png","../images/cyn_red.png","../images/wht_red.png","../images/gry_blk.png","../images/grn_blu.png","../images/red_prp.png","../images/pnk_blu.png"],"mutagen_generator_assignment":[0,1],"goal":2,"start":4,"action_noise":0.15,"location_history":"[4,9,1,2]","action_history":"[0,1,1]","mutagen_history":"[0,1,1]","location_rts":"[451,48,156]","trial_type":"fractal-mutation","trial_index":59,"time_elapsed":1660600,"internal_node_id":"0.0-5.0-20.0"},{"group":"dicyclic group of order 12","fractal_assignment":["../images/ylw_slt.png","../images/org_blu.png","../images/grn_prp.png","../images/grn_red.png","../images/blu_wht.png","../images/ylw_pnk.png","../images/cyn_red.png","../images/wht_red.png","../images/gry_blk.png","../images/grn_blu.png","../images/red_prp.png","../images/pnk_blu.png"],"mutagen_generator_assignment":[0,1],"goal":1,"start":2,"action_noise":0.15,"location_history":"[2,3,7,11,3,0,4,9,6,11,3,0,1]","action_history":"[0,1,1,1,0,1,0,0,0,1,1,0]","mutagen_history":"[0,1,1,1,0,1,0,0,0,1,1,0]","location_rts":"[454,84,101,66,307,98,7274,811,453,243,133,257]","trial_type":"fractal-mutation","trial_index":60,"time_elapsed":1688393,"internal_node_id":"0.0-5.0-21.0"},{"group":"dicyclic group of order 12","fractal_assignment":["../images/ylw_slt.png","../images/org_blu.png","../images/grn_prp.png","../images/grn_red.png","../images/blu_wht.png","../images/ylw_pnk.png","../images/cyn_red.png","../images/wht_red.png","../images/gry_blk.png","../images/grn_blu.png","../images/red_prp.png","../images/pnk_blu.png"],"mutagen_generator_assignment":[0,1],"goal":3,"start":1,"action_noise":0.15,"location_history":"[1,2,3]","action_history":"[0,0]","mutagen_history":"[0,0]","location_rts":"[10905,306]","trial_type":"fractal-mutation","trial_index":61,"time_elapsed":1705183,"internal_node_id":"0.0-5.0-22.0"},{"group":"dicyclic group of order 12","fractal_assignment":["../images/ylw_slt.png","../images/org_blu.png","../images/grn_prp.png","../images/grn_red.png","../images/blu_wht.png","../images/ylw_pnk.png","../images/cyn_red.png","../images/wht_red.png","../images/gry_blk.png","../images/grn_blu.png","../images/red_prp.png","../images/pnk_blu.png"],"mutagen_generator_assignment":[0,1],"goal":7,"start":3,"action_noise":0.15,"location_history":"[3,0,4,9,1,5,9,6,10,2,6,11,3,0,1,5,9,1,5,10,2,3,7]","action_history":"[0,1,1,1,1,0,0,1,1,1,0,1,1,0,1,1,0,1,0,1,0,1]","mutagen_history":"[0,1,1,1,1,0,0,1,1,1,0,1,1,0,1,1,0,1,0,1,0,1]","location_rts":"[255,483,122,373,401,291,16552,156,2,0,264,475,125,132,441,99,159,142,169,253,316,97]","trial_type":"fractal-mutation","trial_index":62,"time_elapsed":1756052,"internal_node_id":"0.0-5.0-23.0"},{"group":"dicyclic group of order 12","fractal_assignment":["../images/ylw_slt.png","../images/org_blu.png","../images/grn_prp.png","../images/grn_red.png","../images/blu_wht.png","../images/ylw_pnk.png","../images/cyn_red.png","../images/wht_red.png","../images/gry_blk.png","../images/grn_blu.png","../images/red_prp.png","../images/pnk_blu.png"],"mutagen_generator_assignment":[0,1],"goal":6,"start":7,"action_noise":0.15,"location_history":"[7,8,0,1,5,9,6]","action_history":"[0,1,1,1,1,0]","mutagen_history":"[0,1,1,1,1,0]","location_rts":"[8084,513,125,78,257,20]","trial_type":"fractal-mutation","trial_index":63,"time_elapsed":1775716,"internal_node_id":"0.0-5.0-24.0"},{"group":"dicyclic group of order 12","fractal_assignment":["../images/ylw_slt.png","../images/org_blu.png","../images/grn_prp.png","../images/grn_red.png","../images/blu_wht.png","../images/ylw_pnk.png","../images/cyn_red.png","../images/wht_red.png","../images/gry_blk.png","../images/grn_blu.png","../images/red_prp.png","../images/pnk_blu.png"],"mutagen_generator_assignment":[0,1],"goal":2,"start":6,"action_noise":0.15,"location_history":"[6,11,3,7,11,3,7,8,5,10,7,8,5,9,6,11,3,7,8,0,4,8,5,9,1,5,10,7,8,5,9,1,5,9,1,5,9,6,11,3,7,11,4,9,1,5,9,6,11,4,8,0,4,8,0,4,9,1,5,9,1,2]","action_history":"[0,1,1,1,1,0,0,0,0,0,1,1,1,0,1,1,1,0,1,1,1,0,1,1,1,0,0,0,0,1,1,1,1,1,1,1,0,0,1,1,0,0,1,1,1,1,1,0,0,1,1,1,1,1,1,0,1,1,1,1,0]","mutagen_history":"[0,1,1,1,1,0,0,0,0,0,1,1,1,0,1,1,1,0,1,1,1,0,1,1,1,0,0,0,0,1,1,1,1,1,1,1,0,0,1,1,0,0,1,1,1,1,1,0,0,1,1,1,1,1,1,0,1,1,1,1,0]","location_rts":"[448,1310,84,142,106,224,671,464,451,492,393,36,347,231,370,47,16,625,317,77,97,296,122,98,127,257,375,481,240,537,81,23,69,14842,658,95,561,284,192,37,405,41,68,114,608,398,770,507,658,462,151,67,35,143,300,96,30,98,45,84,357]","trial_type":"fractal-mutation","trial_index":64,"time_elapsed":1883450,"internal_node_id":"0.0-5.0-25.0"},{"group":"dicyclic group of order 12","fractal_assignment":["../images/ylw_slt.png","../images/org_blu.png","../images/grn_prp.png","../images/grn_red.png","../images/blu_wht.png","../images/ylw_pnk.png","../images/cyn_red.png","../images/wht_red.png","../images/gry_blk.png","../images/grn_blu.png","../images/red_prp.png","../images/pnk_blu.png"],"mutagen_generator_assignment":[0,1],"goal":8,"start":2,"action_noise":0.15,"location_history":"[2,3,0,4,8]","action_history":"[0,1,1,1]","mutagen_history":"[0,1,1,1]","location_rts":"[385,390,33,57]","trial_type":"fractal-mutation","trial_index":65,"time_elapsed":1892414,"internal_node_id":"0.0-5.0-26.0"},{"group":"dicyclic group of order 12","fractal_assignment":["../images/ylw_slt.png","../images/org_blu.png","../images/grn_prp.png","../images/grn_red.png","../images/blu_wht.png","../images/ylw_pnk.png","../images/cyn_red.png","../images/wht_red.png","../images/gry_blk.png","../images/grn_blu.png","../images/red_prp.png","../images/pnk_blu.png"],"mutagen_generator_assignment":[0,1],"goal":0,"start":8,"action_noise":0.15,"location_history":"[8,5,9,1,5,10,2,6,10,2,3,7,11,3,7,8,0]","action_history":"[0,1,1,1,0,1,1,1,1,0,1,1,1,1,0,1]","mutagen_history":"[0,1,1,1,0,1,1,1,1,0,1,1,1,1,0,1]","location_rts":"[284,436,14,31,239,60,42,67,121,201,356,166,297,216,290,3983]","trial_type":"fractal-mutation","trial_index":66,"time_elapsed":1921872,"internal_node_id":"0.0-5.0-27.0"},{"group":"dicyclic group of order 12","fractal_assignment":["../images/ylw_slt.png","../images/org_blu.png","../images/grn_prp.png","../images/grn_red.png","../images/blu_wht.png","../images/ylw_pnk.png","../images/cyn_red.png","../images/wht_red.png","../images/gry_blk.png","../images/grn_blu.png","../images/red_prp.png","../images/pnk_blu.png"],"mutagen_generator_assignment":[0,1],"goal":3,"start":0,"action_noise":0.15,"location_history":"[0,1,2,6,10,2,3]","action_history":"[0,0,1,1,1,0]","mutagen_history":"[0,0,1,1,1,0]","location_rts":"[406,471,632,62,454,434]","trial_type":"fractal-mutation","trial_index":67,"time_elapsed":1934610,"internal_node_id":"0.0-5.0-28.0"},{"group":"dicyclic group of order 12","fractal_assignment":["../images/ylw_slt.png","../images/org_blu.png","../images/grn_prp.png","../images/grn_red.png","../images/blu_wht.png","../images/ylw_pnk.png","../images/cyn_red.png","../images/wht_red.png","../images/gry_blk.png","../images/grn_blu.png","../images/red_prp.png","../images/pnk_blu.png"],"mutagen_generator_assignment":[0,1],"goal":4,"start":3,"action_noise":0.15,"location_history":"[3,0,4]","action_history":"[0,1]","mutagen_history":"[0,1]","location_rts":"[11708,132]","trial_type":"fractal-mutation","trial_index":68,"time_elapsed":1952196,"internal_node_id":"0.0-5.0-29.0"},{"group":"dicyclic group of order 12","fractal_assignment":["../images/ylw_slt.png","../images/org_blu.png","../images/grn_prp.png","../images/grn_red.png","../images/blu_wht.png","../images/ylw_pnk.png","../images/cyn_red.png","../images/wht_red.png","../images/gry_blk.png","../images/grn_blu.png","../images/red_prp.png","../images/pnk_blu.png"],"mutagen_generator_assignment":[0,1],"goal":10,"start":4,"action_noise":0.15,"location_history":"[4,9,1,2,6,10]","action_history":"[0,1,0,1,1]","mutagen_history":"[0,1,0,1,1]","location_rts":"[447,395,338,511,59]","trial_type":"fractal-mutation","trial_index":69,"time_elapsed":1963202,"internal_node_id":"0.0-5.0-30.0"},{"group":"dicyclic group of order 12","fractal_assignment":["../images/ylw_slt.png","../images/org_blu.png","../images/grn_prp.png","../images/grn_red.png","../images/blu_wht.png","../images/ylw_pnk.png","../images/cyn_red.png","../images/wht_red.png","../images/gry_blk.png","../images/grn_blu.png","../images/red_prp.png","../images/pnk_blu.png"],"mutagen_generator_assignment":[0,1],"goal":11,"start":10,"action_noise":0.15,"location_history":"[10,7,11]","action_history":"[0,1]","mutagen_history":"[0,1]","location_rts":"[383,272]","trial_type":"fractal-mutation","trial_index":70,"time_elapsed":1969588,"internal_node_id":"0.0-5.0-31.0"},{"group":"dicyclic group of order 12","fractal_assignment":["../images/ylw_slt.png","../images/org_blu.png","../images/grn_prp.png","../images/grn_red.png","../images/blu_wht.png","../images/ylw_pnk.png","../images/cyn_red.png","../images/wht_red.png","../images/gry_blk.png","../images/grn_blu.png","../images/red_prp.png","../images/pnk_blu.png"],"mutagen_generator_assignment":[0,1],"goal":1,"start":11,"action_noise":0.15,"location_history":"[11,4,8,0,4,9,1]","action_history":"[0,1,1,1,0,1]","mutagen_history":"[0,1,1,1,0,1]","location_rts":"[417,423,23,10,284,381]","trial_type":"fractal-mutation","trial_index":71,"time_elapsed":1981644,"internal_node_id":"0.0-5.0-32.0"},{"group":"dicyclic group of order 12","fractal_assignment":["../images/ylw_slt.png","../images/org_blu.png","../images/grn_prp.png","../images/grn_red.png","../images/blu_wht.png","../images/ylw_pnk.png","../images/cyn_red.png","../images/wht_red.png","../images/gry_blk.png","../images/grn_blu.png","../images/red_prp.png","../images/pnk_blu.png"],"mutagen_generator_assignment":[0,1],"goal":5,"start":1,"action_noise":0.15,"location_history":"[1,2,6,10,7,11,4,8,5]","action_history":"[0,1,1,0,1,1,1,0]","mutagen_history":"[0,1,1,0,1,1,1,0]","location_rts":"[677,346,16,226,297,26,100,239]","trial_type":"fractal-mutation","trial_index":72,"time_elapsed":1996425,"internal_node_id":"0.0-5.0-33.0"},{"group":"dicyclic group of order 12","fractal_assignment":["../images/ylw_slt.png","../images/org_blu.png","../images/grn_prp.png","../images/grn_red.png","../images/blu_wht.png","../images/ylw_pnk.png","../images/cyn_red.png","../images/wht_red.png","../images/gry_blk.png","../images/grn_blu.png","../images/red_prp.png","../images/pnk_blu.png"],"mutagen_generator_assignment":[0,1],"goal":9,"start":5,"action_noise":0.15,"location_history":"[5,10,7,11,3,0,4,8,0,4,9]","action_history":"[0,1,1,1,0,1,1,1,1,0]","mutagen_history":"[0,1,1,1,0,1,1,1,1,0]","location_rts":"[258,19,4,80,257,213,91,48,215,24]","trial_type":"fractal-mutation","trial_index":73,"time_elapsed":2012827,"internal_node_id":"0.0-5.0-34.0"},{"view_history":"[{\"page_index\":0,\"viewing_time\":10792}]","rt":10793,"trial_type":"instructions","trial_index":74,"time_elapsed":2024622,"internal_node_id":"0.0-6.0"},{"rt":1184,"responses":"{\"Q0\":\"\"}","trial_type":"survey-text","trial_index":75,"time_elapsed":2026814,"internal_node_id":"0.0-7.0"}]