[{"view_history":"[{\"page_index\":0,\"viewing_time\":30312},{\"page_index\":1,\"viewing_time\":14258},{\"page_index\":2,\"viewing_time\":14755},{\"page_index\":3,\"viewing_time\":6613}]","rt":65939,"trial_type":"instructions","trial_index":0,"time_elapsed":65939,"internal_node_id":"0.0-0.0"},{"view_history":"[{\"page_index\":0,\"viewing_time\":1780},{\"page_index\":1,\"viewing_time\":41886}]","rt":43666,"trial_type":"instructions","trial_index":1,"time_elapsed":110607,"internal_node_id":"0.0-1.0"},{"group":"dihedral group of order 12","room_assignment":["grey","yellow","orange","red","cyan","brown","pink","blue","purple","ivory","olive","green"],"door_color_assignment":["white","black"],"door_generator_assignment":[0,1],"goal":4,"start":0,"action_noise":0.15,"location_history":"[0,1,2,3,9,3,4]","action_history":"[0,1,0,1,0,0]","door_history":"[0,1,0,1,0,0]","location_rts":"[1048,898,1197,1228,979,420]","trial_type":"two-door-navigation","trial_index":2,"time_elapsed":126005,"internal_node_id":"0.0-2.0-0.0"},{"group":"dihedral group of order 12","room_assignment":["grey","yellow","orange","red","cyan","brown","pink","blue","purple","ivory","olive","green"],"door_color_assignment":["white","black"],"door_generator_assignment":[0,1],"goal":9,"start":4,"action_noise":0.15,"location_history":"[4,10,9]","action_history":"[1,0]","door_history":"[1,0]","location_rts":"[969,282]","trial_type":"two-door-navigation","trial_index":3,"time_elapsed":132802,"internal_node_id":"0.0-2.0-1.0"},{"group":"dihedral group of order 12","room_assignment":["grey","yellow","orange","red","cyan","brown","pink","blue","purple","ivory","olive","green"],"door_color_assignment":["white","black"],"door_generator_assignment":[0,1],"goal":10,"start":9,"action_noise":0.15,"location_history":"[9,3,9,8,2,3,4,5,0,6,11,5,11,10]","action_history":"[1,1,0,0,1,0,0,0,1,0,0,1,0]","door_history":"[1,1,0,0,1,0,0,0,1,0,0,1,0]","location_rts":"[417,790,2068,372,2778,764,322,970,4522,692,1084,2539,811]","trial_type":"two-door-navigation","trial_index":4,"time_elapsed":167711,"internal_node_id":"0.0-2.0-2.0"},{"group":"dihedral group of order 12","room_assignment":["grey","yellow","orange","red","cyan","brown","pink","blue","purple","ivory","olive","green"],"door_color_assignment":["white","black"],"door_generator_assignment":[0,1],"goal":2,"start":10,"action_noise":0.15,"location_history":"[10,9,3,4,10,9,3,4,10,9,3,4,5,11,10,9,3,9,3,4,10,9,3,4,5,0,6,11,10,4,5,0,1,7,1,2]","action_history":"[0,0,0,1,0,1,0,1,0,1,1,0,1,0,1,1,1,1,0,1,0,1,1,0,0,0,0,0,1,0,0,0,1,1,0]","door_history":"[0,0,0,1,0,1,0,1,0,1,1,0,1,0,1,1,1,1,0,1,0,1,1,0,0,0,0,0,1,0,0,0,1,1,0]","location_rts":"[357,907,2804,1036,4301,1206,743,1041,669,1246,397,2610,26,504,2010,333,2195,518,718,1329,1219,69,772,4195,276,4733,434,966,1611,460,507,1981,1069,899,804]","trial_type":"two-door-navigation","trial_index":5,"time_elapsed":251872,"internal_node_id":"0.0-2.0-3.0"},{"group":"dihedral group of order 12","room_assignment":["grey","yellow","orange","red","cyan","brown","pink","blue","purple","ivory","olive","green"],"door_color_assignment":["white","black"],"door_generator_assignment":[0,1],"goal":5,"start":2,"action_noise":0.15,"location_history":"[2,8,7,6,0,1,7,1,2,3,4,5]","action_history":"[1,1,1,1,0,0,0,0,1,0,0]","door_history":"[1,1,1,1,0,0,0,0,1,0,0]","location_rts":"[414,1851,2013,364,1167,1276,1284,3996,395,1482,908]","trial_type":"two-door-navigation","trial_index":6,"time_elapsed":281751,"internal_node_id":"0.0-2.0-4.0"},{"group":"dihedral group of order 12","room_assignment":["grey","yellow","orange","red","cyan","brown","pink","blue","purple","ivory","olive","green"],"door_color_assignment":["white","black"],"door_generator_assignment":[0,1],"goal":11,"start":5,"action_noise":0.15,"location_history":"[5,0,1,2,3,9,3,9,8,2,8,2,8,2,3,4,5,0,1,7,6,11]","action_history":"[0,0,0,0,1,1,1,0,1,1,1,1,1,0,0,0,0,0,1,1,1]","door_history":"[0,0,0,0,1,1,1,0,1,1,1,1,1,0,0,0,0,0,1,1,1]","location_rts":"[285,1732,2007,1004,412,2085,805,370,2244,334,1956,862,779,322,2027,2507,844,795,1449,341,1742]","trial_type":"two-door-navigation","trial_index":7,"time_elapsed":331622,"internal_node_id":"0.0-2.0-5.0"},{"group":"dihedral group of order 12","room_assignment":["grey","yellow","orange","red","cyan","brown","pink","blue","purple","ivory","olive","green"],"door_color_assignment":["white","black"],"door_generator_assignment":[0,1],"goal":6,"start":11,"action_noise":0.15,"location_history":"[11,10,4,10,4,5,11,5,11,5,11,10,9,3,9,8,7,1,7,1,2,3,4,5,11,5,11,10,9,3,4,5,0,1,7,6]","action_history":"[1,1,1,1,0,1,1,1,1,1,0,0,1,1,0,0,1,1,1,0,0,0,0,1,1,0,0,0,1,0,0,0,0,0,0]","door_history":"[1,1,1,1,0,1,1,1,1,1,0,0,1,1,0,0,1,1,1,0,0,0,0,1,1,0,0,0,1,0,0,0,0,0,0]","location_rts":"[1050,281,1971,332,2317,993,293,450,1685,1155,364,4237,1268,764,3069,737,2053,874,835,588,1074,1996,1004,3764,1097,1876,285,3985,554,1508,2194,490,3779,1683,586]","trial_type":"two-door-navigation","trial_index":8,"time_elapsed":422047,"internal_node_id":"0.0-2.0-6.0"},{"group":"dihedral group of order 12","room_assignment":["grey","yellow","orange","red","cyan","brown","pink","blue","purple","ivory","olive","green"],"door_color_assignment":["white","black"],"door_generator_assignment":[0,1],"goal":3,"start":6,"action_noise":0.15,"location_history":"[6,11,10,9,3]","action_history":"[0,1,1,1]","door_history":"[0,1,1,1]","location_rts":"[483,317,4413,617]","trial_type":"two-door-navigation","trial_index":9,"time_elapsed":435464,"internal_node_id":"0.0-2.0-7.0"},{"group":"dihedral group of order 12","room_assignment":["grey","yellow","orange","red","cyan","brown","pink","blue","purple","ivory","olive","green"],"door_color_assignment":["white","black"],"door_generator_assignment":[0,1],"goal":8,"start":3,"action_noise":0.15,"location_history":"[3,9,3,9,3,9,8]","action_history":"[1,1,1,1,1,0]","door_history":"[1,1,1,1,1,0]","location_rts":"[5173,6348,3288,1948,763,1955]","trial_type":"two-door-navigation","trial_index":10,"time_elapsed":464568,"internal_node_id":"0.0-2.0-8.0"},{"group":"dihedral group of order 12","room_assignment":["grey","yellow","orange","red","cyan","brown","pink","blue","purple","ivory","olive","green"],"door_color_assignment":["white","black"],"door_generator_assignment":[0,1],"goal":1,"start":8,"action_noise":0.15,"location_history":"[8,7,6,11,5,11,5,0,1]","action_history":"[0,0,0,1,1,1,0,0]","door_history":"[0,0,0,1,1,1,0,0]","location_rts":"[373,1665,2298,1041,313,1400,811,1436]","trial_type":"two-door-navigation","trial_index":11,"time_elapsed":485593,"internal_node_id":"0.0-2.0-9.0"},{"group":"dihedral group of order 12","room_assignment":["grey","yellow","orange","red","cyan","brown","pink","blue","purple","ivory","olive","green"],"door_color_assignment":["white","black"],"door_generator_assignment":[0,1],"goal":7,"start":1,"action_noise":0.15,"location_history":"[1,2,3,4,10,9,3,4,5,11,10,4,5,0,6,11,10,4,10,4,5,0,1,7]","action_history":"[0,0,0,1,0,1,0,0,1,0,1,0,0,0,0,0,0,1,1,0,0,0,1]","door_history":"[0,0,0,1,0,1,0,0,1,0,1,0,0,0,0,0,0,1,1,0,0,0,1]","location_rts":"[164,1100,1604,362,629,1301,302,2987,2356,2419,934,1468,1306,2300,915,2259,843,1203,4340,2834,267,2635,293]","trial_type":"two-door-navigation","trial_index":12,"time_elapsed":547395,"internal_node_id":"0.0-2.0-10.0"},{"group":"dihedral group of order 12","room_assignment":["grey","yellow","orange","red","cyan","brown","pink","blue","purple","ivory","olive","green"],"door_color_assignment":["white","black"],"door_generator_assignment":[0,1],"goal":5,"start":7,"action_noise":0.15,"location_history":"[7,1,2,3,9,8,7,1,2,3,4,5]","action_history":"[0,0,0,1,0,0,1,0,0,0,0]","door_history":"[0,0,0,1,0,0,1,0,0,0,0]","location_rts":"[1642,354,1683,2596,350,3476,772,1196,2179,413,3000]","trial_type":"two-door-navigation","trial_index":13,"time_elapsed":579786,"internal_node_id":"0.0-2.0-11.0"},{"group":"dihedral group of order 12","room_assignment":["grey","yellow","orange","red","cyan","brown","pink","blue","purple","ivory","olive","green"],"door_color_assignment":["white","black"],"door_generator_assignment":[0,1],"goal":8,"start":5,"action_noise":0.15,"location_history":"[5,0,1,2,3,4,10,4,10,9,3,9,3,4,10,9,8]","action_history":"[0,0,0,0,0,1,1,0,0,1,1,1,0,1,0,0]","door_history":"[0,0,0,0,0,1,1,0,0,1,1,1,0,1,0,0]","location_rts":"[101,507,2034,404,1910,579,2342,1068,1867,2077,4132,859,389,564,259,267]","trial_type":"two-door-navigation","trial_index":14,"time_elapsed":618986,"internal_node_id":"0.0-2.0-12.0"},{"group":"dihedral group of order 12","room_assignment":["grey","yellow","orange","red","cyan","brown","pink","blue","purple","ivory","olive","green"],"door_color_assignment":["white","black"],"door_generator_assignment":[0,1],"goal":11,"start":8,"action_noise":0.15,"location_history":"[8,7,6,11]","action_history":"[0,0,0]","door_history":"[0,0,0]","location_rts":"[4469,347,779]","trial_type":"two-door-navigation","trial_index":15,"time_elapsed":631147,"internal_node_id":"0.0-2.0-13.0"},{"group":"dihedral group of order 12","room_assignment":["grey","yellow","orange","red","cyan","brown","pink","blue","purple","ivory","olive","green"],"door_color_assignment":["white","black"],"door_generator_assignment":[0,1],"goal":6,"start":11,"action_noise":0.15,"location_history":"[11,5,0,1,2,8,2,3,4,10,4,5,11,10,9,3,9,3,9,8,2,8,7,6]","action_history":"[0,0,0,0,1,0,0,0,1,1,1,1,0,0,0,1,0,1,0,1,0,0,0]","door_history":"[0,0,0,0,1,0,0,0,1,1,1,1,0,0,0,1,0,1,0,1,0,0,0]","location_rts":"[3876,565,291,17012,1952,440,629,291,12684,274,268,307,412,283,283,755,508,262,284,244,328,271,291]","trial_type":"two-door-navigation","trial_index":16,"time_elapsed":700641,"internal_node_id":"0.0-2.0-14.0"},{"group":"dihedral group of order 12","room_assignment":["grey","yellow","orange","red","cyan","brown","pink","blue","purple","ivory","olive","green"],"door_color_assignment":["white","black"],"door_generator_assignment":[0,1],"goal":7,"start":6,"action_noise":0.15,"location_history":"[6,0,1,7]","action_history":"[1,0,1]","door_history":"[1,0,1]","location_rts":"[1999,11655,5906]","trial_type":"two-door-navigation","trial_index":17,"time_elapsed":726958,"internal_node_id":"0.0-2.0-15.0"},{"group":"dihedral group of order 12","room_assignment":["grey","yellow","orange","red","cyan","brown","pink","blue","purple","ivory","olive","green"],"door_color_assignment":["white","black"],"door_generator_assignment":[0,1],"goal":10,"start":7,"action_noise":0.15,"location_history":"[7,6,11,10]","action_history":"[0,0,0]","door_history":"[0,0,0]","location_rts":"[2379,5536,440]","trial_type":"two-door-navigation","trial_index":18,"time_elapsed":741877,"internal_node_id":"0.0-2.0-16.0"},{"group":"dihedral group of order 12","room_assignment":["grey","yellow","orange","red","cyan","brown","pink","blue","purple","ivory","olive","green"],"door_color_assignment":["white","black"],"door_generator_assignment":[0,1],"goal":0,"start":10,"action_noise":0.15,"location_history":"[10,9,8,2,3,9,3,9,8,2,3,4,5,11,10,9,3,4,5,0]","action_history":"[0,0,1,0,1,1,1,0,0,0,0,0,1,0,1,1,0,0,0]","door_history":"[0,0,1,0,1,1,1,0,0,0,0,0,1,0,1,1,0,0,0]","location_rts":"[6694,308,2345,4001,596,278,307,318,315,372,307,301,595,238,197,238,327,283,309]","trial_type":"two-door-navigation","trial_index":19,"time_elapsed":783095,"internal_node_id":"0.0-2.0-17.0"},{"group":"dihedral group of order 12","room_assignment":["grey","yellow","orange","red","cyan","brown","pink","blue","purple","ivory","olive","green"],"door_color_assignment":["white","black"],"door_generator_assignment":[0,1],"goal":9,"start":0,"action_noise":0.15,"location_history":"[0,1,7,1,7,6,11,10,4,5,0,1,7,1,2,3,4,5,11,10,4,10,9]","action_history":"[1,1,1,1,0,0,1,1,0,0,0,1,1,0,0,0,1,1,0,1,1,0]","door_history":"[1,1,1,1,0,0,1,1,0,0,0,1,1,0,0,0,1,1,0,1,1,0]","location_rts":"[313,260,330,291,527,220,237,270,276,250,325,364,338,2902,410,291,250,259,256,276,251,267]","trial_type":"two-door-navigation","trial_index":20,"time_elapsed":818250,"internal_node_id":"0.0-2.0-18.0"},{"group":"dihedral group of order 12","room_assignment":["grey","yellow","orange","red","cyan","brown","pink","blue","purple","ivory","olive","green"],"door_color_assignment":["white","black"],"door_generator_assignment":[0,1],"goal":4,"start":9,"action_noise":0.15,"location_history":"[9,8,7,1,2,3,4]","action_history":"[0,0,1,0,0,0]","door_history":"[0,0,1,0,0,0]","location_rts":"[365,245,3994,304,232,269]","trial_type":"two-door-navigation","trial_index":21,"time_elapsed":833288,"internal_node_id":"0.0-2.0-19.0"},{"group":"dihedral group of order 12","room_assignment":["grey","yellow","orange","red","cyan","brown","pink","blue","purple","ivory","olive","green"],"door_color_assignment":["white","black"],"door_generator_assignment":[0,1],"goal":2,"start":4,"action_noise":0.15,"location_history":"[4,5,0,6,0,6,0,6,0,6,11,5,0,6,0,6,11,5,0,1,2]","action_history":"[0,1,1,1,1,1,1,1,1,1,1,0,1,1,0,1,1,0,0,0]","door_history":"[0,1,1,1,1,1,1,1,1,1,1,0,1,1,0,1,1,0,0,0]","location_rts":"[261,243,268,148,292,243,251,315,309,283,289,270,239,262,268,225,278,226,205,236]","trial_type":"two-door-navigation","trial_index":22,"time_elapsed":862306,"internal_node_id":"0.0-2.0-20.0"},{"group":"dihedral group of order 12","room_assignment":["grey","yellow","orange","red","cyan","brown","pink","blue","purple","ivory","olive","green"],"door_color_assignment":["white","black"],"door_generator_assignment":[0,1],"goal":1,"start":2,"action_noise":0.15,"location_history":"[2,8,2,8,7,6,11,10,4,10,4,10,4,5,11,5,0,6,11,10,4,10,4,5,0,1]","action_history":"[1,1,1,0,0,0,0,1,1,1,1,1,0,0,1,0,0,0,0,1,1,1,0,0,0]","door_history":"[1,1,1,0,0,0,0,1,1,1,1,1,0,0,1,0,0,0,0,1,1,1,0,0,0]","location_rts":"[370,203,282,415,84,245,291,252,197,213,283,277,284,219,380,137,205,275,411,284,284,205,313,212,323]","trial_type":"two-door-navigation","trial_index":23,"time_elapsed":897979,"internal_node_id":"0.0-2.0-21.0"},{"group":"dihedral group of order 12","room_assignment":["grey","yellow","orange","red","cyan","brown","pink","blue","purple","ivory","olive","green"],"door_color_assignment":["white","black"],"door_generator_assignment":[0,1],"goal":3,"start":1,"action_noise":0.15,"location_history":"[1,7,1,7,1,7,6,0,1,2,8,2,8,2,8,7,6,0,1,7,1,7,1,2,8,2,3]","action_history":"[1,1,1,1,1,0,1,1,0,0,1,1,0,0,0,0,1,0,0,1,1,0,0,1,0,0]","door_history":"[1,1,1,1,1,0,1,1,0,0,1,1,0,0,0,0,1,0,0,1,1,0,0,1,0,0]","location_rts":"[447,179,204,225,180,234,220,575,135,259,114,230,162,219,244,331,243,451,322,292,260,199,356,332,406,261]","trial_type":"two-door-navigation","trial_index":24,"time_elapsed":935101,"internal_node_id":"0.0-2.0-22.0"},{"group":"dihedral group of order 12","room_assignment":["grey","yellow","orange","red","cyan","brown","pink","blue","purple","ivory","olive","green"],"door_color_assignment":["white","black"],"door_generator_assignment":[0,1],"goal":7,"start":3,"action_noise":0.15,"location_history":"[3,9,8,2,3,4,10,9,3,4,10,9,3,9,8,7]","action_history":"[1,1,1,1,0,1,0,0,0,1,1,1,1,0,0]","door_history":"[1,1,1,1,0,1,0,0,0,1,1,1,1,0,0]","location_rts":"[385,115,228,165,116,435,212,106,443,121,260,237,108,306,244]","trial_type":"two-door-navigation","trial_index":25,"time_elapsed":957398,"internal_node_id":"0.0-2.0-23.0"},{"group":"dihedral group of order 12","room_assignment":["grey","yellow","orange","red","cyan","brown","pink","blue","purple","ivory","olive","green"],"door_color_assignment":["white","black"],"door_generator_assignment":[0,1],"goal":6,"start":7,"action_noise":0.15,"location_history":"[7,1,7,1,7,6]","action_history":"[1,1,1,1,1]","door_history":"[1,1,1,1,1]","location_rts":"[379,26,181,68,254]","trial_type":"two-door-navigation","trial_index":26,"time_elapsed":966911,"internal_node_id":"0.0-2.0-24.0"},{"group":"dihedral group of order 12","room_assignment":["grey","yellow","orange","red","cyan","brown","pink","blue","purple","ivory","olive","green"],"door_color_assignment":["white","black"],"door_generator_assignment":[0,1],"goal":2,"start":6,"action_noise":0.15,"location_history":"[6,0,6,0,6,11,10,4,10,4,5,0,1,7,1,7,1,7,6,11,10,4,10,9,8,2]","action_history":"[1,1,1,1,1,0,1,1,1,0,0,0,1,1,1,1,1,0,0,0,1,1,0,0,1]","door_history":"[1,1,1,1,1,0,1,1,1,0,0,0,1,1,1,1,1,0,0,0,1,1,0,0,1]","location_rts":"[359,220,202,204,289,244,490,328,190,245,267,300,243,267,285,232,228,173,277,268,275,123,211,252,265]","trial_type":"two-door-navigation","trial_index":27,"time_elapsed":1002375,"internal_node_id":"0.0-2.0-25.0"},{"group":"dihedral group of order 12","room_assignment":["grey","yellow","orange","red","cyan","brown","pink","blue","purple","ivory","olive","green"],"door_color_assignment":["white","black"],"door_generator_assignment":[0,1],"goal":8,"start":2,"action_noise":0.15,"location_history":"[2,8]","action_history":"[1]","door_history":"[1]","location_rts":"[762]","trial_type":"two-door-navigation","trial_index":28,"time_elapsed":1007661,"internal_node_id":"0.0-2.0-26.0"},{"group":"dihedral group of order 12","room_assignment":["grey","yellow","orange","red","cyan","brown","pink","blue","purple","ivory","olive","green"],"door_color_assignment":["white","black"],"door_generator_assignment":[0,1],"goal":0,"start":8,"action_noise":0.15,"location_history":"[8,7,1,7,1,2,3,4,5,0]","action_history":"[1,1,1,1,0,0,0,0,0]","door_history":"[1,1,1,1,0,0,0,0,0]","location_rts":"[414,253,171,252,284,261,250,272,290]","trial_type":"two-door-navigation","trial_index":29,"time_elapsed":1022818,"internal_node_id":"0.0-2.0-27.0"},{"group":"dihedral group of order 12","room_assignment":["grey","yellow","orange","red","cyan","brown","pink","blue","purple","ivory","olive","green"],"door_color_assignment":["white","black"],"door_generator_assignment":[0,1],"goal":3,"start":0,"action_noise":0.15,"location_history":"[0,1,7,6,11,5,11,10,9,8,2,3]","action_history":"[0,1,1,0,1,1,0,0,1,1,0]","door_history":"[0,1,1,0,1,1,0,0,1,1,0]","location_rts":"[364,299,220,419,345,204,318,299,235,265,280]","trial_type":"two-door-navigation","trial_index":30,"time_elapsed":1040789,"internal_node_id":"0.0-2.0-28.0"},{"group":"dihedral group of order 12","room_assignment":["grey","yellow","orange","red","cyan","brown","pink","blue","purple","ivory","olive","green"],"door_color_assignment":["white","black"],"door_generator_assignment":[0,1],"goal":4,"start":3,"action_noise":0.15,"location_history":"[3,4]","action_history":"[0]","door_history":"[0]","location_rts":"[474]","trial_type":"two-door-navigation","trial_index":31,"time_elapsed":1045788,"internal_node_id":"0.0-2.0-29.0"},{"group":"dihedral group of order 12","room_assignment":["grey","yellow","orange","red","cyan","brown","pink","blue","purple","ivory","olive","green"],"door_color_assignment":["white","black"],"door_generator_assignment":[0,1],"goal":10,"start":4,"action_noise":0.15,"location_history":"[4,10]","action_history":"[1]","door_history":"[1]","location_rts":"[1569]","trial_type":"two-door-navigation","trial_index":32,"time_elapsed":1051881,"internal_node_id":"0.0-2.0-30.0"},{"group":"dihedral group of order 12","room_assignment":["grey","yellow","orange","red","cyan","brown","pink","blue","purple","ivory","olive","green"],"door_color_assignment":["white","black"],"door_generator_assignment":[0,1],"goal":11,"start":10,"action_noise":0.15,"location_history":"[10,4,10,4,5,0,6,0,1,2,3,4,10,9,8,7,6,0,1,2,8,2,3,4,10,9,8,2,8,2,3,4,10,9,8,7,6,11]","action_history":"[0,1,1,0,0,1,1,0,0,0,1,1,0,0,0,0,1,0,0,1,1,0,0,0,1,0,1,1,1,1,0,0,0,0,0,0,0]","door_history":"[0,1,1,0,0,1,1,0,0,0,1,1,0,0,0,0,1,0,0,1,1,0,0,0,1,0,1,1,1,1,0,0,0,0,0,0,0]","location_rts":"[1051,799,320,723,612,492,451,518,327,499,956,428,555,219,314,308,612,466,507,323,407,409,301,284,268,293,271,235,180,235,169,161,213,226,317,381,329]","trial_type":"two-door-navigation","trial_index":33,"time_elapsed":1108299,"internal_node_id":"0.0-2.0-31.0"},{"group":"dihedral group of order 12","room_assignment":["grey","yellow","orange","red","cyan","brown","pink","blue","purple","ivory","olive","green"],"door_color_assignment":["white","black"],"door_generator_assignment":[0,1],"goal":1,"start":11,"action_noise":0.15,"location_history":"[11,10,4,10,4,10,9,8,2,3,9,3,9,3,4,5,0,6,11,10,9,3,9,8,7,6,0,6,0,1]","action_history":"[1,1,1,1,1,0,0,1,0,0,1,1,0,0,0,0,1,0,0,0,1,1,0,0,0,1,1,1,1]","door_history":"[1,1,1,1,1,0,0,1,0,0,1,1,0,0,0,0,1,0,0,0,1,1,0,0,0,1,1,1,1]","location_rts":"[1229,260,251,182,243,258,228,178,198,258,172,345,277,258,381,332,266,285,420,437,365,542,260,244,274,234,235,259,435]","trial_type":"two-door-navigation","trial_index":34,"time_elapsed":1150706,"internal_node_id":"0.0-2.0-32.0"},{"group":"dihedral group of order 12","room_assignment":["grey","yellow","orange","red","cyan","brown","pink","blue","purple","ivory","olive","green"],"door_color_assignment":["white","black"],"door_generator_assignment":[0,1],"goal":5,"start":1,"action_noise":0.15,"location_history":"[1,2,3,4,5]","action_history":"[0,0,0,0]","door_history":"[0,0,0,0]","location_rts":"[556,563,147,221]","trial_type":"two-door-navigation","trial_index":35,"time_elapsed":1159781,"internal_node_id":"0.0-2.0-33.0"},{"group":"dihedral group of order 12","room_assignment":["grey","yellow","orange","red","cyan","brown","pink","blue","purple","ivory","olive","green"],"door_color_assignment":["white","black"],"door_generator_assignment":[0,1],"goal":9,"start":5,"action_noise":0.15,"location_history":"[5,0,6,0,1,7,6,0,6,11,10,4,5,0,6,0,1,7,1,7,6,0,6,11,10,9]","action_history":"[1,1,1,1,1,0,1,1,0,1,0,0,0,1,1,1,1,1,1,0,1,1,0,0,0]","door_history":"[1,1,1,1,1,0,1,1,0,1,0,0,0,1,1,1,1,1,1,0,1,1,0,0,0]","location_rts":"[1017,37,323,259,227,91,228,122,67,244,115,284,204,747,52,246,211,229,252,198,124,203,123,244,250]","trial_type":"two-door-navigation","trial_index":36,"time_elapsed":1194907,"internal_node_id":"0.0-2.0-34.0"},{"view_history":"[{\"page_index\":0,\"viewing_time\":85536}]","rt":85536,"trial_type":"instructions","trial_index":37,"time_elapsed":1281444,"internal_node_id":"0.0-3.0"},{"view_history":"[{\"page_index\":0,\"viewing_time\":4229},{\"page_index\":1,\"viewing_time\":18423}]","rt":22652,"trial_type":"instructions","trial_index":38,"time_elapsed":1305097,"internal_node_id":"0.0-4.0"},{"group":"dihedral group of order 12","fractal_assignment":["../images/org_blu.png","../images/grn_blu.png","../images/ylw_slt.png","../images/red_prp.png","../images/gry_blk.png","../images/grn_prp.png","../images/blu_wht.png","../images/wht_red.png","../images/grn_red.png","../images/ylw_pnk.png","../images/cyn_red.png","../images/pnk_blu.png"],"mutagen_generator_assignment":[1,0],"goal":4,"start":0,"action_noise":0.15,"location_history":"[0,6,11,10,9,8,7,6,0,6,11,5,0,1,2,8,2,8,2,8,7,1,2,8,7,1,7,1,7,1,7,6,11,10,9,3,9,8,2,3,9,8,7,6,11,10,4]","action_history":"[1,0,0,0,0,0,0,1,1,0,1,1,0,0,1,1,0,1,1,0,0,0,1,0,1,1,1,1,1,1,0,0,0,1,1,1,0,0,0,1,0,0,0,0,0,1]","mutagen_history":"[0,1,1,1,1,1,1,0,0,1,0,0,1,1,0,0,1,0,0,1,1,1,0,1,0,0,0,0,0,0,1,1,1,0,0,0,1,1,1,0,1,1,1,1,1,0]","location_rts":"[1280,2697,1389,428,379,353,393,597,532,877,310,285,371,298,242,232,134,240,190,1707,127,260,1351,835,1585,513,618,663,705,846,925,1269,6294,225,112,904,288,209,170,549,943,201,196,269,403,204]","trial_type":"fractal-mutation","trial_index":39,"time_elapsed":1393087,"internal_node_id":"0.0-5.0-0.0"},{"group":"dihedral group of order 12","fractal_assignment":["../images/org_blu.png","../images/grn_blu.png","../images/ylw_slt.png","../images/red_prp.png","../images/gry_blk.png","../images/grn_prp.png","../images/blu_wht.png","../images/wht_red.png","../images/grn_red.png","../images/ylw_pnk.png","../images/cyn_red.png","../images/pnk_blu.png"],"mutagen_generator_assignment":[1,0],"goal":9,"start":4,"action_noise":0.15,"location_history":"[4,10,4,10,9]","action_history":"[1,1,1,0]","mutagen_history":"[0,0,0,1]","location_rts":"[1329,490,298,235]","trial_type":"fractal-mutation","trial_index":40,"time_elapsed":1403152,"internal_node_id":"0.0-5.0-1.0"},{"group":"dihedral group of order 12","fractal_assignment":["../images/org_blu.png","../images/grn_blu.png","../images/ylw_slt.png","../images/red_prp.png","../images/gry_blk.png","../images/grn_prp.png","../images/blu_wht.png","../images/wht_red.png","../images/grn_red.png","../images/ylw_pnk.png","../images/cyn_red.png","../images/pnk_blu.png"],"mutagen_generator_assignment":[1,0],"goal":10,"start":9,"action_noise":0.15,"location_history":"[9,3,9,3,9,8,2,8,7,1,2,3,4,10]","action_history":"[1,1,1,1,0,0,1,0,1,0,0,0,1]","mutagen_history":"[0,0,0,0,1,1,0,1,0,1,1,1,0]","location_rts":"[1551,1256,376,457,251,1120,357,748,439,452,470,540,435]","trial_type":"fractal-mutation","trial_index":41,"time_elapsed":1429245,"internal_node_id":"0.0-5.0-2.0"},{"group":"dihedral group of order 12","fractal_assignment":["../images/org_blu.png","../images/grn_blu.png","../images/ylw_slt.png","../images/red_prp.png","../images/gry_blk.png","../images/grn_prp.png","../images/blu_wht.png","../images/wht_red.png","../images/grn_red.png","../images/ylw_pnk.png","../images/cyn_red.png","../images/pnk_blu.png"],"mutagen_generator_assignment":[1,0],"goal":2,"start":10,"action_noise":0.15,"location_history":"[10,9,8,7,6,11,5,11,5,0,1,7,1,2]","action_history":"[0,0,0,1,0,1,1,1,0,0,1,1,0]","mutagen_history":"[1,1,1,0,1,0,0,0,1,1,0,0,1]","location_rts":"[770,411,411,393,325,309,304,325,259,271,266,348,677]","trial_type":"fractal-mutation","trial_index":42,"time_elapsed":1452164,"internal_node_id":"0.0-5.0-3.0"},{"group":"dihedral group of order 12","fractal_assignment":["../images/org_blu.png","../images/grn_blu.png","../images/ylw_slt.png","../images/red_prp.png","../images/gry_blk.png","../images/grn_prp.png","../images/blu_wht.png","../images/wht_red.png","../images/grn_red.png","../images/ylw_pnk.png","../images/cyn_red.png","../images/pnk_blu.png"],"mutagen_generator_assignment":[1,0],"goal":5,"start":2,"action_noise":0.15,"location_history":"[2,8,7,1,2,3,4,10,4,5]","action_history":"[1,1,1,0,0,0,1,1,0]","mutagen_history":"[0,0,0,1,1,1,0,0,1]","location_rts":"[338,263,258,242,233,300,254,296,188]","trial_type":"fractal-mutation","trial_index":43,"time_elapsed":1467787,"internal_node_id":"0.0-5.0-4.0"},{"group":"dihedral group of order 12","fractal_assignment":["../images/org_blu.png","../images/grn_blu.png","../images/ylw_slt.png","../images/red_prp.png","../images/gry_blk.png","../images/grn_prp.png","../images/blu_wht.png","../images/wht_red.png","../images/grn_red.png","../images/ylw_pnk.png","../images/cyn_red.png","../images/pnk_blu.png"],"mutagen_generator_assignment":[1,0],"goal":11,"start":5,"action_noise":0.15,"location_history":"[5,11]","action_history":"[1]","mutagen_history":"[0]","location_rts":"[1323]","trial_type":"fractal-mutation","trial_index":44,"time_elapsed":1473634,"internal_node_id":"0.0-5.0-5.0"},{"group":"dihedral group of order 12","fractal_assignment":["../images/org_blu.png","../images/grn_blu.png","../images/ylw_slt.png","../images/red_prp.png","../images/gry_blk.png","../images/grn_prp.png","../images/blu_wht.png","../images/wht_red.png","../images/grn_red.png","../images/ylw_pnk.png","../images/cyn_red.png","../images/pnk_blu.png"],"mutagen_generator_assignment":[1,0],"goal":6,"start":11,"action_noise":0.15,"location_history":"[11,10,9,8,7,1,7,6]","action_history":"[1,0,0,0,1,1,0]","mutagen_history":"[0,1,1,1,0,0,1]","location_rts":"[1451,826,952,659,570,524,492]","trial_type":"fractal-mutation","trial_index":45,"time_elapsed":1490323,"internal_node_id":"0.0-5.0-6.0"},{"group":"dihedral group of order 12","fractal_assignment":["../images/org_blu.png","../images/grn_blu.png","../images/ylw_slt.png","../images/red_prp.png","../images/gry_blk.png","../images/grn_prp.png","../images/blu_wht.png","../images/wht_red.png","../images/grn_red.png","../images/ylw_pnk.png","../images/cyn_red.png","../images/pnk_blu.png"],"mutagen_generator_assignment":[1,0],"goal":3,"start":6,"action_noise":0.15,"location_history":"[6,0,6,0,1,7,6,11,5,0,1,2,3]","action_history":"[1,1,1,0,1,0,0,1,1,0,0,0]","mutagen_history":"[0,0,0,1,0,1,1,0,0,1,1,1]","location_rts":"[300,274,386,283,246,428,320,270,512,627,511,486]","trial_type":"fractal-mutation","trial_index":46,"time_elapsed":1511601,"internal_node_id":"0.0-5.0-7.0"},{"group":"dihedral group of order 12","fractal_assignment":["../images/org_blu.png","../images/grn_blu.png","../images/ylw_slt.png","../images/red_prp.png","../images/gry_blk.png","../images/grn_prp.png","../images/blu_wht.png","../images/wht_red.png","../images/grn_red.png","../images/ylw_pnk.png","../images/cyn_red.png","../images/pnk_blu.png"],"mutagen_generator_assignment":[1,0],"goal":8,"start":3,"action_noise":0.15,"location_history":"[3,9,3,4,5,11,5,0,1,2,3,9,8]","action_history":"[1,1,0,0,0,1,0,0,0,0,0,0]","mutagen_history":"[0,0,1,1,1,0,1,1,1,1,1,1]","location_rts":"[461,441,728,462,532,472,648,380,491,448,567,471]","trial_type":"fractal-mutation","trial_index":47,"time_elapsed":1534647,"internal_node_id":"0.0-5.0-8.0"},{"group":"dihedral group of order 12","fractal_assignment":["../images/org_blu.png","../images/grn_blu.png","../images/ylw_slt.png","../images/red_prp.png","../images/gry_blk.png","../images/grn_prp.png","../images/blu_wht.png","../images/wht_red.png","../images/grn_red.png","../images/ylw_pnk.png","../images/cyn_red.png","../images/pnk_blu.png"],"mutagen_generator_assignment":[1,0],"goal":1,"start":8,"action_noise":0.15,"location_history":"[8,7,6,11,10,9,8,2,8,7,6,0,6,0,1]","action_history":"[0,0,0,0,0,1,1,1,0,0,1,1,1,0]","mutagen_history":"[1,1,1,1,1,0,0,0,1,1,0,0,0,1]","location_rts":"[582,310,381,437,394,386,434,546,560,365,308,402,511,654]","trial_type":"fractal-mutation","trial_index":48,"time_elapsed":1559878,"internal_node_id":"0.0-5.0-9.0"},{"group":"dihedral group of order 12","fractal_assignment":["../images/org_blu.png","../images/grn_blu.png","../images/ylw_slt.png","../images/red_prp.png","../images/gry_blk.png","../images/grn_prp.png","../images/blu_wht.png","../images/wht_red.png","../images/grn_red.png","../images/ylw_pnk.png","../images/cyn_red.png","../images/pnk_blu.png"],"mutagen_generator_assignment":[1,0],"goal":7,"start":1,"action_noise":0.15,"location_history":"[1,2,8,2,8,2,3,4,10,4,10,9,8,2,8,2,8,7]","action_history":"[0,0,1,1,1,0,0,1,1,1,0,0,1,1,1,1,0]","mutagen_history":"[1,1,0,0,0,1,1,0,0,0,1,1,0,0,0,0,1]","location_rts":"[328,397,482,368,402,354,274,311,300,355,342,223,307,207,250,252,97]","trial_type":"fractal-mutation","trial_index":49,"time_elapsed":1587239,"internal_node_id":"0.0-5.0-10.0"},{"group":"dihedral group of order 12","fractal_assignment":["../images/org_blu.png","../images/grn_blu.png","../images/ylw_slt.png","../images/red_prp.png","../images/gry_blk.png","../images/grn_prp.png","../images/blu_wht.png","../images/wht_red.png","../images/grn_red.png","../images/ylw_pnk.png","../images/cyn_red.png","../images/pnk_blu.png"],"mutagen_generator_assignment":[1,0],"goal":5,"start":7,"action_noise":0.15,"location_history":"[7,6,0,6,11,10,4,5]","action_history":"[1,1,1,0,0,0,0]","mutagen_history":"[0,0,0,1,1,1,1]","location_rts":"[278,203,211,138,214,262,286]","trial_type":"fractal-mutation","trial_index":50,"time_elapsed":1600083,"internal_node_id":"0.0-5.0-11.0"},{"group":"dihedral group of order 12","fractal_assignment":["../images/org_blu.png","../images/grn_blu.png","../images/ylw_slt.png","../images/red_prp.png","../images/gry_blk.png","../images/grn_prp.png","../images/blu_wht.png","../images/wht_red.png","../images/grn_red.png","../images/ylw_pnk.png","../images/cyn_red.png","../images/pnk_blu.png"],"mutagen_generator_assignment":[1,0],"goal":8,"start":5,"action_noise":0.15,"location_history":"[5,11,10,4,5,11,5,11,10,9,8]","action_history":"[1,0,0,0,1,1,1,0,0,0]","mutagen_history":"[0,1,1,1,0,0,0,1,1,1]","location_rts":"[274,178,255,219,288,278,282,257,192,255]","trial_type":"fractal-mutation","trial_index":51,"time_elapsed":1617157,"internal_node_id":"0.0-5.0-12.0"},{"group":"dihedral group of order 12","fractal_assignment":["../images/org_blu.png","../images/grn_blu.png","../images/ylw_slt.png","../images/red_prp.png","../images/gry_blk.png","../images/grn_prp.png","../images/blu_wht.png","../images/wht_red.png","../images/grn_red.png","../images/ylw_pnk.png","../images/cyn_red.png","../images/pnk_blu.png"],"mutagen_generator_assignment":[1,0],"goal":11,"start":8,"action_noise":0.15,"location_history":"[8,7,6,11]","action_history":"[0,0,0]","mutagen_history":"[1,1,1]","location_rts":"[457,226,267]","trial_type":"fractal-mutation","trial_index":52,"time_elapsed":1625017,"internal_node_id":"0.0-5.0-13.0"},{"group":"dihedral group of order 12","fractal_assignment":["../images/org_blu.png","../images/grn_blu.png","../images/ylw_slt.png","../images/red_prp.png","../images/gry_blk.png","../images/grn_prp.png","../images/blu_wht.png","../images/wht_red.png","../images/grn_red.png","../images/ylw_pnk.png","../images/cyn_red.png","../images/pnk_blu.png"],"mutagen_generator_assignment":[1,0],"goal":6,"start":11,"action_noise":0.15,"location_history":"[11,5,11,10,4,5,0,1,2,8,7,1,7,6]","action_history":"[1,1,0,1,0,0,0,0,1,0,1,1,0]","mutagen_history":"[0,0,1,0,1,1,1,1,0,1,0,0,1]","location_rts":"[324,379,601,278,1080,1248,475,563,454,754,495,362,458]","trial_type":"fractal-mutation","trial_index":53,"time_elapsed":1650293,"internal_node_id":"0.0-5.0-14.0"},{"group":"dihedral group of order 12","fractal_assignment":["../images/org_blu.png","../images/grn_blu.png","../images/ylw_slt.png","../images/red_prp.png","../images/gry_blk.png","../images/grn_prp.png","../images/blu_wht.png","../images/wht_red.png","../images/grn_red.png","../images/ylw_pnk.png","../images/cyn_red.png","../images/pnk_blu.png"],"mutagen_generator_assignment":[1,0],"goal":7,"start":6,"action_noise":0.15,"location_history":"[6,0,1,7]","action_history":"[1,1,1]","mutagen_history":"[0,0,0]","location_rts":"[673,345,338]","trial_type":"fractal-mutation","trial_index":54,"time_elapsed":1658218,"internal_node_id":"0.0-5.0-15.0"},{"group":"dihedral group of order 12","fractal_assignment":["../images/org_blu.png","../images/grn_blu.png","../images/ylw_slt.png","../images/red_prp.png","../images/gry_blk.png","../images/grn_prp.png","../images/blu_wht.png","../images/wht_red.png","../images/grn_red.png","../images/ylw_pnk.png","../images/cyn_red.png","../images/pnk_blu.png"],"mutagen_generator_assignment":[1,0],"goal":10,"start":7,"action_noise":0.15,"location_history":"[7,6,11,5,11,5,11,10]","action_history":"[0,0,0,0,0,1,1]","mutagen_history":"[1,1,1,1,1,0,0]","location_rts":"[284,252,248,274,177,183,236]","trial_type":"fractal-mutation","trial_index":55,"time_elapsed":1671163,"internal_node_id":"0.0-5.0-16.0"},{"group":"dihedral group of order 12","fractal_assignment":["../images/org_blu.png","../images/grn_blu.png","../images/ylw_slt.png","../images/red_prp.png","../images/gry_blk.png","../images/grn_prp.png","../images/blu_wht.png","../images/wht_red.png","../images/grn_red.png","../images/ylw_pnk.png","../images/cyn_red.png","../images/pnk_blu.png"],"mutagen_generator_assignment":[1,0],"goal":0,"start":10,"action_noise":0.15,"location_history":"[10,4,5,11,10,4,10,4,5,0]","action_history":"[1,0,1,1,1,1,1,0,0]","mutagen_history":"[0,1,0,0,0,0,0,1,1]","location_rts":"[275,219,417,370,419,414,922,509,499]","trial_type":"fractal-mutation","trial_index":56,"time_elapsed":1688525,"internal_node_id":"0.0-5.0-17.0"},{"group":"dihedral group of order 12","fractal_assignment":["../images/org_blu.png","../images/grn_blu.png","../images/ylw_slt.png","../images/red_prp.png","../images/gry_blk.png","../images/grn_prp.png","../images/blu_wht.png","../images/wht_red.png","../images/grn_red.png","../images/ylw_pnk.png","../images/cyn_red.png","../images/pnk_blu.png"],"mutagen_generator_assignment":[1,0],"goal":9,"start":0,"action_noise":0.15,"location_history":"[0,6,0,6,11,10,9]","action_history":"[1,1,1,0,0,0]","mutagen_history":"[0,0,0,1,1,1]","location_rts":"[841,377,566,409,364,349]","trial_type":"fractal-mutation","trial_index":57,"time_elapsed":1701438,"internal_node_id":"0.0-5.0-18.0"},{"group":"dihedral group of order 12","fractal_assignment":["../images/org_blu.png","../images/grn_blu.png","../images/ylw_slt.png","../images/red_prp.png","../images/gry_blk.png","../images/grn_prp.png","../images/blu_wht.png","../images/wht_red.png","../images/grn_red.png","../images/ylw_pnk.png","../images/cyn_red.png","../images/pnk_blu.png"],"mutagen_generator_assignment":[1,0],"goal":4,"start":9,"action_noise":0.15,"location_history":"[9,3,9,3,9,8,2,8,2,8,2,3,4]","action_history":"[1,1,1,0,0,1,1,1,1,1,0,1]","mutagen_history":"[0,0,0,1,1,0,0,0,0,0,1,0]","location_rts":"[983,354,354,296,375,333,396,387,335,464,371,474]","trial_type":"fractal-mutation","trial_index":58,"time_elapsed":1723021,"internal_node_id":"0.0-5.0-19.0"},{"group":"dihedral group of order 12","fractal_assignment":["../images/org_blu.png","../images/grn_blu.png","../images/ylw_slt.png","../images/red_prp.png","../images/gry_blk.png","../images/grn_prp.png","../images/blu_wht.png","../images/wht_red.png","../images/grn_red.png","../images/ylw_pnk.png","../images/cyn_red.png","../images/pnk_blu.png"],"mutagen_generator_assignment":[1,0],"goal":2,"start":4,"action_noise":0.15,"location_history":"[4,5,0,1,2]","action_history":"[0,0,0,0]","mutagen_history":"[1,1,1,1]","location_rts":"[817,277,269,518]","trial_type":"fractal-mutation","trial_index":59,"time_elapsed":1732924,"internal_node_id":"0.0-5.0-20.0"},{"group":"dihedral group of order 12","fractal_assignment":["../images/org_blu.png","../images/grn_blu.png","../images/ylw_slt.png","../images/red_prp.png","../images/gry_blk.png","../images/grn_prp.png","../images/blu_wht.png","../images/wht_red.png","../images/grn_red.png","../images/ylw_pnk.png","../images/cyn_red.png","../images/pnk_blu.png"],"mutagen_generator_assignment":[1,0],"goal":1,"start":2,"action_noise":0.15,"location_history":"[2,8,2,8,2,8,7,6,11,5,11,5,11,5,0,1]","action_history":"[1,1,1,0,1,0,0,0,1,1,1,1,1,0,0]","mutagen_history":"[0,0,0,1,0,1,1,1,0,0,0,0,0,1,1]","location_rts":"[282,250,265,338,476,306,316,426,382,295,356,433,351,443,338]","trial_type":"fractal-mutation","trial_index":60,"time_elapsed":1758096,"internal_node_id":"0.0-5.0-21.0"},{"group":"dihedral group of order 12","fractal_assignment":["../images/org_blu.png","../images/grn_blu.png","../images/ylw_slt.png","../images/red_prp.png","../images/gry_blk.png","../images/grn_prp.png","../images/blu_wht.png","../images/wht_red.png","../images/grn_red.png","../images/ylw_pnk.png","../images/cyn_red.png","../images/pnk_blu.png"],"mutagen_generator_assignment":[1,0],"goal":3,"start":1,"action_noise":0.15,"location_history":"[1,7,6,11,10,4,10,4,10,4,10,9,3]","action_history":"[1,0,0,1,1,1,1,1,1,0,0,1]","mutagen_history":"[0,1,1,0,0,0,0,0,0,1,1,0]","location_rts":"[556,298,259,250,291,336,343,388,445,426,383,437]","trial_type":"fractal-mutation","trial_index":61,"time_elapsed":1779053,"internal_node_id":"0.0-5.0-22.0"},{"group":"dihedral group of order 12","fractal_assignment":["../images/org_blu.png","../images/grn_blu.png","../images/ylw_slt.png","../images/red_prp.png","../images/gry_blk.png","../images/grn_prp.png","../images/blu_wht.png","../images/wht_red.png","../images/grn_red.png","../images/ylw_pnk.png","../images/cyn_red.png","../images/pnk_blu.png"],"mutagen_generator_assignment":[1,0],"goal":7,"start":3,"action_noise":0.15,"location_history":"[3,9,8,7]","action_history":"[0,0,1]","mutagen_history":"[1,1,0]","location_rts":"[1832,344,745]","trial_type":"fractal-mutation","trial_index":62,"time_elapsed":1788830,"internal_node_id":"0.0-5.0-23.0"},{"group":"dihedral group of order 12","fractal_assignment":["../images/org_blu.png","../images/grn_blu.png","../images/ylw_slt.png","../images/red_prp.png","../images/gry_blk.png","../images/grn_prp.png","../images/blu_wht.png","../images/wht_red.png","../images/grn_red.png","../images/ylw_pnk.png","../images/cyn_red.png","../images/pnk_blu.png"],"mutagen_generator_assignment":[1,0],"goal":6,"start":7,"action_noise":0.15,"location_history":"[7,1,2,3,9,8,2,3,9,8,2,8,7,6]","action_history":"[1,0,0,1,1,1,0,1,0,1,1,0,0]","mutagen_history":"[0,1,1,0,0,0,1,0,1,0,0,1,1]","location_rts":"[255,307,232,331,348,330,332,252,521,314,460,208,257]","trial_type":"fractal-mutation","trial_index":63,"time_elapsed":1810806,"internal_node_id":"0.0-5.0-24.0"},{"group":"dihedral group of order 12","fractal_assignment":["../images/org_blu.png","../images/grn_blu.png","../images/ylw_slt.png","../images/red_prp.png","../images/gry_blk.png","../images/grn_prp.png","../images/blu_wht.png","../images/wht_red.png","../images/grn_red.png","../images/ylw_pnk.png","../images/cyn_red.png","../images/pnk_blu.png"],"mutagen_generator_assignment":[1,0],"goal":2,"start":6,"action_noise":0.15,"location_history":"[6,11,5,11,5,11,5,11,5,11,10,9,3,9,3,4,5,11,10,9,3,9,8,7,6,0,6,0,6,0,6,0,6,11,5,11,5,11,5,11,10,9,8,7,1,7,1,7,1,7,6,0,1,2]","action_history":"[0,0,1,1,1,1,0,1,1,0,1,1,1,1,0,0,1,1,1,1,1,0,0,0,1,1,1,1,1,0,0,1,1,1,1,1,1,0,0,0,0,0,0,1,1,1,1,1,1,0,1,0,0]","mutagen_history":"[1,1,0,0,0,0,1,0,0,1,0,0,0,0,1,1,0,0,0,0,0,1,1,1,0,0,0,0,0,1,1,0,0,0,0,0,0,1,1,1,1,1,1,0,0,0,0,0,0,1,0,1,1]","location_rts":"[263,256,254,189,278,328,346,347,294,296,438,301,296,322,279,311,272,244,299,480,427,466,208,298,322,275,343,457,330,473,380,248,221,316,303,314,355,328,96,258,303,241,284,294,346,310,455,266,285,226,263,252,791]","trial_type":"fractal-mutation","trial_index":64,"time_elapsed":1889340,"internal_node_id":"0.0-5.0-25.0"},{"group":"dihedral group of order 12","fractal_assignment":["../images/org_blu.png","../images/grn_blu.png","../images/ylw_slt.png","../images/red_prp.png","../images/gry_blk.png","../images/grn_prp.png","../images/blu_wht.png","../images/wht_red.png","../images/grn_red.png","../images/ylw_pnk.png","../images/cyn_red.png","../images/pnk_blu.png"],"mutagen_generator_assignment":[1,0],"goal":8,"start":2,"action_noise":0.15,"location_history":"[2,8]","action_history":"[1]","mutagen_history":"[0]","location_rts":"[376]","trial_type":"fractal-mutation","trial_index":65,"time_elapsed":1894241,"internal_node_id":"0.0-5.0-26.0"},{"group":"dihedral group of order 12","fractal_assignment":["../images/org_blu.png","../images/grn_blu.png","../images/ylw_slt.png","../images/red_prp.png","../images/gry_blk.png","../images/grn_prp.png","../images/blu_wht.png","../images/wht_red.png","../images/grn_red.png","../images/ylw_pnk.png","../images/cyn_red.png","../images/pnk_blu.png"],"mutagen_generator_assignment":[1,0],"goal":0,"start":8,"action_noise":0.15,"location_history":"[8,7,1,7,6,11,5,11,5,0]","action_history":"[0,1,1,0,0,1,1,1,0]","mutagen_history":"[1,0,0,1,1,0,0,0,1]","location_rts":"[827,569,336,429,337,456,478,422,378]","trial_type":"fractal-mutation","trial_index":66,"time_elapsed":1911885,"internal_node_id":"0.0-5.0-27.0"},{"group":"dihedral group of order 12","fractal_assignment":["../images/org_blu.png","../images/grn_blu.png","../images/ylw_slt.png","../images/red_prp.png","../images/gry_blk.png","../images/grn_prp.png","../images/blu_wht.png","../images/wht_red.png","../images/grn_red.png","../images/ylw_pnk.png","../images/cyn_red.png","../images/pnk_blu.png"],"mutagen_generator_assignment":[1,0],"goal":3,"start":0,"action_noise":0.15,"location_history":"[0,1,2,3]","action_history":"[0,0,0]","mutagen_history":"[1,1,1]","location_rts":"[847,362,325]","trial_type":"fractal-mutation","trial_index":67,"time_elapsed":1920347,"internal_node_id":"0.0-5.0-28.0"},{"group":"dihedral group of order 12","fractal_assignment":["../images/org_blu.png","../images/grn_blu.png","../images/ylw_slt.png","../images/red_prp.png","../images/gry_blk.png","../images/grn_prp.png","../images/blu_wht.png","../images/wht_red.png","../images/grn_red.png","../images/ylw_pnk.png","../images/cyn_red.png","../images/pnk_blu.png"],"mutagen_generator_assignment":[1,0],"goal":4,"start":3,"action_noise":0.15,"location_history":"[3,9,3,9,3,4]","action_history":"[1,1,1,0,0]","mutagen_history":"[0,0,0,1,1]","location_rts":"[409,275,234,243,243]","trial_type":"fractal-mutation","trial_index":68,"time_elapsed":1930599,"internal_node_id":"0.0-5.0-29.0"},{"group":"dihedral group of order 12","fractal_assignment":["../images/org_blu.png","../images/grn_blu.png","../images/ylw_slt.png","../images/red_prp.png","../images/gry_blk.png","../images/grn_prp.png","../images/blu_wht.png","../images/wht_red.png","../images/grn_red.png","../images/ylw_pnk.png","../images/cyn_red.png","../images/pnk_blu.png"],"mutagen_generator_assignment":[1,0],"goal":10,"start":4,"action_noise":0.15,"location_history":"[4,10]","action_history":"[1]","mutagen_history":"[0]","location_rts":"[573]","trial_type":"fractal-mutation","trial_index":69,"time_elapsed":1935698,"internal_node_id":"0.0-5.0-30.0"},{"group":"dihedral group of order 12","fractal_assignment":["../images/org_blu.png","../images/grn_blu.png","../images/ylw_slt.png","../images/red_prp.png","../images/gry_blk.png","../images/grn_prp.png","../images/blu_wht.png","../images/wht_red.png","../images/grn_red.png","../images/ylw_pnk.png","../images/cyn_red.png","../images/pnk_blu.png"],"mutagen_generator_assignment":[1,0],"goal":11,"start":10,"action_noise":0.15,"location_history":"[10,4,5,11]","action_history":"[0,0,1]","mutagen_history":"[1,1,0]","location_rts":"[770,440,428]","trial_type":"fractal-mutation","trial_index":70,"time_elapsed":1944178,"internal_node_id":"0.0-5.0-31.0"},{"group":"dihedral group of order 12","fractal_assignment":["../images/org_blu.png","../images/grn_blu.png","../images/ylw_slt.png","../images/red_prp.png","../images/gry_blk.png","../images/grn_prp.png","../images/blu_wht.png","../images/wht_red.png","../images/grn_red.png","../images/ylw_pnk.png","../images/cyn_red.png","../images/pnk_blu.png"],"mutagen_generator_assignment":[1,0],"goal":1,"start":11,"action_noise":0.15,"location_history":"[11,5,0,1]","action_history":"[1,0,1]","mutagen_history":"[0,1,0]","location_rts":"[561,427,383]","trial_type":"fractal-mutation","trial_index":71,"time_elapsed":1952294,"internal_node_id":"0.0-5.0-32.0"},{"group":"dihedral group of order 12","fractal_assignment":["../images/org_blu.png","../images/grn_blu.png","../images/ylw_slt.png","../images/red_prp.png","../images/gry_blk.png","../images/grn_prp.png","../images/blu_wht.png","../images/wht_red.png","../images/grn_red.png","../images/ylw_pnk.png","../images/cyn_red.png","../images/pnk_blu.png"],"mutagen_generator_assignment":[1,0],"goal":5,"start":1,"action_noise":0.15,"location_history":"[1,2,3,4,10,4,10,9,3,9,3,4,5]","action_history":"[0,0,0,1,1,1,0,1,1,1,0,0]","mutagen_history":"[1,1,1,0,0,0,1,0,0,0,1,1]","location_rts":"[452,299,305,446,455,329,632,390,457,401,424,350]","trial_type":"fractal-mutation","trial_index":72,"time_elapsed":1974035,"internal_node_id":"0.0-5.0-33.0"},{"group":"dihedral group of order 12","fractal_assignment":["../images/org_blu.png","../images/grn_blu.png","../images/ylw_slt.png","../images/red_prp.png","../images/gry_blk.png","../images/grn_prp.png","../images/blu_wht.png","../images/wht_red.png","../images/grn_red.png","../images/ylw_pnk.png","../images/cyn_red.png","../images/pnk_blu.png"],"mutagen_generator_assignment":[1,0],"goal":9,"start":5,"action_noise":0.15,"location_history":"[5,11,5,11,5,0,1,7,1,2,3,4,10,4,10,4,5,0,1,7,1,7,1,7,6,11,10,9]","action_history":"[1,1,1,0,0,0,1,1,0,0,0,1,1,1,1,0,0,1,1,1,1,1,0,0,0,0,0]","mutagen_history":"[0,0,0,1,1,1,0,0,1,1,1,0,0,0,0,1,1,0,0,0,0,0,1,1,1,1,1]","location_rts":"[552,283,495,363,378,481,333,433,295,284,288,338,256,386,375,412,272,540,326,339,367,502,410,259,300,268,260]","trial_type":"fractal-mutation","trial_index":73,"time_elapsed":2017025,"internal_node_id":"0.0-5.0-34.0"},{"view_history":"[{\"page_index\":0,\"viewing_time\":35432}]","rt":35433,"trial_type":"instructions","trial_index":74,"time_elapsed":2053458,"internal_node_id":"0.0-6.0"},{"rt":23056,"responses":"{\"Q0\":\"Challenging, but interesting. Looking forward to the next ones.\"}","trial_type":"survey-text","trial_index":75,"time_elapsed":2077519,"internal_node_id":"0.0-7.0"}]