[{"view_history":"[{\"page_index\":0,\"viewing_time\":7306},{\"page_index\":1,\"viewing_time\":2744},{\"page_index\":0,\"viewing_time\":1455},{\"page_index\":1,\"viewing_time\":49890},{\"page_index\":2,\"viewing_time\":22611},{\"page_index\":3,\"viewing_time\":2245}]","rt":86253,"trial_type":"instructions","trial_index":0,"time_elapsed":86255,"internal_node_id":"0.0-0.0"},{"view_history":"[{\"page_index\":0,\"viewing_time\":5296},{\"page_index\":1,\"viewing_time\":60477}]","rt":65774,"trial_type":"instructions","trial_index":1,"time_elapsed":153032,"internal_node_id":"0.0-1.0"},{"group":"dihedral group of order 12","room_assignment":["orange","green","red","olive","pink","cyan","yellow","purple","blue","brown","grey","ivory"],"door_color_assignment":["black","white"],"door_generator_assignment":[1,0],"goal":4,"start":0,"action_noise":0.15,"location_history":"[0,1,7,6,0,1,2,3,4]","action_history":"[0,0,0,1,0,0,0,0]","door_history":"[1,1,1,0,1,1,1,1]","location_rts":"[4993,4317,4479,4050,5831,1617,2314,1441]","trial_type":"two-door-navigation","trial_index":2,"time_elapsed":193788,"internal_node_id":"0.0-2.0-0.0"},{"group":"dihedral group of order 12","room_assignment":["orange","green","red","olive","pink","cyan","yellow","purple","blue","brown","grey","ivory"],"door_color_assignment":["black","white"],"door_generator_assignment":[1,0],"goal":9,"start":4,"action_noise":0.15,"location_history":"[4,5,11,10,9]","action_history":"[0,0,0,0]","door_history":"[1,1,1,1]","location_rts":"[4029,352,338,449]","trial_type":"two-door-navigation","trial_index":3,"time_elapsed":206557,"internal_node_id":"0.0-2.0-1.0"},{"group":"dihedral group of order 12","room_assignment":["orange","green","red","olive","pink","cyan","yellow","purple","blue","brown","grey","ivory"],"door_color_assignment":["black","white"],"door_generator_assignment":[1,0],"goal":10,"start":9,"action_noise":0.15,"location_history":"[9,8,7,6,11,10]","action_history":"[0,0,0,0,0]","door_history":"[1,1,1,1,1]","location_rts":"[2235,398,592,355,503]","trial_type":"two-door-navigation","trial_index":4,"time_elapsed":219263,"internal_node_id":"0.0-2.0-2.0"},{"group":"dihedral group of order 12","room_assignment":["orange","green","red","olive","pink","cyan","yellow","purple","blue","brown","grey","ivory"],"door_color_assignment":["black","white"],"door_generator_assignment":[1,0],"goal":2,"start":10,"action_noise":0.15,"location_history":"[10,9,3,4,5,0,1,2]","action_history":"[0,0,0,0,0,0,0]","door_history":"[1,1,1,1,1,1,1]","location_rts":"[1806,263,272,474,525,271,266]","trial_type":"two-door-navigation","trial_index":5,"time_elapsed":233810,"internal_node_id":"0.0-2.0-3.0"},{"group":"dihedral group of order 12","room_assignment":["orange","green","red","olive","pink","cyan","yellow","purple","blue","brown","grey","ivory"],"door_color_assignment":["black","white"],"door_generator_assignment":[1,0],"goal":5,"start":2,"action_noise":0.15,"location_history":"[2,3,9,3,9,8,2,8,2,8,2,3,4,5]","action_history":"[0,1,1,1,1,1,1,1,1,0,0,0,0]","door_history":"[1,0,0,0,0,0,0,0,0,1,1,1,1]","location_rts":"[1808,760,562,604,401,554,513,421,410,588,326,229,249]","trial_type":"two-door-navigation","trial_index":6,"time_elapsed":258041,"internal_node_id":"0.0-2.0-4.0"},{"group":"dihedral group of order 12","room_assignment":["orange","green","red","olive","pink","cyan","yellow","purple","blue","brown","grey","ivory"],"door_color_assignment":["black","white"],"door_generator_assignment":[1,0],"goal":11,"start":5,"action_noise":0.15,"location_history":"[5,11]","action_history":"[0]","door_history":"[1]","location_rts":"[5200]","trial_type":"two-door-navigation","trial_index":7,"time_elapsed":267771,"internal_node_id":"0.0-2.0-5.0"},{"group":"dihedral group of order 12","room_assignment":["orange","green","red","olive","pink","cyan","yellow","purple","blue","brown","grey","ivory"],"door_color_assignment":["black","white"],"door_generator_assignment":[1,0],"goal":6,"start":11,"action_noise":0.15,"location_history":"[11,10,4,5,0,1,2,8,7,1,2,8,7,6]","action_history":"[0,0,0,0,0,0,0,0,0,0,0,0,0]","door_history":"[1,1,1,1,1,1,1,1,1,1,1,1,1]","location_rts":"[1885,217,469,1012,879,365,1089,353,945,907,536,321,2466]","trial_type":"two-door-navigation","trial_index":8,"time_elapsed":296047,"internal_node_id":"0.0-2.0-6.0"},{"group":"dihedral group of order 12","room_assignment":["orange","green","red","olive","pink","cyan","yellow","purple","blue","brown","grey","ivory"],"door_color_assignment":["black","white"],"door_generator_assignment":[1,0],"goal":3,"start":6,"action_noise":0.15,"location_history":"[6,11,10,9,3]","action_history":"[0,0,0,0]","door_history":"[1,1,1,1]","location_rts":"[1535,1162,1280,396]","trial_type":"two-door-navigation","trial_index":9,"time_elapsed":308032,"internal_node_id":"0.0-2.0-7.0"},{"group":"dihedral group of order 12","room_assignment":["orange","green","red","olive","pink","cyan","yellow","purple","blue","brown","grey","ivory"],"door_color_assignment":["black","white"],"door_generator_assignment":[1,0],"goal":8,"start":3,"action_noise":0.15,"location_history":"[3,4,5,0,1,2,3,4,5,11,10,9,8]","action_history":"[0,0,0,0,0,0,0,0,0,0,0,0]","door_history":"[1,1,1,1,1,1,1,1,1,1,1,1]","location_rts":"[2721,351,571,799,1750,395,438,454,578,314,481,570]","trial_type":"two-door-navigation","trial_index":10,"time_elapsed":333239,"internal_node_id":"0.0-2.0-8.0"},{"group":"dihedral group of order 12","room_assignment":["orange","green","red","olive","pink","cyan","yellow","purple","blue","brown","grey","ivory"],"door_color_assignment":["black","white"],"door_generator_assignment":[1,0],"goal":1,"start":8,"action_noise":0.15,"location_history":"[8,7,1]","action_history":"[0,0]","door_history":"[1,1]","location_rts":"[5447,648]","trial_type":"two-door-navigation","trial_index":11,"time_elapsed":344890,"internal_node_id":"0.0-2.0-9.0"},{"group":"dihedral group of order 12","room_assignment":["orange","green","red","olive","pink","cyan","yellow","purple","blue","brown","grey","ivory"],"door_color_assignment":["black","white"],"door_generator_assignment":[1,0],"goal":7,"start":1,"action_noise":0.15,"location_history":"[1,7]","action_history":"[0]","door_history":"[1]","location_rts":"[1601]","trial_type":"two-door-navigation","trial_index":12,"time_elapsed":351019,"internal_node_id":"0.0-2.0-10.0"},{"group":"dihedral group of order 12","room_assignment":["orange","green","red","olive","pink","cyan","yellow","purple","blue","brown","grey","ivory"],"door_color_assignment":["black","white"],"door_generator_assignment":[1,0],"goal":5,"start":7,"action_noise":0.15,"location_history":"[7,6,11,10,4,5]","action_history":"[0,0,0,1,0]","door_history":"[1,1,1,0,1]","location_rts":"[2061,221,295,657,356]","trial_type":"two-door-navigation","trial_index":13,"time_elapsed":363238,"internal_node_id":"0.0-2.0-11.0"},{"group":"dihedral group of order 12","room_assignment":["orange","green","red","olive","pink","cyan","yellow","purple","blue","brown","grey","ivory"],"door_color_assignment":["black","white"],"door_generator_assignment":[1,0],"goal":8,"start":5,"action_noise":0.15,"location_history":"[5,11,10,9,8]","action_history":"[1,0,0,0]","door_history":"[0,1,1,1]","location_rts":"[1023,626,329,441]","trial_type":"two-door-navigation","trial_index":14,"time_elapsed":373265,"internal_node_id":"0.0-2.0-12.0"},{"group":"dihedral group of order 12","room_assignment":["orange","green","red","olive","pink","cyan","yellow","purple","blue","brown","grey","ivory"],"door_color_assignment":["black","white"],"door_generator_assignment":[1,0],"goal":11,"start":8,"action_noise":0.15,"location_history":"[8,7,1,2,3,9,8,7,6,11]","action_history":"[0,1,0,0,0,0,0,0,0]","door_history":"[1,0,1,1,1,1,1,1,1]","location_rts":"[1464,378,388,487,775,683,332,537,407]","trial_type":"two-door-navigation","trial_index":15,"time_elapsed":391442,"internal_node_id":"0.0-2.0-13.0"},{"group":"dihedral group of order 12","room_assignment":["orange","green","red","olive","pink","cyan","yellow","purple","blue","brown","grey","ivory"],"door_color_assignment":["black","white"],"door_generator_assignment":[1,0],"goal":6,"start":11,"action_noise":0.15,"location_history":"[11,10,4,5,0,6]","action_history":"[0,1,0,0,0]","door_history":"[1,0,1,1,1]","location_rts":"[31209,775,586,1178,701]","trial_type":"two-door-navigation","trial_index":16,"time_elapsed":434513,"internal_node_id":"0.0-2.0-14.0"},{"group":"dihedral group of order 12","room_assignment":["orange","green","red","olive","pink","cyan","yellow","purple","blue","brown","grey","ivory"],"door_color_assignment":["black","white"],"door_generator_assignment":[1,0],"goal":7,"start":6,"action_noise":0.15,"location_history":"[6,11,10,9,8,7]","action_history":"[0,0,0,0,0]","door_history":"[1,1,1,1,1]","location_rts":"[13270,816,401,490,421]","trial_type":"two-door-navigation","trial_index":17,"time_elapsed":458531,"internal_node_id":"0.0-2.0-15.0"},{"group":"dihedral group of order 12","room_assignment":["orange","green","red","olive","pink","cyan","yellow","purple","blue","brown","grey","ivory"],"door_color_assignment":["black","white"],"door_generator_assignment":[1,0],"goal":10,"start":7,"action_noise":0.15,"location_history":"[7,6,0,1,2,3,4,5,0,1,2,3,4,5,0,1,2,3,4,5,0,1,7,1,7,1,2,3,9,8,7,6,11,10]","action_history":"[0,1,0,0,0,0,0,0,0,0,0,0,0,0,0,0,0,0,0,0,1,1,1,1,1,0,0,0,0,0,0,0,0]","door_history":"[1,0,1,1,1,1,1,1,1,1,1,1,1,1,1,1,1,1,1,1,0,0,0,0,0,1,1,1,1,1,1,1,1]","location_rts":"[1707,298,306,2396,5886,794,6785,1304,1668,1304,1091,1042,26415,2950,4095,7845,4448,5541,1781,2406,3172,689,5738,1450,7623,2265,755,1669,2298,5502,946,6042,4276]","trial_type":"two-door-navigation","trial_index":18,"time_elapsed":618311,"internal_node_id":"0.0-2.0-16.0"},{"group":"dihedral group of order 12","room_assignment":["orange","green","red","olive","pink","cyan","yellow","purple","blue","brown","grey","ivory"],"door_color_assignment":["black","white"],"door_generator_assignment":[1,0],"goal":0,"start":10,"action_noise":0.15,"location_history":"[10,9,8,7,6,11,10,9,8,2,8,7,1,2,3,9,8,7,6,11,5,0]","action_history":"[0,0,0,0,0,0,0,0,1,0,0,0,0,0,0,0,0,0,0,0,0]","door_history":"[1,1,1,1,1,1,1,1,0,1,1,1,1,1,1,1,1,1,1,1,1]","location_rts":"[6062,1748,2377,937,4428,5218,11751,1468,2564,1722,625,946,1145,812,1133,571,592,647,645,4627,4373]","trial_type":"two-door-navigation","trial_index":19,"time_elapsed":697696,"internal_node_id":"0.0-2.0-17.0"},{"group":"dihedral group of order 12","room_assignment":["orange","green","red","olive","pink","cyan","yellow","purple","blue","brown","grey","ivory"],"door_color_assignment":["black","white"],"door_generator_assignment":[1,0],"goal":9,"start":0,"action_noise":0.15,"location_history":"[0,1,2,3,4,5,0,1,2,8,2,8,7,6,11,10,9]","action_history":"[0,0,0,0,0,0,0,0,1,1,1,0,0,0,0,0]","door_history":"[1,1,1,1,1,1,1,1,0,0,0,1,1,1,1,1]","location_rts":"[2721,6161,2707,432,428,1474,995,396,1778,591,617,1649,905,1207,1196,621]","trial_type":"two-door-navigation","trial_index":20,"time_elapsed":741455,"internal_node_id":"0.0-2.0-18.0"},{"group":"dihedral group of order 12","room_assignment":["orange","green","red","olive","pink","cyan","yellow","purple","blue","brown","grey","ivory"],"door_color_assignment":["black","white"],"door_generator_assignment":[1,0],"goal":4,"start":9,"action_noise":0.15,"location_history":"[9,3,4]","action_history":"[0,0]","door_history":"[1,1]","location_rts":"[1948,349]","trial_type":"two-door-navigation","trial_index":21,"time_elapsed":749303,"internal_node_id":"0.0-2.0-19.0"},{"group":"dihedral group of order 12","room_assignment":["orange","green","red","olive","pink","cyan","yellow","purple","blue","brown","grey","ivory"],"door_color_assignment":["black","white"],"door_generator_assignment":[1,0],"goal":2,"start":4,"action_noise":0.15,"location_history":"[4,5,0,1,2]","action_history":"[0,1,0,0]","door_history":"[1,0,1,1]","location_rts":"[1499,1526,1739,724]","trial_type":"two-door-navigation","trial_index":22,"time_elapsed":762389,"internal_node_id":"0.0-2.0-20.0"},{"group":"dihedral group of order 12","room_assignment":["orange","green","red","olive","pink","cyan","yellow","purple","blue","brown","grey","ivory"],"door_color_assignment":["black","white"],"door_generator_assignment":[1,0],"goal":1,"start":2,"action_noise":0.15,"location_history":"[2,8,7,6,11,10,9,8,7,1]","action_history":"[1,0,0,0,0,0,0,0,0]","door_history":"[0,1,1,1,1,1,1,1,1]","location_rts":"[2946,1875,421,289,491,555,6005,1002,611]","trial_type":"two-door-navigation","trial_index":23,"time_elapsed":789308,"internal_node_id":"0.0-2.0-21.0"},{"group":"dihedral group of order 12","room_assignment":["orange","green","red","olive","pink","cyan","yellow","purple","blue","brown","grey","ivory"],"door_color_assignment":["black","white"],"door_generator_assignment":[1,0],"goal":3,"start":1,"action_noise":0.15,"location_history":"[1,2,3]","action_history":"[0,0]","door_history":"[1,1]","location_rts":"[1303,403]","trial_type":"two-door-navigation","trial_index":24,"time_elapsed":796562,"internal_node_id":"0.0-2.0-22.0"},{"group":"dihedral group of order 12","room_assignment":["orange","green","red","olive","pink","cyan","yellow","purple","blue","brown","grey","ivory"],"door_color_assignment":["black","white"],"door_generator_assignment":[1,0],"goal":7,"start":3,"action_noise":0.15,"location_history":"[3,4,5,11,10,9,8,7]","action_history":"[0,0,0,0,0,0,0]","door_history":"[1,1,1,1,1,1,1]","location_rts":"[3791,519,672,785,998,564,520]","trial_type":"two-door-navigation","trial_index":25,"time_elapsed":815078,"internal_node_id":"0.0-2.0-23.0"},{"group":"dihedral group of order 12","room_assignment":["orange","green","red","olive","pink","cyan","yellow","purple","blue","brown","grey","ivory"],"door_color_assignment":["black","white"],"door_generator_assignment":[1,0],"goal":6,"start":7,"action_noise":0.15,"location_history":"[7,1,2,3,4,5,0,1,2,3,4,5,0,6]","action_history":"[0,0,0,0,0,0,0,0,0,0,0,0,0]","door_history":"[1,1,1,1,1,1,1,1,1,1,1,1,1]","location_rts":"[840,630,575,229,1635,553,1093,414,464,805,283,741,427]","trial_type":"two-door-navigation","trial_index":26,"time_elapsed":840597,"internal_node_id":"0.0-2.0-24.0"},{"group":"dihedral group of order 12","room_assignment":["orange","green","red","olive","pink","cyan","yellow","purple","blue","brown","grey","ivory"],"door_color_assignment":["black","white"],"door_generator_assignment":[1,0],"goal":2,"start":6,"action_noise":0.15,"location_history":"[6,11,5,0,1,2]","action_history":"[0,1,0,0,0]","door_history":"[1,0,1,1,1]","location_rts":"[1813,1997,2942,900,687]","trial_type":"two-door-navigation","trial_index":27,"time_elapsed":857561,"internal_node_id":"0.0-2.0-25.0"},{"group":"dihedral group of order 12","room_assignment":["orange","green","red","olive","pink","cyan","yellow","purple","blue","brown","grey","ivory"],"door_color_assignment":["black","white"],"door_generator_assignment":[1,0],"goal":8,"start":2,"action_noise":0.15,"location_history":"[2,3,9,8]","action_history":"[0,1,0]","door_history":"[1,0,1]","location_rts":"[2193,1347,1540]","trial_type":"two-door-navigation","trial_index":28,"time_elapsed":869211,"internal_node_id":"0.0-2.0-26.0"},{"group":"dihedral group of order 12","room_assignment":["orange","green","red","olive","pink","cyan","yellow","purple","blue","brown","grey","ivory"],"door_color_assignment":["black","white"],"door_generator_assignment":[1,0],"goal":0,"start":8,"action_noise":0.15,"location_history":"[8,7,1,2,3,4,10,9,3,4,5,0]","action_history":"[0,1,0,0,0,0,0,0,0,0,0]","door_history":"[1,0,1,1,1,1,1,1,1,1,1]","location_rts":"[737,1428,1434,1951,1489,752,845,759,873,842,620]","trial_type":"two-door-navigation","trial_index":29,"time_elapsed":895686,"internal_node_id":"0.0-2.0-27.0"},{"group":"dihedral group of order 12","room_assignment":["orange","green","red","olive","pink","cyan","yellow","purple","blue","brown","grey","ivory"],"door_color_assignment":["black","white"],"door_generator_assignment":[1,0],"goal":3,"start":0,"action_noise":0.15,"location_history":"[0,1,7,6,11,10,9,8,7,6,11,5,11,5,0,6,0,6,0,6,0,1,2,8,7,6,11,5,0,1,2,3]","action_history":"[0,1,0,0,0,0,0,0,0,0,1,1,1,1,1,1,1,1,1,1,0,0,0,0,0,0,0,0,0,0,0]","door_history":"[1,0,1,1,1,1,1,1,1,1,0,0,0,0,0,0,0,0,0,0,1,1,1,1,1,1,1,1,1,1,1]","location_rts":"[700,1460,1666,954,763,766,862,787,582,251,1998,398,414,904,746,481,550,267,1005,468,819,405,868,1019,501,666,1367,528,537,936,1398]","trial_type":"two-door-navigation","trial_index":30,"time_elapsed":955973,"internal_node_id":"0.0-2.0-28.0"},{"group":"dihedral group of order 12","room_assignment":["orange","green","red","olive","pink","cyan","yellow","purple","blue","brown","grey","ivory"],"door_color_assignment":["black","white"],"door_generator_assignment":[1,0],"goal":4,"start":3,"action_noise":0.15,"location_history":"[3,9,8,7,6,11,10,4]","action_history":"[0,0,0,0,0,0,1]","door_history":"[1,1,1,1,1,1,0]","location_rts":"[3454,1343,1299,584,394,288,2102]","trial_type":"two-door-navigation","trial_index":31,"time_elapsed":976103,"internal_node_id":"0.0-2.0-29.0"},{"group":"dihedral group of order 12","room_assignment":["orange","green","red","olive","pink","cyan","yellow","purple","blue","brown","grey","ivory"],"door_color_assignment":["black","white"],"door_generator_assignment":[1,0],"goal":10,"start":4,"action_noise":0.15,"location_history":"[4,10]","action_history":"[1]","door_history":"[0]","location_rts":"[1668]","trial_type":"two-door-navigation","trial_index":32,"time_elapsed":982300,"internal_node_id":"0.0-2.0-30.0"},{"group":"dihedral group of order 12","room_assignment":["orange","green","red","olive","pink","cyan","yellow","purple","blue","brown","grey","ivory"],"door_color_assignment":["black","white"],"door_generator_assignment":[1,0],"goal":11,"start":10,"action_noise":0.15,"location_history":"[10,4,5,0,6,11]","action_history":"[1,0,1,1,1]","door_history":"[0,1,0,0,0]","location_rts":"[1429,1071,635,450,356]","trial_type":"two-door-navigation","trial_index":33,"time_elapsed":994859,"internal_node_id":"0.0-2.0-31.0"},{"group":"dihedral group of order 12","room_assignment":["orange","green","red","olive","pink","cyan","yellow","purple","blue","brown","grey","ivory"],"door_color_assignment":["black","white"],"door_generator_assignment":[1,0],"goal":1,"start":11,"action_noise":0.15,"location_history":"[11,5,11,10,4,10,9,8,7,1]","action_history":"[1,1,0,1,1,0,0,0,0]","door_history":"[0,0,1,0,0,1,1,1,1]","location_rts":"[2047,405,703,2397,328,923,441,484,670]","trial_type":"two-door-navigation","trial_index":34,"time_elapsed":1015969,"internal_node_id":"0.0-2.0-32.0"},{"group":"dihedral group of order 12","room_assignment":["orange","green","red","olive","pink","cyan","yellow","purple","blue","brown","grey","ivory"],"door_color_assignment":["black","white"],"door_generator_assignment":[1,0],"goal":5,"start":1,"action_noise":0.15,"location_history":"[1,7,6,0,1,2,3,4,10,4,5]","action_history":"[0,0,1,1,1,1,1,1,1,1]","door_history":"[1,1,0,0,0,0,0,0,0,0]","location_rts":"[2003,475,815,10461,504,2237,1924,367,2203,2129]","trial_type":"two-door-navigation","trial_index":35,"time_elapsed":1052824,"internal_node_id":"0.0-2.0-33.0"},{"group":"dihedral group of order 12","room_assignment":["orange","green","red","olive","pink","cyan","yellow","purple","blue","brown","grey","ivory"],"door_color_assignment":["black","white"],"door_generator_assignment":[1,0],"goal":9,"start":5,"action_noise":0.15,"location_history":"[5,11,10,9]","action_history":"[1,0,0]","door_history":"[0,1,1]","location_rts":"[2026,898,682]","trial_type":"two-door-navigation","trial_index":36,"time_elapsed":1063008,"internal_node_id":"0.0-2.0-34.0"},{"view_history":"[{\"page_index\":0,\"viewing_time\":4914}]","rt":4915,"trial_type":"instructions","trial_index":37,"time_elapsed":1068924,"internal_node_id":"0.0-3.0"},{"view_history":"[{\"page_index\":0,\"viewing_time\":16022},{\"page_index\":1,\"viewing_time\":40103}]","rt":56126,"trial_type":"instructions","trial_index":38,"time_elapsed":1126051,"internal_node_id":"0.0-4.0"},{"group":"dicyclic group of order 12","fractal_assignment":["../images/wht_red.png","../images/grn_blu.png","../images/org_blu.png","../images/gry_blk.png","../images/cyn_red.png","../images/grn_red.png","../images/pnk_blu.png","../images/grn_prp.png","../images/red_prp.png","../images/blu_wht.png","../images/ylw_slt.png","../images/ylw_pnk.png"],"mutagen_generator_assignment":[0,1],"goal":4,"start":0,"action_noise":0.15,"location_history":"[0,4]","action_history":"[1]","mutagen_history":"[1]","location_rts":"[7770]","trial_type":"fractal-mutation","trial_index":39,"time_elapsed":1138551,"internal_node_id":"0.0-5.0-0.0"},{"group":"dicyclic group of order 12","fractal_assignment":["../images/wht_red.png","../images/grn_blu.png","../images/org_blu.png","../images/gry_blk.png","../images/cyn_red.png","../images/grn_red.png","../images/pnk_blu.png","../images/grn_prp.png","../images/red_prp.png","../images/blu_wht.png","../images/ylw_slt.png","../images/ylw_pnk.png"],"mutagen_generator_assignment":[0,1],"goal":9,"start":4,"action_noise":0.15,"location_history":"[4,9]","action_history":"[0]","mutagen_history":"[0]","location_rts":"[2839]","trial_type":"fractal-mutation","trial_index":40,"time_elapsed":1145936,"internal_node_id":"0.0-5.0-1.0"},{"group":"dicyclic group of order 12","fractal_assignment":["../images/wht_red.png","../images/grn_blu.png","../images/org_blu.png","../images/gry_blk.png","../images/cyn_red.png","../images/grn_red.png","../images/pnk_blu.png","../images/grn_prp.png","../images/red_prp.png","../images/blu_wht.png","../images/ylw_slt.png","../images/ylw_pnk.png"],"mutagen_generator_assignment":[0,1],"goal":10,"start":9,"action_noise":0.15,"location_history":"[9,1,5,9,6,11,4,8,5,9,6,10]","action_history":"[0,0,1,1,1,0,1,0,0,0,0]","mutagen_history":"[0,0,1,1,1,0,1,0,0,0,0]","location_rts":"[793,5127,2393,1225,2009,666,1090,986,615,1100,967]","trial_type":"fractal-mutation","trial_index":41,"time_elapsed":1178943,"internal_node_id":"0.0-5.0-2.0"},{"group":"dicyclic group of order 12","fractal_assignment":["../images/wht_red.png","../images/grn_blu.png","../images/org_blu.png","../images/gry_blk.png","../images/cyn_red.png","../images/grn_red.png","../images/pnk_blu.png","../images/grn_prp.png","../images/red_prp.png","../images/blu_wht.png","../images/ylw_slt.png","../images/ylw_pnk.png"],"mutagen_generator_assignment":[0,1],"goal":2,"start":10,"action_noise":0.15,"location_history":"[10,2]","action_history":"[1]","mutagen_history":"[1]","location_rts":"[2565]","trial_type":"fractal-mutation","trial_index":42,"time_elapsed":1186215,"internal_node_id":"0.0-5.0-3.0"},{"group":"dicyclic group of order 12","fractal_assignment":["../images/wht_red.png","../images/grn_blu.png","../images/org_blu.png","../images/gry_blk.png","../images/cyn_red.png","../images/grn_red.png","../images/pnk_blu.png","../images/grn_prp.png","../images/red_prp.png","../images/blu_wht.png","../images/ylw_slt.png","../images/ylw_pnk.png"],"mutagen_generator_assignment":[0,1],"goal":5,"start":2,"action_noise":0.15,"location_history":"[2,3,0,1,2,6,10,7,11,3,7,8,5]","action_history":"[0,0,0,0,1,1,0,1,1,1,0,0]","mutagen_history":"[0,0,0,0,1,1,0,1,1,1,0,0]","location_rts":"[1129,848,789,622,754,1049,934,1108,509,437,558,812]","trial_type":"fractal-mutation","trial_index":43,"time_elapsed":1212797,"internal_node_id":"0.0-5.0-4.0"},{"group":"dicyclic group of order 12","fractal_assignment":["../images/wht_red.png","../images/grn_blu.png","../images/org_blu.png","../images/gry_blk.png","../images/cyn_red.png","../images/grn_red.png","../images/pnk_blu.png","../images/grn_prp.png","../images/red_prp.png","../images/blu_wht.png","../images/ylw_slt.png","../images/ylw_pnk.png"],"mutagen_generator_assignment":[0,1],"goal":11,"start":5,"action_noise":0.15,"location_history":"[5,10,2,3,0,1,2,6,10,7,8,5,9,1,5,10,7,8,5,10,2,6,10,2,6,10,7,11]","action_history":"[1,1,0,0,0,0,0,1,0,0,0,1,1,1,1,0,0,0,0,0,1,1,1,1,1,0,0]","mutagen_history":"[1,1,0,0,0,0,0,1,0,0,0,1,1,1,1,0,0,0,0,0,1,1,1,1,1,0,0]","location_rts":"[1950,575,813,708,786,898,1018,23612,1239,1536,459,1559,909,488,829,416,530,433,1318,773,997,605,454,458,444,622,1161]","trial_type":"fractal-mutation","trial_index":44,"time_elapsed":1293249,"internal_node_id":"0.0-5.0-5.0"},{"group":"dicyclic group of order 12","fractal_assignment":["../images/wht_red.png","../images/grn_blu.png","../images/org_blu.png","../images/gry_blk.png","../images/cyn_red.png","../images/grn_red.png","../images/pnk_blu.png","../images/grn_prp.png","../images/red_prp.png","../images/blu_wht.png","../images/ylw_slt.png","../images/ylw_pnk.png"],"mutagen_generator_assignment":[0,1],"goal":6,"start":11,"action_noise":0.15,"location_history":"[11,3,7,11,3,0,4,8,0,1,5,9,1,2,6]","action_history":"[1,1,1,1,0,1,0,1,1,1,1,1,0,0]","mutagen_history":"[1,1,1,1,0,1,0,1,1,1,1,1,0,0]","location_rts":"[2322,768,1471,1259,496,1244,879,1336,516,592,1916,1733,947,739]","trial_type":"fractal-mutation","trial_index":45,"time_elapsed":1329593,"internal_node_id":"0.0-5.0-6.0"},{"group":"dicyclic group of order 12","fractal_assignment":["../images/wht_red.png","../images/grn_blu.png","../images/org_blu.png","../images/gry_blk.png","../images/cyn_red.png","../images/grn_red.png","../images/pnk_blu.png","../images/grn_prp.png","../images/red_prp.png","../images/blu_wht.png","../images/ylw_slt.png","../images/ylw_pnk.png"],"mutagen_generator_assignment":[0,1],"goal":3,"start":6,"action_noise":0.15,"location_history":"[6,10,2,6,10,2,6,10,2,6,10,2,6,11,3]","action_history":"[1,1,1,1,1,0,1,1,1,1,1,0,0,1]","mutagen_history":"[1,1,1,1,1,0,1,1,1,1,1,0,0,1]","location_rts":"[3708,746,441,430,516,452,542,478,409,659,342,281,1288,1027]","trial_type":"fractal-mutation","trial_index":46,"time_elapsed":1361074,"internal_node_id":"0.0-5.0-7.0"},{"group":"dicyclic group of order 12","fractal_assignment":["../images/wht_red.png","../images/grn_blu.png","../images/org_blu.png","../images/gry_blk.png","../images/cyn_red.png","../images/grn_red.png","../images/pnk_blu.png","../images/grn_prp.png","../images/red_prp.png","../images/blu_wht.png","../images/ylw_slt.png","../images/ylw_pnk.png"],"mutagen_generator_assignment":[0,1],"goal":8,"start":3,"action_noise":0.15,"location_history":"[3,7,8]","action_history":"[0,0]","mutagen_history":"[0,0]","location_rts":"[1916,522]","trial_type":"fractal-mutation","trial_index":47,"time_elapsed":1369068,"internal_node_id":"0.0-5.0-8.0"},{"group":"dicyclic group of order 12","fractal_assignment":["../images/wht_red.png","../images/grn_blu.png","../images/org_blu.png","../images/gry_blk.png","../images/cyn_red.png","../images/grn_red.png","../images/pnk_blu.png","../images/grn_prp.png","../images/red_prp.png","../images/blu_wht.png","../images/ylw_slt.png","../images/ylw_pnk.png"],"mutagen_generator_assignment":[0,1],"goal":1,"start":8,"action_noise":0.15,"location_history":"[8,0,4,8,5,10,2,6,10,7,11,3,7,11,3,7,11,3,7,11,4,9,6,11,3,7,11,3,0,1]","action_history":"[1,1,1,1,0,1,1,1,1,1,0,1,1,1,1,1,1,1,1,0,0,0,0,1,1,1,1,0,0]","mutagen_history":"[1,1,1,1,0,1,1,1,1,1,0,1,1,1,1,1,1,1,1,0,0,0,0,1,1,1,1,0,0]","location_rts":"[1718,604,452,787,839,469,1312,756,724,604,508,950,1096,1088,509,2449,22327,533,2451,1318,903,903,740,393,355,854,266,145,955]","trial_type":"fractal-mutation","trial_index":48,"time_elapsed":1453917,"internal_node_id":"0.0-5.0-9.0"},{"group":"dicyclic group of order 12","fractal_assignment":["../images/wht_red.png","../images/grn_blu.png","../images/org_blu.png","../images/gry_blk.png","../images/cyn_red.png","../images/grn_red.png","../images/pnk_blu.png","../images/grn_prp.png","../images/red_prp.png","../images/blu_wht.png","../images/ylw_slt.png","../images/ylw_pnk.png"],"mutagen_generator_assignment":[0,1],"goal":7,"start":1,"action_noise":0.15,"location_history":"[1,2,6,10,2,3,7]","action_history":"[1,1,1,0,0,1]","mutagen_history":"[1,1,1,0,0,1]","location_rts":"[3033,495,1760,1099,772,1064]","trial_type":"fractal-mutation","trial_index":49,"time_elapsed":1472681,"internal_node_id":"0.0-5.0-10.0"},{"group":"dicyclic group of order 12","fractal_assignment":["../images/wht_red.png","../images/grn_blu.png","../images/org_blu.png","../images/gry_blk.png","../images/cyn_red.png","../images/grn_red.png","../images/pnk_blu.png","../images/grn_prp.png","../images/red_prp.png","../images/blu_wht.png","../images/ylw_slt.png","../images/ylw_pnk.png"],"mutagen_generator_assignment":[0,1],"goal":5,"start":7,"action_noise":0.15,"location_history":"[7,11,3,7,11,4,8,0,4,8,0,1,5]","action_history":"[1,1,1,1,1,1,1,1,1,1,0,1]","mutagen_history":"[1,1,1,1,1,1,1,1,1,1,0,1]","location_rts":"[1930,302,330,446,420,516,652,350,402,727,313,478]","trial_type":"fractal-mutation","trial_index":50,"time_elapsed":1497432,"internal_node_id":"0.0-5.0-11.0"},{"group":"dicyclic group of order 12","fractal_assignment":["../images/wht_red.png","../images/grn_blu.png","../images/org_blu.png","../images/gry_blk.png","../images/cyn_red.png","../images/grn_red.png","../images/pnk_blu.png","../images/grn_prp.png","../images/red_prp.png","../images/blu_wht.png","../images/ylw_slt.png","../images/ylw_pnk.png"],"mutagen_generator_assignment":[0,1],"goal":8,"start":5,"action_noise":0.15,"location_history":"[5,9,1,2,6,10,2,6,11,4,9,1,5,9,1,5,9,1,2,6,10,7,8]","action_history":"[1,1,1,1,1,1,1,0,0,0,1,1,1,1,1,1,0,0,0,0,0,0]","mutagen_history":"[1,1,1,1,1,1,1,0,0,0,1,1,1,1,1,1,0,0,0,0,0,0]","location_rts":"[1723,823,826,608,687,764,421,693,1401,521,388,1364,653,745,1889,825,332,482,860,1463,426,851]","trial_type":"fractal-mutation","trial_index":51,"time_elapsed":1545365,"internal_node_id":"0.0-5.0-12.0"},{"group":"dicyclic group of order 12","fractal_assignment":["../images/wht_red.png","../images/grn_blu.png","../images/org_blu.png","../images/gry_blk.png","../images/cyn_red.png","../images/grn_red.png","../images/pnk_blu.png","../images/grn_prp.png","../images/red_prp.png","../images/blu_wht.png","../images/ylw_slt.png","../images/ylw_pnk.png"],"mutagen_generator_assignment":[0,1],"goal":11,"start":8,"action_noise":0.15,"location_history":"[8,5,9,1,5,9,6,11]","action_history":"[0,1,1,1,1,0,0]","mutagen_history":"[0,1,1,1,1,0,0]","location_rts":"[433402,1456,521,735,646,523,1729]","trial_type":"fractal-mutation","trial_index":52,"time_elapsed":1995957,"internal_node_id":"0.0-5.0-13.0"},{"group":"dicyclic group of order 12","fractal_assignment":["../images/wht_red.png","../images/grn_blu.png","../images/org_blu.png","../images/gry_blk.png","../images/cyn_red.png","../images/grn_red.png","../images/pnk_blu.png","../images/grn_prp.png","../images/red_prp.png","../images/blu_wht.png","../images/ylw_slt.png","../images/ylw_pnk.png"],"mutagen_generator_assignment":[0,1],"goal":6,"start":11,"action_noise":0.15,"location_history":"[11,3,7,11,3,7,11,3,7,8,5,10,7,8,0,4,9,1,5,9,1,5,10,7,11,3,0,4,8,0,4,9,6]","action_history":"[1,1,1,1,0,1,1,1,0,0,0,0,0,1,1,1,1,1,1,1,1,0,1,1,1,1,1,1,1,1,1,1]","mutagen_history":"[1,1,1,1,0,1,1,1,0,0,0,0,0,1,1,1,1,1,1,1,1,0,1,1,1,1,1,1,1,1,1,1]","location_rts":"[1342,411,384,363,449,277,437,388,364,1186,498,1091,475,138,364,19,354,292,374,272,372,661,413,387,316,282,554,257,242,169,199,72082]","trial_type":"fractal-mutation","trial_index":53,"time_elapsed":2122848,"internal_node_id":"0.0-5.0-14.0"},{"group":"dicyclic group of order 12","fractal_assignment":["../images/wht_red.png","../images/grn_blu.png","../images/org_blu.png","../images/gry_blk.png","../images/cyn_red.png","../images/grn_red.png","../images/pnk_blu.png","../images/grn_prp.png","../images/red_prp.png","../images/blu_wht.png","../images/ylw_slt.png","../images/ylw_pnk.png"],"mutagen_generator_assignment":[0,1],"goal":7,"start":6,"action_noise":0.15,"location_history":"[6,10,2,6,10,2,6,11,3,7]","action_history":"[1,1,1,1,1,1,1,1,1]","mutagen_history":"[1,1,1,1,1,1,1,1,1]","location_rts":"[1752,350,511,425,590,1759,3295,1024,375]","trial_type":"fractal-mutation","trial_index":54,"time_elapsed":2147417,"internal_node_id":"0.0-5.0-15.0"},{"group":"dicyclic group of order 12","fractal_assignment":["../images/wht_red.png","../images/grn_blu.png","../images/org_blu.png","../images/gry_blk.png","../images/cyn_red.png","../images/grn_red.png","../images/pnk_blu.png","../images/grn_prp.png","../images/red_prp.png","../images/blu_wht.png","../images/ylw_slt.png","../images/ylw_pnk.png"],"mutagen_generator_assignment":[0,1],"goal":10,"start":7,"action_noise":0.15,"location_history":"[7,11,3,7,11,3,7,8,5,10]","action_history":"[1,1,1,1,1,1,0,0,0]","mutagen_history":"[1,1,1,1,1,1,0,0,0]","location_rts":"[28536,772,482,823,2035,412,361,821,677]","trial_type":"fractal-mutation","trial_index":55,"time_elapsed":2196431,"internal_node_id":"0.0-5.0-16.0"},{"group":"dicyclic group of order 12","fractal_assignment":["../images/wht_red.png","../images/grn_blu.png","../images/org_blu.png","../images/gry_blk.png","../images/cyn_red.png","../images/grn_red.png","../images/pnk_blu.png","../images/grn_prp.png","../images/red_prp.png","../images/blu_wht.png","../images/ylw_slt.png","../images/ylw_pnk.png"],"mutagen_generator_assignment":[0,1],"goal":0,"start":10,"action_noise":0.15,"location_history":"[10,2,6,10,2,6,10,2,3,0]","action_history":"[1,1,1,1,1,1,1,1,1]","mutagen_history":"[1,1,1,1,1,1,1,1,1]","location_rts":"[1379,323,291,301,2912,731,595,851,622]","trial_type":"fractal-mutation","trial_index":56,"time_elapsed":2218807,"internal_node_id":"0.0-5.0-17.0"},{"group":"dicyclic group of order 12","fractal_assignment":["../images/wht_red.png","../images/grn_blu.png","../images/org_blu.png","../images/gry_blk.png","../images/cyn_red.png","../images/grn_red.png","../images/pnk_blu.png","../images/grn_prp.png","../images/red_prp.png","../images/blu_wht.png","../images/ylw_slt.png","../images/ylw_pnk.png"],"mutagen_generator_assignment":[0,1],"goal":9,"start":0,"action_noise":0.15,"location_history":"[0,1,5,9]","action_history":"[1,1,1]","mutagen_history":"[1,1,1]","location_rts":"[1107,5297,4169]","trial_type":"fractal-mutation","trial_index":57,"time_elapsed":2236483,"internal_node_id":"0.0-5.0-18.0"},{"group":"dicyclic group of order 12","fractal_assignment":["../images/wht_red.png","../images/grn_blu.png","../images/org_blu.png","../images/gry_blk.png","../images/cyn_red.png","../images/grn_red.png","../images/pnk_blu.png","../images/grn_prp.png","../images/red_prp.png","../images/blu_wht.png","../images/ylw_slt.png","../images/ylw_pnk.png"],"mutagen_generator_assignment":[0,1],"goal":4,"start":9,"action_noise":0.15,"location_history":"[9,1,2,6,10,7,8,5,10,7,8,5,10,7,11,3,7,11,3,7,11,4]","action_history":"[1,0,1,0,0,0,0,0,0,0,0,0,0,1,1,1,1,1,1,1,1]","mutagen_history":"[1,0,1,0,0,0,0,0,0,0,0,0,0,1,1,1,1,1,1,1,1]","location_rts":"[1799,194,457,1094,302,481,385,464,347,449,417,701,441,469,12124,938,1347,2867,787,1923,509]","trial_type":"fractal-mutation","trial_index":58,"time_elapsed":2292893,"internal_node_id":"0.0-5.0-19.0"},{"group":"dicyclic group of order 12","fractal_assignment":["../images/wht_red.png","../images/grn_blu.png","../images/org_blu.png","../images/gry_blk.png","../images/cyn_red.png","../images/grn_red.png","../images/pnk_blu.png","../images/grn_prp.png","../images/red_prp.png","../images/blu_wht.png","../images/ylw_slt.png","../images/ylw_pnk.png"],"mutagen_generator_assignment":[0,1],"goal":2,"start":4,"action_noise":0.15,"location_history":"[4,9,6,11,3,0,4,8,5,10,7,11,3,7,11,3,7,11,3,0,1,2]","action_history":"[0,0,0,0,0,0,0,0,1,1,1,1,1,1,1,1,1,1,0,0,0]","mutagen_history":"[0,0,0,0,0,0,0,0,1,1,1,1,1,1,1,1,1,1,0,0,0]","location_rts":"[2428,465,1482,4720,822,648,717,771,1377,342,1029,706,1072,775,657,711,524,745,114,4120,545]","trial_type":"fractal-mutation","trial_index":59,"time_elapsed":2344837,"internal_node_id":"0.0-5.0-20.0"},{"group":"dicyclic group of order 12","fractal_assignment":["../images/wht_red.png","../images/grn_blu.png","../images/org_blu.png","../images/gry_blk.png","../images/cyn_red.png","../images/grn_red.png","../images/pnk_blu.png","../images/grn_prp.png","../images/red_prp.png","../images/blu_wht.png","../images/ylw_slt.png","../images/ylw_pnk.png"],"mutagen_generator_assignment":[0,1],"goal":1,"start":2,"action_noise":0.15,"location_history":"[2,6,10,2,6,11,4,9,6,10,7,8,0,1]","action_history":"[1,1,1,1,0,0,0,0,0,0,0,1,1]","mutagen_history":"[1,1,1,1,0,0,0,0,0,0,0,1,1]","location_rts":"[4451,480,647,585,323,567,976,830,807,839,1145,2006,800]","trial_type":"fractal-mutation","trial_index":60,"time_elapsed":2377857,"internal_node_id":"0.0-5.0-21.0"},{"group":"dicyclic group of order 12","fractal_assignment":["../images/wht_red.png","../images/grn_blu.png","../images/org_blu.png","../images/gry_blk.png","../images/cyn_red.png","../images/grn_red.png","../images/pnk_blu.png","../images/grn_prp.png","../images/red_prp.png","../images/blu_wht.png","../images/ylw_slt.png","../images/ylw_pnk.png"],"mutagen_generator_assignment":[0,1],"goal":3,"start":1,"action_noise":0.15,"location_history":"[1,5,9,1,5,9,1,2,3]","action_history":"[1,1,1,1,1,1,0,0]","mutagen_history":"[1,1,1,1,1,1,0,0]","location_rts":"[3182,303,550,415,423,895,836,718]","trial_type":"fractal-mutation","trial_index":61,"time_elapsed":2398182,"internal_node_id":"0.0-5.0-22.0"},{"group":"dicyclic group of order 12","fractal_assignment":["../images/wht_red.png","../images/grn_blu.png","../images/org_blu.png","../images/gry_blk.png","../images/cyn_red.png","../images/grn_red.png","../images/pnk_blu.png","../images/grn_prp.png","../images/red_prp.png","../images/blu_wht.png","../images/ylw_slt.png","../images/ylw_pnk.png"],"mutagen_generator_assignment":[0,1],"goal":7,"start":3,"action_noise":0.15,"location_history":"[3,0,4,8,5,10,7]","action_history":"[0,0,0,0,0,0]","mutagen_history":"[0,0,0,0,0,0]","location_rts":"[1641,679,829,628,576,705]","trial_type":"fractal-mutation","trial_index":62,"time_elapsed":2412912,"internal_node_id":"0.0-5.0-23.0"},{"group":"dicyclic group of order 12","fractal_assignment":["../images/wht_red.png","../images/grn_blu.png","../images/org_blu.png","../images/gry_blk.png","../images/cyn_red.png","../images/grn_red.png","../images/pnk_blu.png","../images/grn_prp.png","../images/red_prp.png","../images/blu_wht.png","../images/ylw_slt.png","../images/ylw_pnk.png"],"mutagen_generator_assignment":[0,1],"goal":6,"start":7,"action_noise":0.15,"location_history":"[7,11,3,7,11,3,0,1,5,10,2,6]","action_history":"[1,1,1,1,1,0,1,1,1,1,1]","mutagen_history":"[1,1,1,1,1,0,1,1,1,1,1]","location_rts":"[1511,431,497,353,457,430,265,1225,703,422,293]","trial_type":"fractal-mutation","trial_index":63,"time_elapsed":2436047,"internal_node_id":"0.0-5.0-24.0"},{"group":"dicyclic group of order 12","fractal_assignment":["../images/wht_red.png","../images/grn_blu.png","../images/org_blu.png","../images/gry_blk.png","../images/cyn_red.png","../images/grn_red.png","../images/pnk_blu.png","../images/grn_prp.png","../images/red_prp.png","../images/blu_wht.png","../images/ylw_slt.png","../images/ylw_pnk.png"],"mutagen_generator_assignment":[0,1],"goal":2,"start":6,"action_noise":0.15,"location_history":"[6,10,7,8,5,10,7,8,5,9,1,2]","action_history":"[0,0,0,0,0,0,0,0,1,1,1]","mutagen_history":"[0,0,0,0,0,0,0,0,1,1,1]","location_rts":"[2023,941,977,572,483,1141,657,457,353,522,595]","trial_type":"fractal-mutation","trial_index":64,"time_elapsed":2460071,"internal_node_id":"0.0-5.0-25.0"},{"group":"dicyclic group of order 12","fractal_assignment":["../images/wht_red.png","../images/grn_blu.png","../images/org_blu.png","../images/gry_blk.png","../images/cyn_red.png","../images/grn_red.png","../images/pnk_blu.png","../images/grn_prp.png","../images/red_prp.png","../images/blu_wht.png","../images/ylw_slt.png","../images/ylw_pnk.png"],"mutagen_generator_assignment":[0,1],"goal":8,"start":2,"action_noise":0.15,"location_history":"[2,3,0,1,2,3,7,11,3,7,8]","action_history":"[0,0,0,0,0,1,1,1,1,1]","mutagen_history":"[0,0,0,0,0,1,1,1,1,1]","location_rts":"[2227,531,420,527,967,3198,773,609,377,1014]","trial_type":"fractal-mutation","trial_index":65,"time_elapsed":2485399,"internal_node_id":"0.0-5.0-26.0"},{"group":"dicyclic group of order 12","fractal_assignment":["../images/wht_red.png","../images/grn_blu.png","../images/org_blu.png","../images/gry_blk.png","../images/cyn_red.png","../images/grn_red.png","../images/pnk_blu.png","../images/grn_prp.png","../images/red_prp.png","../images/blu_wht.png","../images/ylw_slt.png","../images/ylw_pnk.png"],"mutagen_generator_assignment":[0,1],"goal":0,"start":8,"action_noise":0.15,"location_history":"[8,0]","action_history":"[0]","mutagen_history":"[0]","location_rts":"[1829]","trial_type":"fractal-mutation","trial_index":66,"time_elapsed":2491761,"internal_node_id":"0.0-5.0-27.0"},{"group":"dicyclic group of order 12","fractal_assignment":["../images/wht_red.png","../images/grn_blu.png","../images/org_blu.png","../images/gry_blk.png","../images/cyn_red.png","../images/grn_red.png","../images/pnk_blu.png","../images/grn_prp.png","../images/red_prp.png","../images/blu_wht.png","../images/ylw_slt.png","../images/ylw_pnk.png"],"mutagen_generator_assignment":[0,1],"goal":3,"start":0,"action_noise":0.15,"location_history":"[0,1,5,10,7,8,5,10,7,8,0,4,9,1,5,9,6,10,7,8,0,1,2,3]","action_history":"[0,0,0,0,1,0,0,0,0,0,0,0,0,1,1,1,1,0,0,0,0,0,0]","mutagen_history":"[0,0,0,0,1,0,0,0,0,0,0,0,0,1,1,1,1,0,0,0,0,0,0]","location_rts":"[2241,1258,919,586,435,953,534,600,592,499,561,579,927,643,1454,179,742,225,313,369,412,350,490]","trial_type":"fractal-mutation","trial_index":67,"time_elapsed":2537057,"internal_node_id":"0.0-5.0-28.0"},{"group":"dicyclic group of order 12","fractal_assignment":["../images/wht_red.png","../images/grn_blu.png","../images/org_blu.png","../images/gry_blk.png","../images/cyn_red.png","../images/grn_red.png","../images/pnk_blu.png","../images/grn_prp.png","../images/red_prp.png","../images/blu_wht.png","../images/ylw_slt.png","../images/ylw_pnk.png"],"mutagen_generator_assignment":[0,1],"goal":4,"start":3,"action_noise":0.15,"location_history":"[3,0,1,2,3,7,11,3,7,11,3,0,1,5,10,7,8,5,9,6,10,2,3,0,1,2,6,11,3,0,4]","action_history":"[0,0,0,0,1,1,1,1,1,0,0,0,0,0,0,0,0,0,0,1,1,1,0,0,0,0,0,0,0,1]","mutagen_history":"[0,0,0,0,1,1,1,1,1,0,0,0,0,0,0,0,0,0,0,1,1,1,0,0,0,0,0,0,0,1]","location_rts":"[20044,845,906,5679,838,3739,609,682,614,264,415,344,290,531,317,497,1083,531,419,441,483,953,727,635,1148,680,1031,573,464,804]","trial_type":"fractal-mutation","trial_index":68,"time_elapsed":2622118,"internal_node_id":"0.0-5.0-29.0"},{"group":"dicyclic group of order 12","fractal_assignment":["../images/wht_red.png","../images/grn_blu.png","../images/org_blu.png","../images/gry_blk.png","../images/cyn_red.png","../images/grn_red.png","../images/pnk_blu.png","../images/grn_prp.png","../images/red_prp.png","../images/blu_wht.png","../images/ylw_slt.png","../images/ylw_pnk.png"],"mutagen_generator_assignment":[0,1],"goal":10,"start":4,"action_noise":0.15,"location_history":"[4,8,0,1,5,9,1,5,9,1,5,9,1,2,6,11,4,8,5,10]","action_history":"[1,1,1,1,1,1,1,1,1,1,1,1,1,1,0,0,1,0,0]","mutagen_history":"[1,1,1,1,1,1,1,1,1,1,1,1,1,1,0,0,1,0,0]","location_rts":"[1215,371,801,888,458,434,1904,1374,1990,751,1133,947,4068,647,628,3371,411,490,915]","trial_type":"fractal-mutation","trial_index":69,"time_elapsed":2670922,"internal_node_id":"0.0-5.0-30.0"},{"group":"dicyclic group of order 12","fractal_assignment":["../images/wht_red.png","../images/grn_blu.png","../images/org_blu.png","../images/gry_blk.png","../images/cyn_red.png","../images/grn_red.png","../images/pnk_blu.png","../images/grn_prp.png","../images/red_prp.png","../images/blu_wht.png","../images/ylw_slt.png","../images/ylw_pnk.png"],"mutagen_generator_assignment":[0,1],"goal":11,"start":10,"action_noise":0.15,"location_history":"[10,2,6,11]","action_history":"[1,1,1]","mutagen_history":"[1,1,1]","location_rts":"[2522,560,368]","trial_type":"fractal-mutation","trial_index":70,"time_elapsed":2681493,"internal_node_id":"0.0-5.0-31.0"},{"group":"dicyclic group of order 12","fractal_assignment":["../images/wht_red.png","../images/grn_blu.png","../images/org_blu.png","../images/gry_blk.png","../images/cyn_red.png","../images/grn_red.png","../images/pnk_blu.png","../images/grn_prp.png","../images/red_prp.png","../images/blu_wht.png","../images/ylw_slt.png","../images/ylw_pnk.png"],"mutagen_generator_assignment":[0,1],"goal":1,"start":11,"action_noise":0.15,"location_history":"[11,4,9,1]","action_history":"[0,1,1]","mutagen_history":"[0,1,1]","location_rts":"[1121,680,349]","trial_type":"fractal-mutation","trial_index":71,"time_elapsed":2690594,"internal_node_id":"0.0-5.0-32.0"},{"group":"dicyclic group of order 12","fractal_assignment":["../images/wht_red.png","../images/grn_blu.png","../images/org_blu.png","../images/gry_blk.png","../images/cyn_red.png","../images/grn_red.png","../images/pnk_blu.png","../images/grn_prp.png","../images/red_prp.png","../images/blu_wht.png","../images/ylw_slt.png","../images/ylw_pnk.png"],"mutagen_generator_assignment":[0,1],"goal":5,"start":1,"action_noise":0.15,"location_history":"[1,5]","action_history":"[1]","mutagen_history":"[1]","location_rts":"[1219]","trial_type":"fractal-mutation","trial_index":72,"time_elapsed":2696531,"internal_node_id":"0.0-5.0-33.0"},{"group":"dicyclic group of order 12","fractal_assignment":["../images/wht_red.png","../images/grn_blu.png","../images/org_blu.png","../images/gry_blk.png","../images/cyn_red.png","../images/grn_red.png","../images/pnk_blu.png","../images/grn_prp.png","../images/red_prp.png","../images/blu_wht.png","../images/ylw_slt.png","../images/ylw_pnk.png"],"mutagen_generator_assignment":[0,1],"goal":9,"start":5,"action_noise":0.15,"location_history":"[5,9]","action_history":"[1]","mutagen_history":"[1]","location_rts":"[1117]","trial_type":"fractal-mutation","trial_index":73,"time_elapsed":2702339,"internal_node_id":"0.0-5.0-34.0"},{"view_history":"[{\"page_index\":0,\"viewing_time\":8892}]","rt":8893,"trial_type":"instructions","trial_index":74,"time_elapsed":2712234,"internal_node_id":"0.0-6.0"},{"rt":20817,"responses":"{\"Q0\":\"Interesting and challenging at the same time. Nice day.\"}","trial_type":"survey-text","trial_index":75,"time_elapsed":2734063,"internal_node_id":"0.0-7.0"}]