[{"view_history":"[{\"page_index\":0,\"viewing_time\":21689},{\"page_index\":1,\"viewing_time\":8452},{\"page_index\":2,\"viewing_time\":10525},{\"page_index\":3,\"viewing_time\":3896}]","rt":44563,"trial_type":"instructions","trial_index":0,"time_elapsed":44564,"internal_node_id":"0.0-0.0"},{"view_history":"[{\"page_index\":0,\"viewing_time\":2999},{\"page_index\":1,\"viewing_time\":21997}]","rt":24996,"trial_type":"instructions","trial_index":1,"time_elapsed":70561,"internal_node_id":"0.0-1.0"},{"group":"dicyclic group of order 12","room_assignment":["olive","blue","yellow","red","orange","pink","cyan","green","purple","grey","ivory","brown"],"door_color_assignment":["black","white"],"door_generator_assignment":[0,1],"goal":4,"start":0,"action_noise":0.15,"location_history":"[0,4]","action_history":"[1]","door_history":"[1]","location_rts":"[3037]","trial_type":"two-door-navigation","trial_index":2,"time_elapsed":78124,"internal_node_id":"0.0-2.0-0.0"},{"group":"dicyclic group of order 12","room_assignment":["olive","blue","yellow","red","orange","pink","cyan","green","purple","grey","ivory","brown"],"door_color_assignment":["black","white"],"door_generator_assignment":[0,1],"goal":9,"start":4,"action_noise":0.15,"location_history":"[4,8,0,4,9]","action_history":"[0,1,1,1]","door_history":"[0,1,1,1]","location_rts":"[1779,1152,523,617]","trial_type":"two-door-navigation","trial_index":3,"time_elapsed":89780,"internal_node_id":"0.0-2.0-1.0"},{"group":"dicyclic group of order 12","room_assignment":["olive","blue","yellow","red","orange","pink","cyan","green","purple","grey","ivory","brown"],"door_color_assignment":["black","white"],"door_generator_assignment":[0,1],"goal":10,"start":9,"action_noise":0.15,"location_history":"[9,6,10]","action_history":"[0,1]","door_history":"[0,1]","location_rts":"[1788,892]","trial_type":"two-door-navigation","trial_index":4,"time_elapsed":97999,"internal_node_id":"0.0-2.0-2.0"},{"group":"dicyclic group of order 12","room_assignment":["olive","blue","yellow","red","orange","pink","cyan","green","purple","grey","ivory","brown"],"door_color_assignment":["black","white"],"door_generator_assignment":[0,1],"goal":2,"start":10,"action_noise":0.15,"location_history":"[10,2]","action_history":"[1]","door_history":"[1]","location_rts":"[1051]","trial_type":"two-door-navigation","trial_index":5,"time_elapsed":103574,"internal_node_id":"0.0-2.0-3.0"},{"group":"dicyclic group of order 12","room_assignment":["olive","blue","yellow","red","orange","pink","cyan","green","purple","grey","ivory","brown"],"door_color_assignment":["black","white"],"door_generator_assignment":[0,1],"goal":5,"start":2,"action_noise":0.15,"location_history":"[2,3,7,8,5]","action_history":"[0,1,0,0]","door_history":"[0,1,0,0]","location_rts":"[1649,1194,647,739]","trial_type":"two-door-navigation","trial_index":6,"time_elapsed":115374,"internal_node_id":"0.0-2.0-4.0"},{"group":"dicyclic group of order 12","room_assignment":["olive","blue","yellow","red","orange","pink","cyan","green","purple","grey","ivory","brown"],"door_color_assignment":["black","white"],"door_generator_assignment":[0,1],"goal":11,"start":5,"action_noise":0.15,"location_history":"[5,9,1,2,6,10,7,8,5,10,7,11]","action_history":"[1,1,0,0,1,1,1,0,0,0,0]","door_history":"[1,1,0,0,1,1,1,0,0,0,0]","location_rts":"[817,939,1027,730,371,330,605,423,700,579,1194]","trial_type":"two-door-navigation","trial_index":7,"time_elapsed":137796,"internal_node_id":"0.0-2.0-5.0"},{"group":"dicyclic group of order 12","room_assignment":["olive","blue","yellow","red","orange","pink","cyan","green","purple","grey","ivory","brown"],"door_color_assignment":["black","white"],"door_generator_assignment":[0,1],"goal":6,"start":11,"action_noise":0.15,"location_history":"[11,3,7,8,0,1,5,9,6]","action_history":"[1,1,0,1,0,1,0,0]","door_history":"[1,1,0,1,0,1,0,0]","location_rts":"[1073,352,493,394,742,1440,738,625]","trial_type":"two-door-navigation","trial_index":8,"time_elapsed":155316,"internal_node_id":"0.0-2.0-6.0"},{"group":"dicyclic group of order 12","room_assignment":["olive","blue","yellow","red","orange","pink","cyan","green","purple","grey","ivory","brown"],"door_color_assignment":["black","white"],"door_generator_assignment":[0,1],"goal":3,"start":6,"action_noise":0.15,"location_history":"[6,11,3]","action_history":"[0,1]","door_history":"[0,1]","location_rts":"[484,493]","trial_type":"two-door-navigation","trial_index":9,"time_elapsed":161833,"internal_node_id":"0.0-2.0-7.0"},{"group":"dicyclic group of order 12","room_assignment":["olive","blue","yellow","red","orange","pink","cyan","green","purple","grey","ivory","brown"],"door_color_assignment":["black","white"],"door_generator_assignment":[0,1],"goal":8,"start":3,"action_noise":0.15,"location_history":"[3,7,11,4,9,1,5,10,2,6,10,7,8]","action_history":"[1,1,0,0,1,1,0,1,1,1,0,0]","door_history":"[1,1,0,0,1,1,0,1,1,1,0,0]","location_rts":"[927,343,315,342,368,1250,659,383,315,330,278,319]","trial_type":"two-door-navigation","trial_index":10,"time_elapsed":183398,"internal_node_id":"0.0-2.0-8.0"},{"group":"dicyclic group of order 12","room_assignment":["olive","blue","yellow","red","orange","pink","cyan","green","purple","grey","ivory","brown"],"door_color_assignment":["black","white"],"door_generator_assignment":[0,1],"goal":1,"start":8,"action_noise":0.15,"location_history":"[8,0,1]","action_history":"[1,0]","door_history":"[1,0]","location_rts":"[429,339]","trial_type":"two-door-navigation","trial_index":11,"time_elapsed":189703,"internal_node_id":"0.0-2.0-9.0"},{"group":"dicyclic group of order 12","room_assignment":["olive","blue","yellow","red","orange","pink","cyan","green","purple","grey","ivory","brown"],"door_color_assignment":["black","white"],"door_generator_assignment":[0,1],"goal":7,"start":1,"action_noise":0.15,"location_history":"[1,5,9,6,11,3,0,4,9,6,10,2,3,7]","action_history":"[1,1,0,0,1,1,1,0,0,1,1,0,1]","door_history":"[1,1,0,0,1,1,1,0,0,1,1,0,1]","location_rts":"[586,272,235,388,353,278,897,351,728,351,348,322,320]","trial_type":"two-door-navigation","trial_index":12,"time_elapsed":211874,"internal_node_id":"0.0-2.0-10.0"},{"group":"dicyclic group of order 12","room_assignment":["olive","blue","yellow","red","orange","pink","cyan","green","purple","grey","ivory","brown"],"door_color_assignment":["black","white"],"door_generator_assignment":[0,1],"goal":5,"start":7,"action_noise":0.15,"location_history":"[7,11,4,9,6,10,7,11,3,0,1,2,3,7,11,3,0,1,5]","action_history":"[1,0,0,0,1,1,1,1,0,0,0,1,1,1,0,0,0,1]","door_history":"[1,0,0,0,1,1,1,1,0,0,0,1,1,1,0,0,0,1]","location_rts":"[7243,737,363,381,317,521,366,411,370,390,363,335,550,824,275,425,387,451]","trial_type":"two-door-navigation","trial_index":13,"time_elapsed":248414,"internal_node_id":"0.0-2.0-11.0"},{"group":"dicyclic group of order 12","room_assignment":["olive","blue","yellow","red","orange","pink","cyan","green","purple","grey","ivory","brown"],"door_color_assignment":["black","white"],"door_generator_assignment":[0,1],"goal":8,"start":5,"action_noise":0.15,"location_history":"[5,9,1,2,6,10,2,6,10,7,8]","action_history":"[1,1,0,0,1,0,1,1,0,0]","door_history":"[1,1,0,0,1,0,1,1,0,0]","location_rts":"[674,361,262,310,263,271,326,742,1534,358]","trial_type":"two-door-navigation","trial_index":14,"time_elapsed":267197,"internal_node_id":"0.0-2.0-12.0"},{"group":"dicyclic group of order 12","room_assignment":["olive","blue","yellow","red","orange","pink","cyan","green","purple","grey","ivory","brown"],"door_color_assignment":["black","white"],"door_generator_assignment":[0,1],"goal":11,"start":8,"action_noise":0.15,"location_history":"[8,0,4,8,5,9,6,10,7,8,5,9,1,5,9,6,11]","action_history":"[1,1,1,0,1,0,0,0,0,1,1,1,1,1,0,0]","door_history":"[1,1,1,0,1,0,0,0,0,1,1,1,1,1,0,0]","location_rts":"[925,320,660,349,861,724,357,739,447,314,646,540,466,1004,403,300]","trial_type":"two-door-navigation","trial_index":15,"time_elapsed":296070,"internal_node_id":"0.0-2.0-13.0"},{"group":"dicyclic group of order 12","room_assignment":["olive","blue","yellow","red","orange","pink","cyan","green","purple","grey","ivory","brown"],"door_color_assignment":["black","white"],"door_generator_assignment":[0,1],"goal":6,"start":11,"action_noise":0.15,"location_history":"[11,3,0,1,5,10,7,8,0,4,9,1,5,10,7,8,0,4,8,0,1,5,9,6]","action_history":"[1,1,0,1,0,0,0,1,1,0,1,1,0,0,0,1,1,1,1,0,1,0,0]","door_history":"[1,1,0,1,0,0,0,1,1,0,1,1,0,0,0,1,1,1,1,0,1,0,0]","location_rts":"[317,296,536,784,406,341,354,327,324,504,411,677,376,373,463,271,302,305,296,293,694,401,797]","trial_type":"two-door-navigation","trial_index":16,"time_elapsed":332860,"internal_node_id":"0.0-2.0-14.0"},{"group":"dicyclic group of order 12","room_assignment":["olive","blue","yellow","red","orange","pink","cyan","green","purple","grey","ivory","brown"],"door_color_assignment":["black","white"],"door_generator_assignment":[0,1],"goal":7,"start":6,"action_noise":0.15,"location_history":"[6,10,2,3,0,4,9,6,11,3,0,4,9,1,2,6,11,4,8,0,4,8,0,1,2,3,7]","action_history":"[1,1,0,0,1,0,0,0,1,1,1,0,1,0,1,0,0,0,1,1,1,1,0,0,0,1]","door_history":"[1,1,0,0,1,0,0,0,1,1,1,0,1,0,1,0,0,0,1,1,1,1,0,0,0,1]","location_rts":"[467,326,250,261,999,589,463,392,539,270,335,673,805,711,506,415,445,437,350,724,359,626,830,358,353,325]","trial_type":"two-door-navigation","trial_index":17,"time_elapsed":375653,"internal_node_id":"0.0-2.0-15.0"},{"group":"dicyclic group of order 12","room_assignment":["olive","blue","yellow","red","orange","pink","cyan","green","purple","grey","ivory","brown"],"door_color_assignment":["black","white"],"door_generator_assignment":[0,1],"goal":10,"start":7,"action_noise":0.15,"location_history":"[7,11,4,9,1,2,3,7,11,3,7,11,4,8,5,9,6,10]","action_history":"[1,0,0,1,0,0,0,1,1,1,0,0,1,0,1,0,0]","door_history":"[1,0,0,1,0,0,0,1,1,1,0,0,1,0,1,0,0]","location_rts":"[769,331,248,280,267,342,342,285,243,275,303,377,427,430,1257,809,342]","trial_type":"two-door-navigation","trial_index":18,"time_elapsed":403781,"internal_node_id":"0.0-2.0-16.0"},{"group":"dicyclic group of order 12","room_assignment":["olive","blue","yellow","red","orange","pink","cyan","green","purple","grey","ivory","brown"],"door_color_assignment":["black","white"],"door_generator_assignment":[0,1],"goal":0,"start":10,"action_noise":0.15,"location_history":"[10,7,11,4,8,0]","action_history":"[1,0,0,0,1]","door_history":"[1,0,0,0,1]","location_rts":"[906,360,336,289,281]","trial_type":"two-door-navigation","trial_index":19,"time_elapsed":414561,"internal_node_id":"0.0-2.0-17.0"},{"group":"dicyclic group of order 12","room_assignment":["olive","blue","yellow","red","orange","pink","cyan","green","purple","grey","ivory","brown"],"door_color_assignment":["black","white"],"door_generator_assignment":[0,1],"goal":9,"start":0,"action_noise":0.15,"location_history":"[0,4,8,0,1,5,9]","action_history":"[1,0,0,1,1,1]","door_history":"[1,0,0,1,1,1]","location_rts":"[1169,241,398,325,279,350]","trial_type":"two-door-navigation","trial_index":20,"time_elapsed":426943,"internal_node_id":"0.0-2.0-18.0"},{"group":"dicyclic group of order 12","room_assignment":["olive","blue","yellow","red","orange","pink","cyan","green","purple","grey","ivory","brown"],"door_color_assignment":["black","white"],"door_generator_assignment":[0,1],"goal":4,"start":9,"action_noise":0.15,"location_history":"[9,1,2,3,0,1,5,9,6,11,3,0,4]","action_history":"[1,1,0,0,0,1,1,0,0,1,0,1]","door_history":"[1,1,0,0,0,1,1,0,0,1,0,1]","location_rts":"[717,250,431,312,707,358,710,339,324,382,712,588]","trial_type":"two-door-navigation","trial_index":21,"time_elapsed":448502,"internal_node_id":"0.0-2.0-19.0"},{"group":"dicyclic group of order 12","room_assignment":["olive","blue","yellow","red","orange","pink","cyan","green","purple","grey","ivory","brown"],"door_color_assignment":["black","white"],"door_generator_assignment":[0,1],"goal":2,"start":4,"action_noise":0.15,"location_history":"[4,9,1,2]","action_history":"[1,0,0]","door_history":"[1,0,0]","location_rts":"[866,319,301]","trial_type":"two-door-navigation","trial_index":22,"time_elapsed":456537,"internal_node_id":"0.0-2.0-20.0"},{"group":"dicyclic group of order 12","room_assignment":["olive","blue","yellow","red","orange","pink","cyan","green","purple","grey","ivory","brown"],"door_color_assignment":["black","white"],"door_generator_assignment":[0,1],"goal":1,"start":2,"action_noise":0.15,"location_history":"[2,6,10,7,8,0,1]","action_history":"[1,1,0,0,1,0]","door_history":"[1,1,0,0,1,0]","location_rts":"[937,464,395,379,423,547]","trial_type":"two-door-navigation","trial_index":23,"time_elapsed":469299,"internal_node_id":"0.0-2.0-21.0"},{"group":"dicyclic group of order 12","room_assignment":["olive","blue","yellow","red","orange","pink","cyan","green","purple","grey","ivory","brown"],"door_color_assignment":["black","white"],"door_generator_assignment":[0,1],"goal":3,"start":1,"action_noise":0.15,"location_history":"[1,5,9,1,2,3]","action_history":"[1,1,1,0,0]","door_history":"[1,1,1,0,0]","location_rts":"[1527,294,302,259,581]","trial_type":"two-door-navigation","trial_index":24,"time_elapsed":480855,"internal_node_id":"0.0-2.0-22.0"},{"group":"dicyclic group of order 12","room_assignment":["olive","blue","yellow","red","orange","pink","cyan","green","purple","grey","ivory","brown"],"door_color_assignment":["black","white"],"door_generator_assignment":[0,1],"goal":7,"start":3,"action_noise":0.15,"location_history":"[3,7]","action_history":"[1]","door_history":"[1]","location_rts":"[581]","trial_type":"two-door-navigation","trial_index":25,"time_elapsed":485966,"internal_node_id":"0.0-2.0-23.0"},{"group":"dicyclic group of order 12","room_assignment":["olive","blue","yellow","red","orange","pink","cyan","green","purple","grey","ivory","brown"],"door_color_assignment":["black","white"],"door_generator_assignment":[0,1],"goal":6,"start":7,"action_noise":0.15,"location_history":"[7,11,4,8,0,4,9,6]","action_history":"[1,0,0,1,1,0,0]","door_history":"[1,0,0,1,1,0,0]","location_rts":"[789,385,265,418,297,341,381]","trial_type":"two-door-navigation","trial_index":26,"time_elapsed":499465,"internal_node_id":"0.0-2.0-24.0"},{"group":"dicyclic group of order 12","room_assignment":["olive","blue","yellow","red","orange","pink","cyan","green","purple","grey","ivory","brown"],"door_color_assignment":["black","white"],"door_generator_assignment":[0,1],"goal":2,"start":6,"action_noise":0.15,"location_history":"[6,10,2]","action_history":"[1,1]","door_history":"[1,1]","location_rts":"[732,346]","trial_type":"two-door-navigation","trial_index":27,"time_elapsed":506081,"internal_node_id":"0.0-2.0-25.0"},{"group":"dicyclic group of order 12","room_assignment":["olive","blue","yellow","red","orange","pink","cyan","green","purple","grey","ivory","brown"],"door_color_assignment":["black","white"],"door_generator_assignment":[0,1],"goal":8,"start":2,"action_noise":0.15,"location_history":"[2,6,11,4,8]","action_history":"[1,0,0,0]","door_history":"[1,0,0,0]","location_rts":"[569,345,276,305]","trial_type":"two-door-navigation","trial_index":28,"time_elapsed":515158,"internal_node_id":"0.0-2.0-26.0"},{"group":"dicyclic group of order 12","room_assignment":["olive","blue","yellow","red","orange","pink","cyan","green","purple","grey","ivory","brown"],"door_color_assignment":["black","white"],"door_generator_assignment":[0,1],"goal":0,"start":8,"action_noise":0.15,"location_history":"[8,0]","action_history":"[1]","door_history":"[1]","location_rts":"[592]","trial_type":"two-door-navigation","trial_index":29,"time_elapsed":520268,"internal_node_id":"0.0-2.0-27.0"},{"group":"dicyclic group of order 12","room_assignment":["olive","blue","yellow","red","orange","pink","cyan","green","purple","grey","ivory","brown"],"door_color_assignment":["black","white"],"door_generator_assignment":[0,1],"goal":3,"start":0,"action_noise":0.15,"location_history":"[0,4,9,6,10,7,8,5,9,6,10,2,3]","action_history":"[1,0,0,1,1,0,0,1,1,1,0,0]","door_history":"[1,0,0,1,1,0,0,1,1,1,0,0]","location_rts":"[759,284,485,435,296,1075,556,328,351,537,305,316]","trial_type":"two-door-navigation","trial_index":30,"time_elapsed":541719,"internal_node_id":"0.0-2.0-28.0"},{"group":"dicyclic group of order 12","room_assignment":["olive","blue","yellow","red","orange","pink","cyan","green","purple","grey","ivory","brown"],"door_color_assignment":["black","white"],"door_generator_assignment":[0,1],"goal":4,"start":3,"action_noise":0.15,"location_history":"[3,7,8,5,10,2,3,0,1,5,9,6,10,2,6,10,2,3,7,8,5,9,6,10,2,6,11,4]","action_history":"[1,0,0,1,1,0,0,0,1,1,0,1,1,1,0,0,0,1,1,0,0,0,1,1,1,0,0]","door_history":"[1,0,0,1,1,0,0,0,1,1,0,1,1,1,0,0,0,1,1,0,0,0,1,1,1,0,0]","location_rts":"[1779,322,318,288,287,302,444,965,273,352,467,340,312,377,525,411,856,391,280,378,315,494,463,299,324,871,294]","trial_type":"two-door-navigation","trial_index":31,"time_elapsed":585444,"internal_node_id":"0.0-2.0-29.0"},{"group":"dicyclic group of order 12","room_assignment":["olive","blue","yellow","red","orange","pink","cyan","green","purple","grey","ivory","brown"],"door_color_assignment":["black","white"],"door_generator_assignment":[0,1],"goal":10,"start":4,"action_noise":0.15,"location_history":"[4,8,5,9,1,5,10]","action_history":"[1,0,0,1,1,0]","door_history":"[1,0,0,1,1,0]","location_rts":"[1231,296,262,686,333,938]","trial_type":"two-door-navigation","trial_index":32,"time_elapsed":598805,"internal_node_id":"0.0-2.0-30.0"},{"group":"dicyclic group of order 12","room_assignment":["olive","blue","yellow","red","orange","pink","cyan","green","purple","grey","ivory","brown"],"door_color_assignment":["black","white"],"door_generator_assignment":[0,1],"goal":11,"start":10,"action_noise":0.15,"location_history":"[10,2,3,0,4,9,6,10,2,6,11]","action_history":"[1,1,0,1,0,0,1,1,1,0]","door_history":"[1,1,0,1,0,0,1,1,1,0]","location_rts":"[416,264,263,1065,230,263,473,615,583,501]","trial_type":"two-door-navigation","trial_index":33,"time_elapsed":617174,"internal_node_id":"0.0-2.0-31.0"},{"group":"dicyclic group of order 12","room_assignment":["olive","blue","yellow","red","orange","pink","cyan","green","purple","grey","ivory","brown"],"door_color_assignment":["black","white"],"door_generator_assignment":[0,1],"goal":1,"start":11,"action_noise":0.15,"location_history":"[11,4,8,0,1]","action_history":"[0,1,1,0]","door_history":"[0,1,1,0]","location_rts":"[819,396,286,323]","trial_type":"two-door-navigation","trial_index":34,"time_elapsed":626570,"internal_node_id":"0.0-2.0-32.0"},{"group":"dicyclic group of order 12","room_assignment":["olive","blue","yellow","red","orange","pink","cyan","green","purple","grey","ivory","brown"],"door_color_assignment":["black","white"],"door_generator_assignment":[0,1],"goal":5,"start":1,"action_noise":0.15,"location_history":"[1,2,6,10,7,8,5]","action_history":"[0,1,1,0,0,0]","door_history":"[0,1,1,0,0,0]","location_rts":"[1005,412,221,236,277,550]","trial_type":"two-door-navigation","trial_index":35,"time_elapsed":638882,"internal_node_id":"0.0-2.0-33.0"},{"group":"dicyclic group of order 12","room_assignment":["olive","blue","yellow","red","orange","pink","cyan","green","purple","grey","ivory","brown"],"door_color_assignment":["black","white"],"door_generator_assignment":[0,1],"goal":9,"start":5,"action_noise":0.15,"location_history":"[5,9]","action_history":"[1]","door_history":"[1]","location_rts":"[615]","trial_type":"two-door-navigation","trial_index":36,"time_elapsed":644022,"internal_node_id":"0.0-2.0-34.0"},{"view_history":"[{\"page_index\":0,\"viewing_time\":2192}]","rt":2192,"trial_type":"instructions","trial_index":37,"time_elapsed":647214,"internal_node_id":"0.0-3.0"},{"view_history":"[{\"page_index\":0,\"viewing_time\":2267},{\"page_index\":1,\"viewing_time\":16358}]","rt":18625,"trial_type":"instructions","trial_index":38,"time_elapsed":666840,"internal_node_id":"0.0-4.0"},{"group":"dihedral group of order 12","fractal_assignment":["../images/cyn_red.png","../images/red_prp.png","../images/grn_blu.png","../images/grn_prp.png","../images/pnk_blu.png","../images/org_blu.png","../images/wht_red.png","../images/ylw_slt.png","../images/gry_blk.png","../images/grn_red.png","../images/blu_wht.png","../images/ylw_pnk.png"],"mutagen_generator_assignment":[0,1],"goal":4,"start":0,"action_noise":0.15,"location_history":"[0,6,11,5,0,6,0,6,0,6,0,1,2,3,4]","action_history":"[1,0,0,0,1,1,1,1,1,1,0,0,0,0]","mutagen_history":"[1,0,0,0,1,1,1,1,1,1,0,0,0,0]","location_rts":"[3037,1846,6489,1033,1031,1009,1157,842,468,745,564,859,556,492]","trial_type":"fractal-mutation","trial_index":39,"time_elapsed":705769,"internal_node_id":"0.0-5.0-0.0"},{"group":"dihedral group of order 12","fractal_assignment":["../images/cyn_red.png","../images/red_prp.png","../images/grn_blu.png","../images/grn_prp.png","../images/pnk_blu.png","../images/org_blu.png","../images/wht_red.png","../images/ylw_slt.png","../images/gry_blk.png","../images/grn_red.png","../images/blu_wht.png","../images/ylw_pnk.png"],"mutagen_generator_assignment":[0,1],"goal":9,"start":4,"action_noise":0.15,"location_history":"[4,10,4,10,9]","action_history":"[1,1,1,1]","mutagen_history":"[1,1,1,1]","location_rts":"[1074,655,647,460]","trial_type":"fractal-mutation","trial_index":40,"time_elapsed":716569,"internal_node_id":"0.0-5.0-1.0"},{"group":"dihedral group of order 12","fractal_assignment":["../images/cyn_red.png","../images/red_prp.png","../images/grn_blu.png","../images/grn_prp.png","../images/pnk_blu.png","../images/org_blu.png","../images/wht_red.png","../images/ylw_slt.png","../images/gry_blk.png","../images/grn_red.png","../images/blu_wht.png","../images/ylw_pnk.png"],"mutagen_generator_assignment":[0,1],"goal":10,"start":9,"action_noise":0.15,"location_history":"[9,8,2,3,9,8,2,8,2,8,7,1,7,1,7,1,2,3,9,3,9,3,4,5,11,5,11,5,11,10]","action_history":"[0,1,1,1,0,1,1,1,1,0,1,1,1,1,1,0,1,1,1,1,1,0,1,1,1,1,1,1,1]","mutagen_history":"[0,1,1,1,0,1,1,1,1,0,1,1,1,1,1,0,1,1,1,1,1,0,1,1,1,1,1,1,1]","location_rts":"[995,389,256,352,398,272,397,606,370,865,441,366,388,398,403,288,321,372,366,416,378,404,556,356,395,306,315,346,312]","trial_type":"fractal-mutation","trial_index":41,"time_elapsed":764111,"internal_node_id":"0.0-5.0-2.0"},{"group":"dihedral group of order 12","fractal_assignment":["../images/cyn_red.png","../images/red_prp.png","../images/grn_blu.png","../images/grn_prp.png","../images/pnk_blu.png","../images/org_blu.png","../images/wht_red.png","../images/ylw_slt.png","../images/gry_blk.png","../images/grn_red.png","../images/blu_wht.png","../images/ylw_pnk.png"],"mutagen_generator_assignment":[0,1],"goal":2,"start":10,"action_noise":0.15,"location_history":"[10,4,5,0,1,7,6,0,6,11,10,4,10,4,5,0,6,0,6,0,6,0,1,2]","action_history":"[1,0,0,0,1,1,1,1,1,0,1,1,1,1,1,1,0,1,1,1,1,0,0]","mutagen_history":"[1,0,0,0,1,1,1,1,1,0,1,1,1,1,1,1,0,1,1,1,1,0,0]","location_rts":"[520,697,261,937,769,619,348,453,481,343,359,299,347,423,384,415,438,525,365,663,399,272,459]","trial_type":"fractal-mutation","trial_index":42,"time_elapsed":803683,"internal_node_id":"0.0-5.0-3.0"},{"group":"dihedral group of order 12","fractal_assignment":["../images/cyn_red.png","../images/red_prp.png","../images/grn_blu.png","../images/grn_prp.png","../images/pnk_blu.png","../images/org_blu.png","../images/wht_red.png","../images/ylw_slt.png","../images/gry_blk.png","../images/grn_red.png","../images/blu_wht.png","../images/ylw_pnk.png"],"mutagen_generator_assignment":[0,1],"goal":5,"start":2,"action_noise":0.15,"location_history":"[2,8,2,8,2,8,7,6,0,1,7,1,2,3,9,3,4,5]","action_history":"[1,1,1,1,0,1,1,1,0,1,1,0,1,1,1,0,0]","mutagen_history":"[1,1,1,1,0,1,1,1,0,1,1,0,1,1,1,0,0]","location_rts":"[1307,431,677,413,506,371,531,439,752,1017,590,1116,566,402,399,550,601]","trial_type":"fractal-mutation","trial_index":43,"time_elapsed":836544,"internal_node_id":"0.0-5.0-4.0"},{"group":"dihedral group of order 12","fractal_assignment":["../images/cyn_red.png","../images/red_prp.png","../images/grn_blu.png","../images/grn_prp.png","../images/pnk_blu.png","../images/org_blu.png","../images/wht_red.png","../images/ylw_slt.png","../images/gry_blk.png","../images/grn_red.png","../images/blu_wht.png","../images/ylw_pnk.png"],"mutagen_generator_assignment":[0,1],"goal":11,"start":5,"action_noise":0.15,"location_history":"[5,0,6,11]","action_history":"[0,1,1]","mutagen_history":"[0,1,1]","location_rts":"[1357,602,751]","trial_type":"fractal-mutation","trial_index":44,"time_elapsed":846000,"internal_node_id":"0.0-5.0-5.0"},{"group":"dihedral group of order 12","fractal_assignment":["../images/cyn_red.png","../images/red_prp.png","../images/grn_blu.png","../images/grn_prp.png","../images/pnk_blu.png","../images/org_blu.png","../images/wht_red.png","../images/ylw_slt.png","../images/gry_blk.png","../images/grn_red.png","../images/blu_wht.png","../images/ylw_pnk.png"],"mutagen_generator_assignment":[0,1],"goal":6,"start":11,"action_noise":0.15,"location_history":"[11,5,11,5,11,5,0,6]","action_history":"[0,1,1,1,1,0,1]","mutagen_history":"[0,1,1,1,1,0,1]","location_rts":"[2709,1147,787,1003,495,647,389]","trial_type":"fractal-mutation","trial_index":45,"time_elapsed":864329,"internal_node_id":"0.0-5.0-6.0"},{"group":"dihedral group of order 12","fractal_assignment":["../images/cyn_red.png","../images/red_prp.png","../images/grn_blu.png","../images/grn_prp.png","../images/pnk_blu.png","../images/org_blu.png","../images/wht_red.png","../images/ylw_slt.png","../images/gry_blk.png","../images/grn_red.png","../images/blu_wht.png","../images/ylw_pnk.png"],"mutagen_generator_assignment":[0,1],"goal":3,"start":6,"action_noise":0.15,"location_history":"[6,11,5,11,5,0,1,7,1,2,8,2,8,2,8,7,6,11,10,9,8,7,1,2,8,2,8,2,3]","action_history":"[0,1,1,1,0,0,0,1,1,1,0,1,1,1,0,0,0,0,0,0,0,1,0,1,1,1,1,0]","mutagen_history":"[0,1,1,1,0,0,0,1,1,1,0,1,1,1,0,0,0,0,0,0,0,1,0,1,1,1,1,0]","location_rts":"[316,293,402,535,423,602,768,749,337,788,432,578,406,463,320,782,412,430,565,636,658,491,610,593,401,416,348,593]","trial_type":"fractal-mutation","trial_index":46,"time_elapsed":912684,"internal_node_id":"0.0-5.0-7.0"},{"group":"dihedral group of order 12","fractal_assignment":["../images/cyn_red.png","../images/red_prp.png","../images/grn_blu.png","../images/grn_prp.png","../images/pnk_blu.png","../images/org_blu.png","../images/wht_red.png","../images/ylw_slt.png","../images/gry_blk.png","../images/grn_red.png","../images/blu_wht.png","../images/ylw_pnk.png"],"mutagen_generator_assignment":[0,1],"goal":8,"start":3,"action_noise":0.15,"location_history":"[3,9,8]","action_history":"[0,0]","mutagen_history":"[0,0]","location_rts":"[866,455]","trial_type":"fractal-mutation","trial_index":47,"time_elapsed":919560,"internal_node_id":"0.0-5.0-8.0"},{"group":"dihedral group of order 12","fractal_assignment":["../images/cyn_red.png","../images/red_prp.png","../images/grn_blu.png","../images/grn_prp.png","../images/pnk_blu.png","../images/org_blu.png","../images/wht_red.png","../images/ylw_slt.png","../images/gry_blk.png","../images/grn_red.png","../images/blu_wht.png","../images/ylw_pnk.png"],"mutagen_generator_assignment":[0,1],"goal":1,"start":8,"action_noise":0.15,"location_history":"[8,2,3,9,3,9,3,4,10,9,3,9,8,2,3,9,8,2,8,7,1]","action_history":"[1,1,1,1,1,1,0,1,1,1,1,0,1,1,1,0,1,1,0,1]","mutagen_history":"[1,1,1,1,1,1,0,1,1,1,1,0,1,1,1,0,1,1,0,1]","location_rts":"[934,368,349,417,321,369,497,646,489,389,432,429,276,425,422,344,301,463,233,314]","trial_type":"fractal-mutation","trial_index":48,"time_elapsed":953530,"internal_node_id":"0.0-5.0-9.0"},{"group":"dihedral group of order 12","fractal_assignment":["../images/cyn_red.png","../images/red_prp.png","../images/grn_blu.png","../images/grn_prp.png","../images/pnk_blu.png","../images/org_blu.png","../images/wht_red.png","../images/ylw_slt.png","../images/gry_blk.png","../images/grn_red.png","../images/blu_wht.png","../images/ylw_pnk.png"],"mutagen_generator_assignment":[0,1],"goal":7,"start":1,"action_noise":0.15,"location_history":"[1,7]","action_history":"[1]","mutagen_history":"[1]","location_rts":"[903]","trial_type":"fractal-mutation","trial_index":49,"time_elapsed":959050,"internal_node_id":"0.0-5.0-10.0"},{"group":"dihedral group of order 12","fractal_assignment":["../images/cyn_red.png","../images/red_prp.png","../images/grn_blu.png","../images/grn_prp.png","../images/pnk_blu.png","../images/org_blu.png","../images/wht_red.png","../images/ylw_slt.png","../images/gry_blk.png","../images/grn_red.png","../images/blu_wht.png","../images/ylw_pnk.png"],"mutagen_generator_assignment":[0,1],"goal":5,"start":7,"action_noise":0.15,"location_history":"[7,1,7,6,0,6,11,5]","action_history":"[1,1,0,1,1,0,1]","mutagen_history":"[1,1,0,1,1,0,1]","location_rts":"[836,809,734,504,377,692,350]","trial_type":"fractal-mutation","trial_index":50,"time_elapsed":974551,"internal_node_id":"0.0-5.0-11.0"},{"group":"dihedral group of order 12","fractal_assignment":["../images/cyn_red.png","../images/red_prp.png","../images/grn_blu.png","../images/grn_prp.png","../images/pnk_blu.png","../images/org_blu.png","../images/wht_red.png","../images/ylw_slt.png","../images/gry_blk.png","../images/grn_red.png","../images/blu_wht.png","../images/ylw_pnk.png"],"mutagen_generator_assignment":[0,1],"goal":8,"start":5,"action_noise":0.15,"location_history":"[5,0,6,0,6,11,10,4,10,9,8]","action_history":"[0,1,1,1,0,0,1,1,0,0]","mutagen_history":"[0,1,1,1,0,0,1,1,0,0]","location_rts":"[552,465,281,314,293,317,455,357,300,355]","trial_type":"fractal-mutation","trial_index":51,"time_elapsed":992616,"internal_node_id":"0.0-5.0-12.0"},{"group":"dihedral group of order 12","fractal_assignment":["../images/cyn_red.png","../images/red_prp.png","../images/grn_blu.png","../images/grn_prp.png","../images/pnk_blu.png","../images/org_blu.png","../images/wht_red.png","../images/ylw_slt.png","../images/gry_blk.png","../images/grn_red.png","../images/blu_wht.png","../images/ylw_pnk.png"],"mutagen_generator_assignment":[0,1],"goal":11,"start":8,"action_noise":0.15,"location_history":"[8,2,8,7,1,2,3,4,10,4,5,0,6,0,1,7,1,7,6,0,6,11]","action_history":"[1,1,0,1,0,1,0,1,1,0,1,1,1,0,1,1,1,0,1,1,0]","mutagen_history":"[1,1,0,1,0,1,0,1,1,0,1,1,1,0,1,1,1,0,1,1,0]","location_rts":"[637,364,248,605,790,399,376,379,470,522,732,494,398,440,445,308,393,381,336,367,696]","trial_type":"fractal-mutation","trial_index":52,"time_elapsed":1028932,"internal_node_id":"0.0-5.0-13.0"},{"group":"dihedral group of order 12","fractal_assignment":["../images/cyn_red.png","../images/red_prp.png","../images/grn_blu.png","../images/grn_prp.png","../images/pnk_blu.png","../images/org_blu.png","../images/wht_red.png","../images/ylw_slt.png","../images/gry_blk.png","../images/grn_red.png","../images/blu_wht.png","../images/ylw_pnk.png"],"mutagen_generator_assignment":[0,1],"goal":6,"start":11,"action_noise":0.15,"location_history":"[11,10,9,3,4,10,4,5,11,5,0,1,2,3,9,3,4,10,4,5,11,10,9,3,9,8,7,6]","action_history":"[0,1,1,0,1,1,0,1,1,0,0,0,0,1,1,1,1,1,0,1,1,1,1,0,1,0,0]","mutagen_history":"[0,1,1,0,1,1,0,1,1,0,0,0,0,1,1,1,1,1,0,1,1,1,1,0,1,0,0]","location_rts":"[801,452,365,425,416,392,446,419,592,629,435,323,330,333,325,372,202,382,471,334,366,368,355,409,387,502,286]","trial_type":"fractal-mutation","trial_index":53,"time_elapsed":1073118,"internal_node_id":"0.0-5.0-14.0"},{"group":"dihedral group of order 12","fractal_assignment":["../images/cyn_red.png","../images/red_prp.png","../images/grn_blu.png","../images/grn_prp.png","../images/pnk_blu.png","../images/org_blu.png","../images/wht_red.png","../images/ylw_slt.png","../images/gry_blk.png","../images/grn_red.png","../images/blu_wht.png","../images/ylw_pnk.png"],"mutagen_generator_assignment":[0,1],"goal":7,"start":6,"action_noise":0.15,"location_history":"[6,0,6,0,6,0,6,11,10,4,10,9,8,7]","action_history":"[1,0,1,1,1,1,0,0,1,1,1,0,0]","mutagen_history":"[1,0,1,1,1,1,0,0,1,1,1,0,0]","location_rts":"[319,541,708,504,351,403,408,353,517,342,465,508,902]","trial_type":"fractal-mutation","trial_index":54,"time_elapsed":1097197,"internal_node_id":"0.0-5.0-15.0"},{"group":"dihedral group of order 12","fractal_assignment":["../images/cyn_red.png","../images/red_prp.png","../images/grn_blu.png","../images/grn_prp.png","../images/pnk_blu.png","../images/org_blu.png","../images/wht_red.png","../images/ylw_slt.png","../images/gry_blk.png","../images/grn_red.png","../images/blu_wht.png","../images/ylw_pnk.png"],"mutagen_generator_assignment":[0,1],"goal":10,"start":7,"action_noise":0.15,"location_history":"[7,1,2,8,2,8,2,8,7,1,2,3,4,10]","action_history":"[1,0,1,1,1,1,1,0,1,0,0,0,1]","mutagen_history":"[1,0,1,1,1,1,1,0,1,0,0,0,1]","location_rts":"[678,623,401,264,390,849,322,291,930,386,500,562,560]","trial_type":"fractal-mutation","trial_index":55,"time_elapsed":1121700,"internal_node_id":"0.0-5.0-16.0"},{"group":"dihedral group of order 12","fractal_assignment":["../images/cyn_red.png","../images/red_prp.png","../images/grn_blu.png","../images/grn_prp.png","../images/pnk_blu.png","../images/org_blu.png","../images/wht_red.png","../images/ylw_slt.png","../images/gry_blk.png","../images/grn_red.png","../images/blu_wht.png","../images/ylw_pnk.png"],"mutagen_generator_assignment":[0,1],"goal":0,"start":10,"action_noise":0.15,"location_history":"[10,9,3,9,3,4,5,11,10,9,3,9,3,4,5,0]","action_history":"[1,1,1,1,0,0,1,1,0,1,1,1,1,0,0]","mutagen_history":"[1,1,1,1,0,0,1,1,0,1,1,1,1,0,0]","location_rts":"[592,445,445,399,384,305,358,330,325,500,335,348,238,342,401]","trial_type":"fractal-mutation","trial_index":56,"time_elapsed":1147426,"internal_node_id":"0.0-5.0-17.0"},{"group":"dihedral group of order 12","fractal_assignment":["../images/cyn_red.png","../images/red_prp.png","../images/grn_blu.png","../images/grn_prp.png","../images/pnk_blu.png","../images/org_blu.png","../images/wht_red.png","../images/ylw_slt.png","../images/gry_blk.png","../images/grn_red.png","../images/blu_wht.png","../images/ylw_pnk.png"],"mutagen_generator_assignment":[0,1],"goal":9,"start":0,"action_noise":0.15,"location_history":"[0,1,2,8,7,1,2,3,9]","action_history":"[0,1,1,1,1,1,0,1]","mutagen_history":"[0,1,1,1,1,1,0,1]","location_rts":"[554,366,348,339,373,418,318,536]","trial_type":"fractal-mutation","trial_index":57,"time_elapsed":1162930,"internal_node_id":"0.0-5.0-18.0"},{"group":"dihedral group of order 12","fractal_assignment":["../images/cyn_red.png","../images/red_prp.png","../images/grn_blu.png","../images/grn_prp.png","../images/pnk_blu.png","../images/org_blu.png","../images/wht_red.png","../images/ylw_slt.png","../images/gry_blk.png","../images/grn_red.png","../images/blu_wht.png","../images/ylw_pnk.png"],"mutagen_generator_assignment":[0,1],"goal":4,"start":9,"action_noise":0.15,"location_history":"[9,3,4]","action_history":"[1,0]","mutagen_history":"[1,0]","location_rts":"[840,373]","trial_type":"fractal-mutation","trial_index":58,"time_elapsed":1169821,"internal_node_id":"0.0-5.0-19.0"},{"group":"dihedral group of order 12","fractal_assignment":["../images/cyn_red.png","../images/red_prp.png","../images/grn_blu.png","../images/grn_prp.png","../images/pnk_blu.png","../images/org_blu.png","../images/wht_red.png","../images/ylw_slt.png","../images/gry_blk.png","../images/grn_red.png","../images/blu_wht.png","../images/ylw_pnk.png"],"mutagen_generator_assignment":[0,1],"goal":2,"start":4,"action_noise":0.15,"location_history":"[4,10,4,5,11,5,11,5,0,1,7,1,7,1,2]","action_history":"[1,1,0,1,1,1,1,0,1,1,1,1,0,0]","mutagen_history":"[1,1,0,1,1,1,1,0,1,1,1,1,0,0]","location_rts":"[810,367,662,220,353,299,368,434,293,344,394,377,206,605]","trial_type":"fractal-mutation","trial_index":59,"time_elapsed":1194425,"internal_node_id":"0.0-5.0-20.0"},{"group":"dihedral group of order 12","fractal_assignment":["../images/cyn_red.png","../images/red_prp.png","../images/grn_blu.png","../images/grn_prp.png","../images/pnk_blu.png","../images/org_blu.png","../images/wht_red.png","../images/ylw_slt.png","../images/gry_blk.png","../images/grn_red.png","../images/blu_wht.png","../images/ylw_pnk.png"],"mutagen_generator_assignment":[0,1],"goal":1,"start":2,"action_noise":0.15,"location_history":"[2,3,9,8,7,6,11,10,9,3,9,3,9,3,9,8,7,6,0,6,0,6,11,5,0,6,11,5,11,5,11,10,4,10,4,10,9,3,4,5,0,6,11,5,0,6,0,6,0,1]","action_history":"[1,1,0,0,0,0,0,0,1,1,1,1,1,1,0,0,0,1,1,1,1,0,1,1,1,0,1,1,1,1,0,1,1,1,1,0,1,1,0,0,1,1,1,0,1,1,1,1,0]","mutagen_history":"[1,1,0,0,0,0,0,0,1,1,1,1,1,1,0,0,0,1,1,1,1,0,1,1,1,0,1,1,1,1,0,1,1,1,1,0,1,1,0,0,1,1,1,0,1,1,1,1,0]","location_rts":"[636,428,445,249,298,301,569,496,359,406,409,235,840,395,399,724,400,416,306,303,441,264,222,277,315,251,501,318,853,901,300,600,291,298,387,242,285,337,398,685,258,369,403,317,543,435,456,467,400]","trial_type":"fractal-mutation","trial_index":60,"time_elapsed":1272094,"internal_node_id":"0.0-5.0-21.0"},{"group":"dihedral group of order 12","fractal_assignment":["../images/cyn_red.png","../images/red_prp.png","../images/grn_blu.png","../images/grn_prp.png","../images/pnk_blu.png","../images/org_blu.png","../images/wht_red.png","../images/ylw_slt.png","../images/gry_blk.png","../images/grn_red.png","../images/blu_wht.png","../images/ylw_pnk.png"],"mutagen_generator_assignment":[0,1],"goal":3,"start":1,"action_noise":0.15,"location_history":"[1,2,8,7,6,11,5,11,5,0,1,7,1,7,6,11,5,11,5,11,10,9,3]","action_history":"[1,1,1,0,0,1,1,1,0,0,1,1,1,0,0,1,1,1,1,0,0,1]","mutagen_history":"[1,1,1,0,0,1,1,1,0,0,1,1,1,0,0,1,1,1,1,0,0,1]","location_rts":"[692,1010,296,420,303,251,304,302,302,275,655,336,316,377,314,367,336,314,318,273,296,688]","trial_type":"fractal-mutation","trial_index":61,"time_elapsed":1308380,"internal_node_id":"0.0-5.0-22.0"},{"group":"dihedral group of order 12","fractal_assignment":["../images/cyn_red.png","../images/red_prp.png","../images/grn_blu.png","../images/grn_prp.png","../images/pnk_blu.png","../images/org_blu.png","../images/wht_red.png","../images/ylw_slt.png","../images/gry_blk.png","../images/grn_red.png","../images/blu_wht.png","../images/ylw_pnk.png"],"mutagen_generator_assignment":[0,1],"goal":7,"start":3,"action_noise":0.15,"location_history":"[3,9,8,2,3,4,10,4,10,9,8,2,3,9,3,4,5,0,6,0,6,11,5,11,5,0,1,2,8,2,8,7]","action_history":"[1,1,1,0,0,1,1,1,0,0,1,1,1,0,0,0,1,1,1,1,0,1,1,1,0,0,0,1,1,1,1]","mutagen_history":"[1,1,1,0,0,1,1,1,0,0,1,1,1,0,0,0,1,1,1,1,0,1,1,1,0,0,0,1,1,1,1]","location_rts":"[976,321,486,358,11290,444,386,353,499,805,449,326,332,407,378,519,382,311,395,417,198,335,398,318,188,285,380,434,245,284,354]","trial_type":"fractal-mutation","trial_index":62,"time_elapsed":1369060,"internal_node_id":"0.0-5.0-23.0"},{"group":"dihedral group of order 12","fractal_assignment":["../images/cyn_red.png","../images/red_prp.png","../images/grn_blu.png","../images/grn_prp.png","../images/pnk_blu.png","../images/org_blu.png","../images/wht_red.png","../images/ylw_slt.png","../images/gry_blk.png","../images/grn_red.png","../images/blu_wht.png","../images/ylw_pnk.png"],"mutagen_generator_assignment":[0,1],"goal":6,"start":7,"action_noise":0.15,"location_history":"[7,1,2,3,4,10,4,10,9,8,7,1,7,1,7,6]","action_history":"[1,0,0,0,1,1,1,0,0,0,1,1,1,1,0]","mutagen_history":"[1,0,0,0,1,1,1,0,0,0,1,1,1,1,0]","location_rts":"[4875,327,373,615,530,349,357,586,328,413,337,555,444,439,259]","trial_type":"fractal-mutation","trial_index":63,"time_elapsed":1399726,"internal_node_id":"0.0-5.0-24.0"},{"group":"dihedral group of order 12","fractal_assignment":["../images/cyn_red.png","../images/red_prp.png","../images/grn_blu.png","../images/grn_prp.png","../images/pnk_blu.png","../images/org_blu.png","../images/wht_red.png","../images/ylw_slt.png","../images/gry_blk.png","../images/grn_red.png","../images/blu_wht.png","../images/ylw_pnk.png"],"mutagen_generator_assignment":[0,1],"goal":2,"start":6,"action_noise":0.15,"location_history":"[6,0,6,11,5,11,5,0,1,7,1,2]","action_history":"[1,1,0,1,1,1,0,0,1,1,0]","mutagen_history":"[1,1,0,1,1,1,0,0,1,1,0]","location_rts":"[582,370,307,466,266,420,210,418,229,244,615]","trial_type":"fractal-mutation","trial_index":64,"time_elapsed":1419377,"internal_node_id":"0.0-5.0-25.0"},{"group":"dihedral group of order 12","fractal_assignment":["../images/cyn_red.png","../images/red_prp.png","../images/grn_blu.png","../images/grn_prp.png","../images/pnk_blu.png","../images/org_blu.png","../images/wht_red.png","../images/ylw_slt.png","../images/gry_blk.png","../images/grn_red.png","../images/blu_wht.png","../images/ylw_pnk.png"],"mutagen_generator_assignment":[0,1],"goal":8,"start":2,"action_noise":0.15,"location_history":"[2,8]","action_history":"[1]","mutagen_history":"[1]","location_rts":"[933]","trial_type":"fractal-mutation","trial_index":65,"time_elapsed":1424934,"internal_node_id":"0.0-5.0-26.0"},{"group":"dihedral group of order 12","fractal_assignment":["../images/cyn_red.png","../images/red_prp.png","../images/grn_blu.png","../images/grn_prp.png","../images/pnk_blu.png","../images/org_blu.png","../images/wht_red.png","../images/ylw_slt.png","../images/gry_blk.png","../images/grn_red.png","../images/blu_wht.png","../images/ylw_pnk.png"],"mutagen_generator_assignment":[0,1],"goal":0,"start":8,"action_noise":0.15,"location_history":"[8,7,6,11,10,4,10,4,10,9,3,9,3,9,3,9,3,9,3,4,5,0]","action_history":"[0,0,0,0,1,1,1,0,0,1,1,0,1,1,1,0,1,1,0,1,1]","mutagen_history":"[0,0,0,0,1,1,1,0,0,1,1,0,1,1,1,0,1,1,0,1,1]","location_rts":"[746,434,447,345,398,336,365,366,543,451,333,867,738,361,450,710,962,373,581,698,459]","trial_type":"fractal-mutation","trial_index":66,"time_elapsed":1462123,"internal_node_id":"0.0-5.0-27.0"},{"group":"dihedral group of order 12","fractal_assignment":["../images/cyn_red.png","../images/red_prp.png","../images/grn_blu.png","../images/grn_prp.png","../images/pnk_blu.png","../images/org_blu.png","../images/wht_red.png","../images/ylw_slt.png","../images/gry_blk.png","../images/grn_red.png","../images/blu_wht.png","../images/ylw_pnk.png"],"mutagen_generator_assignment":[0,1],"goal":3,"start":0,"action_noise":0.15,"location_history":"[0,6,11,5,11,5,0,6,0,1,7,1,7,6,0,6,0,6,0,1,7,6,11,5,0,6,0,1,2,3]","action_history":"[1,0,0,1,1,0,1,1,0,1,1,0,0,0,1,1,1,1,0,0,0,0,1,1,1,1,0,0,0]","mutagen_history":"[1,0,0,1,1,0,1,1,0,1,1,0,0,0,1,1,1,1,0,0,0,0,1,1,1,1,0,0,0]","location_rts":"[741,416,346,373,389,319,799,290,471,631,331,418,333,379,385,502,577,550,552,425,458,413,490,336,410,395,400,334,383]","trial_type":"fractal-mutation","trial_index":67,"time_elapsed":1509998,"internal_node_id":"0.0-5.0-28.0"},{"group":"dihedral group of order 12","fractal_assignment":["../images/cyn_red.png","../images/red_prp.png","../images/grn_blu.png","../images/grn_prp.png","../images/pnk_blu.png","../images/org_blu.png","../images/wht_red.png","../images/ylw_slt.png","../images/gry_blk.png","../images/grn_red.png","../images/blu_wht.png","../images/ylw_pnk.png"],"mutagen_generator_assignment":[0,1],"goal":4,"start":3,"action_noise":0.15,"location_history":"[3,9,8,7,1,7,1,7,6,11,5,11,5,11,10,4]","action_history":"[1,0,0,1,1,1,0,0,0,1,1,1,1,0,1]","mutagen_history":"[1,0,0,1,1,1,0,0,0,1,1,1,1,0,1]","location_rts":"[666,423,292,400,283,340,329,391,440,367,363,385,421,406,636]","trial_type":"fractal-mutation","trial_index":68,"time_elapsed":1536020,"internal_node_id":"0.0-5.0-29.0"},{"group":"dihedral group of order 12","fractal_assignment":["../images/cyn_red.png","../images/red_prp.png","../images/grn_blu.png","../images/grn_prp.png","../images/pnk_blu.png","../images/org_blu.png","../images/wht_red.png","../images/ylw_slt.png","../images/gry_blk.png","../images/grn_red.png","../images/blu_wht.png","../images/ylw_pnk.png"],"mutagen_generator_assignment":[0,1],"goal":10,"start":4,"action_noise":0.15,"location_history":"[4,10]","action_history":"[0]","mutagen_history":"[0]","location_rts":"[690]","trial_type":"fractal-mutation","trial_index":69,"time_elapsed":1541240,"internal_node_id":"0.0-5.0-30.0"},{"group":"dihedral group of order 12","fractal_assignment":["../images/cyn_red.png","../images/red_prp.png","../images/grn_blu.png","../images/grn_prp.png","../images/pnk_blu.png","../images/org_blu.png","../images/wht_red.png","../images/ylw_slt.png","../images/gry_blk.png","../images/grn_red.png","../images/blu_wht.png","../images/ylw_pnk.png"],"mutagen_generator_assignment":[0,1],"goal":11,"start":10,"action_noise":0.15,"location_history":"[10,4,5,0,1,7,6,11]","action_history":"[1,0,0,1,1,0,0]","mutagen_history":"[1,0,0,1,1,0,0]","location_rts":"[604,460,443,455,416,492,380]","trial_type":"fractal-mutation","trial_index":70,"time_elapsed":1555595,"internal_node_id":"0.0-5.0-31.0"},{"group":"dihedral group of order 12","fractal_assignment":["../images/cyn_red.png","../images/red_prp.png","../images/grn_blu.png","../images/grn_prp.png","../images/pnk_blu.png","../images/org_blu.png","../images/wht_red.png","../images/ylw_slt.png","../images/gry_blk.png","../images/grn_red.png","../images/blu_wht.png","../images/ylw_pnk.png"],"mutagen_generator_assignment":[0,1],"goal":1,"start":11,"action_noise":0.15,"location_history":"[11,10,9,8,7,6,0,1]","action_history":"[1,0,0,0,1,1,0]","mutagen_history":"[1,0,0,0,1,1,0]","location_rts":"[561,743,382,376,377,462,368]","trial_type":"fractal-mutation","trial_index":71,"time_elapsed":1569959,"internal_node_id":"0.0-5.0-32.0"},{"group":"dihedral group of order 12","fractal_assignment":["../images/cyn_red.png","../images/red_prp.png","../images/grn_blu.png","../images/grn_prp.png","../images/pnk_blu.png","../images/org_blu.png","../images/wht_red.png","../images/ylw_slt.png","../images/gry_blk.png","../images/grn_red.png","../images/blu_wht.png","../images/ylw_pnk.png"],"mutagen_generator_assignment":[0,1],"goal":5,"start":1,"action_noise":0.15,"location_history":"[1,7,6,11,10,4,5]","action_history":"[1,0,0,1,1,0]","mutagen_history":"[1,0,0,1,1,0]","location_rts":"[427,350,296,399,702,476]","trial_type":"fractal-mutation","trial_index":72,"time_elapsed":1582640,"internal_node_id":"0.0-5.0-33.0"},{"group":"dihedral group of order 12","fractal_assignment":["../images/cyn_red.png","../images/red_prp.png","../images/grn_blu.png","../images/grn_prp.png","../images/pnk_blu.png","../images/org_blu.png","../images/wht_red.png","../images/ylw_slt.png","../images/gry_blk.png","../images/grn_red.png","../images/blu_wht.png","../images/ylw_pnk.png"],"mutagen_generator_assignment":[0,1],"goal":9,"start":5,"action_noise":0.15,"location_history":"[5,11,10,9]","action_history":"[1,0,0]","mutagen_history":"[1,0,0]","location_rts":"[522,692,448]","trial_type":"fractal-mutation","trial_index":73,"time_elapsed":1591045,"internal_node_id":"0.0-5.0-34.0"},{"view_history":"[{\"page_index\":0,\"viewing_time\":12817}]","rt":12817,"trial_type":"instructions","trial_index":74,"time_elapsed":1604862,"internal_node_id":"0.0-6.0"},{"rt":2139,"responses":"{\"Q0\":\"\"}","trial_type":"survey-text","trial_index":75,"time_elapsed":1608007,"internal_node_id":"0.0-7.0"}]