[{"view_history":"[{\"page_index\":0,\"viewing_time\":144034},{\"page_index\":1,\"viewing_time\":11893},{\"page_index\":2,\"viewing_time\":22568},{\"page_index\":3,\"viewing_time\":7730}]","rt":186225,"trial_type":"instructions","trial_index":0,"time_elapsed":186227,"internal_node_id":"0.0-0.0"},{"view_history":"[{\"page_index\":0,\"viewing_time\":2331},{\"page_index\":1,\"viewing_time\":55812}]","rt":58144,"trial_type":"instructions","trial_index":1,"time_elapsed":245373,"internal_node_id":"0.0-1.0"},{"group":"dicyclic group of order 12","room_assignment":["brown","green","purple","blue","red","yellow","pink","ivory","orange","grey","olive","cyan"],"door_color_assignment":["white","black"],"door_generator_assignment":[1,0],"goal":4,"start":0,"action_noise":0.15,"location_history":"[0,1,2,3,7,8,0,1,5,10,7,11,3,7,8,0,4]","action_history":"[1,0,0,1,1,1,0,0,0,0,1,1,1,1,1,1]","door_history":"[0,1,1,0,0,0,1,1,1,1,0,0,0,0,0,0]","location_rts":"[4007,3845,2355,1018,925,803,1072,836,705,940,1465,971,895,1053,839,1137]","trial_type":"two-door-navigation","trial_index":2,"time_elapsed":288896,"internal_node_id":"0.0-2.0-0.0"},{"group":"dicyclic group of order 12","room_assignment":["brown","green","purple","blue","red","yellow","pink","ivory","orange","grey","olive","cyan"],"door_color_assignment":["white","black"],"door_generator_assignment":[1,0],"goal":9,"start":4,"action_noise":0.15,"location_history":"[4,8,0,4,9]","action_history":"[1,1,1,0]","door_history":"[0,0,0,1]","location_rts":"[2459,1099,752,1445]","trial_type":"two-door-navigation","trial_index":3,"time_elapsed":302443,"internal_node_id":"0.0-2.0-1.0"},{"group":"dicyclic group of order 12","room_assignment":["brown","green","purple","blue","red","yellow","pink","ivory","orange","grey","olive","cyan"],"door_color_assignment":["white","black"],"door_generator_assignment":[1,0],"goal":10,"start":9,"action_noise":0.15,"location_history":"[9,1,5,10]","action_history":"[1,1,1]","door_history":"[0,0,0]","location_rts":"[2372,691,586]","trial_type":"two-door-navigation","trial_index":4,"time_elapsed":312832,"internal_node_id":"0.0-2.0-2.0"},{"group":"dicyclic group of order 12","room_assignment":["brown","green","purple","blue","red","yellow","pink","ivory","orange","grey","olive","cyan"],"door_color_assignment":["white","black"],"door_generator_assignment":[1,0],"goal":2,"start":10,"action_noise":0.15,"location_history":"[10,7,8,5,10,7,8,5,9,1,5,9,1,5,9,1,2]","action_history":"[0,0,0,0,0,0,0,1,1,1,1,1,1,1,0,0]","door_history":"[1,1,1,1,1,1,1,0,0,0,0,0,0,0,1,1]","location_rts":"[1905,482,427,446,423,441,552,871,582,649,565,860,602,520,1261,413]","trial_type":"two-door-navigation","trial_index":5,"time_elapsed":344526,"internal_node_id":"0.0-2.0-3.0"},{"group":"dicyclic group of order 12","room_assignment":["brown","green","purple","blue","red","yellow","pink","ivory","orange","grey","olive","cyan"],"door_color_assignment":["white","black"],"door_generator_assignment":[1,0],"goal":5,"start":2,"action_noise":0.15,"location_history":"[2,6,10,2,3,0,4,9,6,11,3,7,11,4,8,5]","action_history":"[1,1,1,0,0,0,0,0,0,0,0,1,1,1,1]","door_history":"[0,0,0,1,1,1,1,1,1,1,1,0,0,0,0]","location_rts":"[1886,470,520,858,332,409,318,374,478,424,409,897,430,388,530]","trial_type":"two-door-navigation","trial_index":6,"time_elapsed":372803,"internal_node_id":"0.0-2.0-4.0"},{"group":"dicyclic group of order 12","room_assignment":["brown","green","purple","blue","red","yellow","pink","ivory","orange","grey","olive","cyan"],"door_color_assignment":["white","black"],"door_generator_assignment":[1,0],"goal":11,"start":5,"action_noise":0.15,"location_history":"[5,10,2,3,7,11]","action_history":"[0,1,1,1,1]","door_history":"[1,0,0,0,0]","location_rts":"[1794,728,418,917,596]","trial_type":"two-door-navigation","trial_index":7,"time_elapsed":386102,"internal_node_id":"0.0-2.0-5.0"},{"group":"dicyclic group of order 12","room_assignment":["brown","green","purple","blue","red","yellow","pink","ivory","orange","grey","olive","cyan"],"door_color_assignment":["white","black"],"door_generator_assignment":[1,0],"goal":6,"start":11,"action_noise":0.15,"location_history":"[11,4,9,6]","action_history":"[0,0,0]","door_history":"[1,1,1]","location_rts":"[1841,658,468]","trial_type":"two-door-navigation","trial_index":8,"time_elapsed":395796,"internal_node_id":"0.0-2.0-6.0"},{"group":"dicyclic group of order 12","room_assignment":["brown","green","purple","blue","red","yellow","pink","ivory","orange","grey","olive","cyan"],"door_color_assignment":["white","black"],"door_generator_assignment":[1,0],"goal":3,"start":6,"action_noise":0.15,"location_history":"[6,10,7,8,5,9,6,11,4,9,1,5,9,1,5,9,6,10,7,8,5,10,2,3]","action_history":"[1,0,0,0,0,0,0,0,0,1,1,1,1,1,1,1,1,0,0,0,1,1,0]","door_history":"[0,1,1,1,1,1,1,1,1,0,0,0,0,0,0,0,0,1,1,1,0,0,1]","location_rts":"[1648,787,372,520,325,410,503,1107,541,599,424,341,474,536,347,363,339,1350,569,613,688,450,1199]","trial_type":"two-door-navigation","trial_index":9,"time_elapsed":438456,"internal_node_id":"0.0-2.0-7.0"},{"group":"dicyclic group of order 12","room_assignment":["brown","green","purple","blue","red","yellow","pink","ivory","orange","grey","olive","cyan"],"door_color_assignment":["white","black"],"door_generator_assignment":[1,0],"goal":8,"start":3,"action_noise":0.15,"location_history":"[3,0,4,8]","action_history":"[0,1,0]","door_history":"[1,0,1]","location_rts":"[2834,1198,938]","trial_type":"two-door-navigation","trial_index":10,"time_elapsed":450150,"internal_node_id":"0.0-2.0-8.0"},{"group":"dicyclic group of order 12","room_assignment":["brown","green","purple","blue","red","yellow","pink","ivory","orange","grey","olive","cyan"],"door_color_assignment":["white","black"],"door_generator_assignment":[1,0],"goal":1,"start":8,"action_noise":0.15,"location_history":"[8,0,1]","action_history":"[1,0]","door_history":"[0,1]","location_rts":"[3062,1295]","trial_type":"two-door-navigation","trial_index":11,"time_elapsed":460162,"internal_node_id":"0.0-2.0-9.0"},{"group":"dicyclic group of order 12","room_assignment":["brown","green","purple","blue","red","yellow","pink","ivory","orange","grey","olive","cyan"],"door_color_assignment":["white","black"],"door_generator_assignment":[1,0],"goal":7,"start":1,"action_noise":0.15,"location_history":"[1,5,10,7]","action_history":"[1,0,0]","door_history":"[0,1,1]","location_rts":"[2634,1327,2228]","trial_type":"two-door-navigation","trial_index":12,"time_elapsed":473093,"internal_node_id":"0.0-2.0-10.0"},{"group":"dicyclic group of order 12","room_assignment":["brown","green","purple","blue","red","yellow","pink","ivory","orange","grey","olive","cyan"],"door_color_assignment":["white","black"],"door_generator_assignment":[1,0],"goal":5,"start":7,"action_noise":0.15,"location_history":"[7,8,0,1,2,3,7,8,5]","action_history":"[1,1,1,0,0,1,1,0]","door_history":"[0,0,0,1,1,0,0,1]","location_rts":"[1338,1237,1068,721,835,731,1451,4155]","trial_type":"two-door-navigation","trial_index":13,"time_elapsed":496615,"internal_node_id":"0.0-2.0-11.0"},{"group":"dicyclic group of order 12","room_assignment":["brown","green","purple","blue","red","yellow","pink","ivory","orange","grey","olive","cyan"],"door_color_assignment":["white","black"],"door_generator_assignment":[1,0],"goal":8,"start":5,"action_noise":0.15,"location_history":"[5,9,1,2,6,10,2,3,7,11,4,8]","action_history":"[1,1,0,1,1,1,0,1,0,0,1]","door_history":"[0,0,1,0,0,0,1,0,1,1,0]","location_rts":"[2671,934,789,1045,861,1020,592,794,1788,385,679]","trial_type":"two-door-navigation","trial_index":14,"time_elapsed":523376,"internal_node_id":"0.0-2.0-12.0"},{"group":"dicyclic group of order 12","room_assignment":["brown","green","purple","blue","red","yellow","pink","ivory","orange","grey","olive","cyan"],"door_color_assignment":["white","black"],"door_generator_assignment":[1,0],"goal":11,"start":8,"action_noise":0.15,"location_history":"[8,0,4,9,6,10,7,11]","action_history":"[1,1,0,0,1,0,1]","door_history":"[0,0,1,1,0,1,0]","location_rts":"[1433,933,862,528,1078,931,863]","trial_type":"two-door-navigation","trial_index":15,"time_elapsed":540916,"internal_node_id":"0.0-2.0-13.0"},{"group":"dicyclic group of order 12","room_assignment":["brown","green","purple","blue","red","yellow","pink","ivory","orange","grey","olive","cyan"],"door_color_assignment":["white","black"],"door_generator_assignment":[1,0],"goal":6,"start":11,"action_noise":0.15,"location_history":"[11,4,9,1,5,9,1,5,9,6]","action_history":"[1,0,0,1,1,1,1,0,0]","door_history":"[0,1,1,0,0,0,0,1,1]","location_rts":"[1566,753,1043,1210,1136,640,868,525,474]","trial_type":"two-door-navigation","trial_index":16,"time_elapsed":562239,"internal_node_id":"0.0-2.0-14.0"},{"group":"dicyclic group of order 12","room_assignment":["brown","green","purple","blue","red","yellow","pink","ivory","orange","grey","olive","cyan"],"door_color_assignment":["white","black"],"door_generator_assignment":[1,0],"goal":7,"start":6,"action_noise":0.15,"location_history":"[6,10,2,3,7]","action_history":"[1,0,0,1]","door_history":"[0,1,1,0]","location_rts":"[1492,891,432,549]","trial_type":"two-door-navigation","trial_index":17,"time_elapsed":573342,"internal_node_id":"0.0-2.0-15.0"},{"group":"dicyclic group of order 12","room_assignment":["brown","green","purple","blue","red","yellow","pink","ivory","orange","grey","olive","cyan"],"door_color_assignment":["white","black"],"door_generator_assignment":[1,0],"goal":10,"start":7,"action_noise":0.15,"location_history":"[7,11,4,8,0,1,5,9,1,2,6,11,3,0,4,8,5,9,6,10]","action_history":"[1,0,0,1,0,1,1,0,0,1,0,1,0,1,1,0,1,0,1]","door_history":"[0,1,1,0,1,0,0,1,1,0,1,0,1,0,0,1,0,1,0]","location_rts":"[2031,774,956,829,975,775,551,572,426,367,1127,1056,1046,583,413,695,875,1401,1120]","trial_type":"two-door-navigation","trial_index":18,"time_elapsed":613314,"internal_node_id":"0.0-2.0-16.0"},{"group":"dicyclic group of order 12","room_assignment":["brown","green","purple","blue","red","yellow","pink","ivory","orange","grey","olive","cyan"],"door_color_assignment":["white","black"],"door_generator_assignment":[1,0],"goal":0,"start":10,"action_noise":0.15,"location_history":"[10,2,6,11,3,7,8,5,9,6,10,2,6,10,2,6,11,3,0]","action_history":"[1,0,1,1,1,0,1,0,0,1,0,1,1,0,1,0,0,0]","door_history":"[0,1,0,0,0,1,0,1,1,0,1,0,0,1,0,1,1,1]","location_rts":"[1418,752,1134,1061,843,645,1732,1066,831,755,977,695,532,1683,2105,2126,2552,1613]","trial_type":"two-door-navigation","trial_index":19,"time_elapsed":658231,"internal_node_id":"0.0-2.0-17.0"},{"group":"dicyclic group of order 12","room_assignment":["brown","green","purple","blue","red","yellow","pink","ivory","orange","grey","olive","cyan"],"door_color_assignment":["white","black"],"door_generator_assignment":[1,0],"goal":9,"start":0,"action_noise":0.15,"location_history":"[0,4,8,5,9]","action_history":"[1,1,0,1]","door_history":"[0,0,1,0]","location_rts":"[1362,887,780,576]","trial_type":"two-door-navigation","trial_index":20,"time_elapsed":669544,"internal_node_id":"0.0-2.0-18.0"},{"group":"dicyclic group of order 12","room_assignment":["brown","green","purple","blue","red","yellow","pink","ivory","orange","grey","olive","cyan"],"door_color_assignment":["white","black"],"door_generator_assignment":[1,0],"goal":4,"start":9,"action_noise":0.15,"location_history":"[9,1,5,9,1,2,3,7,11,4]","action_history":"[1,1,1,1,0,0,1,1,1]","door_history":"[0,0,0,0,1,1,0,0,0]","location_rts":"[1304,1373,1693,600,928,2161,971,1603,5494]","trial_type":"two-door-navigation","trial_index":21,"time_elapsed":698687,"internal_node_id":"0.0-2.0-19.0"},{"group":"dicyclic group of order 12","room_assignment":["brown","green","purple","blue","red","yellow","pink","ivory","orange","grey","olive","cyan"],"door_color_assignment":["white","black"],"door_generator_assignment":[1,0],"goal":2,"start":4,"action_noise":0.15,"location_history":"[4,8,0,1,5,10,7,11,4,9,6,10,2]","action_history":"[1,0,0,1,1,0,1,0,0,0,1,1]","door_history":"[0,1,1,0,0,1,0,1,1,1,0,0]","location_rts":"[1359,749,877,1063,983,632,1128,1167,1354,1300,1312,1361]","trial_type":"two-door-navigation","trial_index":22,"time_elapsed":728173,"internal_node_id":"0.0-2.0-20.0"},{"group":"dicyclic group of order 12","room_assignment":["brown","green","purple","blue","red","yellow","pink","ivory","orange","grey","olive","cyan"],"door_color_assignment":["white","black"],"door_generator_assignment":[1,0],"goal":1,"start":2,"action_noise":0.15,"location_history":"[2,6,10,7,11,3,0,4,9,6,11,4,9,6,10,2,3,7,8,0,1]","action_history":"[1,1,0,1,1,0,1,0,0,0,0,0,0,1,1,0,1,0,1,0]","door_history":"[0,0,1,0,0,1,0,1,1,1,1,1,1,0,0,1,0,1,0,1]","location_rts":"[1674,913,2539,1109,465,883,1197,1203,579,391,430,1191,567,619,1423,764,3153,885,1084,977]","trial_type":"two-door-navigation","trial_index":23,"time_elapsed":774974,"internal_node_id":"0.0-2.0-21.0"},{"group":"dicyclic group of order 12","room_assignment":["brown","green","purple","blue","red","yellow","pink","ivory","orange","grey","olive","cyan"],"door_color_assignment":["white","black"],"door_generator_assignment":[1,0],"goal":3,"start":1,"action_noise":0.15,"location_history":"[1,5,9,6,10,7,11,4,9,6,10,2,3]","action_history":"[1,0,1,1,0,1,0,0,0,1,1,0]","door_history":"[0,1,0,0,1,0,1,1,1,0,0,1]","location_rts":"[1278,977,555,764,789,596,1107,1693,924,818,973,873]","trial_type":"two-door-navigation","trial_index":24,"time_elapsed":802500,"internal_node_id":"0.0-2.0-22.0"},{"group":"dicyclic group of order 12","room_assignment":["brown","green","purple","blue","red","yellow","pink","ivory","orange","grey","olive","cyan"],"door_color_assignment":["white","black"],"door_generator_assignment":[1,0],"goal":7,"start":3,"action_noise":0.15,"location_history":"[3,7]","action_history":"[1]","door_history":"[0]","location_rts":"[1339]","trial_type":"two-door-navigation","trial_index":25,"time_elapsed":808415,"internal_node_id":"0.0-2.0-23.0"},{"group":"dicyclic group of order 12","room_assignment":["brown","green","purple","blue","red","yellow","pink","ivory","orange","grey","olive","cyan"],"door_color_assignment":["white","black"],"door_generator_assignment":[1,0],"goal":6,"start":7,"action_noise":0.15,"location_history":"[7,11,3,7,11,4,9,6]","action_history":"[1,0,1,0,0,0,0]","door_history":"[0,1,0,1,1,1,1]","location_rts":"[1242,860,671,1268,673,576,731]","trial_type":"two-door-navigation","trial_index":26,"time_elapsed":825319,"internal_node_id":"0.0-2.0-24.0"},{"group":"dicyclic group of order 12","room_assignment":["brown","green","purple","blue","red","yellow","pink","ivory","orange","grey","olive","cyan"],"door_color_assignment":["white","black"],"door_generator_assignment":[1,0],"goal":2,"start":6,"action_noise":0.15,"location_history":"[6,10,2]","action_history":"[1,1]","door_history":"[0,0]","location_rts":"[1303,710]","trial_type":"two-door-navigation","trial_index":27,"time_elapsed":832982,"internal_node_id":"0.0-2.0-25.0"},{"group":"dicyclic group of order 12","room_assignment":["brown","green","purple","blue","red","yellow","pink","ivory","orange","grey","olive","cyan"],"door_color_assignment":["white","black"],"door_generator_assignment":[1,0],"goal":8,"start":2,"action_noise":0.15,"location_history":"[2,6,10,2,6,11,4,8]","action_history":"[1,1,0,0,0,0,1]","door_history":"[0,0,1,1,1,1,0]","location_rts":"[936,1089,887,3258,968,466,815]","trial_type":"two-door-navigation","trial_index":28,"time_elapsed":852343,"internal_node_id":"0.0-2.0-26.0"},{"group":"dicyclic group of order 12","room_assignment":["brown","green","purple","blue","red","yellow","pink","ivory","orange","grey","olive","cyan"],"door_color_assignment":["white","black"],"door_generator_assignment":[1,0],"goal":0,"start":8,"action_noise":0.15,"location_history":"[8,0]","action_history":"[1]","door_history":"[0]","location_rts":"[2828]","trial_type":"two-door-navigation","trial_index":29,"time_elapsed":859750,"internal_node_id":"0.0-2.0-27.0"},{"group":"dicyclic group of order 12","room_assignment":["brown","green","purple","blue","red","yellow","pink","ivory","orange","grey","olive","cyan"],"door_color_assignment":["white","black"],"door_generator_assignment":[1,0],"goal":3,"start":0,"action_noise":0.15,"location_history":"[0,1,2,3]","action_history":"[0,0,0]","door_history":"[1,1,1]","location_rts":"[1571,1783,1004]","trial_type":"two-door-navigation","trial_index":30,"time_elapsed":870758,"internal_node_id":"0.0-2.0-28.0"},{"group":"dicyclic group of order 12","room_assignment":["brown","green","purple","blue","red","yellow","pink","ivory","orange","grey","olive","cyan"],"door_color_assignment":["white","black"],"door_generator_assignment":[1,0],"goal":4,"start":3,"action_noise":0.15,"location_history":"[3,0,1,2,3,7,8,5,10,7,8,0,1,2,3,7,11,4]","action_history":"[0,0,0,0,1,0,0,0,0,0,1,0,0,0,1,0,0]","door_history":"[1,1,1,1,0,1,1,1,1,1,0,1,1,1,0,1,1]","location_rts":"[1179,483,644,1055,1245,1454,612,520,718,853,871,1023,501,512,1167,687,389]","trial_type":"two-door-navigation","trial_index":31,"time_elapsed":906269,"internal_node_id":"0.0-2.0-29.0"},{"group":"dicyclic group of order 12","room_assignment":["brown","green","purple","blue","red","yellow","pink","ivory","orange","grey","olive","cyan"],"door_color_assignment":["white","black"],"door_generator_assignment":[1,0],"goal":10,"start":4,"action_noise":0.15,"location_history":"[4,8,5,10]","action_history":"[1,0,0]","door_history":"[0,1,1]","location_rts":"[2614,966,564]","trial_type":"two-door-navigation","trial_index":32,"time_elapsed":917114,"internal_node_id":"0.0-2.0-30.0"},{"group":"dicyclic group of order 12","room_assignment":["brown","green","purple","blue","red","yellow","pink","ivory","orange","grey","olive","cyan"],"door_color_assignment":["white","black"],"door_generator_assignment":[1,0],"goal":11,"start":10,"action_noise":0.15,"location_history":"[10,7,8,5,9,1,2,3,0,1,2,3,7,8,5,10,7,11]","action_history":"[0,0,0,1,1,0,1,0,0,0,0,1,0,0,0,0,1]","door_history":"[1,1,1,0,0,1,0,1,1,1,1,0,1,1,1,1,0]","location_rts":"[1632,814,703,1007,958,933,1066,816,451,471,533,854,599,892,438,673,685]","trial_type":"two-door-navigation","trial_index":33,"time_elapsed":952251,"internal_node_id":"0.0-2.0-31.0"},{"group":"dicyclic group of order 12","room_assignment":["brown","green","purple","blue","red","yellow","pink","ivory","orange","grey","olive","cyan"],"door_color_assignment":["white","black"],"door_generator_assignment":[1,0],"goal":1,"start":11,"action_noise":0.15,"location_history":"[11,3,0,1]","action_history":"[1,0,0]","door_history":"[0,1,1]","location_rts":"[1766,824,692]","trial_type":"two-door-navigation","trial_index":34,"time_elapsed":962236,"internal_node_id":"0.0-2.0-32.0"},{"group":"dicyclic group of order 12","room_assignment":["brown","green","purple","blue","red","yellow","pink","ivory","orange","grey","olive","cyan"],"door_color_assignment":["white","black"],"door_generator_assignment":[1,0],"goal":5,"start":1,"action_noise":0.15,"location_history":"[1,2,6,11,4,9,1,5]","action_history":"[0,0,0,0,0,1,1]","door_history":"[1,1,1,1,1,0,0]","location_rts":"[2925,437,470,754,1092,523,981]","trial_type":"two-door-navigation","trial_index":35,"time_elapsed":980343,"internal_node_id":"0.0-2.0-33.0"},{"group":"dicyclic group of order 12","room_assignment":["brown","green","purple","blue","red","yellow","pink","ivory","orange","grey","olive","cyan"],"door_color_assignment":["white","black"],"door_generator_assignment":[1,0],"goal":9,"start":5,"action_noise":0.15,"location_history":"[5,9]","action_history":"[1]","door_history":"[0]","location_rts":"[1819]","trial_type":"two-door-navigation","trial_index":36,"time_elapsed":986731,"internal_node_id":"0.0-2.0-34.0"},{"view_history":"[{\"page_index\":0,\"viewing_time\":2395}]","rt":2396,"trial_type":"instructions","trial_index":37,"time_elapsed":990131,"internal_node_id":"0.0-3.0"},{"view_history":"[{\"page_index\":0,\"viewing_time\":2889},{\"page_index\":1,\"viewing_time\":35294}]","rt":38183,"trial_type":"instructions","trial_index":38,"time_elapsed":1029318,"internal_node_id":"0.0-4.0"},{"group":"dicyclic group of order 12","fractal_assignment":["../images/grn_prp.png","../images/wht_red.png","../images/ylw_slt.png","../images/grn_red.png","../images/gry_blk.png","../images/org_blu.png","../images/grn_blu.png","../images/red_prp.png","../images/pnk_blu.png","../images/ylw_pnk.png","../images/blu_wht.png","../images/cyn_red.png"],"mutagen_generator_assignment":[0,1],"goal":4,"start":0,"action_noise":0.15,"location_history":"[0,1,2,3,7,8,0,4]","action_history":"[0,0,1,1,0,1,1]","mutagen_history":"[0,0,1,1,0,1,1]","location_rts":"[5264,1999,1008,876,926,1215,1778]","trial_type":"fractal-mutation","trial_index":39,"time_elapsed":1053800,"internal_node_id":"0.0-5.0-0.0"},{"group":"dicyclic group of order 12","fractal_assignment":["../images/grn_prp.png","../images/wht_red.png","../images/ylw_slt.png","../images/grn_red.png","../images/gry_blk.png","../images/org_blu.png","../images/grn_blu.png","../images/red_prp.png","../images/pnk_blu.png","../images/ylw_pnk.png","../images/blu_wht.png","../images/cyn_red.png"],"mutagen_generator_assignment":[0,1],"goal":9,"start":4,"action_noise":0.15,"location_history":"[4,9]","action_history":"[0]","mutagen_history":"[0]","location_rts":"[2040]","trial_type":"fractal-mutation","trial_index":40,"time_elapsed":1060423,"internal_node_id":"0.0-5.0-1.0"},{"group":"dicyclic group of order 12","fractal_assignment":["../images/grn_prp.png","../images/wht_red.png","../images/ylw_slt.png","../images/grn_red.png","../images/gry_blk.png","../images/org_blu.png","../images/grn_blu.png","../images/red_prp.png","../images/pnk_blu.png","../images/ylw_pnk.png","../images/blu_wht.png","../images/cyn_red.png"],"mutagen_generator_assignment":[0,1],"goal":10,"start":9,"action_noise":0.15,"location_history":"[9,1,5,9,1,2,6,11,3,7,11,3,7,8,5,10]","action_history":"[1,0,1,0,0,0,0,1,0,0,1,1,0,0,0]","mutagen_history":"[1,0,1,0,0,0,0,1,0,0,1,1,0,0,0]","location_rts":"[1433,1022,1205,582,918,802,805,748,929,661,737,847,575,619,948]","trial_type":"fractal-mutation","trial_index":41,"time_elapsed":1093713,"internal_node_id":"0.0-5.0-2.0"},{"group":"dicyclic group of order 12","fractal_assignment":["../images/grn_prp.png","../images/wht_red.png","../images/ylw_slt.png","../images/grn_red.png","../images/gry_blk.png","../images/org_blu.png","../images/grn_blu.png","../images/red_prp.png","../images/pnk_blu.png","../images/ylw_pnk.png","../images/blu_wht.png","../images/cyn_red.png"],"mutagen_generator_assignment":[0,1],"goal":2,"start":10,"action_noise":0.15,"location_history":"[10,2]","action_history":"[1]","mutagen_history":"[1]","location_rts":"[1110]","trial_type":"fractal-mutation","trial_index":42,"time_elapsed":1099482,"internal_node_id":"0.0-5.0-3.0"},{"group":"dicyclic group of order 12","fractal_assignment":["../images/grn_prp.png","../images/wht_red.png","../images/ylw_slt.png","../images/grn_red.png","../images/gry_blk.png","../images/org_blu.png","../images/grn_blu.png","../images/red_prp.png","../images/pnk_blu.png","../images/ylw_pnk.png","../images/blu_wht.png","../images/cyn_red.png"],"mutagen_generator_assignment":[0,1],"goal":5,"start":2,"action_noise":0.15,"location_history":"[2,3,0,1,2,6,10,2,6,11,4,9,1,2,3,7,11,4,9,6,11,4,8,5]","action_history":"[0,0,0,0,1,0,0,1,0,0,0,1,0,0,1,1,0,0,0,0,0,1,0]","mutagen_history":"[0,0,0,0,1,0,0,1,0,0,0,1,0,0,1,1,0,0,0,0,0,1,0]","location_rts":"[1850,555,604,1003,782,933,836,877,556,724,779,878,1169,613,774,919,1146,480,692,450,654,798,713]","trial_type":"fractal-mutation","trial_index":43,"time_elapsed":1147375,"internal_node_id":"0.0-5.0-4.0"},{"group":"dicyclic group of order 12","fractal_assignment":["../images/grn_prp.png","../images/wht_red.png","../images/ylw_slt.png","../images/grn_red.png","../images/gry_blk.png","../images/org_blu.png","../images/grn_blu.png","../images/red_prp.png","../images/pnk_blu.png","../images/ylw_pnk.png","../images/blu_wht.png","../images/cyn_red.png"],"mutagen_generator_assignment":[0,1],"goal":11,"start":5,"action_noise":0.15,"location_history":"[5,9,6,11]","action_history":"[1,0,0]","mutagen_history":"[1,0,0]","location_rts":"[2084,475,592]","trial_type":"fractal-mutation","trial_index":44,"time_elapsed":1157413,"internal_node_id":"0.0-5.0-5.0"},{"group":"dicyclic group of order 12","fractal_assignment":["../images/grn_prp.png","../images/wht_red.png","../images/ylw_slt.png","../images/grn_red.png","../images/gry_blk.png","../images/org_blu.png","../images/grn_blu.png","../images/red_prp.png","../images/pnk_blu.png","../images/ylw_pnk.png","../images/blu_wht.png","../images/cyn_red.png"],"mutagen_generator_assignment":[0,1],"goal":6,"start":11,"action_noise":0.15,"location_history":"[11,4,9,6]","action_history":"[0,0,0]","mutagen_history":"[0,0,0]","location_rts":"[2644,577,470]","trial_type":"fractal-mutation","trial_index":45,"time_elapsed":1167842,"internal_node_id":"0.0-5.0-6.0"},{"group":"dicyclic group of order 12","fractal_assignment":["../images/grn_prp.png","../images/wht_red.png","../images/ylw_slt.png","../images/grn_red.png","../images/gry_blk.png","../images/org_blu.png","../images/grn_blu.png","../images/red_prp.png","../images/pnk_blu.png","../images/ylw_pnk.png","../images/blu_wht.png","../images/cyn_red.png"],"mutagen_generator_assignment":[0,1],"goal":3,"start":6,"action_noise":0.15,"location_history":"[6,10,2,3]","action_history":"[1,1,0]","mutagen_history":"[1,1,0]","location_rts":"[1322,928,612]","trial_type":"fractal-mutation","trial_index":46,"time_elapsed":1177654,"internal_node_id":"0.0-5.0-7.0"},{"group":"dicyclic group of order 12","fractal_assignment":["../images/grn_prp.png","../images/wht_red.png","../images/ylw_slt.png","../images/grn_red.png","../images/gry_blk.png","../images/org_blu.png","../images/grn_blu.png","../images/red_prp.png","../images/pnk_blu.png","../images/ylw_pnk.png","../images/blu_wht.png","../images/cyn_red.png"],"mutagen_generator_assignment":[0,1],"goal":8,"start":3,"action_noise":0.15,"location_history":"[3,7,8]","action_history":"[1,0]","mutagen_history":"[1,0]","location_rts":"[1229,854]","trial_type":"fractal-mutation","trial_index":47,"time_elapsed":1185518,"internal_node_id":"0.0-5.0-8.0"},{"group":"dicyclic group of order 12","fractal_assignment":["../images/grn_prp.png","../images/wht_red.png","../images/ylw_slt.png","../images/grn_red.png","../images/gry_blk.png","../images/org_blu.png","../images/grn_blu.png","../images/red_prp.png","../images/pnk_blu.png","../images/ylw_pnk.png","../images/blu_wht.png","../images/cyn_red.png"],"mutagen_generator_assignment":[0,1],"goal":1,"start":8,"action_noise":0.15,"location_history":"[8,0,4,9,6,11,4,8,5,10,7,8,0,1]","action_history":"[0,1,0,0,0,0,1,0,0,0,0,1,0]","mutagen_history":"[0,1,0,0,0,0,1,0,0,0,0,1,0]","location_rts":"[2693,751,611,959,736,670,700,625,611,498,651,681,386]","trial_type":"fractal-mutation","trial_index":48,"time_elapsed":1214120,"internal_node_id":"0.0-5.0-9.0"},{"group":"dicyclic group of order 12","fractal_assignment":["../images/grn_prp.png","../images/wht_red.png","../images/ylw_slt.png","../images/grn_red.png","../images/gry_blk.png","../images/org_blu.png","../images/grn_blu.png","../images/red_prp.png","../images/pnk_blu.png","../images/ylw_pnk.png","../images/blu_wht.png","../images/cyn_red.png"],"mutagen_generator_assignment":[0,1],"goal":7,"start":1,"action_noise":0.15,"location_history":"[1,2,6,10,2,3,0,1,2,6,10,7]","action_history":"[0,1,1,1,1,0,0,0,1,0,0]","mutagen_history":"[0,1,1,1,1,0,0,0,1,0,0]","location_rts":"[13887,576,708,639,787,781,847,567,656,478,668]","trial_type":"fractal-mutation","trial_index":49,"time_elapsed":1250666,"internal_node_id":"0.0-5.0-10.0"},{"group":"dicyclic group of order 12","fractal_assignment":["../images/grn_prp.png","../images/wht_red.png","../images/ylw_slt.png","../images/grn_red.png","../images/gry_blk.png","../images/org_blu.png","../images/grn_blu.png","../images/red_prp.png","../images/pnk_blu.png","../images/ylw_pnk.png","../images/blu_wht.png","../images/cyn_red.png"],"mutagen_generator_assignment":[0,1],"goal":5,"start":7,"action_noise":0.15,"location_history":"[7,11,4,8,0,4,8,0,4,9,1,2,6,10,7,8,5]","action_history":"[1,0,0,0,1,1,1,1,0,1,0,1,1,0,0,0]","mutagen_history":"[1,0,0,0,1,1,1,1,0,1,0,1,1,0,0,0]","location_rts":"[1552,651,652,689,441,682,731,1074,817,407,678,464,467,613,1088,689]","trial_type":"fractal-mutation","trial_index":50,"time_elapsed":1284148,"internal_node_id":"0.0-5.0-11.0"},{"group":"dicyclic group of order 12","fractal_assignment":["../images/grn_prp.png","../images/wht_red.png","../images/ylw_slt.png","../images/grn_red.png","../images/gry_blk.png","../images/org_blu.png","../images/grn_blu.png","../images/red_prp.png","../images/pnk_blu.png","../images/ylw_pnk.png","../images/blu_wht.png","../images/cyn_red.png"],"mutagen_generator_assignment":[0,1],"goal":8,"start":5,"action_noise":0.15,"location_history":"[5,10,2,3,7,8]","action_history":"[0,1,1,1,0]","mutagen_history":"[0,1,1,1,0]","location_rts":"[1772,411,403,435,1050]","trial_type":"fractal-mutation","trial_index":51,"time_elapsed":1297392,"internal_node_id":"0.0-5.0-12.0"},{"group":"dicyclic group of order 12","fractal_assignment":["../images/grn_prp.png","../images/wht_red.png","../images/ylw_slt.png","../images/grn_red.png","../images/gry_blk.png","../images/org_blu.png","../images/grn_blu.png","../images/red_prp.png","../images/pnk_blu.png","../images/ylw_pnk.png","../images/blu_wht.png","../images/cyn_red.png"],"mutagen_generator_assignment":[0,1],"goal":11,"start":8,"action_noise":0.15,"location_history":"[8,0,4,9,6,10,7,8,5,9,6,11]","action_history":"[1,1,0,0,1,0,0,0,1,0,0]","mutagen_history":"[1,1,0,0,1,0,0,0,1,0,0]","location_rts":"[1754,1134,629,457,645,528,370,535,709,459,663]","trial_type":"fractal-mutation","trial_index":52,"time_elapsed":1321266,"internal_node_id":"0.0-5.0-13.0"},{"group":"dicyclic group of order 12","fractal_assignment":["../images/grn_prp.png","../images/wht_red.png","../images/ylw_slt.png","../images/grn_red.png","../images/gry_blk.png","../images/org_blu.png","../images/grn_blu.png","../images/red_prp.png","../images/pnk_blu.png","../images/ylw_pnk.png","../images/blu_wht.png","../images/cyn_red.png"],"mutagen_generator_assignment":[0,1],"goal":6,"start":11,"action_noise":0.15,"location_history":"[11,4,9,6]","action_history":"[0,0,0]","mutagen_history":"[0,0,0]","location_rts":"[1987,422,431]","trial_type":"fractal-mutation","trial_index":53,"time_elapsed":1330863,"internal_node_id":"0.0-5.0-14.0"},{"group":"dicyclic group of order 12","fractal_assignment":["../images/grn_prp.png","../images/wht_red.png","../images/ylw_slt.png","../images/grn_red.png","../images/gry_blk.png","../images/org_blu.png","../images/grn_blu.png","../images/red_prp.png","../images/pnk_blu.png","../images/ylw_pnk.png","../images/blu_wht.png","../images/cyn_red.png"],"mutagen_generator_assignment":[0,1],"goal":7,"start":6,"action_noise":0.15,"location_history":"[6,10,7]","action_history":"[1,0]","mutagen_history":"[1,0]","location_rts":"[1176,1350]","trial_type":"fractal-mutation","trial_index":54,"time_elapsed":1339180,"internal_node_id":"0.0-5.0-15.0"},{"group":"dicyclic group of order 12","fractal_assignment":["../images/grn_prp.png","../images/wht_red.png","../images/ylw_slt.png","../images/grn_red.png","../images/gry_blk.png","../images/org_blu.png","../images/grn_blu.png","../images/red_prp.png","../images/pnk_blu.png","../images/ylw_pnk.png","../images/blu_wht.png","../images/cyn_red.png"],"mutagen_generator_assignment":[0,1],"goal":10,"start":7,"action_noise":0.15,"location_history":"[7,8,5,10]","action_history":"[0,0,0]","mutagen_history":"[0,0,0]","location_rts":"[1867,1062,585]","trial_type":"fractal-mutation","trial_index":55,"time_elapsed":1349433,"internal_node_id":"0.0-5.0-16.0"},{"group":"dicyclic group of order 12","fractal_assignment":["../images/grn_prp.png","../images/wht_red.png","../images/ylw_slt.png","../images/grn_red.png","../images/gry_blk.png","../images/org_blu.png","../images/grn_blu.png","../images/red_prp.png","../images/pnk_blu.png","../images/ylw_pnk.png","../images/blu_wht.png","../images/cyn_red.png"],"mutagen_generator_assignment":[0,1],"goal":0,"start":10,"action_noise":0.15,"location_history":"[10,2,3,0]","action_history":"[1,0,0]","mutagen_history":"[1,0,0]","location_rts":"[1989,553,1073]","trial_type":"fractal-mutation","trial_index":56,"time_elapsed":1359970,"internal_node_id":"0.0-5.0-17.0"},{"group":"dicyclic group of order 12","fractal_assignment":["../images/grn_prp.png","../images/wht_red.png","../images/ylw_slt.png","../images/grn_red.png","../images/gry_blk.png","../images/org_blu.png","../images/grn_blu.png","../images/red_prp.png","../images/pnk_blu.png","../images/ylw_pnk.png","../images/blu_wht.png","../images/cyn_red.png"],"mutagen_generator_assignment":[0,1],"goal":9,"start":0,"action_noise":0.15,"location_history":"[0,1,5,9]","action_history":"[0,0,1]","mutagen_history":"[0,0,1]","location_rts":"[1463,770,570]","trial_type":"fractal-mutation","trial_index":57,"time_elapsed":1369587,"internal_node_id":"0.0-5.0-18.0"},{"group":"dicyclic group of order 12","fractal_assignment":["../images/grn_prp.png","../images/wht_red.png","../images/ylw_slt.png","../images/grn_red.png","../images/gry_blk.png","../images/org_blu.png","../images/grn_blu.png","../images/red_prp.png","../images/pnk_blu.png","../images/ylw_pnk.png","../images/blu_wht.png","../images/cyn_red.png"],"mutagen_generator_assignment":[0,1],"goal":4,"start":9,"action_noise":0.15,"location_history":"[9,6,10,2,3,0,1,5,9,6,10,2,3,7,8,5,9,1,2,3,0,4]","action_history":"[0,1,1,0,0,0,0,1,0,1,0,0,0,0,0,1,1,0,0,0,1]","mutagen_history":"[0,1,1,0,0,0,0,1,0,1,0,0,0,0,0,1,1,0,0,0,1]","location_rts":"[3739,1064,611,379,366,703,639,505,623,627,392,414,496,521,605,609,764,361,408,425,414]","trial_type":"fractal-mutation","trial_index":58,"time_elapsed":1411194,"internal_node_id":"0.0-5.0-19.0"},{"group":"dicyclic group of order 12","fractal_assignment":["../images/grn_prp.png","../images/wht_red.png","../images/ylw_slt.png","../images/grn_red.png","../images/gry_blk.png","../images/org_blu.png","../images/grn_blu.png","../images/red_prp.png","../images/pnk_blu.png","../images/ylw_pnk.png","../images/blu_wht.png","../images/cyn_red.png"],"mutagen_generator_assignment":[0,1],"goal":2,"start":4,"action_noise":0.15,"location_history":"[4,8,5,9,6,11,4,8,0,1,2]","action_history":"[1,0,0,0,0,0,1,1,0,0]","mutagen_history":"[1,0,0,0,0,0,1,1,0,0]","location_rts":"[1761,658,584,412,1212,641,365,653,628,454]","trial_type":"fractal-mutation","trial_index":59,"time_elapsed":1433191,"internal_node_id":"0.0-5.0-20.0"},{"group":"dicyclic group of order 12","fractal_assignment":["../images/grn_prp.png","../images/wht_red.png","../images/ylw_slt.png","../images/grn_red.png","../images/gry_blk.png","../images/org_blu.png","../images/grn_blu.png","../images/red_prp.png","../images/pnk_blu.png","../images/ylw_pnk.png","../images/blu_wht.png","../images/cyn_red.png"],"mutagen_generator_assignment":[0,1],"goal":1,"start":2,"action_noise":0.15,"location_history":"[2,6,11,3,0,4,9,6,11,4,8,5,9,6,11,4,8,5,10,7,8,0,1]","action_history":"[1,0,0,0,1,0,0,0,0,1,0,1,0,0,1,1,0,0,0,0,1,0]","mutagen_history":"[1,0,0,0,1,0,0,0,0,1,0,1,0,0,1,1,0,0,0,0,1,0]","location_rts":"[1764,564,413,403,1084,607,342,369,526,697,503,1321,496,1057,456,586,567,1051,791,865,933,883]","trial_type":"fractal-mutation","trial_index":60,"time_elapsed":1477625,"internal_node_id":"0.0-5.0-21.0"},{"group":"dicyclic group of order 12","fractal_assignment":["../images/grn_prp.png","../images/wht_red.png","../images/ylw_slt.png","../images/grn_red.png","../images/gry_blk.png","../images/org_blu.png","../images/grn_blu.png","../images/red_prp.png","../images/pnk_blu.png","../images/ylw_pnk.png","../images/blu_wht.png","../images/cyn_red.png"],"mutagen_generator_assignment":[0,1],"goal":3,"start":1,"action_noise":0.15,"location_history":"[1,2,6,10,7,8,5,10,2,3]","action_history":"[1,1,0,0,0,0,0,1,0]","mutagen_history":"[1,1,0,0,0,0,0,1,0]","location_rts":"[1119,1177,457,577,454,413,699,764,1201]","trial_type":"fractal-mutation","trial_index":61,"time_elapsed":1498029,"internal_node_id":"0.0-5.0-22.0"},{"group":"dicyclic group of order 12","fractal_assignment":["../images/grn_prp.png","../images/wht_red.png","../images/ylw_slt.png","../images/grn_red.png","../images/gry_blk.png","../images/org_blu.png","../images/grn_blu.png","../images/red_prp.png","../images/pnk_blu.png","../images/ylw_pnk.png","../images/blu_wht.png","../images/cyn_red.png"],"mutagen_generator_assignment":[0,1],"goal":7,"start":3,"action_noise":0.15,"location_history":"[3,0,1,2,3,0,1,5,10,7]","action_history":"[1,0,0,0,0,0,1,0,0]","mutagen_history":"[1,0,0,0,0,0,1,0,0]","location_rts":"[1604,1055,437,537,802,1042,1083,768,539]","trial_type":"fractal-mutation","trial_index":62,"time_elapsed":1519354,"internal_node_id":"0.0-5.0-23.0"},{"group":"dicyclic group of order 12","fractal_assignment":["../images/grn_prp.png","../images/wht_red.png","../images/ylw_slt.png","../images/grn_red.png","../images/gry_blk.png","../images/org_blu.png","../images/grn_blu.png","../images/red_prp.png","../images/pnk_blu.png","../images/ylw_pnk.png","../images/blu_wht.png","../images/cyn_red.png"],"mutagen_generator_assignment":[0,1],"goal":6,"start":7,"action_noise":0.15,"location_history":"[7,8,5,9,6]","action_history":"[0,0,1,0]","mutagen_history":"[0,0,1,0]","location_rts":"[1389,733,779,656]","trial_type":"fractal-mutation","trial_index":63,"time_elapsed":1530805,"internal_node_id":"0.0-5.0-24.0"},{"group":"dicyclic group of order 12","fractal_assignment":["../images/grn_prp.png","../images/wht_red.png","../images/ylw_slt.png","../images/grn_red.png","../images/gry_blk.png","../images/org_blu.png","../images/grn_blu.png","../images/red_prp.png","../images/pnk_blu.png","../images/ylw_pnk.png","../images/blu_wht.png","../images/cyn_red.png"],"mutagen_generator_assignment":[0,1],"goal":2,"start":6,"action_noise":0.15,"location_history":"[6,10,7,11,4,9,1,2]","action_history":"[1,0,0,0,0,1,0]","mutagen_history":"[1,0,0,0,0,1,0]","location_rts":"[1807,772,373,536,776,484,661]","trial_type":"fractal-mutation","trial_index":64,"time_elapsed":1547555,"internal_node_id":"0.0-5.0-25.0"},{"group":"dicyclic group of order 12","fractal_assignment":["../images/grn_prp.png","../images/wht_red.png","../images/ylw_slt.png","../images/grn_red.png","../images/gry_blk.png","../images/org_blu.png","../images/grn_blu.png","../images/red_prp.png","../images/pnk_blu.png","../images/ylw_pnk.png","../images/blu_wht.png","../images/cyn_red.png"],"mutagen_generator_assignment":[0,1],"goal":8,"start":2,"action_noise":0.15,"location_history":"[2,6,11,3,7,8]","action_history":"[1,0,0,0,0]","mutagen_history":"[1,0,0,0,0]","location_rts":"[1637,645,576,700,644]","trial_type":"fractal-mutation","trial_index":65,"time_elapsed":1560828,"internal_node_id":"0.0-5.0-26.0"},{"group":"dicyclic group of order 12","fractal_assignment":["../images/grn_prp.png","../images/wht_red.png","../images/ylw_slt.png","../images/grn_red.png","../images/gry_blk.png","../images/org_blu.png","../images/grn_blu.png","../images/red_prp.png","../images/pnk_blu.png","../images/ylw_pnk.png","../images/blu_wht.png","../images/cyn_red.png"],"mutagen_generator_assignment":[0,1],"goal":0,"start":8,"action_noise":0.15,"location_history":"[8,0]","action_history":"[0]","mutagen_history":"[0]","location_rts":"[1674]","trial_type":"fractal-mutation","trial_index":66,"time_elapsed":1567100,"internal_node_id":"0.0-5.0-27.0"},{"group":"dicyclic group of order 12","fractal_assignment":["../images/grn_prp.png","../images/wht_red.png","../images/ylw_slt.png","../images/grn_red.png","../images/gry_blk.png","../images/org_blu.png","../images/grn_blu.png","../images/red_prp.png","../images/pnk_blu.png","../images/ylw_pnk.png","../images/blu_wht.png","../images/cyn_red.png"],"mutagen_generator_assignment":[0,1],"goal":3,"start":0,"action_noise":0.15,"location_history":"[0,4,9,6,11,4,9,1,2,3]","action_history":"[1,0,0,0,1,0,1,0,0]","mutagen_history":"[1,0,0,0,1,0,1,0,0]","location_rts":"[1714,569,975,1037,703,759,809,668,383]","trial_type":"fractal-mutation","trial_index":67,"time_elapsed":1588333,"internal_node_id":"0.0-5.0-28.0"},{"group":"dicyclic group of order 12","fractal_assignment":["../images/grn_prp.png","../images/wht_red.png","../images/ylw_slt.png","../images/grn_red.png","../images/gry_blk.png","../images/org_blu.png","../images/grn_blu.png","../images/red_prp.png","../images/pnk_blu.png","../images/ylw_pnk.png","../images/blu_wht.png","../images/cyn_red.png"],"mutagen_generator_assignment":[0,1],"goal":4,"start":3,"action_noise":0.15,"location_history":"[3,7,11,3,0,1,2,6,11,3,7,8,0,1,2,3,7,11,3,7,11,3,0,1,5,9,6,10,2,6,10,2,3,0,4]","action_history":"[1,1,0,0,0,0,0,1,1,1,0,1,0,0,0,1,1,1,1,1,1,0,0,1,0,0,0,0,1,1,1,0,0,1]","mutagen_history":"[1,1,0,0,0,0,0,1,1,1,0,1,0,0,0,1,1,1,1,1,1,0,0,1,0,0,0,0,1,1,1,0,0,1]","location_rts":"[1579,952,665,538,771,597,954,485,744,737,874,1323,669,595,444,602,520,643,679,681,646,887,570,728,720,871,447,566,631,581,1384,658,400,956]","trial_type":"fractal-mutation","trial_index":68,"time_elapsed":1655378,"internal_node_id":"0.0-5.0-29.0"},{"group":"dicyclic group of order 12","fractal_assignment":["../images/grn_prp.png","../images/wht_red.png","../images/ylw_slt.png","../images/grn_red.png","../images/gry_blk.png","../images/org_blu.png","../images/grn_blu.png","../images/red_prp.png","../images/pnk_blu.png","../images/ylw_pnk.png","../images/blu_wht.png","../images/cyn_red.png"],"mutagen_generator_assignment":[0,1],"goal":10,"start":4,"action_noise":0.15,"location_history":"[4,8,5,10]","action_history":"[1,0,0]","mutagen_history":"[1,0,0]","location_rts":"[3058,1479,470]","trial_type":"fractal-mutation","trial_index":69,"time_elapsed":1667224,"internal_node_id":"0.0-5.0-30.0"},{"group":"dicyclic group of order 12","fractal_assignment":["../images/grn_prp.png","../images/wht_red.png","../images/ylw_slt.png","../images/grn_red.png","../images/gry_blk.png","../images/org_blu.png","../images/grn_blu.png","../images/red_prp.png","../images/pnk_blu.png","../images/ylw_pnk.png","../images/blu_wht.png","../images/cyn_red.png"],"mutagen_generator_assignment":[0,1],"goal":11,"start":10,"action_noise":0.15,"location_history":"[10,2,3,7,8,0,1,2,6,11]","action_history":"[0,0,0,0,1,0,0,0,0]","mutagen_history":"[0,0,0,0,1,0,0,0,0]","location_rts":"[1398,353,455,767,608,511,339,383,570]","trial_type":"fractal-mutation","trial_index":70,"time_elapsed":1686014,"internal_node_id":"0.0-5.0-31.0"},{"group":"dicyclic group of order 12","fractal_assignment":["../images/grn_prp.png","../images/wht_red.png","../images/ylw_slt.png","../images/grn_red.png","../images/gry_blk.png","../images/org_blu.png","../images/grn_blu.png","../images/red_prp.png","../images/pnk_blu.png","../images/ylw_pnk.png","../images/blu_wht.png","../images/cyn_red.png"],"mutagen_generator_assignment":[0,1],"goal":1,"start":11,"action_noise":0.15,"location_history":"[11,4,9,6,11,4,8,0,1]","action_history":"[1,0,0,0,0,1,0,0]","mutagen_history":"[1,0,0,0,0,1,0,0]","location_rts":"[1774,1255,637,856,800,618,403,327]","trial_type":"fractal-mutation","trial_index":71,"time_elapsed":1705257,"internal_node_id":"0.0-5.0-32.0"},{"group":"dicyclic group of order 12","fractal_assignment":["../images/grn_prp.png","../images/wht_red.png","../images/ylw_slt.png","../images/grn_red.png","../images/gry_blk.png","../images/org_blu.png","../images/grn_blu.png","../images/red_prp.png","../images/pnk_blu.png","../images/ylw_pnk.png","../images/blu_wht.png","../images/cyn_red.png"],"mutagen_generator_assignment":[0,1],"goal":5,"start":1,"action_noise":0.15,"location_history":"[1,5]","action_history":"[0]","mutagen_history":"[0]","location_rts":"[2339]","trial_type":"fractal-mutation","trial_index":72,"time_elapsed":1712184,"internal_node_id":"0.0-5.0-33.0"},{"group":"dicyclic group of order 12","fractal_assignment":["../images/grn_prp.png","../images/wht_red.png","../images/ylw_slt.png","../images/grn_red.png","../images/gry_blk.png","../images/org_blu.png","../images/grn_blu.png","../images/red_prp.png","../images/pnk_blu.png","../images/ylw_pnk.png","../images/blu_wht.png","../images/cyn_red.png"],"mutagen_generator_assignment":[0,1],"goal":9,"start":5,"action_noise":0.15,"location_history":"[5,9]","action_history":"[1]","mutagen_history":"[1]","location_rts":"[1395]","trial_type":"fractal-mutation","trial_index":73,"time_elapsed":1718235,"internal_node_id":"0.0-5.0-34.0"},{"view_history":"[{\"page_index\":0,\"viewing_time\":20528}]","rt":20528,"trial_type":"instructions","trial_index":74,"time_elapsed":1739763,"internal_node_id":"0.0-6.0"},{"rt":10354,"responses":"{\"Q0\":\"Thank you so much! This was a very fun HIT.\"}","trial_type":"survey-text","trial_index":75,"time_elapsed":1751125,"internal_node_id":"0.0-7.0"}]