[{"view_history":"[{\"page_index\":0,\"viewing_time\":8541},{\"page_index\":1,\"viewing_time\":7461},{\"page_index\":2,\"viewing_time\":12151},{\"page_index\":3,\"viewing_time\":7475}]","rt":35631,"trial_type":"instructions","trial_index":0,"time_elapsed":35634,"internal_node_id":"0.0-0.0"},{"view_history":"[{\"page_index\":0,\"viewing_time\":2362},{\"page_index\":1,\"viewing_time\":22876}]","rt":25239,"trial_type":"instructions","trial_index":1,"time_elapsed":61875,"internal_node_id":"0.0-1.0"},{"group":"dihedral group of order 12","room_assignment":["purple","olive","pink","yellow","ivory","red","green","grey","brown","blue","orange","cyan"],"door_color_assignment":["white","black"],"door_generator_assignment":[1,0],"goal":4,"start":0,"action_noise":0.15,"location_history":"[0,1,7,1,7,6,11,5,11,5,11,10,9,3,9,3,9,3,4]","action_history":"[0,0,1,1,0,0,1,0,0,1,0,0,1,1,1,1,1,0]","door_history":"[1,1,0,0,1,1,0,1,1,0,1,1,0,0,0,0,0,1]","location_rts":"[8886,5171,7150,4424,5189,4868,6050,6468,3203,2032,4728,5858,3543,3849,3934,3889,4685,1876]","trial_type":"two-door-navigation","trial_index":2,"time_elapsed":169303,"internal_node_id":"0.0-2.0-0.0"},{"group":"dihedral group of order 12","room_assignment":["purple","olive","pink","yellow","ivory","red","green","grey","brown","blue","orange","cyan"],"door_color_assignment":["white","black"],"door_generator_assignment":[1,0],"goal":9,"start":4,"action_noise":0.15,"location_history":"[4,10,9]","action_history":"[1,0]","door_history":"[0,1]","location_rts":"[7612,2838]","trial_type":"two-door-navigation","trial_index":3,"time_elapsed":185263,"internal_node_id":"0.0-2.0-1.0"},{"group":"dihedral group of order 12","room_assignment":["purple","olive","pink","yellow","ivory","red","green","grey","brown","blue","orange","cyan"],"door_color_assignment":["white","black"],"door_generator_assignment":[1,0],"goal":10,"start":9,"action_noise":0.15,"location_history":"[9,8,2,3,4,5,0,6,11,10]","action_history":"[0,1,1,0,0,0,1,0,0]","door_history":"[1,0,0,1,1,1,0,1,1]","location_rts":"[8455,3758,3418,4220,2836,3651,2228,2300,3947]","trial_type":"two-door-navigation","trial_index":4,"time_elapsed":232635,"internal_node_id":"0.0-2.0-2.0"},{"group":"dihedral group of order 12","room_assignment":["purple","olive","pink","yellow","ivory","red","green","grey","brown","blue","orange","cyan"],"door_color_assignment":["white","black"],"door_generator_assignment":[1,0],"goal":2,"start":10,"action_noise":0.15,"location_history":"[10,9,8,2]","action_history":"[0,0,1]","door_history":"[1,1,0]","location_rts":"[3185,2838,1870]","trial_type":"two-door-navigation","trial_index":5,"time_elapsed":247040,"internal_node_id":"0.0-2.0-3.0"},{"group":"dihedral group of order 12","room_assignment":["purple","olive","pink","yellow","ivory","red","green","grey","brown","blue","orange","cyan"],"door_color_assignment":["white","black"],"door_generator_assignment":[1,0],"goal":5,"start":2,"action_noise":0.15,"location_history":"[2,8,2,3,9,8,7,1,2,3,9,8,7,6,11,10,4,5]","action_history":"[1,1,1,0,0,1,1,0,0,1,0,0,0,0,0,0,0]","door_history":"[0,0,0,1,1,0,0,1,1,0,1,1,1,1,1,1,1]","location_rts":"[3747,2103,2327,2143,2472,2663,1982,1335,2279,2102,3098,3940,2593,2752,3274,2782,3008]","trial_type":"two-door-navigation","trial_index":6,"time_elapsed":312203,"internal_node_id":"0.0-2.0-4.0"},{"group":"dihedral group of order 12","room_assignment":["purple","olive","pink","yellow","ivory","red","green","grey","brown","blue","orange","cyan"],"door_color_assignment":["white","black"],"door_generator_assignment":[1,0],"goal":11,"start":5,"action_noise":0.15,"location_history":"[5,0,6,11]","action_history":"[0,0,0]","door_history":"[1,1,1]","location_rts":"[3455,2400,2868]","trial_type":"two-door-navigation","trial_index":7,"time_elapsed":327433,"internal_node_id":"0.0-2.0-5.0"},{"group":"dihedral group of order 12","room_assignment":["purple","olive","pink","yellow","ivory","red","green","grey","brown","blue","orange","cyan"],"door_color_assignment":["white","black"],"door_generator_assignment":[1,0],"goal":6,"start":11,"action_noise":0.15,"location_history":"[11,5,0,1,7,6]","action_history":"[1,1,1,1,0]","door_history":"[0,0,0,0,1]","location_rts":"[2017,3018,1700,1946,2669]","trial_type":"two-door-navigation","trial_index":8,"time_elapsed":347304,"internal_node_id":"0.0-2.0-6.0"},{"group":"dihedral group of order 12","room_assignment":["purple","olive","pink","yellow","ivory","red","green","grey","brown","blue","orange","cyan"],"door_color_assignment":["white","black"],"door_generator_assignment":[1,0],"goal":3,"start":6,"action_noise":0.15,"location_history":"[6,11,5,11,10,4,10,4,5,11,5,0,1,2,8,2,8,2,3]","action_history":"[0,1,1,0,1,0,1,0,1,0,0,0,0,1,1,0,1,0]","door_history":"[1,0,0,1,0,1,0,1,0,1,1,1,1,0,0,1,0,1]","location_rts":"[2831,3604,2417,3061,1782,3085,2901,2705,3188,5260,2591,2134,2116,1836,1963,1727,1471,2638]","trial_type":"two-door-navigation","trial_index":9,"time_elapsed":416177,"internal_node_id":"0.0-2.0-7.0"},{"group":"dihedral group of order 12","room_assignment":["purple","olive","pink","yellow","ivory","red","green","grey","brown","blue","orange","cyan"],"door_color_assignment":["white","black"],"door_generator_assignment":[1,0],"goal":8,"start":3,"action_noise":0.15,"location_history":"[3,4,10,9,3,4,5,11,10,9,3,4,5,0,1,7,6,0,1,2,8]","action_history":"[0,0,1,1,1,0,1,1,0,1,0,0,0,1,1,0,0,0,0,1]","door_history":"[1,1,0,0,0,1,0,0,1,0,1,1,1,0,0,1,1,1,1,0]","location_rts":"[1924,2240,1495,2828,1682,2181,1670,1815,1662,1508,2746,1878,2005,1841,4556,2212,2177,3435,2681,1059]","trial_type":"two-door-navigation","trial_index":10,"time_elapsed":483329,"internal_node_id":"0.0-2.0-8.0"},{"group":"dihedral group of order 12","room_assignment":["purple","olive","pink","yellow","ivory","red","green","grey","brown","blue","orange","cyan"],"door_color_assignment":["white","black"],"door_generator_assignment":[1,0],"goal":1,"start":8,"action_noise":0.15,"location_history":"[8,2,3,9,3,9,3,9,3,9,8,2,8,2,8,2,3,9,3,9,8,7,1]","action_history":"[1,1,1,1,1,1,1,1,1,0,1,1,1,0,1,0,1,1,1,0,0,1]","door_history":"[0,0,0,0,0,0,0,0,0,1,0,0,0,1,0,1,0,0,0,1,1,0]","location_rts":"[2272,2399,780,677,1285,651,680,458,2916,1426,1861,796,916,1525,1929,1181,1881,1848,1404,589,1362,905]","trial_type":"two-door-navigation","trial_index":11,"time_elapsed":538704,"internal_node_id":"0.0-2.0-9.0"},{"group":"dihedral group of order 12","room_assignment":["purple","olive","pink","yellow","ivory","red","green","grey","brown","blue","orange","cyan"],"door_color_assignment":["white","black"],"door_generator_assignment":[1,0],"goal":7,"start":1,"action_noise":0.15,"location_history":"[1,2,8,2,3,9,3,9,3,4,10,4,5,11,5,0,6,0,1,7]","action_history":"[0,1,1,0,1,1,1,0,0,1,1,0,1,1,0,1,1,1,1]","door_history":"[1,0,0,1,0,0,0,1,1,0,0,1,0,0,1,0,0,0,0]","location_rts":"[2623,1704,1006,1054,2027,898,1327,637,670,985,652,1153,903,612,454,1661,486,782,1391]","trial_type":"two-door-navigation","trial_index":12,"time_elapsed":582312,"internal_node_id":"0.0-2.0-10.0"},{"group":"dihedral group of order 12","room_assignment":["purple","olive","pink","yellow","ivory","red","green","grey","brown","blue","orange","cyan"],"door_color_assignment":["white","black"],"door_generator_assignment":[1,0],"goal":5,"start":7,"action_noise":0.15,"location_history":"[7,6,11,5]","action_history":"[0,1,1]","door_history":"[1,0,0]","location_rts":"[2241,1059,529]","trial_type":"two-door-navigation","trial_index":13,"time_elapsed":592659,"internal_node_id":"0.0-2.0-11.0"},{"group":"dihedral group of order 12","room_assignment":["purple","olive","pink","yellow","ivory","red","green","grey","brown","blue","orange","cyan"],"door_color_assignment":["white","black"],"door_generator_assignment":[1,0],"goal":8,"start":5,"action_noise":0.15,"location_history":"[5,11,5,0,6,0,6,11,5,11,5,0,1,7,1,2,8]","action_history":"[1,1,0,0,0,1,0,1,1,1,0,0,1,1,0,1]","door_history":"[0,0,1,1,1,0,1,0,0,0,1,1,0,0,1,0]","location_rts":"[1828,1301,893,1391,1000,1622,921,820,1310,1153,1097,712,1141,1423,889,1348]","trial_type":"two-door-navigation","trial_index":14,"time_elapsed":631060,"internal_node_id":"0.0-2.0-12.0"},{"group":"dihedral group of order 12","room_assignment":["purple","olive","pink","yellow","ivory","red","green","grey","brown","blue","orange","cyan"],"door_color_assignment":["white","black"],"door_generator_assignment":[1,0],"goal":11,"start":8,"action_noise":0.15,"location_history":"[8,2,3,9,3,4,10,4,5,0,6,0,1,7,1,2,8,2,3,4,10,9,3,4,10,9,3,4,5,0,1,2,3,9,8,2,3,4,5,11]","action_history":"[0,0,1,1,0,1,1,0,1,1,1,0,1,1,0,1,1,0,0,1,1,1,0,0,1,1,0,0,0,0,0,0,1,0,1,0,0,0,1]","door_history":"[1,1,0,0,1,0,0,1,0,0,0,1,0,0,1,0,0,1,1,0,0,0,1,1,0,0,1,1,1,1,1,1,0,1,0,1,1,1,0]","location_rts":"[1733,1614,893,853,981,966,577,561,844,623,1129,626,996,528,861,1741,463,564,1319,1416,397,1605,1028,578,838,1649,950,631,1053,721,1937,1238,1439,1030,1847,1408,938,1283,2029]","trial_type":"two-door-navigation","trial_index":15,"time_elapsed":715570,"internal_node_id":"0.0-2.0-13.0"},{"group":"dihedral group of order 12","room_assignment":["purple","olive","pink","yellow","ivory","red","green","grey","brown","blue","orange","cyan"],"door_color_assignment":["white","black"],"door_generator_assignment":[1,0],"goal":6,"start":11,"action_noise":0.15,"location_history":"[11,5,0,6]","action_history":"[1,0,1]","door_history":"[0,1,0]","location_rts":"[3563,1092,1542]","trial_type":"two-door-navigation","trial_index":16,"time_elapsed":728279,"internal_node_id":"0.0-2.0-14.0"},{"group":"dihedral group of order 12","room_assignment":["purple","olive","pink","yellow","ivory","red","green","grey","brown","blue","orange","cyan"],"door_color_assignment":["white","black"],"door_generator_assignment":[1,0],"goal":7,"start":6,"action_noise":0.15,"location_history":"[6,11,10,4,10,9,3,9,3,9,8,2,3,4,10,4,5,0,1,2,8,7]","action_history":"[0,0,1,1,0,1,1,0,1,0,1,0,0,0,1,0,0,1,1,0,0]","door_history":"[1,1,0,0,1,0,0,1,0,1,0,1,1,1,0,1,1,0,0,1,1]","location_rts":"[1845,2155,1340,1421,855,1299,1518,425,2304,992,1471,917,633,1462,1618,797,1241,1570,1108,866,1036]","trial_type":"two-door-navigation","trial_index":17,"time_elapsed":779731,"internal_node_id":"0.0-2.0-15.0"},{"group":"dihedral group of order 12","room_assignment":["purple","olive","pink","yellow","ivory","red","green","grey","brown","blue","orange","cyan"],"door_color_assignment":["white","black"],"door_generator_assignment":[1,0],"goal":10,"start":7,"action_noise":0.15,"location_history":"[7,6,0,1,2,3,9,3,4,5,0,6,0,1,2,8,7,6,0,1,2,3,9,8,7,6,11,10]","action_history":"[0,1,1,1,1,1,1,0,0,0,1,0,0,0,0,1,0,1,0,0,0,1,0,0,0,0,0]","door_history":"[1,0,0,0,0,0,0,1,1,1,0,1,1,1,1,0,1,0,1,1,1,0,1,1,1,1,1]","location_rts":"[2067,1602,1299,789,1127,1382,2042,1099,830,1053,2184,916,770,656,1357,1533,920,1982,846,554,1058,1840,846,600,428,1853,2640]","trial_type":"two-door-navigation","trial_index":18,"time_elapsed":844614,"internal_node_id":"0.0-2.0-16.0"},{"group":"dihedral group of order 12","room_assignment":["purple","olive","pink","yellow","ivory","red","green","grey","brown","blue","orange","cyan"],"door_color_assignment":["white","black"],"door_generator_assignment":[1,0],"goal":0,"start":10,"action_noise":0.15,"location_history":"[10,4,10,4,5,0]","action_history":"[1,0,0,0,0]","door_history":"[0,1,1,1,1]","location_rts":"[3131,1345,665,717,1410]","trial_type":"two-door-navigation","trial_index":19,"time_elapsed":860417,"internal_node_id":"0.0-2.0-17.0"},{"group":"dihedral group of order 12","room_assignment":["purple","olive","pink","yellow","ivory","red","green","grey","brown","blue","orange","cyan"],"door_color_assignment":["white","black"],"door_generator_assignment":[1,0],"goal":9,"start":0,"action_noise":0.15,"location_history":"[0,1,7,1,7,6,0,1,2,3,9]","action_history":"[0,1,1,0,0,1,0,0,0,1]","door_history":"[1,0,0,1,1,0,1,1,1,0]","location_rts":"[1825,1282,846,891,519,1216,762,314,761,1980]","trial_type":"two-door-navigation","trial_index":20,"time_elapsed":884340,"internal_node_id":"0.0-2.0-18.0"},{"group":"dihedral group of order 12","room_assignment":["purple","olive","pink","yellow","ivory","red","green","grey","brown","blue","orange","cyan"],"door_color_assignment":["white","black"],"door_generator_assignment":[1,0],"goal":4,"start":9,"action_noise":0.15,"location_history":"[9,8,2,8,2,8,2,3,9,8,2,3,4]","action_history":"[0,1,1,1,1,1,0,1,1,0,0,0]","door_history":"[1,0,0,0,0,0,1,0,0,1,1,1]","location_rts":"[4247,1104,895,1485,1880,1543,830,1411,1416,846,507,648]","trial_type":"two-door-navigation","trial_index":21,"time_elapsed":916707,"internal_node_id":"0.0-2.0-19.0"},{"group":"dihedral group of order 12","room_assignment":["purple","olive","pink","yellow","ivory","red","green","grey","brown","blue","orange","cyan"],"door_color_assignment":["white","black"],"door_generator_assignment":[1,0],"goal":2,"start":4,"action_noise":0.15,"location_history":"[4,10,4,10,9,3,9,8,2]","action_history":"[1,1,1,0,1,1,0,0]","door_history":"[0,0,0,1,0,0,1,1]","location_rts":"[2378,1301,1505,537,1836,1600,784,1016]","trial_type":"two-door-navigation","trial_index":22,"time_elapsed":939206,"internal_node_id":"0.0-2.0-20.0"},{"group":"dihedral group of order 12","room_assignment":["purple","olive","pink","yellow","ivory","red","green","grey","brown","blue","orange","cyan"],"door_color_assignment":["white","black"],"door_generator_assignment":[1,0],"goal":1,"start":2,"action_noise":0.15,"location_history":"[2,8,2,3,9,3,4,5,11,5,0,6,0,1]","action_history":"[1,1,0,1,1,0,0,1,1,0,1,1,0]","door_history":"[0,0,1,0,0,1,1,0,0,1,0,0,1]","location_rts":"[1886,1357,534,2893,2211,562,740,1823,2365,412,1482,1792,262]","trial_type":"two-door-navigation","trial_index":23,"time_elapsed":974071,"internal_node_id":"0.0-2.0-21.0"},{"group":"dihedral group of order 12","room_assignment":["purple","olive","pink","yellow","ivory","red","green","grey","brown","blue","orange","cyan"],"door_color_assignment":["white","black"],"door_generator_assignment":[1,0],"goal":3,"start":1,"action_noise":0.15,"location_history":"[1,2,3]","action_history":"[0,1]","door_history":"[1,0]","location_rts":"[1988,1979]","trial_type":"two-door-navigation","trial_index":24,"time_elapsed":983544,"internal_node_id":"0.0-2.0-22.0"},{"group":"dihedral group of order 12","room_assignment":["purple","olive","pink","yellow","ivory","red","green","grey","brown","blue","orange","cyan"],"door_color_assignment":["white","black"],"door_generator_assignment":[1,0],"goal":7,"start":3,"action_noise":0.15,"location_history":"[3,4,10,4,5,0,6,11,5,0,1,7]","action_history":"[0,0,1,0,0,1,0,1,0,0,1]","door_history":"[1,1,0,1,1,0,1,0,1,1,0]","location_rts":"[1149,1428,1520,1124,1789,2439,627,1767,1965,1808,1267]","trial_type":"two-door-navigation","trial_index":25,"time_elapsed":1014989,"internal_node_id":"0.0-2.0-23.0"},{"group":"dihedral group of order 12","room_assignment":["purple","olive","pink","yellow","ivory","red","green","grey","brown","blue","orange","cyan"],"door_color_assignment":["white","black"],"door_generator_assignment":[1,0],"goal":6,"start":7,"action_noise":0.15,"location_history":"[7,6]","action_history":"[0]","door_history":"[1]","location_rts":"[2046]","trial_type":"two-door-navigation","trial_index":26,"time_elapsed":1021542,"internal_node_id":"0.0-2.0-24.0"},{"group":"dihedral group of order 12","room_assignment":["purple","olive","pink","yellow","ivory","red","green","grey","brown","blue","orange","cyan"],"door_color_assignment":["white","black"],"door_generator_assignment":[1,0],"goal":2,"start":6,"action_noise":0.15,"location_history":"[6,11,10,9,3,9,8,2]","action_history":"[0,0,1,1,0,0,1]","door_history":"[1,1,0,0,1,1,0]","location_rts":"[1346,3483,2848,1144,307,1168,978]","trial_type":"two-door-navigation","trial_index":27,"time_elapsed":1043346,"internal_node_id":"0.0-2.0-25.0"},{"group":"dihedral group of order 12","room_assignment":["purple","olive","pink","yellow","ivory","red","green","grey","brown","blue","orange","cyan"],"door_color_assignment":["white","black"],"door_generator_assignment":[1,0],"goal":8,"start":2,"action_noise":0.15,"location_history":"[2,3,9,8]","action_history":"[1,1,0]","door_history":"[0,0,1]","location_rts":"[1619,1038,980]","trial_type":"two-door-navigation","trial_index":28,"time_elapsed":1053495,"internal_node_id":"0.0-2.0-26.0"},{"group":"dihedral group of order 12","room_assignment":["purple","olive","pink","yellow","ivory","red","green","grey","brown","blue","orange","cyan"],"door_color_assignment":["white","black"],"door_generator_assignment":[1,0],"goal":0,"start":8,"action_noise":0.15,"location_history":"[8,7,1,7,6,0]","action_history":"[0,1,1,0,1]","door_history":"[1,0,0,1,0]","location_rts":"[1559,4472,1066,530,1267]","trial_type":"two-door-navigation","trial_index":29,"time_elapsed":1070906,"internal_node_id":"0.0-2.0-27.0"},{"group":"dihedral group of order 12","room_assignment":["purple","olive","pink","yellow","ivory","red","green","grey","brown","blue","orange","cyan"],"door_color_assignment":["white","black"],"door_generator_assignment":[1,0],"goal":3,"start":0,"action_noise":0.15,"location_history":"[0,1,2,3]","action_history":"[0,0,0]","door_history":"[1,1,1]","location_rts":"[1244,808,2575]","trial_type":"two-door-navigation","trial_index":30,"time_elapsed":1082044,"internal_node_id":"0.0-2.0-28.0"},{"group":"dihedral group of order 12","room_assignment":["purple","olive","pink","yellow","ivory","red","green","grey","brown","blue","orange","cyan"],"door_color_assignment":["white","black"],"door_generator_assignment":[1,0],"goal":4,"start":3,"action_noise":0.15,"location_history":"[3,4]","action_history":"[0]","door_history":"[1]","location_rts":"[2324]","trial_type":"two-door-navigation","trial_index":31,"time_elapsed":1088896,"internal_node_id":"0.0-2.0-29.0"},{"group":"dihedral group of order 12","room_assignment":["purple","olive","pink","yellow","ivory","red","green","grey","brown","blue","orange","cyan"],"door_color_assignment":["white","black"],"door_generator_assignment":[1,0],"goal":10,"start":4,"action_noise":0.15,"location_history":"[4,10]","action_history":"[1]","door_history":"[0]","location_rts":"[2867]","trial_type":"two-door-navigation","trial_index":32,"time_elapsed":1096271,"internal_node_id":"0.0-2.0-30.0"},{"group":"dihedral group of order 12","room_assignment":["purple","olive","pink","yellow","ivory","red","green","grey","brown","blue","orange","cyan"],"door_color_assignment":["white","black"],"door_generator_assignment":[1,0],"goal":11,"start":10,"action_noise":0.15,"location_history":"[10,4,5,11]","action_history":"[0,0,1]","door_history":"[1,1,0]","location_rts":"[1644,872,1005]","trial_type":"two-door-navigation","trial_index":33,"time_elapsed":1106304,"internal_node_id":"0.0-2.0-31.0"},{"group":"dihedral group of order 12","room_assignment":["purple","olive","pink","yellow","ivory","red","green","grey","brown","blue","orange","cyan"],"door_color_assignment":["white","black"],"door_generator_assignment":[1,0],"goal":1,"start":11,"action_noise":0.15,"location_history":"[11,5,0,6,0,6,0,1]","action_history":"[0,0,1,1,0,1,0]","door_history":"[1,1,0,0,1,0,1]","location_rts":"[1203,805,1292,2204,499,2564,848]","trial_type":"two-door-navigation","trial_index":34,"time_elapsed":1126250,"internal_node_id":"0.0-2.0-32.0"},{"group":"dihedral group of order 12","room_assignment":["purple","olive","pink","yellow","ivory","red","green","grey","brown","blue","orange","cyan"],"door_color_assignment":["white","black"],"door_generator_assignment":[1,0],"goal":5,"start":1,"action_noise":0.15,"location_history":"[1,7,1,2,8,7,6,11,5]","action_history":"[1,1,0,0,0,0,0,1]","door_history":"[0,0,1,1,1,1,1,0]","location_rts":"[3340,1533,584,1440,1773,1072,2780,1176]","trial_type":"two-door-navigation","trial_index":35,"time_elapsed":1151534,"internal_node_id":"0.0-2.0-33.0"},{"group":"dihedral group of order 12","room_assignment":["purple","olive","pink","yellow","ivory","red","green","grey","brown","blue","orange","cyan"],"door_color_assignment":["white","black"],"door_generator_assignment":[1,0],"goal":9,"start":5,"action_noise":0.15,"location_history":"[5,0,1,2,8,7,1,7,6,11,10,4,5,0,1,2,8,7,1,7,6,11,5,0,1,2,3,9]","action_history":"[0,1,0,1,0,1,1,0,0,0,1,0,0,0,1,1,0,1,1,0,1,1,0,0,0,0,1]","door_history":"[1,0,1,0,1,0,0,1,1,1,0,1,1,1,0,0,1,0,0,1,0,0,1,1,1,1,0]","location_rts":"[1914,2646,839,1284,857,1835,981,902,629,1412,1138,739,1671,1036,1299,1106,892,1084,1392,452,1414,1033,1038,1827,1205,1219,1008]","trial_type":"two-door-navigation","trial_index":36,"time_elapsed":1214992,"internal_node_id":"0.0-2.0-34.0"},{"view_history":"[{\"page_index\":0,\"viewing_time\":2079}]","rt":2079,"trial_type":"instructions","trial_index":37,"time_elapsed":1218071,"internal_node_id":"0.0-3.0"},{"view_history":"[{\"page_index\":0,\"viewing_time\":2253},{\"page_index\":1,\"viewing_time\":25578}]","rt":27832,"trial_type":"instructions","trial_index":38,"time_elapsed":1246904,"internal_node_id":"0.0-4.0"},{"group":"dicyclic group of order 12","fractal_assignment":["../images/red_prp.png","../images/cyn_red.png","../images/ylw_slt.png","../images/pnk_blu.png","../images/ylw_pnk.png","../images/grn_red.png","../images/grn_prp.png","../images/grn_blu.png","../images/gry_blk.png","../images/blu_wht.png","../images/wht_red.png","../images/org_blu.png"],"mutagen_generator_assignment":[0,1],"goal":4,"start":0,"action_noise":0.15,"location_history":"[0,1,2,6,10,7,11,3,0,4]","action_history":"[0,0,1,1,0,1,0,0,1]","mutagen_history":"[0,0,1,1,0,1,0,0,1]","location_rts":"[11033,5114,5335,2218,2929,3252,2731,3943,2235]","trial_type":"fractal-mutation","trial_index":39,"time_elapsed":1302023,"internal_node_id":"0.0-5.0-0.0"},{"group":"dicyclic group of order 12","fractal_assignment":["../images/red_prp.png","../images/cyn_red.png","../images/ylw_slt.png","../images/pnk_blu.png","../images/ylw_pnk.png","../images/grn_red.png","../images/grn_prp.png","../images/grn_blu.png","../images/gry_blk.png","../images/blu_wht.png","../images/wht_red.png","../images/org_blu.png"],"mutagen_generator_assignment":[0,1],"goal":9,"start":4,"action_noise":0.15,"location_history":"[4,8,5,9]","action_history":"[1,0,1]","mutagen_history":"[1,0,1]","location_rts":"[1909,2266,2046]","trial_type":"fractal-mutation","trial_index":40,"time_elapsed":1315305,"internal_node_id":"0.0-5.0-1.0"},{"group":"dicyclic group of order 12","fractal_assignment":["../images/red_prp.png","../images/cyn_red.png","../images/ylw_slt.png","../images/pnk_blu.png","../images/ylw_pnk.png","../images/grn_red.png","../images/grn_prp.png","../images/grn_blu.png","../images/gry_blk.png","../images/blu_wht.png","../images/wht_red.png","../images/org_blu.png"],"mutagen_generator_assignment":[0,1],"goal":10,"start":9,"action_noise":0.15,"location_history":"[9,1,2,3,7,11,4,9,6,11,4,8,0,4,8,0,1,2,3,0,1,2,6,11,3,7,8,0,1,5,10]","action_history":"[1,0,0,1,1,0,0,0,0,1,1,0,1,0,0,0,1,0,1,0,0,1,0,1,1,0,1,1,1,0]","mutagen_history":"[1,0,0,1,1,0,0,0,0,1,1,0,1,0,0,0,1,0,1,0,0,1,0,1,1,0,1,1,1,0]","location_rts":"[1420,2262,1473,1313,1361,1530,3101,3259,3031,2122,1678,2032,1432,1921,1009,1093,2291,2603,1828,2653,1502,1230,1225,1761,1137,1043,1436,1871,2220,2129]","trial_type":"fractal-mutation","trial_index":41,"time_elapsed":1408450,"internal_node_id":"0.0-5.0-2.0"},{"group":"dicyclic group of order 12","fractal_assignment":["../images/red_prp.png","../images/cyn_red.png","../images/ylw_slt.png","../images/pnk_blu.png","../images/ylw_pnk.png","../images/grn_red.png","../images/grn_prp.png","../images/grn_blu.png","../images/gry_blk.png","../images/blu_wht.png","../images/wht_red.png","../images/org_blu.png"],"mutagen_generator_assignment":[0,1],"goal":2,"start":10,"action_noise":0.15,"location_history":"[10,7,8,5,10,2]","action_history":"[0,0,0,0,1]","mutagen_history":"[0,0,0,0,1]","location_rts":"[1981,1254,2030,2517,1226]","trial_type":"fractal-mutation","trial_index":42,"time_elapsed":1426198,"internal_node_id":"0.0-5.0-3.0"},{"group":"dicyclic group of order 12","fractal_assignment":["../images/red_prp.png","../images/cyn_red.png","../images/ylw_slt.png","../images/pnk_blu.png","../images/ylw_pnk.png","../images/grn_red.png","../images/grn_prp.png","../images/grn_blu.png","../images/gry_blk.png","../images/blu_wht.png","../images/wht_red.png","../images/org_blu.png"],"mutagen_generator_assignment":[0,1],"goal":5,"start":2,"action_noise":0.15,"location_history":"[2,6,11,3,7,11,4,9,6,10,2,6,10,7,11,3,0,4,9,1,2,3,7,8,5]","action_history":"[1,0,1,1,1,0,0,0,1,1,1,0,0,1,1,0,0,0,1,0,0,1,1,0]","mutagen_history":"[1,0,1,1,1,0,0,0,1,1,1,0,0,1,1,0,0,0,1,0,0,1,1,0]","location_rts":"[2585,1147,912,1183,1996,737,1385,1589,2671,1430,1950,870,888,1070,2430,990,2587,1125,1824,1377,1241,1677,1893,1037]","trial_type":"fractal-mutation","trial_index":43,"time_elapsed":1495632,"internal_node_id":"0.0-5.0-4.0"},{"group":"dicyclic group of order 12","fractal_assignment":["../images/red_prp.png","../images/cyn_red.png","../images/ylw_slt.png","../images/pnk_blu.png","../images/ylw_pnk.png","../images/grn_red.png","../images/grn_prp.png","../images/grn_blu.png","../images/gry_blk.png","../images/blu_wht.png","../images/wht_red.png","../images/org_blu.png"],"mutagen_generator_assignment":[0,1],"goal":11,"start":5,"action_noise":0.15,"location_history":"[5,10,2,6,10,2,3,7,8,5,10,7,11]","action_history":"[0,1,1,1,0,0,1,0,0,0,0,1]","mutagen_history":"[0,1,1,1,0,0,1,0,0,0,0,1]","location_rts":"[3028,1931,1681,1976,2270,1673,1283,1345,2179,1818,2223,858]","trial_type":"fractal-mutation","trial_index":44,"time_elapsed":1535161,"internal_node_id":"0.0-5.0-5.0"},{"group":"dicyclic group of order 12","fractal_assignment":["../images/red_prp.png","../images/cyn_red.png","../images/ylw_slt.png","../images/pnk_blu.png","../images/ylw_pnk.png","../images/grn_red.png","../images/grn_prp.png","../images/grn_blu.png","../images/gry_blk.png","../images/blu_wht.png","../images/wht_red.png","../images/org_blu.png"],"mutagen_generator_assignment":[0,1],"goal":6,"start":11,"action_noise":0.15,"location_history":"[11,4,8,5,9,6]","action_history":"[0,0,0,1,0]","mutagen_history":"[0,0,0,1,0]","location_rts":"[1971,993,1058,1847,879]","trial_type":"fractal-mutation","trial_index":45,"time_elapsed":1550748,"internal_node_id":"0.0-5.0-6.0"},{"group":"dicyclic group of order 12","fractal_assignment":["../images/red_prp.png","../images/cyn_red.png","../images/ylw_slt.png","../images/pnk_blu.png","../images/ylw_pnk.png","../images/grn_red.png","../images/grn_prp.png","../images/grn_blu.png","../images/gry_blk.png","../images/blu_wht.png","../images/wht_red.png","../images/org_blu.png"],"mutagen_generator_assignment":[0,1],"goal":3,"start":6,"action_noise":0.15,"location_history":"[6,11,4,8,5,10,2,3]","action_history":"[0,0,1,0,0,0,0]","mutagen_history":"[0,0,1,0,0,0,0]","location_rts":"[1657,960,782,935,1371,1397,2108]","trial_type":"fractal-mutation","trial_index":46,"time_elapsed":1571224,"internal_node_id":"0.0-5.0-7.0"},{"group":"dicyclic group of order 12","fractal_assignment":["../images/red_prp.png","../images/cyn_red.png","../images/ylw_slt.png","../images/pnk_blu.png","../images/ylw_pnk.png","../images/grn_red.png","../images/grn_prp.png","../images/grn_blu.png","../images/gry_blk.png","../images/blu_wht.png","../images/wht_red.png","../images/org_blu.png"],"mutagen_generator_assignment":[0,1],"goal":8,"start":3,"action_noise":0.15,"location_history":"[3,0,1,2,3,7,8]","action_history":"[1,0,0,0,0,0]","mutagen_history":"[1,0,0,0,0,0]","location_rts":"[2007,1132,945,792,872,965]","trial_type":"fractal-mutation","trial_index":47,"time_elapsed":1588174,"internal_node_id":"0.0-5.0-8.0"},{"group":"dicyclic group of order 12","fractal_assignment":["../images/red_prp.png","../images/cyn_red.png","../images/ylw_slt.png","../images/pnk_blu.png","../images/ylw_pnk.png","../images/grn_red.png","../images/grn_prp.png","../images/grn_blu.png","../images/gry_blk.png","../images/blu_wht.png","../images/wht_red.png","../images/org_blu.png"],"mutagen_generator_assignment":[0,1],"goal":1,"start":8,"action_noise":0.15,"location_history":"[8,0,4,8,0,1]","action_history":"[1,1,1,1,0]","mutagen_history":"[1,1,1,1,0]","location_rts":"[1335,2323,1085,1671,920]","trial_type":"fractal-mutation","trial_index":48,"time_elapsed":1604874,"internal_node_id":"0.0-5.0-9.0"},{"group":"dicyclic group of order 12","fractal_assignment":["../images/red_prp.png","../images/cyn_red.png","../images/ylw_slt.png","../images/pnk_blu.png","../images/ylw_pnk.png","../images/grn_red.png","../images/grn_prp.png","../images/grn_blu.png","../images/gry_blk.png","../images/blu_wht.png","../images/wht_red.png","../images/org_blu.png"],"mutagen_generator_assignment":[0,1],"goal":7,"start":1,"action_noise":0.15,"location_history":"[1,2,6,11,3,7]","action_history":"[1,1,1,1,1]","mutagen_history":"[1,1,1,1,1]","location_rts":"[2363,919,991,946,1367]","trial_type":"fractal-mutation","trial_index":49,"time_elapsed":1620982,"internal_node_id":"0.0-5.0-10.0"},{"group":"dicyclic group of order 12","fractal_assignment":["../images/red_prp.png","../images/cyn_red.png","../images/ylw_slt.png","../images/pnk_blu.png","../images/ylw_pnk.png","../images/grn_red.png","../images/grn_prp.png","../images/grn_blu.png","../images/gry_blk.png","../images/blu_wht.png","../images/wht_red.png","../images/org_blu.png"],"mutagen_generator_assignment":[0,1],"goal":5,"start":7,"action_noise":0.15,"location_history":"[7,8,5]","action_history":"[0,0]","mutagen_history":"[0,0]","location_rts":"[2832,1345]","trial_type":"fractal-mutation","trial_index":50,"time_elapsed":1630690,"internal_node_id":"0.0-5.0-11.0"},{"group":"dicyclic group of order 12","fractal_assignment":["../images/red_prp.png","../images/cyn_red.png","../images/ylw_slt.png","../images/pnk_blu.png","../images/ylw_pnk.png","../images/grn_red.png","../images/grn_prp.png","../images/grn_blu.png","../images/gry_blk.png","../images/blu_wht.png","../images/wht_red.png","../images/org_blu.png"],"mutagen_generator_assignment":[0,1],"goal":8,"start":5,"action_noise":0.15,"location_history":"[5,10,7,8]","action_history":"[0,0,0]","mutagen_history":"[0,0,0]","location_rts":"[2097,1393,741]","trial_type":"fractal-mutation","trial_index":51,"time_elapsed":1641437,"internal_node_id":"0.0-5.0-12.0"},{"group":"dicyclic group of order 12","fractal_assignment":["../images/red_prp.png","../images/cyn_red.png","../images/ylw_slt.png","../images/pnk_blu.png","../images/ylw_pnk.png","../images/grn_red.png","../images/grn_prp.png","../images/grn_blu.png","../images/gry_blk.png","../images/blu_wht.png","../images/wht_red.png","../images/org_blu.png"],"mutagen_generator_assignment":[0,1],"goal":11,"start":8,"action_noise":0.15,"location_history":"[8,5,10,2,3,7,8,0,4,8,0,1,5,9,1,2,6,11]","action_history":"[0,0,1,0,1,0,1,1,1,1,0,1,0,0,0,1,0]","mutagen_history":"[0,0,1,0,1,0,1,1,1,1,0,1,0,0,0,1,0]","location_rts":"[1782,1708,1224,899,2006,649,1640,1391,987,1439,649,1214,1069,1262,1616,1102,801]","trial_type":"fractal-mutation","trial_index":52,"time_elapsed":1685751,"internal_node_id":"0.0-5.0-13.0"},{"group":"dicyclic group of order 12","fractal_assignment":["../images/red_prp.png","../images/cyn_red.png","../images/ylw_slt.png","../images/pnk_blu.png","../images/ylw_pnk.png","../images/grn_red.png","../images/grn_prp.png","../images/grn_blu.png","../images/gry_blk.png","../images/blu_wht.png","../images/wht_red.png","../images/org_blu.png"],"mutagen_generator_assignment":[0,1],"goal":6,"start":11,"action_noise":0.15,"location_history":"[11,4,8,5,9,1,2,3,7,11,4,9,1,2,3,7,11,4,8,0,1,2,3,7,8,5,9,6]","action_history":"[0,1,0,1,1,1,0,1,0,0,0,1,1,1,1,1,1,1,1,0,0,0,1,0,0,1,0]","mutagen_history":"[0,1,0,1,1,1,0,1,0,0,0,1,1,1,1,1,1,1,1,0,0,0,1,0,0,1,0]","location_rts":"[1191,2051,2103,1218,1377,1107,1592,1670,967,1448,841,883,1064,922,873,895,1460,1216,2428,2264,1146,1149,1046,999,1409,1017,900]","trial_type":"fractal-mutation","trial_index":53,"time_elapsed":1755786,"internal_node_id":"0.0-5.0-14.0"},{"group":"dicyclic group of order 12","fractal_assignment":["../images/red_prp.png","../images/cyn_red.png","../images/ylw_slt.png","../images/pnk_blu.png","../images/ylw_pnk.png","../images/grn_red.png","../images/grn_prp.png","../images/grn_blu.png","../images/gry_blk.png","../images/blu_wht.png","../images/wht_red.png","../images/org_blu.png"],"mutagen_generator_assignment":[0,1],"goal":7,"start":6,"action_noise":0.15,"location_history":"[6,10,2,6,10,2,6,11,3,7]","action_history":"[1,1,1,1,1,1,0,1,1]","mutagen_history":"[1,1,1,1,1,1,0,1,1]","location_rts":"[2617,822,790,1463,995,1022,1258,1296,1148]","trial_type":"fractal-mutation","trial_index":54,"time_elapsed":1781418,"internal_node_id":"0.0-5.0-15.0"},{"group":"dicyclic group of order 12","fractal_assignment":["../images/red_prp.png","../images/cyn_red.png","../images/ylw_slt.png","../images/pnk_blu.png","../images/ylw_pnk.png","../images/grn_red.png","../images/grn_prp.png","../images/grn_blu.png","../images/gry_blk.png","../images/blu_wht.png","../images/wht_red.png","../images/org_blu.png"],"mutagen_generator_assignment":[0,1],"goal":10,"start":7,"action_noise":0.15,"location_history":"[7,8,5,10]","action_history":"[0,0,0]","mutagen_history":"[0,0,0]","location_rts":"[2305,1070,837]","trial_type":"fractal-mutation","trial_index":55,"time_elapsed":1792164,"internal_node_id":"0.0-5.0-16.0"},{"group":"dicyclic group of order 12","fractal_assignment":["../images/red_prp.png","../images/cyn_red.png","../images/ylw_slt.png","../images/pnk_blu.png","../images/ylw_pnk.png","../images/grn_red.png","../images/grn_prp.png","../images/grn_blu.png","../images/gry_blk.png","../images/blu_wht.png","../images/wht_red.png","../images/org_blu.png"],"mutagen_generator_assignment":[0,1],"goal":0,"start":10,"action_noise":0.15,"location_history":"[10,2,6,10,7,8,0]","action_history":"[1,1,1,0,1,1]","mutagen_history":"[1,1,1,0,1,1]","location_rts":"[2000,686,1071,531,1119,920]","trial_type":"fractal-mutation","trial_index":56,"time_elapsed":1809193,"internal_node_id":"0.0-5.0-17.0"},{"group":"dicyclic group of order 12","fractal_assignment":["../images/red_prp.png","../images/cyn_red.png","../images/ylw_slt.png","../images/pnk_blu.png","../images/ylw_pnk.png","../images/grn_red.png","../images/grn_prp.png","../images/grn_blu.png","../images/gry_blk.png","../images/blu_wht.png","../images/wht_red.png","../images/org_blu.png"],"mutagen_generator_assignment":[0,1],"goal":9,"start":0,"action_noise":0.15,"location_history":"[0,1,5,10,2,3,0,4,9]","action_history":"[0,0,0,0,0,0,1,0]","mutagen_history":"[0,0,0,0,0,0,1,0]","location_rts":"[1694,603,594,967,652,883,1342,679]","trial_type":"fractal-mutation","trial_index":57,"time_elapsed":1828465,"internal_node_id":"0.0-5.0-18.0"},{"group":"dicyclic group of order 12","fractal_assignment":["../images/red_prp.png","../images/cyn_red.png","../images/ylw_slt.png","../images/pnk_blu.png","../images/ylw_pnk.png","../images/grn_red.png","../images/grn_prp.png","../images/grn_blu.png","../images/gry_blk.png","../images/blu_wht.png","../images/wht_red.png","../images/org_blu.png"],"mutagen_generator_assignment":[0,1],"goal":4,"start":9,"action_noise":0.15,"location_history":"[9,6,11,4]","action_history":"[0,0,0]","mutagen_history":"[0,0,0]","location_rts":"[4460,2003,1822]","trial_type":"fractal-mutation","trial_index":58,"time_elapsed":1843271,"internal_node_id":"0.0-5.0-19.0"},{"group":"dicyclic group of order 12","fractal_assignment":["../images/red_prp.png","../images/cyn_red.png","../images/ylw_slt.png","../images/pnk_blu.png","../images/ylw_pnk.png","../images/grn_red.png","../images/grn_prp.png","../images/grn_blu.png","../images/gry_blk.png","../images/blu_wht.png","../images/wht_red.png","../images/org_blu.png"],"mutagen_generator_assignment":[0,1],"goal":2,"start":4,"action_noise":0.15,"location_history":"[4,8,5,10,7,8,5,9,6,11,4,9,1,2]","action_history":"[1,0,0,0,0,0,1,0,0,0,0,1,0]","mutagen_history":"[1,0,0,0,0,0,1,0,0,0,0,1,0]","location_rts":"[2410,1371,623,970,699,857,642,912,658,880,1281,758,919]","trial_type":"fractal-mutation","trial_index":59,"time_elapsed":1874508,"internal_node_id":"0.0-5.0-20.0"},{"group":"dicyclic group of order 12","fractal_assignment":["../images/red_prp.png","../images/cyn_red.png","../images/ylw_slt.png","../images/pnk_blu.png","../images/ylw_pnk.png","../images/grn_red.png","../images/grn_prp.png","../images/grn_blu.png","../images/gry_blk.png","../images/blu_wht.png","../images/wht_red.png","../images/org_blu.png"],"mutagen_generator_assignment":[0,1],"goal":1,"start":2,"action_noise":0.15,"location_history":"[2,3,0,1]","action_history":"[0,0,0]","mutagen_history":"[0,0,0]","location_rts":"[1657,742,1611]","trial_type":"fractal-mutation","trial_index":60,"time_elapsed":1885080,"internal_node_id":"0.0-5.0-21.0"},{"group":"dicyclic group of order 12","fractal_assignment":["../images/red_prp.png","../images/cyn_red.png","../images/ylw_slt.png","../images/pnk_blu.png","../images/ylw_pnk.png","../images/grn_red.png","../images/grn_prp.png","../images/grn_blu.png","../images/gry_blk.png","../images/blu_wht.png","../images/wht_red.png","../images/org_blu.png"],"mutagen_generator_assignment":[0,1],"goal":3,"start":1,"action_noise":0.15,"location_history":"[1,5,9,1,2,6,11,3]","action_history":"[1,1,1,0,1,1,1]","mutagen_history":"[1,1,1,0,1,1,1]","location_rts":"[2935,677,1226,711,651,584,730]","trial_type":"fractal-mutation","trial_index":61,"time_elapsed":1904461,"internal_node_id":"0.0-5.0-22.0"},{"group":"dicyclic group of order 12","fractal_assignment":["../images/red_prp.png","../images/cyn_red.png","../images/ylw_slt.png","../images/pnk_blu.png","../images/ylw_pnk.png","../images/grn_red.png","../images/grn_prp.png","../images/grn_blu.png","../images/gry_blk.png","../images/blu_wht.png","../images/wht_red.png","../images/org_blu.png"],"mutagen_generator_assignment":[0,1],"goal":7,"start":3,"action_noise":0.15,"location_history":"[3,0,4,8,0,4,8,5,10,7]","action_history":"[1,1,1,1,0,1,1,0,0]","mutagen_history":"[1,1,1,1,0,1,1,0,0]","location_rts":"[1357,1089,576,606,1038,1000,1144,1065,1483]","trial_type":"fractal-mutation","trial_index":62,"time_elapsed":1927918,"internal_node_id":"0.0-5.0-23.0"},{"group":"dicyclic group of order 12","fractal_assignment":["../images/red_prp.png","../images/cyn_red.png","../images/ylw_slt.png","../images/pnk_blu.png","../images/ylw_pnk.png","../images/grn_red.png","../images/grn_prp.png","../images/grn_blu.png","../images/gry_blk.png","../images/blu_wht.png","../images/wht_red.png","../images/org_blu.png"],"mutagen_generator_assignment":[0,1],"goal":6,"start":7,"action_noise":0.15,"location_history":"[7,8,5,9,1,2,3,7,11,4,8,0,1,5,10,2,3,7,8,5,10,7,8,5,9,6]","action_history":"[0,1,1,1,0,1,1,1,1,1,0,1,1,0,1,1,1,1,0,0,0,0,1,1,0]","mutagen_history":"[0,1,1,1,0,1,1,1,1,1,0,1,1,0,1,1,1,1,0,0,0,0,1,1,0]","location_rts":"[2680,824,702,804,956,689,911,696,627,621,669,1653,979,744,880,897,683,687,1347,716,717,1827,1045,1084,1423]","trial_type":"fractal-mutation","trial_index":63,"time_elapsed":1985357,"internal_node_id":"0.0-5.0-24.0"},{"group":"dicyclic group of order 12","fractal_assignment":["../images/red_prp.png","../images/cyn_red.png","../images/ylw_slt.png","../images/pnk_blu.png","../images/ylw_pnk.png","../images/grn_red.png","../images/grn_prp.png","../images/grn_blu.png","../images/gry_blk.png","../images/blu_wht.png","../images/wht_red.png","../images/org_blu.png"],"mutagen_generator_assignment":[0,1],"goal":2,"start":6,"action_noise":0.15,"location_history":"[6,11,3,7,11,3,7,11,4,9,1,5,10,2]","action_history":"[0,1,1,1,1,1,1,0,1,1,1,0,1]","mutagen_history":"[0,1,1,1,1,1,1,0,1,1,1,0,1]","location_rts":"[2359,606,406,441,1053,578,529,647,710,443,956,640,728]","trial_type":"fractal-mutation","trial_index":64,"time_elapsed":2014202,"internal_node_id":"0.0-5.0-25.0"},{"group":"dicyclic group of order 12","fractal_assignment":["../images/red_prp.png","../images/cyn_red.png","../images/ylw_slt.png","../images/pnk_blu.png","../images/ylw_pnk.png","../images/grn_red.png","../images/grn_prp.png","../images/grn_blu.png","../images/gry_blk.png","../images/blu_wht.png","../images/wht_red.png","../images/org_blu.png"],"mutagen_generator_assignment":[0,1],"goal":8,"start":2,"action_noise":0.15,"location_history":"[2,6,10,7,8]","action_history":"[1,0,0,0]","mutagen_history":"[1,0,0,0]","location_rts":"[1953,796,1094,1956]","trial_type":"fractal-mutation","trial_index":65,"time_elapsed":2028032,"internal_node_id":"0.0-5.0-26.0"},{"group":"dicyclic group of order 12","fractal_assignment":["../images/red_prp.png","../images/cyn_red.png","../images/ylw_slt.png","../images/pnk_blu.png","../images/ylw_pnk.png","../images/grn_red.png","../images/grn_prp.png","../images/grn_blu.png","../images/gry_blk.png","../images/blu_wht.png","../images/wht_red.png","../images/org_blu.png"],"mutagen_generator_assignment":[0,1],"goal":0,"start":8,"action_noise":0.15,"location_history":"[8,0]","action_history":"[1]","mutagen_history":"[1]","location_rts":"[2500]","trial_type":"fractal-mutation","trial_index":66,"time_elapsed":2035238,"internal_node_id":"0.0-5.0-27.0"},{"group":"dicyclic group of order 12","fractal_assignment":["../images/red_prp.png","../images/cyn_red.png","../images/ylw_slt.png","../images/pnk_blu.png","../images/ylw_pnk.png","../images/grn_red.png","../images/grn_prp.png","../images/grn_blu.png","../images/gry_blk.png","../images/blu_wht.png","../images/wht_red.png","../images/org_blu.png"],"mutagen_generator_assignment":[0,1],"goal":3,"start":0,"action_noise":0.15,"location_history":"[0,4,8,0,4,8,0,1,5,9,1,2,6,10,7,11,4,9,1,2,3]","action_history":"[1,1,1,1,1,1,0,1,1,1,0,1,1,0,1,1,0,1,1,1]","mutagen_history":"[1,1,1,1,1,1,0,1,1,1,0,1,1,0,1,1,0,1,1,1]","location_rts":"[1152,416,775,887,421,1435,505,958,518,1548,704,619,458,1144,592,437,1117,679,705,770]","trial_type":"fractal-mutation","trial_index":67,"time_elapsed":2078225,"internal_node_id":"0.0-5.0-28.0"},{"group":"dicyclic group of order 12","fractal_assignment":["../images/red_prp.png","../images/cyn_red.png","../images/ylw_slt.png","../images/pnk_blu.png","../images/ylw_pnk.png","../images/grn_red.png","../images/grn_prp.png","../images/grn_blu.png","../images/gry_blk.png","../images/blu_wht.png","../images/wht_red.png","../images/org_blu.png"],"mutagen_generator_assignment":[0,1],"goal":4,"start":3,"action_noise":0.15,"location_history":"[3,0,4]","action_history":"[0,1]","mutagen_history":"[0,1]","location_rts":"[1941,882]","trial_type":"fractal-mutation","trial_index":68,"time_elapsed":2086745,"internal_node_id":"0.0-5.0-29.0"},{"group":"dicyclic group of order 12","fractal_assignment":["../images/red_prp.png","../images/cyn_red.png","../images/ylw_slt.png","../images/pnk_blu.png","../images/ylw_pnk.png","../images/grn_red.png","../images/grn_prp.png","../images/grn_blu.png","../images/gry_blk.png","../images/blu_wht.png","../images/wht_red.png","../images/org_blu.png"],"mutagen_generator_assignment":[0,1],"goal":10,"start":4,"action_noise":0.15,"location_history":"[4,9,1,5,9,6,10]","action_history":"[1,1,1,1,0,1]","mutagen_history":"[1,1,1,1,0,1]","location_rts":"[2476,524,586,635,1710,1336]","trial_type":"fractal-mutation","trial_index":69,"time_elapsed":2104729,"internal_node_id":"0.0-5.0-30.0"},{"group":"dicyclic group of order 12","fractal_assignment":["../images/red_prp.png","../images/cyn_red.png","../images/ylw_slt.png","../images/pnk_blu.png","../images/ylw_pnk.png","../images/grn_red.png","../images/grn_prp.png","../images/grn_blu.png","../images/gry_blk.png","../images/blu_wht.png","../images/wht_red.png","../images/org_blu.png"],"mutagen_generator_assignment":[0,1],"goal":11,"start":10,"action_noise":0.15,"location_history":"[10,2,3,7,11]","action_history":"[1,1,1,1]","mutagen_history":"[1,1,1,1]","location_rts":"[2138,568,606,1760]","trial_type":"fractal-mutation","trial_index":70,"time_elapsed":2118095,"internal_node_id":"0.0-5.0-31.0"},{"group":"dicyclic group of order 12","fractal_assignment":["../images/red_prp.png","../images/cyn_red.png","../images/ylw_slt.png","../images/pnk_blu.png","../images/ylw_pnk.png","../images/grn_red.png","../images/grn_prp.png","../images/grn_blu.png","../images/gry_blk.png","../images/blu_wht.png","../images/wht_red.png","../images/org_blu.png"],"mutagen_generator_assignment":[0,1],"goal":1,"start":11,"action_noise":0.15,"location_history":"[11,4,8,0,4,9,1]","action_history":"[0,1,1,1,0,1]","mutagen_history":"[0,1,1,1,0,1]","location_rts":"[1747,592,530,1592,822,519]","trial_type":"fractal-mutation","trial_index":71,"time_elapsed":2134322,"internal_node_id":"0.0-5.0-32.0"},{"group":"dicyclic group of order 12","fractal_assignment":["../images/red_prp.png","../images/cyn_red.png","../images/ylw_slt.png","../images/pnk_blu.png","../images/ylw_pnk.png","../images/grn_red.png","../images/grn_prp.png","../images/grn_blu.png","../images/gry_blk.png","../images/blu_wht.png","../images/wht_red.png","../images/org_blu.png"],"mutagen_generator_assignment":[0,1],"goal":5,"start":1,"action_noise":0.15,"location_history":"[1,5]","action_history":"[1]","mutagen_history":"[1]","location_rts":"[1998]","trial_type":"fractal-mutation","trial_index":72,"time_elapsed":2141048,"internal_node_id":"0.0-5.0-33.0"},{"group":"dicyclic group of order 12","fractal_assignment":["../images/red_prp.png","../images/cyn_red.png","../images/ylw_slt.png","../images/pnk_blu.png","../images/ylw_pnk.png","../images/grn_red.png","../images/grn_prp.png","../images/grn_blu.png","../images/gry_blk.png","../images/blu_wht.png","../images/wht_red.png","../images/org_blu.png"],"mutagen_generator_assignment":[0,1],"goal":9,"start":5,"action_noise":0.15,"location_history":"[5,10,7,8,5,9]","action_history":"[1,1,1,0,1]","mutagen_history":"[1,1,1,0,1]","location_rts":"[3758,477,969,1112,561]","trial_type":"fractal-mutation","trial_index":73,"time_elapsed":2157396,"internal_node_id":"0.0-5.0-34.0"},{"view_history":"[{\"page_index\":0,\"viewing_time\":4156}]","rt":4156,"trial_type":"instructions","trial_index":74,"time_elapsed":2162554,"internal_node_id":"0.0-6.0"},{"rt":53154,"responses":"{\"Q0\":\"this is an awesome study. so challenging to figure out the patterns. I am looking forward to the next parts to test my skills. thanks for excercising my brain today\"}","trial_type":"survey-text","trial_index":75,"time_elapsed":2216815,"internal_node_id":"0.0-7.0"}]