[{"view_history":"[{\"page_index\":0,\"viewing_time\":6493},{\"page_index\":1,\"viewing_time\":7914},{\"page_index\":2,\"viewing_time\":18788},{\"page_index\":3,\"viewing_time\":4014}]","rt":37210,"trial_type":"instructions","trial_index":0,"time_elapsed":37210,"internal_node_id":"0.0-0.0"},{"view_history":"[{\"page_index\":0,\"viewing_time\":4805},{\"page_index\":1,\"viewing_time\":31225}]","rt":36030,"trial_type":"instructions","trial_index":1,"time_elapsed":74243,"internal_node_id":"0.0-1.0"},{"group":"dicyclic group of order 12","room_assignment":["orange","blue","pink","brown","green","olive","purple","grey","yellow","cyan","red","ivory"],"door_color_assignment":["white","black"],"door_generator_assignment":[1,0],"goal":4,"start":0,"action_noise":0.15,"location_history":"[0,1,5,9,6,10,7,11,3,0,1,2,3,0,4]","action_history":"[0,1,0,0,1,1,1,1,0,0,0,0,0,1]","door_history":"[1,0,1,1,0,0,0,0,1,1,1,1,1,0]","location_rts":"[3842,1708,8559,1096,1482,788,905,2006,1126,832,660,1264,579,802]","trial_type":"two-door-navigation","trial_index":2,"time_elapsed":117785,"internal_node_id":"0.0-2.0-0.0"},{"group":"dicyclic group of order 12","room_assignment":["orange","blue","pink","brown","green","olive","purple","grey","yellow","cyan","red","ivory"],"door_color_assignment":["white","black"],"door_generator_assignment":[1,0],"goal":9,"start":4,"action_noise":0.15,"location_history":"[4,9]","action_history":"[0]","door_history":"[1]","location_rts":"[18410]","trial_type":"two-door-navigation","trial_index":3,"time_elapsed":140725,"internal_node_id":"0.0-2.0-1.0"},{"group":"dicyclic group of order 12","room_assignment":["orange","blue","pink","brown","green","olive","purple","grey","yellow","cyan","red","ivory"],"door_color_assignment":["white","black"],"door_generator_assignment":[1,0],"goal":10,"start":9,"action_noise":0.15,"location_history":"[9,6,11,3,7,11,3,0,1,5,10]","action_history":"[0,0,1,1,1,1,0,0,0,0]","door_history":"[1,1,0,0,0,0,1,1,1,1]","location_rts":"[2678,2870,1612,1843,1610,899,1407,887,690,761]","trial_type":"two-door-navigation","trial_index":4,"time_elapsed":169732,"internal_node_id":"0.0-2.0-2.0"},{"group":"dicyclic group of order 12","room_assignment":["orange","blue","pink","brown","green","olive","purple","grey","yellow","cyan","red","ivory"],"door_color_assignment":["white","black"],"door_generator_assignment":[1,0],"goal":2,"start":10,"action_noise":0.15,"location_history":"[10,7,8,5,10,2]","action_history":"[0,0,0,0,0]","door_history":"[1,1,1,1,1]","location_rts":"[2575,1545,852,853,793]","trial_type":"two-door-navigation","trial_index":5,"time_elapsed":184980,"internal_node_id":"0.0-2.0-3.0"},{"group":"dicyclic group of order 12","room_assignment":["orange","blue","pink","brown","green","olive","purple","grey","yellow","cyan","red","ivory"],"door_color_assignment":["white","black"],"door_generator_assignment":[1,0],"goal":5,"start":2,"action_noise":0.15,"location_history":"[2,6,11,4,9,6,11,4,9,1,5]","action_history":"[0,0,1,1,0,0,0,0,1,1]","door_history":"[1,1,0,0,1,1,1,1,0,0]","location_rts":"[1559,705,814,900,824,519,532,872,658,542]","trial_type":"two-door-navigation","trial_index":6,"time_elapsed":206644,"internal_node_id":"0.0-2.0-4.0"},{"group":"dicyclic group of order 12","room_assignment":["orange","blue","pink","brown","green","olive","purple","grey","yellow","cyan","red","ivory"],"door_color_assignment":["white","black"],"door_generator_assignment":[1,0],"goal":11,"start":5,"action_noise":0.15,"location_history":"[5,9,1,5,10,7,11]","action_history":"[1,1,1,0,0,1]","door_history":"[0,0,0,1,1,0]","location_rts":"[1695,575,585,717,700,976]","trial_type":"two-door-navigation","trial_index":7,"time_elapsed":221539,"internal_node_id":"0.0-2.0-5.0"},{"group":"dicyclic group of order 12","room_assignment":["orange","blue","pink","brown","green","olive","purple","grey","yellow","cyan","red","ivory"],"door_color_assignment":["white","black"],"door_generator_assignment":[1,0],"goal":6,"start":11,"action_noise":0.15,"location_history":"[11,4,9,1,5,9,6]","action_history":"[0,0,1,1,1,0]","door_history":"[1,1,0,0,0,1]","location_rts":"[1581,812,666,661,650,675]","trial_type":"two-door-navigation","trial_index":8,"time_elapsed":236219,"internal_node_id":"0.0-2.0-6.0"},{"group":"dicyclic group of order 12","room_assignment":["orange","blue","pink","brown","green","olive","purple","grey","yellow","cyan","red","ivory"],"door_color_assignment":["white","black"],"door_generator_assignment":[1,0],"goal":3,"start":6,"action_noise":0.15,"location_history":"[6,10,7,11,4,9,6,11,3]","action_history":"[1,1,1,0,0,0,0,1]","door_history":"[0,0,0,1,1,1,1,0]","location_rts":"[1844,420,462,600,555,556,1515,782]","trial_type":"two-door-navigation","trial_index":9,"time_elapsed":254643,"internal_node_id":"0.0-2.0-7.0"},{"group":"dicyclic group of order 12","room_assignment":["orange","blue","pink","brown","green","olive","purple","grey","yellow","cyan","red","ivory"],"door_color_assignment":["white","black"],"door_generator_assignment":[1,0],"goal":8,"start":3,"action_noise":0.15,"location_history":"[3,0,1,2,6,10,2,3,0,1,5,9,1,5,10,2,3,0,1,5,9,1,5,9,1,5,10,7,11,3,0,4,8]","action_history":"[0,0,1,1,1,1,0,0,0,1,1,1,1,1,1,0,0,0,1,1,1,1,1,1,1,0,0,1,1,0,1,1]","door_history":"[1,1,0,0,0,0,1,1,1,0,0,0,0,0,0,1,1,1,0,0,0,0,0,0,0,1,1,0,0,1,0,0]","location_rts":"[1722,1119,622,726,656,628,526,462,599,512,380,431,461,610,544,838,580,676,561,763,454,584,440,938,1120,573,574,473,496,1402,1208,542]","trial_type":"two-door-navigation","trial_index":10,"time_elapsed":313097,"internal_node_id":"0.0-2.0-8.0"},{"group":"dicyclic group of order 12","room_assignment":["orange","blue","pink","brown","green","olive","purple","grey","yellow","cyan","red","ivory"],"door_color_assignment":["white","black"],"door_generator_assignment":[1,0],"goal":1,"start":8,"action_noise":0.15,"location_history":"[8,5,10,7,8,0,4,9,6,11,3,0,4,8,0,4,9,6,11,4,9,6,11,4,8,0,4,9,6,10,2,6,10,2,6,10,7,8,5,10,7,8,5,10,7,11,3,0,1]","action_history":"[0,0,0,1,1,1,0,0,0,1,1,1,1,1,1,1,1,0,0,0,0,0,0,0,1,1,0,0,1,1,1,1,1,1,1,0,0,0,0,0,0,0,0,1,1,1,0,0]","door_history":"[1,1,1,0,0,0,1,1,1,0,0,0,0,0,0,0,0,1,1,1,1,1,1,1,0,0,1,1,0,0,0,0,0,0,0,1,1,1,1,1,1,1,1,0,0,0,1,1]","location_rts":"[2028,480,431,809,457,493,454,969,747,761,605,405,521,493,530,526,1360,447,455,448,725,514,480,1398,882,712,637,657,452,446,928,426,514,447,654,783,536,485,484,479,665,876,504,956,489,1986,548,944]","trial_type":"two-door-navigation","trial_index":11,"time_elapsed":398742,"internal_node_id":"0.0-2.0-9.0"},{"group":"dicyclic group of order 12","room_assignment":["orange","blue","pink","brown","green","olive","purple","grey","yellow","cyan","red","ivory"],"door_color_assignment":["white","black"],"door_generator_assignment":[1,0],"goal":7,"start":1,"action_noise":0.15,"location_history":"[1,5,9,1,2,3,0,1,5,9,1,5,10,2,6,11,4,9,6,11,4,9,1,5,9,1,5,9,1,2,3,0,1,2,6,11,3,7]","action_history":"[1,1,1,0,0,0,0,0,1,1,1,1,1,1,0,0,0,0,0,0,0,1,1,1,1,1,1,1,0,0,0,0,0,1,1,1,1]","door_history":"[0,0,0,1,1,1,1,1,0,0,0,0,0,0,1,1,1,1,1,1,1,0,0,0,0,0,0,0,1,1,1,1,1,0,0,0,0]","location_rts":"[1533,528,454,611,522,568,432,423,695,458,461,460,404,432,629,797,514,485,446,667,726,893,681,408,478,432,564,528,983,470,529,414,462,588,461,846,453]","trial_type":"two-door-navigation","trial_index":12,"time_elapsed":461518,"internal_node_id":"0.0-2.0-10.0"},{"group":"dicyclic group of order 12","room_assignment":["orange","blue","pink","brown","green","olive","purple","grey","yellow","cyan","red","ivory"],"door_color_assignment":["white","black"],"door_generator_assignment":[1,0],"goal":5,"start":7,"action_noise":0.15,"location_history":"[7,11,3,7,11,3,0,4,9,1,5]","action_history":"[0,1,1,1,0,0,0,0,1,0]","door_history":"[1,0,0,0,1,1,1,1,0,1]","location_rts":"[2671,765,748,1659,514,476,460,1361,1260,788]","trial_type":"two-door-navigation","trial_index":13,"time_elapsed":485958,"internal_node_id":"0.0-2.0-11.0"},{"group":"dicyclic group of order 12","room_assignment":["orange","blue","pink","brown","green","olive","purple","grey","yellow","cyan","red","ivory"],"door_color_assignment":["white","black"],"door_generator_assignment":[1,0],"goal":8,"start":5,"action_noise":0.15,"location_history":"[5,10,2,3,7,8]","action_history":"[1,1,1,0,0]","door_history":"[0,0,0,1,1]","location_rts":"[3464,910,1179,823,720]","trial_type":"two-door-navigation","trial_index":14,"time_elapsed":501667,"internal_node_id":"0.0-2.0-12.0"},{"group":"dicyclic group of order 12","room_assignment":["orange","blue","pink","brown","green","olive","purple","grey","yellow","cyan","red","ivory"],"door_color_assignment":["white","black"],"door_generator_assignment":[1,0],"goal":11,"start":8,"action_noise":0.15,"location_history":"[8,0,4,8,5,10,7,8,0,4,9,6,11]","action_history":"[1,1,1,0,0,0,0,1,1,0,0,0]","door_history":"[0,0,0,1,1,1,1,0,0,1,1,1]","location_rts":"[2878,878,651,1089,724,495,709,1233,882,643,490,479]","trial_type":"two-door-navigation","trial_index":15,"time_elapsed":528592,"internal_node_id":"0.0-2.0-13.0"},{"group":"dicyclic group of order 12","room_assignment":["orange","blue","pink","brown","green","olive","purple","grey","yellow","cyan","red","ivory"],"door_color_assignment":["white","black"],"door_generator_assignment":[1,0],"goal":6,"start":11,"action_noise":0.15,"location_history":"[11,4,8,0,4,9,6]","action_history":"[0,1,1,1,0,0]","door_history":"[1,0,0,0,1,1]","location_rts":"[1867,1608,664,805,657,680]","trial_type":"two-door-navigation","trial_index":16,"time_elapsed":544524,"internal_node_id":"0.0-2.0-14.0"},{"group":"dicyclic group of order 12","room_assignment":["orange","blue","pink","brown","green","olive","purple","grey","yellow","cyan","red","ivory"],"door_color_assignment":["white","black"],"door_generator_assignment":[1,0],"goal":7,"start":6,"action_noise":0.15,"location_history":"[6,10,2,6,11,4,9,6,11,4,8,0,1,2,6,10,2,6,11,4,9,6,11,4,9,1,2,6,10,2,6,10,7]","action_history":"[1,1,1,0,0,0,0,0,0,1,1,1,1,1,1,1,1,0,0,0,0,0,0,0,1,0,1,1,1,1,1,0]","door_history":"[0,0,0,1,1,1,1,1,1,0,0,0,0,0,0,0,0,1,1,1,1,1,1,1,0,1,0,0,0,0,0,1]","location_rts":"[1670,517,758,559,986,598,803,1340,821,592,548,487,506,595,574,557,752,2982,1220,777,1187,1013,1812,923,1269,1048,1063,560,737,510,859,495]","trial_type":"two-door-navigation","trial_index":17,"time_elapsed":609880,"internal_node_id":"0.0-2.0-15.0"},{"group":"dicyclic group of order 12","room_assignment":["orange","blue","pink","brown","green","olive","purple","grey","yellow","cyan","red","ivory"],"door_color_assignment":["white","black"],"door_generator_assignment":[1,0],"goal":10,"start":7,"action_noise":0.15,"location_history":"[7,11,3,0,1,5,9,1,5,9,6,11,4,9,6,11,3,7,11,3,0,1,2,6,11,4,9,6,10]","action_history":"[1,0,0,0,1,1,1,1,1,1,0,0,0,0,1,1,1,1,1,0,0,0,0,0,0,0,0,1]","door_history":"[0,1,1,1,0,0,0,0,0,0,1,1,1,1,0,0,0,0,0,1,1,1,1,1,1,1,1,0]","location_rts":"[3032,937,788,628,464,493,506,954,985,605,786,731,559,624,448,2037,559,474,938,692,428,437,375,438,385,388,380,445]","trial_type":"two-door-navigation","trial_index":18,"time_elapsed":662564,"internal_node_id":"0.0-2.0-16.0"},{"group":"dicyclic group of order 12","room_assignment":["orange","blue","pink","brown","green","olive","purple","grey","yellow","cyan","red","ivory"],"door_color_assignment":["white","black"],"door_generator_assignment":[1,0],"goal":0,"start":10,"action_noise":0.15,"location_history":"[10,7,11,3,0]","action_history":"[0,1,1,0]","door_history":"[1,0,0,1]","location_rts":"[2228,1205,875,653]","trial_type":"two-door-navigation","trial_index":19,"time_elapsed":675118,"internal_node_id":"0.0-2.0-17.0"},{"group":"dicyclic group of order 12","room_assignment":["orange","blue","pink","brown","green","olive","purple","grey","yellow","cyan","red","ivory"],"door_color_assignment":["white","black"],"door_generator_assignment":[1,0],"goal":9,"start":0,"action_noise":0.15,"location_history":"[0,1,5,10,2,3,7,11,3,0,4,8,5,9]","action_history":"[0,1,0,1,0,1,0,1,0,1,1,0,1]","door_history":"[1,0,1,0,1,0,1,0,1,0,0,1,0]","location_rts":"[1509,1235,576,847,1075,830,760,530,546,753,714,741,616]","trial_type":"two-door-navigation","trial_index":20,"time_elapsed":702648,"internal_node_id":"0.0-2.0-18.0"},{"group":"dicyclic group of order 12","room_assignment":["orange","blue","pink","brown","green","olive","purple","grey","yellow","cyan","red","ivory"],"door_color_assignment":["white","black"],"door_generator_assignment":[1,0],"goal":4,"start":9,"action_noise":0.15,"location_history":"[9,1,5,10,7,8,0,4]","action_history":"[1,1,0,0,0,1,1]","door_history":"[0,0,1,1,1,0,0]","location_rts":"[1393,485,1467,571,652,722,461]","trial_type":"two-door-navigation","trial_index":21,"time_elapsed":719061,"internal_node_id":"0.0-2.0-19.0"},{"group":"dicyclic group of order 12","room_assignment":["orange","blue","pink","brown","green","olive","purple","grey","yellow","cyan","red","ivory"],"door_color_assignment":["white","black"],"door_generator_assignment":[1,0],"goal":2,"start":4,"action_noise":0.15,"location_history":"[4,8,0,4,9,6,11,3,0,4,9,1,2]","action_history":"[1,1,1,0,0,0,1,0,1,0,1,0]","door_history":"[0,0,0,1,1,1,0,1,0,1,0,1]","location_rts":"[976,487,827,515,551,478,1583,481,580,455,615,528]","trial_type":"two-door-navigation","trial_index":22,"time_elapsed":742927,"internal_node_id":"0.0-2.0-20.0"},{"group":"dicyclic group of order 12","room_assignment":["orange","blue","pink","brown","green","olive","purple","grey","yellow","cyan","red","ivory"],"door_color_assignment":["white","black"],"door_generator_assignment":[1,0],"goal":1,"start":2,"action_noise":0.15,"location_history":"[2,3,7,11,4,9,1]","action_history":"[0,1,1,0,0,1]","door_history":"[1,0,0,1,1,0]","location_rts":"[944,449,610,436,799,462]","trial_type":"two-door-navigation","trial_index":23,"time_elapsed":756274,"internal_node_id":"0.0-2.0-21.0"},{"group":"dicyclic group of order 12","room_assignment":["orange","blue","pink","brown","green","olive","purple","grey","yellow","cyan","red","ivory"],"door_color_assignment":["white","black"],"door_generator_assignment":[1,0],"goal":3,"start":1,"action_noise":0.15,"location_history":"[1,2,6,11,3]","action_history":"[0,1,0,1]","door_history":"[1,0,1,0]","location_rts":"[763,618,426,782]","trial_type":"two-door-navigation","trial_index":24,"time_elapsed":766460,"internal_node_id":"0.0-2.0-22.0"},{"group":"dicyclic group of order 12","room_assignment":["orange","blue","pink","brown","green","olive","purple","grey","yellow","cyan","red","ivory"],"door_color_assignment":["white","black"],"door_generator_assignment":[1,0],"goal":7,"start":3,"action_noise":0.15,"location_history":"[3,7]","action_history":"[1]","door_history":"[0]","location_rts":"[834]","trial_type":"two-door-navigation","trial_index":25,"time_elapsed":771821,"internal_node_id":"0.0-2.0-23.0"},{"group":"dicyclic group of order 12","room_assignment":["orange","blue","pink","brown","green","olive","purple","grey","yellow","cyan","red","ivory"],"door_color_assignment":["white","black"],"door_generator_assignment":[1,0],"goal":6,"start":7,"action_noise":0.15,"location_history":"[7,8,5,9,1,2,6]","action_history":"[1,0,1,0,0,0]","door_history":"[0,1,0,1,1,1]","location_rts":"[1055,362,759,338,512,460]","trial_type":"two-door-navigation","trial_index":26,"time_elapsed":784962,"internal_node_id":"0.0-2.0-24.0"},{"group":"dicyclic group of order 12","room_assignment":["orange","blue","pink","brown","green","olive","purple","grey","yellow","cyan","red","ivory"],"door_color_assignment":["white","black"],"door_generator_assignment":[1,0],"goal":2,"start":6,"action_noise":0.15,"location_history":"[6,11,4,8,0,4,9,1,5,9,1,2]","action_history":"[1,0,1,1,1,0,1,0,1,0,0]","door_history":"[0,1,0,0,0,1,0,1,0,1,1]","location_rts":"[671,465,587,823,460,526,1168,402,660,398,465]","trial_type":"two-door-navigation","trial_index":27,"time_elapsed":806344,"internal_node_id":"0.0-2.0-25.0"},{"group":"dicyclic group of order 12","room_assignment":["orange","blue","pink","brown","green","olive","purple","grey","yellow","cyan","red","ivory"],"door_color_assignment":["white","black"],"door_generator_assignment":[1,0],"goal":8,"start":2,"action_noise":0.15,"location_history":"[2,3,7,11,3,7,8]","action_history":"[0,1,1,1,1,0]","door_history":"[1,0,0,0,0,1]","location_rts":"[935,406,371,626,491,501]","trial_type":"two-door-navigation","trial_index":28,"time_elapsed":819327,"internal_node_id":"0.0-2.0-26.0"},{"group":"dicyclic group of order 12","room_assignment":["orange","blue","pink","brown","green","olive","purple","grey","yellow","cyan","red","ivory"],"door_color_assignment":["white","black"],"door_generator_assignment":[1,0],"goal":0,"start":8,"action_noise":0.15,"location_history":"[8,5,9,6,11,3,7,8,5,10,7,11,3,0]","action_history":"[0,1,0,1,1,1,0,0,0,0,1,1,0]","door_history":"[1,0,1,0,0,0,1,1,1,1,0,0,1]","location_rts":"[1039,439,395,382,387,388,401,566,438,512,434,583,754]","trial_type":"two-door-navigation","trial_index":29,"time_elapsed":842854,"internal_node_id":"0.0-2.0-27.0"},{"group":"dicyclic group of order 12","room_assignment":["orange","blue","pink","brown","green","olive","purple","grey","yellow","cyan","red","ivory"],"door_color_assignment":["white","black"],"door_generator_assignment":[1,0],"goal":3,"start":0,"action_noise":0.15,"location_history":"[0,1,2,3]","action_history":"[0,1,0]","door_history":"[1,0,1]","location_rts":"[1010,559,442]","trial_type":"two-door-navigation","trial_index":30,"time_elapsed":851431,"internal_node_id":"0.0-2.0-28.0"},{"group":"dicyclic group of order 12","room_assignment":["orange","blue","pink","brown","green","olive","purple","grey","yellow","cyan","red","ivory"],"door_color_assignment":["white","black"],"door_generator_assignment":[1,0],"goal":4,"start":3,"action_noise":0.15,"location_history":"[3,0,1,5,9,6,11,4]","action_history":"[0,0,1,1,0,0,0]","door_history":"[1,1,0,0,1,1,1]","location_rts":"[1025,992,461,1029,399,437,520]","trial_type":"two-door-navigation","trial_index":31,"time_elapsed":866960,"internal_node_id":"0.0-2.0-29.0"},{"group":"dicyclic group of order 12","room_assignment":["orange","blue","pink","brown","green","olive","purple","grey","yellow","cyan","red","ivory"],"door_color_assignment":["white","black"],"door_generator_assignment":[1,0],"goal":10,"start":4,"action_noise":0.15,"location_history":"[4,8,0,4,9,6,10]","action_history":"[0,1,1,0,0,1]","door_history":"[1,0,0,1,1,0]","location_rts":"[1002,493,343,402,382,459]","trial_type":"two-door-navigation","trial_index":32,"time_elapsed":879689,"internal_node_id":"0.0-2.0-30.0"},{"group":"dicyclic group of order 12","room_assignment":["orange","blue","pink","brown","green","olive","purple","grey","yellow","cyan","red","ivory"],"door_color_assignment":["white","black"],"door_generator_assignment":[1,0],"goal":11,"start":10,"action_noise":0.15,"location_history":"[10,2,3,7,8,0,1,2,3,0,4,8,0,4,8,5,10,2,3,0,1,5,9,1,5,9,6,11]","action_history":"[1,0,1,1,1,0,0,0,0,1,1,1,1,0,0,0,0,0,0,0,1,1,1,1,1,0,0]","door_history":"[0,1,0,0,0,1,1,1,1,0,0,0,0,1,1,1,1,1,1,1,0,0,0,0,0,1,1]","location_rts":"[787,879,489,532,434,405,376,484,464,400,538,483,562,406,456,1012,565,1420,1483,892,1220,454,1506,461,460,452,474]","trial_type":"two-door-navigation","trial_index":33,"time_elapsed":928937,"internal_node_id":"0.0-2.0-31.0"},{"group":"dicyclic group of order 12","room_assignment":["orange","blue","pink","brown","green","olive","purple","grey","yellow","cyan","red","ivory"],"door_color_assignment":["white","black"],"door_generator_assignment":[1,0],"goal":1,"start":11,"action_noise":0.15,"location_history":"[11,3,7,11,4,8,5,10,7,8,5,9,1]","action_history":"[1,0,1,0,1,0,1,0,0,1,1,1]","door_history":"[0,1,0,1,0,1,0,1,1,0,0,0]","location_rts":"[844,476,600,430,975,830,1929,888,1229,724,1032,686]","trial_type":"two-door-navigation","trial_index":34,"time_elapsed":955363,"internal_node_id":"0.0-2.0-32.0"},{"group":"dicyclic group of order 12","room_assignment":["orange","blue","pink","brown","green","olive","purple","grey","yellow","cyan","red","ivory"],"door_color_assignment":["white","black"],"door_generator_assignment":[1,0],"goal":5,"start":1,"action_noise":0.15,"location_history":"[1,5]","action_history":"[1]","door_history":"[0]","location_rts":"[824]","trial_type":"two-door-navigation","trial_index":35,"time_elapsed":960713,"internal_node_id":"0.0-2.0-33.0"},{"group":"dicyclic group of order 12","room_assignment":["orange","blue","pink","brown","green","olive","purple","grey","yellow","cyan","red","ivory"],"door_color_assignment":["white","black"],"door_generator_assignment":[1,0],"goal":9,"start":5,"action_noise":0.15,"location_history":"[5,9]","action_history":"[1]","door_history":"[0]","location_rts":"[1076]","trial_type":"two-door-navigation","trial_index":36,"time_elapsed":966319,"internal_node_id":"0.0-2.0-34.0"},{"view_history":"[{\"page_index\":0,\"viewing_time\":2761}]","rt":2762,"trial_type":"instructions","trial_index":37,"time_elapsed":970082,"internal_node_id":"0.0-3.0"},{"view_history":"[{\"page_index\":0,\"viewing_time\":2370},{\"page_index\":1,\"viewing_time\":26959}]","rt":29329,"trial_type":"instructions","trial_index":38,"time_elapsed":1000412,"internal_node_id":"0.0-4.0"},{"group":"dihedral group of order 12","fractal_assignment":["../images/red_prp.png","../images/grn_blu.png","../images/org_blu.png","../images/pnk_blu.png","../images/ylw_slt.png","../images/grn_red.png","../images/ylw_pnk.png","../images/grn_prp.png","../images/wht_red.png","../images/gry_blk.png","../images/cyn_red.png","../images/blu_wht.png"],"mutagen_generator_assignment":[1,0],"goal":4,"start":0,"action_noise":0.15,"location_history":"[0,6,11,10,4]","action_history":"[1,0,0,1]","mutagen_history":"[0,1,1,0]","location_rts":"[3068,1123,1331,1598]","trial_type":"fractal-mutation","trial_index":39,"time_elapsed":1015840,"internal_node_id":"0.0-5.0-0.0"},{"group":"dihedral group of order 12","fractal_assignment":["../images/red_prp.png","../images/grn_blu.png","../images/org_blu.png","../images/pnk_blu.png","../images/ylw_slt.png","../images/grn_red.png","../images/ylw_pnk.png","../images/grn_prp.png","../images/wht_red.png","../images/gry_blk.png","../images/cyn_red.png","../images/blu_wht.png"],"mutagen_generator_assignment":[1,0],"goal":9,"start":4,"action_noise":0.15,"location_history":"[4,5,11,5,0,1,2,8,2,8,7,6,11,10,9]","action_history":"[0,1,1,0,0,0,1,1,1,0,0,0,0,0]","mutagen_history":"[1,0,0,1,1,1,0,0,0,1,1,1,1,1]","location_rts":"[1751,746,1907,989,662,1175,608,921,1712,722,1260,672,939,770]","trial_type":"fractal-mutation","trial_index":40,"time_elapsed":1051503,"internal_node_id":"0.0-5.0-1.0"},{"group":"dihedral group of order 12","fractal_assignment":["../images/red_prp.png","../images/grn_blu.png","../images/org_blu.png","../images/pnk_blu.png","../images/ylw_slt.png","../images/grn_red.png","../images/ylw_pnk.png","../images/grn_prp.png","../images/wht_red.png","../images/gry_blk.png","../images/cyn_red.png","../images/blu_wht.png"],"mutagen_generator_assignment":[1,0],"goal":10,"start":9,"action_noise":0.15,"location_history":"[9,3,9,8,7,6,0,6,0,6,11,10]","action_history":"[1,1,0,0,0,1,1,1,1,0,0]","mutagen_history":"[0,0,1,1,1,0,0,0,0,1,1]","location_rts":"[2587,853,636,865,1137,566,770,596,778,1014,762]","trial_type":"fractal-mutation","trial_index":41,"time_elapsed":1078730,"internal_node_id":"0.0-5.0-2.0"},{"group":"dihedral group of order 12","fractal_assignment":["../images/red_prp.png","../images/grn_blu.png","../images/org_blu.png","../images/pnk_blu.png","../images/ylw_slt.png","../images/grn_red.png","../images/ylw_pnk.png","../images/grn_prp.png","../images/wht_red.png","../images/gry_blk.png","../images/cyn_red.png","../images/blu_wht.png"],"mutagen_generator_assignment":[1,0],"goal":2,"start":10,"action_noise":0.15,"location_history":"[10,4,10,4,5,0,1,2]","action_history":"[1,1,1,0,0,0,0]","mutagen_history":"[0,0,0,1,1,1,1]","location_rts":"[3041,889,865,772,909,956,671]","trial_type":"fractal-mutation","trial_index":42,"time_elapsed":1098511,"internal_node_id":"0.0-5.0-3.0"},{"group":"dihedral group of order 12","fractal_assignment":["../images/red_prp.png","../images/grn_blu.png","../images/org_blu.png","../images/pnk_blu.png","../images/ylw_slt.png","../images/grn_red.png","../images/ylw_pnk.png","../images/grn_prp.png","../images/wht_red.png","../images/gry_blk.png","../images/cyn_red.png","../images/blu_wht.png"],"mutagen_generator_assignment":[1,0],"goal":5,"start":2,"action_noise":0.15,"location_history":"[2,8,7,6,11,10,9,3,9,3,4,10,9,3,9,3,4,10,4,5]","action_history":"[1,0,0,0,0,0,1,1,1,0,0,0,1,1,1,1,1,1,0]","mutagen_history":"[0,1,1,1,1,1,0,0,0,1,1,1,0,0,0,0,0,0,1]","location_rts":"[1145,579,140,652,810,735,637,902,837,714,689,823,838,703,684,752,565,683,599]","trial_type":"fractal-mutation","trial_index":43,"time_elapsed":1138655,"internal_node_id":"0.0-5.0-4.0"},{"group":"dihedral group of order 12","fractal_assignment":["../images/red_prp.png","../images/grn_blu.png","../images/org_blu.png","../images/pnk_blu.png","../images/ylw_slt.png","../images/grn_red.png","../images/ylw_pnk.png","../images/grn_prp.png","../images/wht_red.png","../images/gry_blk.png","../images/cyn_red.png","../images/blu_wht.png"],"mutagen_generator_assignment":[1,0],"goal":11,"start":5,"action_noise":0.15,"location_history":"[5,0,6,0,6,11]","action_history":"[1,1,1,1,0]","mutagen_history":"[0,0,0,0,1]","location_rts":"[3596,808,1037,903,808]","trial_type":"fractal-mutation","trial_index":44,"time_elapsed":1154674,"internal_node_id":"0.0-5.0-5.0"},{"group":"dihedral group of order 12","fractal_assignment":["../images/red_prp.png","../images/grn_blu.png","../images/org_blu.png","../images/pnk_blu.png","../images/ylw_slt.png","../images/grn_red.png","../images/ylw_pnk.png","../images/grn_prp.png","../images/wht_red.png","../images/gry_blk.png","../images/cyn_red.png","../images/blu_wht.png"],"mutagen_generator_assignment":[1,0],"goal":6,"start":11,"action_noise":0.15,"location_history":"[11,10,4,10,4,10,4,5,0,1,2,8,2,8,7,6]","action_history":"[0,0,1,1,1,1,0,0,0,0,1,1,1,0,0]","mutagen_history":"[1,1,0,0,0,0,1,1,1,1,0,0,0,1,1]","location_rts":"[2392,692,1015,662,642,668,585,986,614,622,744,757,965,657,801]","trial_type":"fractal-mutation","trial_index":45,"time_elapsed":1189281,"internal_node_id":"0.0-5.0-6.0"},{"group":"dihedral group of order 12","fractal_assignment":["../images/red_prp.png","../images/grn_blu.png","../images/org_blu.png","../images/pnk_blu.png","../images/ylw_slt.png","../images/grn_red.png","../images/ylw_pnk.png","../images/grn_prp.png","../images/wht_red.png","../images/gry_blk.png","../images/cyn_red.png","../images/blu_wht.png"],"mutagen_generator_assignment":[1,0],"goal":3,"start":6,"action_noise":0.15,"location_history":"[6,11,5,11,5,11,5,0,1,2,3]","action_history":"[0,0,1,1,1,1,0,0,0,0]","mutagen_history":"[1,1,0,0,0,0,1,1,1,1]","location_rts":"[1543,905,712,709,744,708,434,500,545,928]","trial_type":"fractal-mutation","trial_index":46,"time_elapsed":1212831,"internal_node_id":"0.0-5.0-7.0"},{"group":"dihedral group of order 12","fractal_assignment":["../images/red_prp.png","../images/grn_blu.png","../images/org_blu.png","../images/pnk_blu.png","../images/ylw_slt.png","../images/grn_red.png","../images/ylw_pnk.png","../images/grn_prp.png","../images/wht_red.png","../images/gry_blk.png","../images/cyn_red.png","../images/blu_wht.png"],"mutagen_generator_assignment":[1,0],"goal":8,"start":3,"action_noise":0.15,"location_history":"[3,9,3,9,8]","action_history":"[1,1,1,0]","mutagen_history":"[0,0,0,1]","location_rts":"[2205,569,772,443]","trial_type":"fractal-mutation","trial_index":47,"time_elapsed":1224741,"internal_node_id":"0.0-5.0-8.0"},{"group":"dihedral group of order 12","fractal_assignment":["../images/red_prp.png","../images/grn_blu.png","../images/org_blu.png","../images/pnk_blu.png","../images/ylw_slt.png","../images/grn_red.png","../images/ylw_pnk.png","../images/grn_prp.png","../images/wht_red.png","../images/gry_blk.png","../images/cyn_red.png","../images/blu_wht.png"],"mutagen_generator_assignment":[1,0],"goal":1,"start":8,"action_noise":0.15,"location_history":"[8,2,8,2,3,4,5,0,1]","action_history":"[0,1,1,1,0,0,0,0]","mutagen_history":"[1,0,0,0,1,1,1,1]","location_rts":"[1922,592,525,501,469,568,539,846]","trial_type":"fractal-mutation","trial_index":48,"time_elapsed":1244088,"internal_node_id":"0.0-5.0-9.0"},{"group":"dihedral group of order 12","fractal_assignment":["../images/red_prp.png","../images/grn_blu.png","../images/org_blu.png","../images/pnk_blu.png","../images/ylw_slt.png","../images/grn_red.png","../images/ylw_pnk.png","../images/grn_prp.png","../images/wht_red.png","../images/gry_blk.png","../images/cyn_red.png","../images/blu_wht.png"],"mutagen_generator_assignment":[1,0],"goal":7,"start":1,"action_noise":0.15,"location_history":"[1,2,8,2,3,9,8,7]","action_history":"[0,1,0,0,0,0,0]","mutagen_history":"[1,0,1,1,1,1,1]","location_rts":"[1898,650,523,552,754,492,504]","trial_type":"fractal-mutation","trial_index":49,"time_elapsed":1261864,"internal_node_id":"0.0-5.0-10.0"},{"group":"dihedral group of order 12","fractal_assignment":["../images/red_prp.png","../images/grn_blu.png","../images/org_blu.png","../images/pnk_blu.png","../images/ylw_slt.png","../images/grn_red.png","../images/ylw_pnk.png","../images/grn_prp.png","../images/wht_red.png","../images/gry_blk.png","../images/cyn_red.png","../images/blu_wht.png"],"mutagen_generator_assignment":[1,0],"goal":5,"start":7,"action_noise":0.15,"location_history":"[7,6,11,5]","action_history":"[0,1,1]","mutagen_history":"[1,0,0]","location_rts":"[1840,989,667]","trial_type":"fractal-mutation","trial_index":50,"time_elapsed":1272362,"internal_node_id":"0.0-5.0-11.0"},{"group":"dihedral group of order 12","fractal_assignment":["../images/red_prp.png","../images/grn_blu.png","../images/org_blu.png","../images/pnk_blu.png","../images/ylw_slt.png","../images/grn_red.png","../images/ylw_pnk.png","../images/grn_prp.png","../images/wht_red.png","../images/gry_blk.png","../images/cyn_red.png","../images/blu_wht.png"],"mutagen_generator_assignment":[1,0],"goal":8,"start":5,"action_noise":0.15,"location_history":"[5,0,1,7,6,11,10,4,10,4,10,9,8]","action_history":"[0,1,1,0,0,0,1,1,1,1,0,0]","mutagen_history":"[1,0,0,1,1,1,0,0,0,0,1,1]","location_rts":"[1631,961,509,560,608,635,530,626,679,728,579,711]","trial_type":"fractal-mutation","trial_index":51,"time_elapsed":1299309,"internal_node_id":"0.0-5.0-12.0"},{"group":"dihedral group of order 12","fractal_assignment":["../images/red_prp.png","../images/grn_blu.png","../images/org_blu.png","../images/pnk_blu.png","../images/ylw_slt.png","../images/grn_red.png","../images/ylw_pnk.png","../images/grn_prp.png","../images/wht_red.png","../images/gry_blk.png","../images/cyn_red.png","../images/blu_wht.png"],"mutagen_generator_assignment":[1,0],"goal":11,"start":8,"action_noise":0.15,"location_history":"[8,7,6,0,1,7,1,2,3,4,10,4,10,9,8,7,6,11]","action_history":"[0,0,1,1,1,1,0,0,0,1,1,1,0,0,0,0,0]","mutagen_history":"[1,1,0,0,0,0,1,1,1,0,0,0,1,1,1,1,1]","location_rts":"[2032,849,813,618,650,754,479,463,630,491,596,591,583,657,489,700,451]","trial_type":"fractal-mutation","trial_index":52,"time_elapsed":1335598,"internal_node_id":"0.0-5.0-13.0"},{"group":"dihedral group of order 12","fractal_assignment":["../images/red_prp.png","../images/grn_blu.png","../images/org_blu.png","../images/pnk_blu.png","../images/ylw_slt.png","../images/grn_red.png","../images/ylw_pnk.png","../images/grn_prp.png","../images/wht_red.png","../images/gry_blk.png","../images/cyn_red.png","../images/blu_wht.png"],"mutagen_generator_assignment":[1,0],"goal":6,"start":11,"action_noise":0.15,"location_history":"[11,10,9,3,4,5,11,10,9,3,4,10,4,10,4,5,11,5,0,6]","action_history":"[0,0,1,1,1,1,0,0,0,0,0,1,1,1,0,1,1,1,1]","mutagen_history":"[1,1,0,0,0,0,1,1,1,1,1,0,0,0,1,0,0,0,0]","location_rts":"[1490,496,457,637,537,900,754,455,463,418,559,468,504,429,548,984,551,876,571]","trial_type":"fractal-mutation","trial_index":53,"time_elapsed":1374214,"internal_node_id":"0.0-5.0-14.0"},{"group":"dihedral group of order 12","fractal_assignment":["../images/red_prp.png","../images/grn_blu.png","../images/org_blu.png","../images/pnk_blu.png","../images/ylw_slt.png","../images/grn_red.png","../images/ylw_pnk.png","../images/grn_prp.png","../images/wht_red.png","../images/gry_blk.png","../images/cyn_red.png","../images/blu_wht.png"],"mutagen_generator_assignment":[1,0],"goal":7,"start":6,"action_noise":0.15,"location_history":"[6,11,10,4,5,11,10,9,3,9,8,2,3,4,5,0,6,0,1,7]","action_history":"[0,1,1,0,0,0,0,1,1,1,1,0,0,0,0,1,1,0,0]","mutagen_history":"[1,0,0,1,1,1,1,0,0,0,0,1,1,1,1,0,0,1,1]","location_rts":"[1028,553,424,382,764,473,578,379,420,453,336,399,536,482,408,390,404,502,393]","trial_type":"fractal-mutation","trial_index":54,"time_elapsed":1410516,"internal_node_id":"0.0-5.0-15.0"},{"group":"dihedral group of order 12","fractal_assignment":["../images/red_prp.png","../images/grn_blu.png","../images/org_blu.png","../images/pnk_blu.png","../images/ylw_slt.png","../images/grn_red.png","../images/ylw_pnk.png","../images/grn_prp.png","../images/wht_red.png","../images/gry_blk.png","../images/cyn_red.png","../images/blu_wht.png"],"mutagen_generator_assignment":[1,0],"goal":10,"start":7,"action_noise":0.15,"location_history":"[7,6,0,6,0,6,0,1,2,8,2,3,4,5,0,6,0,1,2,3,4,10]","action_history":"[0,1,1,1,1,0,0,0,1,1,0,0,0,1,1,1,0,0,0,0,1]","mutagen_history":"[1,0,0,0,0,1,1,1,0,0,1,1,1,0,0,0,1,1,1,1,0]","location_rts":"[1594,622,638,606,451,637,507,645,470,641,414,434,459,420,686,629,522,436,433,397,168]","trial_type":"fractal-mutation","trial_index":55,"time_elapsed":1451424,"internal_node_id":"0.0-5.0-16.0"},{"group":"dihedral group of order 12","fractal_assignment":["../images/red_prp.png","../images/grn_blu.png","../images/org_blu.png","../images/pnk_blu.png","../images/ylw_slt.png","../images/grn_red.png","../images/ylw_pnk.png","../images/grn_prp.png","../images/wht_red.png","../images/gry_blk.png","../images/cyn_red.png","../images/blu_wht.png"],"mutagen_generator_assignment":[1,0],"goal":0,"start":10,"action_noise":0.15,"location_history":"[10,9,8,7,6,11,5,11,5,0]","action_history":"[0,1,0,0,0,1,1,1,0]","mutagen_history":"[1,0,1,1,1,0,0,0,1]","location_rts":"[1647,1237,592,684,585,421,847,606,362]","trial_type":"fractal-mutation","trial_index":56,"time_elapsed":1473032,"internal_node_id":"0.0-5.0-17.0"},{"group":"dihedral group of order 12","fractal_assignment":["../images/red_prp.png","../images/grn_blu.png","../images/org_blu.png","../images/pnk_blu.png","../images/ylw_slt.png","../images/grn_red.png","../images/ylw_pnk.png","../images/grn_prp.png","../images/wht_red.png","../images/gry_blk.png","../images/cyn_red.png","../images/blu_wht.png"],"mutagen_generator_assignment":[1,0],"goal":9,"start":0,"action_noise":0.15,"location_history":"[0,6,0,1,7,6,0,1,7,1,2,3,4,5,0,6,0,1,2,3,9]","action_history":"[1,1,0,1,0,1,0,1,1,0,0,0,0,1,1,1,0,0,0,1]","mutagen_history":"[0,0,1,0,1,0,1,0,0,1,1,1,1,0,0,0,1,1,1,0]","location_rts":"[1512,462,365,521,426,404,472,426,409,388,396,339,468,692,408,463,428,495,159,371]","trial_type":"fractal-mutation","trial_index":57,"time_elapsed":1510291,"internal_node_id":"0.0-5.0-18.0"},{"group":"dihedral group of order 12","fractal_assignment":["../images/red_prp.png","../images/grn_blu.png","../images/org_blu.png","../images/pnk_blu.png","../images/ylw_slt.png","../images/grn_red.png","../images/ylw_pnk.png","../images/grn_prp.png","../images/wht_red.png","../images/gry_blk.png","../images/cyn_red.png","../images/blu_wht.png"],"mutagen_generator_assignment":[1,0],"goal":4,"start":9,"action_noise":0.15,"location_history":"[9,8,7,1,2,8,7,6,0,1,7,1,7,1,7,6,0,1,7,6,11,5,11,10,9,3,9,3,4]","action_history":"[1,0,1,0,1,0,0,1,0,1,1,1,1,1,0,1,0,1,0,0,1,1,0,0,1,1,1,0]","mutagen_history":"[0,1,0,1,0,1,1,0,1,0,0,0,0,0,1,0,1,0,1,1,0,0,1,1,0,0,0,1]","location_rts":"[1299,679,449,581,440,541,1490,522,399,334,441,765,756,479,772,483,485,720,571,95,651,690,761,588,856,471,586,480]","trial_type":"fractal-mutation","trial_index":58,"time_elapsed":1564857,"internal_node_id":"0.0-5.0-19.0"},{"group":"dihedral group of order 12","fractal_assignment":["../images/red_prp.png","../images/grn_blu.png","../images/org_blu.png","../images/pnk_blu.png","../images/ylw_slt.png","../images/grn_red.png","../images/ylw_pnk.png","../images/grn_prp.png","../images/wht_red.png","../images/gry_blk.png","../images/cyn_red.png","../images/blu_wht.png"],"mutagen_generator_assignment":[1,0],"goal":2,"start":4,"action_noise":0.15,"location_history":"[4,5,11,5,11,5,0,1,2]","action_history":"[0,1,1,1,1,1,0,0]","mutagen_history":"[1,0,0,0,0,0,1,1]","location_rts":"[1311,597,581,686,426,337,397,614]","trial_type":"fractal-mutation","trial_index":59,"time_elapsed":1583032,"internal_node_id":"0.0-5.0-20.0"},{"group":"dihedral group of order 12","fractal_assignment":["../images/red_prp.png","../images/grn_blu.png","../images/org_blu.png","../images/pnk_blu.png","../images/ylw_slt.png","../images/grn_red.png","../images/ylw_pnk.png","../images/grn_prp.png","../images/wht_red.png","../images/gry_blk.png","../images/cyn_red.png","../images/blu_wht.png"],"mutagen_generator_assignment":[1,0],"goal":1,"start":2,"action_noise":0.15,"location_history":"[2,3,4,10,9,3,9,3,4,5,0,1]","action_history":"[0,0,1,0,0,1,0,0,0,0,0]","mutagen_history":"[1,1,0,1,1,0,1,1,1,1,1]","location_rts":"[978,456,1426,744,460,369,429,672,501,501,307]","trial_type":"fractal-mutation","trial_index":60,"time_elapsed":1607301,"internal_node_id":"0.0-5.0-21.0"},{"group":"dihedral group of order 12","fractal_assignment":["../images/red_prp.png","../images/grn_blu.png","../images/org_blu.png","../images/pnk_blu.png","../images/ylw_slt.png","../images/grn_red.png","../images/ylw_pnk.png","../images/grn_prp.png","../images/wht_red.png","../images/gry_blk.png","../images/cyn_red.png","../images/blu_wht.png"],"mutagen_generator_assignment":[1,0],"goal":3,"start":1,"action_noise":0.15,"location_history":"[1,2,8,7,1,2,8,7,1,7,6,11,10,4,10,9,3]","action_history":"[0,1,0,1,0,0,0,1,1,0,0,0,1,1,0,1]","mutagen_history":"[1,0,1,0,1,1,1,0,0,1,1,1,0,0,1,0]","location_rts":"[1028,367,422,513,495,362,456,511,877,686,372,230,556,535,61,490]","trial_type":"fractal-mutation","trial_index":61,"time_elapsed":1638219,"internal_node_id":"0.0-5.0-22.0"},{"group":"dihedral group of order 12","fractal_assignment":["../images/red_prp.png","../images/grn_blu.png","../images/org_blu.png","../images/pnk_blu.png","../images/ylw_slt.png","../images/grn_red.png","../images/ylw_pnk.png","../images/grn_prp.png","../images/wht_red.png","../images/gry_blk.png","../images/cyn_red.png","../images/blu_wht.png"],"mutagen_generator_assignment":[1,0],"goal":7,"start":3,"action_noise":0.15,"location_history":"[3,4,10,4,10,9,8,7]","action_history":"[0,1,1,1,0,0,0]","mutagen_history":"[1,0,0,0,1,1,1]","location_rts":"[973,434,640,537,521,576,520]","trial_type":"fractal-mutation","trial_index":62,"time_elapsed":1654530,"internal_node_id":"0.0-5.0-23.0"},{"group":"dihedral group of order 12","fractal_assignment":["../images/red_prp.png","../images/grn_blu.png","../images/org_blu.png","../images/pnk_blu.png","../images/ylw_slt.png","../images/grn_red.png","../images/ylw_pnk.png","../images/grn_prp.png","../images/wht_red.png","../images/gry_blk.png","../images/cyn_red.png","../images/blu_wht.png"],"mutagen_generator_assignment":[1,0],"goal":6,"start":7,"action_noise":0.15,"location_history":"[7,1,7,6]","action_history":"[0,0,1]","mutagen_history":"[1,1,0]","location_rts":"[2159,801,657]","trial_type":"fractal-mutation","trial_index":63,"time_elapsed":1665294,"internal_node_id":"0.0-5.0-24.0"},{"group":"dihedral group of order 12","fractal_assignment":["../images/red_prp.png","../images/grn_blu.png","../images/org_blu.png","../images/pnk_blu.png","../images/ylw_slt.png","../images/grn_red.png","../images/ylw_pnk.png","../images/grn_prp.png","../images/wht_red.png","../images/gry_blk.png","../images/cyn_red.png","../images/blu_wht.png"],"mutagen_generator_assignment":[1,0],"goal":2,"start":6,"action_noise":0.15,"location_history":"[6,11,5,11,10,9,3,9,3,4,5,0,1,2]","action_history":"[0,1,1,0,0,1,1,1,0,0,0,0,0]","mutagen_history":"[1,0,0,1,1,0,0,0,1,1,1,1,1]","location_rts":"[1290,565,604,476,637,348,514,513,454,385,880,631,486]","trial_type":"fractal-mutation","trial_index":64,"time_elapsed":1692654,"internal_node_id":"0.0-5.0-25.0"},{"group":"dihedral group of order 12","fractal_assignment":["../images/red_prp.png","../images/grn_blu.png","../images/org_blu.png","../images/pnk_blu.png","../images/ylw_slt.png","../images/grn_red.png","../images/ylw_pnk.png","../images/grn_prp.png","../images/wht_red.png","../images/gry_blk.png","../images/cyn_red.png","../images/blu_wht.png"],"mutagen_generator_assignment":[1,0],"goal":8,"start":2,"action_noise":0.15,"location_history":"[2,8]","action_history":"[1]","mutagen_history":"[0]","location_rts":"[2051]","trial_type":"fractal-mutation","trial_index":65,"time_elapsed":1699242,"internal_node_id":"0.0-5.0-26.0"},{"group":"dihedral group of order 12","fractal_assignment":["../images/red_prp.png","../images/grn_blu.png","../images/org_blu.png","../images/pnk_blu.png","../images/ylw_slt.png","../images/grn_red.png","../images/ylw_pnk.png","../images/grn_prp.png","../images/wht_red.png","../images/gry_blk.png","../images/cyn_red.png","../images/blu_wht.png"],"mutagen_generator_assignment":[1,0],"goal":0,"start":8,"action_noise":0.15,"location_history":"[8,7,1,7,6,11,10,4,10,4,10,9,3,4,10,4,5,0]","action_history":"[0,1,1,1,0,0,1,1,1,0,0,0,1,1,0,0,0]","mutagen_history":"[1,0,0,0,1,1,0,0,0,1,1,1,0,0,1,1,1]","location_rts":"[2047,620,960,568,808,553,843,539,517,456,571,568,743,596,591,503,583]","trial_type":"fractal-mutation","trial_index":66,"time_elapsed":1735531,"internal_node_id":"0.0-5.0-27.0"},{"group":"dihedral group of order 12","fractal_assignment":["../images/red_prp.png","../images/grn_blu.png","../images/org_blu.png","../images/pnk_blu.png","../images/ylw_slt.png","../images/grn_red.png","../images/ylw_pnk.png","../images/grn_prp.png","../images/wht_red.png","../images/gry_blk.png","../images/cyn_red.png","../images/blu_wht.png"],"mutagen_generator_assignment":[1,0],"goal":3,"start":0,"action_noise":0.15,"location_history":"[0,1,2,8,2,3]","action_history":"[0,1,1,1,0]","mutagen_history":"[1,0,0,0,1]","location_rts":"[2095,409,490,684,481]","trial_type":"fractal-mutation","trial_index":67,"time_elapsed":1749307,"internal_node_id":"0.0-5.0-28.0"},{"group":"dihedral group of order 12","fractal_assignment":["../images/red_prp.png","../images/grn_blu.png","../images/org_blu.png","../images/pnk_blu.png","../images/ylw_slt.png","../images/grn_red.png","../images/ylw_pnk.png","../images/grn_prp.png","../images/wht_red.png","../images/gry_blk.png","../images/cyn_red.png","../images/blu_wht.png"],"mutagen_generator_assignment":[1,0],"goal":4,"start":3,"action_noise":0.15,"location_history":"[3,9,8,7,6,11,5,11,5,0,6,0,6,0,1,7,6,11,5,0,6,11,10,9,8,2,8,7,6,11,5,0,6,0,6,0,1,2,3,9,8,2,8,7,6,11,5,11,10,4]","action_history":"[1,0,0,0,0,1,1,1,0,1,0,0,0,1,0,0,0,1,0,1,0,0,0,1,1,1,1,0,0,1,1,1,1,1,1,0,0,1,1,0,1,0,0,0,0,1,1,1,1]","mutagen_history":"[0,1,1,1,1,0,0,0,1,0,1,1,1,0,1,1,1,0,1,0,1,1,1,0,0,0,0,1,1,0,0,0,0,0,0,1,1,0,0,1,0,1,1,1,1,0,0,0,0]","location_rts":"[1125,527,749,564,547,396,634,707,464,420,630,499,572,969,523,696,615,413,510,958,565,415,513,527,596,884,846,391,654,400,400,366,484,477,607,354,480,849,637,344,591,424,352,565,495,18,411,394,352]","trial_type":"fractal-mutation","trial_index":68,"time_elapsed":1839408,"internal_node_id":"0.0-5.0-29.0"},{"group":"dihedral group of order 12","fractal_assignment":["../images/red_prp.png","../images/grn_blu.png","../images/org_blu.png","../images/pnk_blu.png","../images/ylw_slt.png","../images/grn_red.png","../images/ylw_pnk.png","../images/grn_prp.png","../images/wht_red.png","../images/gry_blk.png","../images/cyn_red.png","../images/blu_wht.png"],"mutagen_generator_assignment":[1,0],"goal":10,"start":4,"action_noise":0.15,"location_history":"[4,5,11,5,11,10]","action_history":"[0,1,1,1,0]","mutagen_history":"[1,0,0,0,1]","location_rts":"[1243,509,524,503,352]","trial_type":"fractal-mutation","trial_index":69,"time_elapsed":1852095,"internal_node_id":"0.0-5.0-30.0"},{"group":"dihedral group of order 12","fractal_assignment":["../images/red_prp.png","../images/grn_blu.png","../images/org_blu.png","../images/pnk_blu.png","../images/ylw_slt.png","../images/grn_red.png","../images/ylw_pnk.png","../images/grn_prp.png","../images/wht_red.png","../images/gry_blk.png","../images/cyn_red.png","../images/blu_wht.png"],"mutagen_generator_assignment":[1,0],"goal":11,"start":10,"action_noise":0.15,"location_history":"[10,4,5,11]","action_history":"[1,0,1]","mutagen_history":"[0,1,0]","location_rts":"[1644,834,476]","trial_type":"fractal-mutation","trial_index":70,"time_elapsed":1862022,"internal_node_id":"0.0-5.0-31.0"},{"group":"dihedral group of order 12","fractal_assignment":["../images/red_prp.png","../images/grn_blu.png","../images/org_blu.png","../images/pnk_blu.png","../images/ylw_slt.png","../images/grn_red.png","../images/ylw_pnk.png","../images/grn_prp.png","../images/wht_red.png","../images/gry_blk.png","../images/cyn_red.png","../images/blu_wht.png"],"mutagen_generator_assignment":[1,0],"goal":1,"start":11,"action_noise":0.15,"location_history":"[11,10,4,10,9,3,4,5,0,1]","action_history":"[0,1,1,1,1,0,0,0,0]","mutagen_history":"[1,0,0,0,0,1,1,1,1]","location_rts":"[1687,475,801,725,506,471,781,548,533]","trial_type":"fractal-mutation","trial_index":71,"time_elapsed":1883160,"internal_node_id":"0.0-5.0-32.0"},{"group":"dihedral group of order 12","fractal_assignment":["../images/red_prp.png","../images/grn_blu.png","../images/org_blu.png","../images/pnk_blu.png","../images/ylw_slt.png","../images/grn_red.png","../images/ylw_pnk.png","../images/grn_prp.png","../images/wht_red.png","../images/gry_blk.png","../images/cyn_red.png","../images/blu_wht.png"],"mutagen_generator_assignment":[1,0],"goal":5,"start":1,"action_noise":0.15,"location_history":"[1,7,6,11,10,4,10,4,5]","action_history":"[1,0,0,0,1,1,1,0]","mutagen_history":"[0,1,1,1,0,0,0,1]","location_rts":"[1521,418,674,436,410,481,958,483]","trial_type":"fractal-mutation","trial_index":72,"time_elapsed":1901626,"internal_node_id":"0.0-5.0-33.0"},{"group":"dihedral group of order 12","fractal_assignment":["../images/red_prp.png","../images/grn_blu.png","../images/org_blu.png","../images/pnk_blu.png","../images/ylw_slt.png","../images/grn_red.png","../images/ylw_pnk.png","../images/grn_prp.png","../images/wht_red.png","../images/gry_blk.png","../images/cyn_red.png","../images/blu_wht.png"],"mutagen_generator_assignment":[1,0],"goal":9,"start":5,"action_noise":0.15,"location_history":"[5,0,6,0,1,2,8,7,6,0,1,2,8,7,6,11,10,9]","action_history":"[0,1,1,0,0,1,1,1,0,0,0,1,0,0,0,0,0]","mutagen_history":"[1,0,0,1,1,0,0,0,1,1,1,0,1,1,1,1,1]","location_rts":"[1384,407,526,389,469,380,492,457,322,413,408,367,1440,555,427,636,704]","trial_type":"fractal-mutation","trial_index":73,"time_elapsed":1935930,"internal_node_id":"0.0-5.0-34.0"},{"view_history":"[{\"page_index\":0,\"viewing_time\":9309}]","rt":9309,"trial_type":"instructions","trial_index":74,"time_elapsed":1946240,"internal_node_id":"0.0-6.0"},{"rt":3768,"responses":"{\"Q0\":\"no\"}","trial_type":"survey-text","trial_index":75,"time_elapsed":1951014,"internal_node_id":"0.0-7.0"}]