[{"view_history":"[{\"page_index\":0,\"viewing_time\":25423},{\"page_index\":1,\"viewing_time\":8728},{\"page_index\":2,\"viewing_time\":38596},{\"page_index\":3,\"viewing_time\":5845}]","rt":78597,"trial_type":"instructions","trial_index":0,"time_elapsed":78607,"internal_node_id":"0.0-0.0"},{"view_history":"[{\"page_index\":0,\"viewing_time\":8926},{\"page_index\":1,\"viewing_time\":43802}]","rt":52729,"trial_type":"instructions","trial_index":1,"time_elapsed":132339,"internal_node_id":"0.0-1.0"},{"group":"dihedral group of order 12","room_assignment":["blue","red","pink","purple","grey","yellow","olive","cyan","ivory","green","brown","orange"],"door_color_assignment":["black","white"],"door_generator_assignment":[0,1],"goal":4,"start":0,"action_noise":0.15,"location_history":"[0,1,7,1,2,3,4]","action_history":"[0,1,1,0,0,0]","door_history":"[0,1,1,0,0,0]","location_rts":"[7733,4088,1602,1557,1056,1359]","trial_type":"two-door-navigation","trial_index":2,"time_elapsed":159516,"internal_node_id":"0.0-2.0-0.0"},{"group":"dihedral group of order 12","room_assignment":["blue","red","pink","purple","grey","yellow","olive","cyan","ivory","green","brown","orange"],"door_color_assignment":["black","white"],"door_generator_assignment":[0,1],"goal":9,"start":4,"action_noise":0.15,"location_history":"[4,10,4,10,9]","action_history":"[1,1,1,0]","door_history":"[1,1,1,0]","location_rts":"[3920,1153,1131,1976]","trial_type":"two-door-navigation","trial_index":3,"time_elapsed":175332,"internal_node_id":"0.0-2.0-1.0"},{"group":"dihedral group of order 12","room_assignment":["blue","red","pink","purple","grey","yellow","olive","cyan","ivory","green","brown","orange"],"door_color_assignment":["black","white"],"door_generator_assignment":[0,1],"goal":10,"start":9,"action_noise":0.15,"location_history":"[9,3,9,3,4,10]","action_history":"[1,1,1,1,1]","door_history":"[1,1,1,1,1]","location_rts":"[2349,1292,1160,1093,2025]","trial_type":"two-door-navigation","trial_index":4,"time_elapsed":192445,"internal_node_id":"0.0-2.0-2.0"},{"group":"dihedral group of order 12","room_assignment":["blue","red","pink","purple","grey","yellow","olive","cyan","ivory","green","brown","orange"],"door_color_assignment":["black","white"],"door_generator_assignment":[0,1],"goal":2,"start":10,"action_noise":0.15,"location_history":"[10,9,3,4,5,0,6,0,6,0,6,0,6,0,1,2]","action_history":"[0,0,0,0,0,0,0,1,1,1,1,1,1,0,0]","door_history":"[0,0,0,0,0,0,0,1,1,1,1,1,1,0,0]","location_rts":"[2192,847,742,630,798,743,757,1417,673,651,553,512,476,1497,1140]","trial_type":"two-door-navigation","trial_index":5,"time_elapsed":225068,"internal_node_id":"0.0-2.0-3.0"},{"group":"dihedral group of order 12","room_assignment":["blue","red","pink","purple","grey","yellow","olive","cyan","ivory","green","brown","orange"],"door_color_assignment":["black","white"],"door_generator_assignment":[0,1],"goal":5,"start":2,"action_noise":0.15,"location_history":"[2,3,9,3,9,8,2,3,4,5]","action_history":"[1,1,1,1,0,0,0,0,0]","door_history":"[1,1,1,1,0,0,0,0,0]","location_rts":"[2038,644,609,615,1002,895,1603,738,717]","trial_type":"two-door-navigation","trial_index":6,"time_elapsed":246935,"internal_node_id":"0.0-2.0-4.0"},{"group":"dihedral group of order 12","room_assignment":["blue","red","pink","purple","grey","yellow","olive","cyan","ivory","green","brown","orange"],"door_color_assignment":["black","white"],"door_generator_assignment":[0,1],"goal":11,"start":5,"action_noise":0.15,"location_history":"[5,0,6,11]","action_history":"[0,0,0]","door_history":"[0,0,0]","location_rts":"[4735,1021,620]","trial_type":"two-door-navigation","trial_index":7,"time_elapsed":260006,"internal_node_id":"0.0-2.0-5.0"},{"group":"dihedral group of order 12","room_assignment":["blue","red","pink","purple","grey","yellow","olive","cyan","ivory","green","brown","orange"],"door_color_assignment":["black","white"],"door_generator_assignment":[0,1],"goal":6,"start":11,"action_noise":0.15,"location_history":"[11,5,0,1,2,3,4,10,9,8,7,6]","action_history":"[0,0,0,0,0,0,0,0,0,0,0]","door_history":"[0,0,0,0,0,0,0,0,0,0,0]","location_rts":"[1593,563,767,679,552,550,725,535,647,1231,595]","trial_type":"two-door-navigation","trial_index":8,"time_elapsed":283338,"internal_node_id":"0.0-2.0-6.0"},{"group":"dihedral group of order 12","room_assignment":["blue","red","pink","purple","grey","yellow","olive","cyan","ivory","green","brown","orange"],"door_color_assignment":["black","white"],"door_generator_assignment":[0,1],"goal":3,"start":6,"action_noise":0.15,"location_history":"[6,11,10,9,8,7,6,0,6,0,1,7,1,7,6,11,10,9,8,2,3]","action_history":"[0,0,0,0,0,0,1,1,1,1,1,1,1,0,0,0,0,0,0,0]","door_history":"[0,0,0,0,0,0,1,1,1,1,1,1,1,0,0,0,0,0,0,0]","location_rts":"[1307,529,569,511,562,779,1581,1086,612,717,794,623,523,958,659,720,531,499,1354,616]","trial_type":"two-door-navigation","trial_index":9,"time_elapsed":323558,"internal_node_id":"0.0-2.0-7.0"},{"group":"dihedral group of order 12","room_assignment":["blue","red","pink","purple","grey","yellow","olive","cyan","ivory","green","brown","orange"],"door_color_assignment":["black","white"],"door_generator_assignment":[0,1],"goal":8,"start":3,"action_noise":0.15,"location_history":"[3,4,5,0,1,2,3,4,5,0,6,11,10,9,8]","action_history":"[0,0,0,0,0,0,0,0,0,0,0,0,0,0]","door_history":"[0,0,0,0,0,0,0,0,0,0,0,0,0,0]","location_rts":"[1893,747,531,564,517,546,499,872,570,473,665,511,537,560]","trial_type":"two-door-navigation","trial_index":10,"time_elapsed":351665,"internal_node_id":"0.0-2.0-8.0"},{"group":"dihedral group of order 12","room_assignment":["blue","red","pink","purple","grey","yellow","olive","cyan","ivory","green","brown","orange"],"door_color_assignment":["black","white"],"door_generator_assignment":[0,1],"goal":1,"start":8,"action_noise":0.15,"location_history":"[8,7,6,0,6,11,10,4,5,0,1]","action_history":"[1,1,1,1,0,0,0,0,0,0]","door_history":"[1,1,1,1,0,0,0,0,0,0]","location_rts":"[2506,755,2007,725,924,611,522,406,447,1407]","trial_type":"two-door-navigation","trial_index":11,"time_elapsed":376063,"internal_node_id":"0.0-2.0-9.0"},{"group":"dihedral group of order 12","room_assignment":["blue","red","pink","purple","grey","yellow","olive","cyan","ivory","green","brown","orange"],"door_color_assignment":["black","white"],"door_generator_assignment":[0,1],"goal":7,"start":1,"action_noise":0.15,"location_history":"[1,2,3,4,5,0,1,2,8,2,8,2,8,2,3,4,5,0,1,7]","action_history":"[0,0,0,0,0,0,0,0,1,1,1,1,1,0,0,0,0,0,0]","door_history":"[0,0,0,0,0,0,0,0,1,1,1,1,1,0,0,0,0,0,0]","location_rts":"[3965,2554,2234,479,487,3779,1524,693,2674,569,2549,501,1132,1316,3849,2745,2180,1844,5666]","trial_type":"two-door-navigation","trial_index":12,"time_elapsed":439918,"internal_node_id":"0.0-2.0-10.0"},{"group":"dihedral group of order 12","room_assignment":["blue","red","pink","purple","grey","yellow","olive","cyan","ivory","green","brown","orange"],"door_color_assignment":["black","white"],"door_generator_assignment":[0,1],"goal":5,"start":7,"action_noise":0.15,"location_history":"[7,1,7,6,11,10,4,5]","action_history":"[0,0,0,0,0,1,1]","door_history":"[0,0,0,0,0,1,1]","location_rts":"[1603,2388,2936,6984,554,7044,7929]","trial_type":"two-door-navigation","trial_index":13,"time_elapsed":480323,"internal_node_id":"0.0-2.0-11.0"},{"group":"dihedral group of order 12","room_assignment":["blue","red","pink","purple","grey","yellow","olive","cyan","ivory","green","brown","orange"],"door_color_assignment":["black","white"],"door_generator_assignment":[0,1],"goal":8,"start":5,"action_noise":0.15,"location_history":"[5,11,5,11,10,9,8]","action_history":"[1,1,1,0,0,0]","door_history":"[1,1,1,0,0,0]","location_rts":"[6361,1020,1949,3539,2176,2936]","trial_type":"two-door-navigation","trial_index":14,"time_elapsed":508229,"internal_node_id":"0.0-2.0-12.0"},{"group":"dihedral group of order 12","room_assignment":["blue","red","pink","purple","grey","yellow","olive","cyan","ivory","green","brown","orange"],"door_color_assignment":["black","white"],"door_generator_assignment":[0,1],"goal":11,"start":8,"action_noise":0.15,"location_history":"[8,7,6,0,6,0,1,7,1,2,3,9,3,9,3,4,10,9,3,4,10,4,10,4,5,11]","action_history":"[0,0,0,0,0,1,1,1,1,1,1,1,1,0,0,0,0,0,0,0,1,1,1,0,0]","door_history":"[0,0,0,0,0,1,1,1,1,1,1,1,1,0,0,0,0,0,0,0,1,1,1,0,0]","location_rts":"[1532,561,470,434,512,462,823,537,587,708,554,613,479,1211,510,476,629,698,870,547,847,447,454,1067,739]","trial_type":"two-door-navigation","trial_index":15,"time_elapsed":554898,"internal_node_id":"0.0-2.0-13.0"},{"group":"dihedral group of order 12","room_assignment":["blue","red","pink","purple","grey","yellow","olive","cyan","ivory","green","brown","orange"],"door_color_assignment":["black","white"],"door_generator_assignment":[0,1],"goal":6,"start":11,"action_noise":0.15,"location_history":"[11,10,9,3,4,10,9,3,9,3,9,8,2,3,4,5,0,1,2,3,4,10,4,10,9,8,7,6]","action_history":"[0,0,0,0,1,1,1,1,1,1,0,0,0,0,0,0,0,0,0,0,1,1,1,0,0,0,0]","door_history":"[0,0,0,0,1,1,1,1,1,1,0,0,0,0,0,0,0,0,0,0,1,1,1,0,0,0,0]","location_rts":"[1433,774,830,470,1210,526,515,466,391,501,893,604,511,523,644,846,550,804,727,676,935,540,494,984,845,521,493]","trial_type":"two-door-navigation","trial_index":16,"time_elapsed":605348,"internal_node_id":"0.0-2.0-14.0"},{"group":"dihedral group of order 12","room_assignment":["blue","red","pink","purple","grey","yellow","olive","cyan","ivory","green","brown","orange"],"door_color_assignment":["black","white"],"door_generator_assignment":[0,1],"goal":7,"start":6,"action_noise":0.15,"location_history":"[6,11,5,11,5,0,1,7]","action_history":"[0,0,1,1,0,0,0]","door_history":"[0,0,1,1,0,0,0]","location_rts":"[1964,5302,1434,521,1478,1701,660]","trial_type":"two-door-navigation","trial_index":17,"time_elapsed":629260,"internal_node_id":"0.0-2.0-15.0"},{"group":"dihedral group of order 12","room_assignment":["blue","red","pink","purple","grey","yellow","olive","cyan","ivory","green","brown","orange"],"door_color_assignment":["black","white"],"door_generator_assignment":[0,1],"goal":10,"start":7,"action_noise":0.15,"location_history":"[7,6,11,10]","action_history":"[0,0,1]","door_history":"[0,0,1]","location_rts":"[1600,4722,815]","trial_type":"two-door-navigation","trial_index":18,"time_elapsed":642964,"internal_node_id":"0.0-2.0-16.0"},{"group":"dihedral group of order 12","room_assignment":["blue","red","pink","purple","grey","yellow","olive","cyan","ivory","green","brown","orange"],"door_color_assignment":["black","white"],"door_generator_assignment":[0,1],"goal":0,"start":10,"action_noise":0.15,"location_history":"[10,4,10,9,8,2,8,7,1,2,8,2,3,4,5,0]","action_history":"[1,0,0,0,0,0,0,0,0,1,1,0,0,0,0]","door_history":"[1,0,0,0,0,0,0,0,0,1,1,0,0,0,0]","location_rts":"[4178,774,3174,1034,855,871,1133,2129,685,1992,549,1175,1207,671,1233]","trial_type":"two-door-navigation","trial_index":19,"time_elapsed":684366,"internal_node_id":"0.0-2.0-17.0"},{"group":"dihedral group of order 12","room_assignment":["blue","red","pink","purple","grey","yellow","olive","cyan","ivory","green","brown","orange"],"door_color_assignment":["black","white"],"door_generator_assignment":[0,1],"goal":9,"start":0,"action_noise":0.15,"location_history":"[0,6,11,5,11,5,11,10,4,5,11,10,9]","action_history":"[0,0,1,1,1,1,0,0,0,0,0,0]","door_history":"[0,0,1,1,1,1,0,0,0,0,0,0]","location_rts":"[3419,1506,3082,533,488,550,805,1456,2786,1309,3650,845]","trial_type":"two-door-navigation","trial_index":20,"time_elapsed":720714,"internal_node_id":"0.0-2.0-18.0"},{"group":"dihedral group of order 12","room_assignment":["blue","red","pink","purple","grey","yellow","olive","cyan","ivory","green","brown","orange"],"door_color_assignment":["black","white"],"door_generator_assignment":[0,1],"goal":4,"start":9,"action_noise":0.15,"location_history":"[9,8,2,8,2,3,9,8,7,6,11,5,11,5,11,10,4]","action_history":"[0,1,1,1,0,0,0,0,0,0,0,1,1,1,0,0]","door_history":"[0,1,1,1,0,0,0,0,0,0,0,1,1,1,0,0]","location_rts":"[2141,1070,586,721,1095,570,1027,606,389,536,858,1462,1123,851,1187,667]","trial_type":"two-door-navigation","trial_index":21,"time_elapsed":755719,"internal_node_id":"0.0-2.0-19.0"},{"group":"dihedral group of order 12","room_assignment":["blue","red","pink","purple","grey","yellow","olive","cyan","ivory","green","brown","orange"],"door_color_assignment":["black","white"],"door_generator_assignment":[0,1],"goal":2,"start":4,"action_noise":0.15,"location_history":"[4,5,0,1,7,1,2]","action_history":"[0,0,1,1,1,0]","door_history":"[0,0,1,1,1,0]","location_rts":"[6863,848,1690,718,621,705]","trial_type":"two-door-navigation","trial_index":22,"time_elapsed":776892,"internal_node_id":"0.0-2.0-20.0"},{"group":"dihedral group of order 12","room_assignment":["blue","red","pink","purple","grey","yellow","olive","cyan","ivory","green","brown","orange"],"door_color_assignment":["black","white"],"door_generator_assignment":[0,1],"goal":1,"start":2,"action_noise":0.15,"location_history":"[2,3,9,3,9,8,7,6,11,5,11,10,4,5,0,1]","action_history":"[0,1,1,1,0,0,0,0,0,0,0,0,0,0,0]","door_history":"[0,1,1,1,0,0,0,0,0,0,0,0,0,0,0]","location_rts":"[4089,895,872,597,514,733,1074,423,370,536,490,367,490,566,691]","trial_type":"two-door-navigation","trial_index":23,"time_elapsed":808966,"internal_node_id":"0.0-2.0-21.0"},{"group":"dihedral group of order 12","room_assignment":["blue","red","pink","purple","grey","yellow","olive","cyan","ivory","green","brown","orange"],"door_color_assignment":["black","white"],"door_generator_assignment":[0,1],"goal":3,"start":1,"action_noise":0.15,"location_history":"[1,7,1,7,6,11,10,4,5,0,6,11,10,4,5,0,1,7,1,2,8,2,8,7,1,2,3]","action_history":"[1,1,1,0,0,0,0,0,0,0,0,1,0,0,0,0,0,0,0,1,1,1,0,0,0,0]","door_history":"[1,1,1,0,0,0,0,0,0,0,0,1,0,0,0,0,0,0,0,1,1,1,0,0,0,0]","location_rts":"[8908,1024,636,740,1695,1401,2785,570,2736,2333,532,615,974,505,173,980,1141,734,632,1162,595,645,1029,561,720,1136]","trial_type":"two-door-navigation","trial_index":24,"time_elapsed":875051,"internal_node_id":"0.0-2.0-22.0"},{"group":"dihedral group of order 12","room_assignment":["blue","red","pink","purple","grey","yellow","olive","cyan","ivory","green","brown","orange"],"door_color_assignment":["black","white"],"door_generator_assignment":[0,1],"goal":7,"start":3,"action_noise":0.15,"location_history":"[3,4,10,4,10,9,3,4,10,9,8,7]","action_history":"[0,0,1,1,1,1,1,1,0,0,0]","door_history":"[0,0,1,1,1,1,1,1,0,0,0]","location_rts":"[5596,712,780,473,413,1490,585,781,1024,581,1029]","trial_type":"two-door-navigation","trial_index":25,"time_elapsed":903476,"internal_node_id":"0.0-2.0-23.0"},{"group":"dihedral group of order 12","room_assignment":["blue","red","pink","purple","grey","yellow","olive","cyan","ivory","green","brown","orange"],"door_color_assignment":["black","white"],"door_generator_assignment":[0,1],"goal":6,"start":7,"action_noise":0.15,"location_history":"[7,6]","action_history":"[0]","door_history":"[0]","location_rts":"[3865]","trial_type":"two-door-navigation","trial_index":26,"time_elapsed":911861,"internal_node_id":"0.0-2.0-24.0"},{"group":"dihedral group of order 12","room_assignment":["blue","red","pink","purple","grey","yellow","olive","cyan","ivory","green","brown","orange"],"door_color_assignment":["black","white"],"door_generator_assignment":[0,1],"goal":2,"start":6,"action_noise":0.15,"location_history":"[6,11,5,11,10,4,5,11,10,9,8,7,6,11,10,9,8,7,6,0,1,7,1,2]","action_history":"[0,1,1,1,1,1,0,0,0,0,0,0,0,0,0,0,0,1,1,1,1,1,0]","door_history":"[0,1,1,1,1,1,0,0,0,0,0,0,0,0,0,0,0,1,1,1,1,1,0]","location_rts":"[1114,1659,559,542,1121,761,1514,573,581,617,792,523,851,624,510,1676,497,1221,552,672,957,837,1708]","trial_type":"two-door-navigation","trial_index":27,"time_elapsed":959526,"internal_node_id":"0.0-2.0-25.0"},{"group":"dihedral group of order 12","room_assignment":["blue","red","pink","purple","grey","yellow","olive","cyan","ivory","green","brown","orange"],"door_color_assignment":["black","white"],"door_generator_assignment":[0,1],"goal":8,"start":2,"action_noise":0.15,"location_history":"[2,3,4,5,0,6,0,1,7,6,11,10,4,5,0,6,0,6,0,1,2,3,4,5,0,1,2,3,4,5,0,6,0,6,11,10,9,8]","action_history":"[0,0,0,1,1,1,0,0,0,0,0,0,0,0,1,1,0,0,0,0,0,0,0,0,0,0,0,0,0,0,1,1,1,0,0,0,0]","door_history":"[0,0,0,1,1,1,0,0,0,0,0,0,0,0,1,1,0,0,0,0,0,0,0,0,0,0,0,0,0,0,1,1,1,0,0,0,0]","location_rts":"[2289,431,341,825,836,448,1180,468,496,369,487,457,506,527,565,551,1242,462,587,504,380,452,532,500,175,1266,455,526,420,638,1436,523,553,588,525,2580,1501]","trial_type":"two-door-navigation","trial_index":28,"time_elapsed":1028418,"internal_node_id":"0.0-2.0-26.0"},{"group":"dihedral group of order 12","room_assignment":["blue","red","pink","purple","grey","yellow","olive","cyan","ivory","green","brown","orange"],"door_color_assignment":["black","white"],"door_generator_assignment":[0,1],"goal":0,"start":8,"action_noise":0.15,"location_history":"[8,2,8,2,8,2,8,7,6,11,10,4,5,0]","action_history":"[0,1,1,1,1,1,0,0,0,0,0,0,0]","door_history":"[0,1,1,1,1,1,0,0,0,0,0,0,0]","location_rts":"[1986,1456,1758,493,422,307,567,412,469,366,418,335,408]","trial_type":"two-door-navigation","trial_index":29,"time_elapsed":1055095,"internal_node_id":"0.0-2.0-27.0"},{"group":"dihedral group of order 12","room_assignment":["blue","red","pink","purple","grey","yellow","olive","cyan","ivory","green","brown","orange"],"door_color_assignment":["black","white"],"door_generator_assignment":[0,1],"goal":3,"start":0,"action_noise":0.15,"location_history":"[0,1,2,8,2,8,7,6,11,10,9,3]","action_history":"[0,0,1,1,1,0,0,0,0,0,0]","door_history":"[0,0,1,1,1,0,0,0,0,0,0]","location_rts":"[1955,569,522,758,464,1055,415,471,392,407,425]","trial_type":"two-door-navigation","trial_index":30,"time_elapsed":1077411,"internal_node_id":"0.0-2.0-28.0"},{"group":"dihedral group of order 12","room_assignment":["blue","red","pink","purple","grey","yellow","olive","cyan","ivory","green","brown","orange"],"door_color_assignment":["black","white"],"door_generator_assignment":[0,1],"goal":4,"start":3,"action_noise":0.15,"location_history":"[3,4]","action_history":"[0]","door_history":"[0]","location_rts":"[2496]","trial_type":"two-door-navigation","trial_index":31,"time_elapsed":1084529,"internal_node_id":"0.0-2.0-29.0"},{"group":"dihedral group of order 12","room_assignment":["blue","red","pink","purple","grey","yellow","olive","cyan","ivory","green","brown","orange"],"door_color_assignment":["black","white"],"door_generator_assignment":[0,1],"goal":10,"start":4,"action_noise":0.15,"location_history":"[4,5,0,1,2,3,4,5,11,10]","action_history":"[0,0,0,0,0,0,0,1,1]","door_history":"[0,0,0,0,0,0,0,1,1]","location_rts":"[1209,480,520,592,460,426,730,590,724]","trial_type":"two-door-navigation","trial_index":32,"time_elapsed":1102997,"internal_node_id":"0.0-2.0-30.0"},{"group":"dihedral group of order 12","room_assignment":["blue","red","pink","purple","grey","yellow","olive","cyan","ivory","green","brown","orange"],"door_color_assignment":["black","white"],"door_generator_assignment":[0,1],"goal":11,"start":10,"action_noise":0.15,"location_history":"[10,9,8,7,6,11]","action_history":"[0,0,0,0,0]","door_history":"[0,0,0,0,0]","location_rts":"[908,407,626,598,714]","trial_type":"two-door-navigation","trial_index":33,"time_elapsed":1114833,"internal_node_id":"0.0-2.0-31.0"},{"group":"dihedral group of order 12","room_assignment":["blue","red","pink","purple","grey","yellow","olive","cyan","ivory","green","brown","orange"],"door_color_assignment":["black","white"],"door_generator_assignment":[0,1],"goal":1,"start":11,"action_noise":0.15,"location_history":"[11,10,4,5,0,1]","action_history":"[0,0,0,0,0]","door_history":"[0,0,0,0,0]","location_rts":"[1320,1026,1832,1495,1726]","trial_type":"two-door-navigation","trial_index":34,"time_elapsed":1131037,"internal_node_id":"0.0-2.0-32.0"},{"group":"dihedral group of order 12","room_assignment":["blue","red","pink","purple","grey","yellow","olive","cyan","ivory","green","brown","orange"],"door_color_assignment":["black","white"],"door_generator_assignment":[0,1],"goal":5,"start":1,"action_noise":0.15,"location_history":"[1,2,8,7,6,11,10,9,8,7,6,0,1,2,8,2,3,4,10,9,8,7,6,11,10,9,8,7,1,7,1,7,6,11,10,9,3,4,5]","action_history":"[0,0,0,0,0,0,0,0,0,0,0,0,1,1,1,0,0,0,0,0,0,0,0,0,0,0,0,1,1,0,0,0,0,0,0,0,0,0]","door_history":"[0,0,0,0,0,0,0,0,0,0,0,0,1,1,1,0,0,0,0,0,0,0,0,0,0,0,0,1,1,0,0,0,0,0,0,0,0,0]","location_rts":"[2021,5605,4373,3538,2410,2414,2386,2878,2882,2915,2300,3232,3466,2331,2654,2369,2472,4168,3859,1892,2722,2116,997,1146,723,814,1040,1203,1049,1524,611,655,505,513,525,649,498,546]","trial_type":"two-door-navigation","trial_index":35,"time_elapsed":1252213,"internal_node_id":"0.0-2.0-33.0"},{"group":"dihedral group of order 12","room_assignment":["blue","red","pink","purple","grey","yellow","olive","cyan","ivory","green","brown","orange"],"door_color_assignment":["black","white"],"door_generator_assignment":[0,1],"goal":9,"start":5,"action_noise":0.15,"location_history":"[5,0,1,2,3,9]","action_history":"[0,0,0,0,1]","door_history":"[0,0,0,0,1]","location_rts":"[8822,1698,570,448,697]","trial_type":"two-door-navigation","trial_index":36,"time_elapsed":1273156,"internal_node_id":"0.0-2.0-34.0"},{"view_history":"[{\"page_index\":0,\"viewing_time\":3902}]","rt":3903,"trial_type":"instructions","trial_index":37,"time_elapsed":1278063,"internal_node_id":"0.0-3.0"},{"view_history":"[{\"page_index\":0,\"viewing_time\":3011},{\"page_index\":1,\"viewing_time\":31339}]","rt":34351,"trial_type":"instructions","trial_index":38,"time_elapsed":1313415,"internal_node_id":"0.0-4.0"},{"group":"dihedral group of order 12","fractal_assignment":["../images/red_prp.png","../images/grn_red.png","../images/org_blu.png","../images/cyn_red.png","../images/pnk_blu.png","../images/grn_blu.png","../images/gry_blk.png","../images/ylw_slt.png","../images/wht_red.png","../images/grn_prp.png","../images/blu_wht.png","../images/ylw_pnk.png"],"mutagen_generator_assignment":[0,1],"goal":4,"start":0,"action_noise":0.15,"location_history":"[0,1,7,6,0,6,0,1,7,6,0,1,7,1,2,8,7,6,11,5,11,5,11,10,9,3,4]","action_history":"[0,1,0,1,1,1,0,0,0,0,0,1,1,0,1,1,0,0,1,1,0,1,0,0,1,0]","mutagen_history":"[0,1,0,1,1,1,0,0,0,0,0,1,1,0,1,1,0,0,1,1,0,1,0,0,1,0]","location_rts":"[10934,3181,3637,2367,1382,2230,842,1139,1169,534,632,3017,833,435,454,486,463,547,422,1024,558,2331,588,764,704,3069]","trial_type":"fractal-mutation","trial_index":39,"time_elapsed":1394398,"internal_node_id":"0.0-5.0-0.0"},{"group":"dihedral group of order 12","fractal_assignment":["../images/red_prp.png","../images/grn_red.png","../images/org_blu.png","../images/cyn_red.png","../images/pnk_blu.png","../images/grn_blu.png","../images/gry_blk.png","../images/ylw_slt.png","../images/wht_red.png","../images/grn_prp.png","../images/blu_wht.png","../images/ylw_pnk.png"],"mutagen_generator_assignment":[0,1],"goal":9,"start":4,"action_noise":0.15,"location_history":"[4,5,11,5,11,10,4,10,4,10,9]","action_history":"[0,1,1,0,0,1,1,0,1,0]","mutagen_history":"[0,1,1,0,0,1,1,0,1,0]","location_rts":"[22588,1013,622,433,832,461,438,1018,845,543]","trial_type":"fractal-mutation","trial_index":40,"time_elapsed":1439550,"internal_node_id":"0.0-5.0-1.0"},{"group":"dihedral group of order 12","fractal_assignment":["../images/red_prp.png","../images/grn_red.png","../images/org_blu.png","../images/cyn_red.png","../images/pnk_blu.png","../images/grn_blu.png","../images/gry_blk.png","../images/ylw_slt.png","../images/wht_red.png","../images/grn_prp.png","../images/blu_wht.png","../images/ylw_pnk.png"],"mutagen_generator_assignment":[0,1],"goal":10,"start":9,"action_noise":0.15,"location_history":"[9,3,4,10]","action_history":"[0,0,1]","mutagen_history":"[0,0,1]","location_rts":"[1924,547,443]","trial_type":"fractal-mutation","trial_index":41,"time_elapsed":1449589,"internal_node_id":"0.0-5.0-2.0"},{"group":"dihedral group of order 12","fractal_assignment":["../images/red_prp.png","../images/grn_red.png","../images/org_blu.png","../images/cyn_red.png","../images/pnk_blu.png","../images/grn_blu.png","../images/gry_blk.png","../images/ylw_slt.png","../images/wht_red.png","../images/grn_prp.png","../images/blu_wht.png","../images/ylw_pnk.png"],"mutagen_generator_assignment":[0,1],"goal":2,"start":10,"action_noise":0.15,"location_history":"[10,4,10,9,8,7,6,11,5,0,1,2]","action_history":"[0,1,1,0,0,0,1,1,0,0,0]","mutagen_history":"[0,1,1,0,0,0,1,1,0,0,0]","location_rts":"[1891,1173,707,503,824,528,643,554,692,776,652]","trial_type":"fractal-mutation","trial_index":42,"time_elapsed":1475820,"internal_node_id":"0.0-5.0-3.0"},{"group":"dihedral group of order 12","fractal_assignment":["../images/red_prp.png","../images/grn_red.png","../images/org_blu.png","../images/cyn_red.png","../images/pnk_blu.png","../images/grn_blu.png","../images/gry_blk.png","../images/ylw_slt.png","../images/wht_red.png","../images/grn_prp.png","../images/blu_wht.png","../images/ylw_pnk.png"],"mutagen_generator_assignment":[0,1],"goal":5,"start":2,"action_noise":0.15,"location_history":"[2,8,2,3,9,3,4,10,9,8,7,1,7,6,11,10,9,3,4,5]","action_history":"[1,1,0,0,0,0,1,1,0,0,1,1,0,0,0,1,1,0,0]","mutagen_history":"[1,1,0,0,0,0,1,1,0,0,1,1,0,0,0,1,1,0,0]","location_rts":"[1299,761,462,701,1074,2063,505,472,2191,1354,2253,516,5718,3125,613,2442,951,353,768]","trial_type":"fractal-mutation","trial_index":43,"time_elapsed":1531490,"internal_node_id":"0.0-5.0-4.0"},{"group":"dihedral group of order 12","fractal_assignment":["../images/red_prp.png","../images/grn_red.png","../images/org_blu.png","../images/cyn_red.png","../images/pnk_blu.png","../images/grn_blu.png","../images/gry_blk.png","../images/ylw_slt.png","../images/wht_red.png","../images/grn_prp.png","../images/blu_wht.png","../images/ylw_pnk.png"],"mutagen_generator_assignment":[0,1],"goal":11,"start":5,"action_noise":0.15,"location_history":"[5,0,1,7,1,2,3,9,3,4,10,9,8,2,8,2,3,4,10,9,3,4,10,4,10,4,5,0,1,2,3,9,8,7,1,2,3,4,5,11]","action_history":"[0,0,1,1,0,0,1,1,1,1,0,0,1,1,1,0,0,1,0,1,0,1,1,1,1,0,0,0,0,0,1,0,0,1,0,0,0,1,1]","mutagen_history":"[0,0,1,1,0,0,1,1,1,1,0,0,1,1,1,0,0,1,0,1,0,1,1,1,1,0,0,0,0,0,1,0,0,1,0,0,0,1,1]","location_rts":"[3270,852,2285,759,695,783,761,691,450,1244,503,513,608,1137,608,350,638,648,527,470,608,469,432,438,477,396,650,500,562,764,604,601,583,477,619,580,536,378,406]","trial_type":"fractal-mutation","trial_index":44,"time_elapsed":1612728,"internal_node_id":"0.0-5.0-5.0"},{"group":"dihedral group of order 12","fractal_assignment":["../images/red_prp.png","../images/grn_red.png","../images/org_blu.png","../images/cyn_red.png","../images/pnk_blu.png","../images/grn_blu.png","../images/gry_blk.png","../images/ylw_slt.png","../images/wht_red.png","../images/grn_prp.png","../images/blu_wht.png","../images/ylw_pnk.png"],"mutagen_generator_assignment":[0,1],"goal":6,"start":11,"action_noise":0.15,"location_history":"[11,10,9,3,4,10,4,5,11,5,11,10,9,8,7,6]","action_history":"[0,0,0,1,1,1,1,1,1,1,0,0,0,0,0]","mutagen_history":"[0,0,0,1,1,1,1,1,1,1,0,0,0,0,0]","location_rts":"[1706,626,659,1105,692,433,434,384,358,576,322,896,412,372,316]","trial_type":"fractal-mutation","trial_index":45,"time_elapsed":1644771,"internal_node_id":"0.0-5.0-6.0"},{"group":"dihedral group of order 12","fractal_assignment":["../images/red_prp.png","../images/grn_red.png","../images/org_blu.png","../images/cyn_red.png","../images/pnk_blu.png","../images/grn_blu.png","../images/gry_blk.png","../images/ylw_slt.png","../images/wht_red.png","../images/grn_prp.png","../images/blu_wht.png","../images/ylw_pnk.png"],"mutagen_generator_assignment":[0,1],"goal":3,"start":6,"action_noise":0.15,"location_history":"[6,11,5,11,5,11,10,9,8,7,6,0,6,0,6,0,1,2,8,7,6,0,6,11,10,9,8,2,8,2,8,7,6,0,6,0,1,7,1,2,8,2,3]","action_history":"[0,1,1,1,1,0,0,0,0,0,0,1,1,1,0,0,0,0,0,0,1,1,0,0,0,0,0,1,1,0,0,0,1,1,1,0,0,1,0,0,1,0]","mutagen_history":"[0,1,1,1,1,0,0,0,0,0,0,1,1,1,0,0,0,0,0,0,1,1,0,0,0,0,0,1,1,0,0,0,1,1,1,0,0,1,0,0,1,0]","location_rts":"[3320,503,503,589,451,2846,3067,1070,3135,9213,4256,651,1073,382,676,395,414,406,365,885,531,505,537,360,2060,991,413,312,372,276,395,315,336,304,416,362,408,378,404,401,435,665]","trial_type":"fractal-mutation","trial_index":46,"time_elapsed":1746801,"internal_node_id":"0.0-5.0-7.0"},{"group":"dihedral group of order 12","fractal_assignment":["../images/red_prp.png","../images/grn_red.png","../images/org_blu.png","../images/cyn_red.png","../images/pnk_blu.png","../images/grn_blu.png","../images/gry_blk.png","../images/ylw_slt.png","../images/wht_red.png","../images/grn_prp.png","../images/blu_wht.png","../images/ylw_pnk.png"],"mutagen_generator_assignment":[0,1],"goal":8,"start":3,"action_noise":0.15,"location_history":"[3,4,10,4,5,0,1,7,1,2,3,9,8]","action_history":"[0,1,1,0,0,0,1,1,0,0,1,0]","mutagen_history":"[0,1,1,0,0,0,1,1,0,0,1,0]","location_rts":"[3304,811,517,300,356,252,306,355,314,959,480,388]","trial_type":"fractal-mutation","trial_index":47,"time_elapsed":1773895,"internal_node_id":"0.0-5.0-8.0"},{"group":"dihedral group of order 12","fractal_assignment":["../images/red_prp.png","../images/grn_red.png","../images/org_blu.png","../images/cyn_red.png","../images/pnk_blu.png","../images/grn_blu.png","../images/gry_blk.png","../images/ylw_slt.png","../images/wht_red.png","../images/grn_prp.png","../images/blu_wht.png","../images/ylw_pnk.png"],"mutagen_generator_assignment":[0,1],"goal":1,"start":8,"action_noise":0.15,"location_history":"[8,7,1]","action_history":"[0,1]","mutagen_history":"[0,1]","location_rts":"[1071,1343]","trial_type":"fractal-mutation","trial_index":48,"time_elapsed":1782186,"internal_node_id":"0.0-5.0-9.0"},{"group":"dihedral group of order 12","fractal_assignment":["../images/red_prp.png","../images/grn_red.png","../images/org_blu.png","../images/cyn_red.png","../images/pnk_blu.png","../images/grn_blu.png","../images/gry_blk.png","../images/ylw_slt.png","../images/wht_red.png","../images/grn_prp.png","../images/blu_wht.png","../images/ylw_pnk.png"],"mutagen_generator_assignment":[0,1],"goal":7,"start":1,"action_noise":0.15,"location_history":"[1,7]","action_history":"[0]","mutagen_history":"[0]","location_rts":"[1768]","trial_type":"fractal-mutation","trial_index":49,"time_elapsed":1788497,"internal_node_id":"0.0-5.0-10.0"},{"group":"dihedral group of order 12","fractal_assignment":["../images/red_prp.png","../images/grn_red.png","../images/org_blu.png","../images/cyn_red.png","../images/pnk_blu.png","../images/grn_blu.png","../images/gry_blk.png","../images/ylw_slt.png","../images/wht_red.png","../images/grn_prp.png","../images/blu_wht.png","../images/ylw_pnk.png"],"mutagen_generator_assignment":[0,1],"goal":5,"start":7,"action_noise":0.15,"location_history":"[7,6,11,5]","action_history":"[1,1,1]","mutagen_history":"[1,1,1]","location_rts":"[1174,580,377]","trial_type":"fractal-mutation","trial_index":50,"time_elapsed":1798096,"internal_node_id":"0.0-5.0-11.0"},{"group":"dihedral group of order 12","fractal_assignment":["../images/red_prp.png","../images/grn_red.png","../images/org_blu.png","../images/cyn_red.png","../images/pnk_blu.png","../images/grn_blu.png","../images/gry_blk.png","../images/ylw_slt.png","../images/wht_red.png","../images/grn_prp.png","../images/blu_wht.png","../images/ylw_pnk.png"],"mutagen_generator_assignment":[0,1],"goal":8,"start":5,"action_noise":0.15,"location_history":"[5,0,6,11,10,9,3,9,8]","action_history":"[0,1,1,0,0,1,0,0]","mutagen_history":"[0,1,1,0,0,1,0,0]","location_rts":"[4664,537,485,300,400,644,422,394]","trial_type":"fractal-mutation","trial_index":51,"time_elapsed":1819823,"internal_node_id":"0.0-5.0-12.0"},{"group":"dihedral group of order 12","fractal_assignment":["../images/red_prp.png","../images/grn_red.png","../images/org_blu.png","../images/cyn_red.png","../images/pnk_blu.png","../images/grn_blu.png","../images/gry_blk.png","../images/ylw_slt.png","../images/wht_red.png","../images/grn_prp.png","../images/blu_wht.png","../images/ylw_pnk.png"],"mutagen_generator_assignment":[0,1],"goal":11,"start":8,"action_noise":0.15,"location_history":"[8,2,8,2,3,9,8,7,1,2,8,2,3,9,3,9,8,7,6,0,1,7,6,11]","action_history":"[1,1,1,0,0,0,0,1,0,1,1,0,1,1,1,0,0,0,0,0,1,0,0]","mutagen_history":"[1,1,1,0,0,0,0,1,0,1,1,0,1,1,1,0,0,0,0,0,1,0,0]","location_rts":"[1688,498,868,384,390,454,364,338,413,513,430,550,524,372,413,663,781,562,547,823,1409,547,390]","trial_type":"fractal-mutation","trial_index":52,"time_elapsed":1866348,"internal_node_id":"0.0-5.0-13.0"},{"group":"dihedral group of order 12","fractal_assignment":["../images/red_prp.png","../images/grn_red.png","../images/org_blu.png","../images/cyn_red.png","../images/pnk_blu.png","../images/grn_blu.png","../images/gry_blk.png","../images/ylw_slt.png","../images/wht_red.png","../images/grn_prp.png","../images/blu_wht.png","../images/ylw_pnk.png"],"mutagen_generator_assignment":[0,1],"goal":6,"start":11,"action_noise":0.15,"location_history":"[11,5,11,10,9,8,7,1,2,8,7,6]","action_history":"[1,1,1,0,0,0,1,1,1,0,0]","mutagen_history":"[1,1,1,0,0,0,1,1,1,0,0]","location_rts":"[1092,423,578,409,525,395,354,390,456,441,365]","trial_type":"fractal-mutation","trial_index":53,"time_elapsed":1889787,"internal_node_id":"0.0-5.0-14.0"},{"group":"dihedral group of order 12","fractal_assignment":["../images/red_prp.png","../images/grn_red.png","../images/org_blu.png","../images/cyn_red.png","../images/pnk_blu.png","../images/grn_blu.png","../images/gry_blk.png","../images/ylw_slt.png","../images/wht_red.png","../images/grn_prp.png","../images/blu_wht.png","../images/ylw_pnk.png"],"mutagen_generator_assignment":[0,1],"goal":7,"start":6,"action_noise":0.15,"location_history":"[6,0,6,0,1,7]","action_history":"[1,1,1,0,0]","mutagen_history":"[1,1,1,0,0]","location_rts":"[886,403,1992,355,389]","trial_type":"fractal-mutation","trial_index":54,"time_elapsed":1903696,"internal_node_id":"0.0-5.0-15.0"},{"group":"dihedral group of order 12","fractal_assignment":["../images/red_prp.png","../images/grn_red.png","../images/org_blu.png","../images/cyn_red.png","../images/pnk_blu.png","../images/grn_blu.png","../images/gry_blk.png","../images/ylw_slt.png","../images/wht_red.png","../images/grn_prp.png","../images/blu_wht.png","../images/ylw_pnk.png"],"mutagen_generator_assignment":[0,1],"goal":10,"start":7,"action_noise":0.15,"location_history":"[7,1,7,6,11,10]","action_history":"[1,1,0,0,0]","mutagen_history":"[1,1,0,0,0]","location_rts":"[936,472,426,402,372]","trial_type":"fractal-mutation","trial_index":55,"time_elapsed":1916159,"internal_node_id":"0.0-5.0-16.0"},{"group":"dihedral group of order 12","fractal_assignment":["../images/red_prp.png","../images/grn_red.png","../images/org_blu.png","../images/cyn_red.png","../images/pnk_blu.png","../images/grn_blu.png","../images/gry_blk.png","../images/ylw_slt.png","../images/wht_red.png","../images/grn_prp.png","../images/blu_wht.png","../images/ylw_pnk.png"],"mutagen_generator_assignment":[0,1],"goal":0,"start":10,"action_noise":0.15,"location_history":"[10,4,10,4,10,9,8,7,1,7,6,11,10,4,5,0]","action_history":"[1,1,1,1,0,0,0,1,1,0,0,0,1,1,1]","mutagen_history":"[1,1,1,1,0,0,0,1,1,0,0,0,1,1,1]","location_rts":"[2972,547,381,705,395,329,305,342,1639,355,423,443,526,450,383]","trial_type":"fractal-mutation","trial_index":56,"time_elapsed":1949460,"internal_node_id":"0.0-5.0-17.0"},{"group":"dihedral group of order 12","fractal_assignment":["../images/red_prp.png","../images/grn_red.png","../images/org_blu.png","../images/cyn_red.png","../images/pnk_blu.png","../images/grn_blu.png","../images/gry_blk.png","../images/ylw_slt.png","../images/wht_red.png","../images/grn_prp.png","../images/blu_wht.png","../images/ylw_pnk.png"],"mutagen_generator_assignment":[0,1],"goal":9,"start":0,"action_noise":0.15,"location_history":"[0,1,2,3,4,10,9]","action_history":"[1,0,0,0,1,0]","mutagen_history":"[1,0,0,0,1,0]","location_rts":"[37183,2759,1143,3110,1849,2000]","trial_type":"fractal-mutation","trial_index":57,"time_elapsed":2010633,"internal_node_id":"0.0-5.0-18.0"},{"group":"dihedral group of order 12","fractal_assignment":["../images/red_prp.png","../images/grn_red.png","../images/org_blu.png","../images/cyn_red.png","../images/pnk_blu.png","../images/grn_blu.png","../images/gry_blk.png","../images/ylw_slt.png","../images/wht_red.png","../images/grn_prp.png","../images/blu_wht.png","../images/ylw_pnk.png"],"mutagen_generator_assignment":[0,1],"goal":4,"start":9,"action_noise":0.15,"location_history":"[9,8,7,6,0,6,0,6,11,10,4]","action_history":"[0,0,1,1,1,1,0,0,0,1]","mutagen_history":"[0,0,1,1,1,1,0,0,0,1]","location_rts":"[3136,441,333,325,289,25119,354,373,779,520]","trial_type":"fractal-mutation","trial_index":58,"time_elapsed":2058739,"internal_node_id":"0.0-5.0-19.0"},{"group":"dihedral group of order 12","fractal_assignment":["../images/red_prp.png","../images/grn_red.png","../images/org_blu.png","../images/cyn_red.png","../images/pnk_blu.png","../images/grn_blu.png","../images/gry_blk.png","../images/ylw_slt.png","../images/wht_red.png","../images/grn_prp.png","../images/blu_wht.png","../images/ylw_pnk.png"],"mutagen_generator_assignment":[0,1],"goal":2,"start":4,"action_noise":0.15,"location_history":"[4,10,9,8,7,6,0,1,7,1,2]","action_history":"[1,1,0,0,0,1,0,1,1,0]","mutagen_history":"[1,1,0,0,0,1,0,1,1,0]","location_rts":"[3131,364,294,312,262,341,8405,1041,551,271]","trial_type":"fractal-mutation","trial_index":59,"time_elapsed":2089857,"internal_node_id":"0.0-5.0-20.0"},{"group":"dihedral group of order 12","fractal_assignment":["../images/red_prp.png","../images/grn_red.png","../images/org_blu.png","../images/cyn_red.png","../images/pnk_blu.png","../images/grn_blu.png","../images/gry_blk.png","../images/ylw_slt.png","../images/wht_red.png","../images/grn_prp.png","../images/blu_wht.png","../images/ylw_pnk.png"],"mutagen_generator_assignment":[0,1],"goal":1,"start":2,"action_noise":0.15,"location_history":"[2,8,7,6,11,5,0,6,0,1]","action_history":"[1,0,0,0,1,1,1,0,0]","mutagen_history":"[1,0,0,0,1,1,1,0,0]","location_rts":"[1421,380,370,426,1490,645,567,293,410]","trial_type":"fractal-mutation","trial_index":60,"time_elapsed":2111105,"internal_node_id":"0.0-5.0-21.0"},{"group":"dihedral group of order 12","fractal_assignment":["../images/red_prp.png","../images/grn_red.png","../images/org_blu.png","../images/cyn_red.png","../images/pnk_blu.png","../images/grn_blu.png","../images/gry_blk.png","../images/ylw_slt.png","../images/wht_red.png","../images/grn_prp.png","../images/blu_wht.png","../images/ylw_pnk.png"],"mutagen_generator_assignment":[0,1],"goal":3,"start":1,"action_noise":0.15,"location_history":"[1,7,6,11,10,4,5,0,1,2,3]","action_history":"[1,0,0,0,1,0,0,0,1,0]","mutagen_history":"[1,0,0,0,1,0,0,0,1,0]","location_rts":"[16119,1021,445,841,444,2357,1224,582,2223,2508]","trial_type":"fractal-mutation","trial_index":61,"time_elapsed":2155020,"internal_node_id":"0.0-5.0-22.0"},{"group":"dihedral group of order 12","fractal_assignment":["../images/red_prp.png","../images/grn_red.png","../images/org_blu.png","../images/cyn_red.png","../images/pnk_blu.png","../images/grn_blu.png","../images/gry_blk.png","../images/ylw_slt.png","../images/wht_red.png","../images/grn_prp.png","../images/blu_wht.png","../images/ylw_pnk.png"],"mutagen_generator_assignment":[0,1],"goal":7,"start":3,"action_noise":0.15,"location_history":"[3,4,10,4,10,4,10,9,8,2,3,9,3,4,5,0,6,11,5,11,5,11,10,4,10,4,10,4,5,0,1,7]","action_history":"[0,1,1,1,1,1,0,0,0,0,1,1,0,0,1,1,0,0,1,1,0,0,1,1,1,0,1,0,0,0,1]","mutagen_history":"[0,1,1,1,1,1,0,0,0,0,1,1,0,0,1,1,0,0,1,1,0,0,1,1,1,0,1,0,0,0,1]","location_rts":"[384,801,539,333,333,289,310,393,316,317,318,451,316,697,437,387,426,626,532,456,532,549,392,598,517,374,447,416,459,550,1029]","trial_type":"fractal-mutation","trial_index":62,"time_elapsed":2213652,"internal_node_id":"0.0-5.0-23.0"},{"group":"dihedral group of order 12","fractal_assignment":["../images/red_prp.png","../images/grn_red.png","../images/org_blu.png","../images/cyn_red.png","../images/pnk_blu.png","../images/grn_blu.png","../images/gry_blk.png","../images/ylw_slt.png","../images/wht_red.png","../images/grn_prp.png","../images/blu_wht.png","../images/ylw_pnk.png"],"mutagen_generator_assignment":[0,1],"goal":6,"start":7,"action_noise":0.15,"location_history":"[7,1,7,6]","action_history":"[0,1,0]","mutagen_history":"[0,1,0]","location_rts":"[7702,4946,481]","trial_type":"fractal-mutation","trial_index":63,"time_elapsed":2234147,"internal_node_id":"0.0-5.0-24.0"},{"group":"dihedral group of order 12","fractal_assignment":["../images/red_prp.png","../images/grn_red.png","../images/org_blu.png","../images/cyn_red.png","../images/pnk_blu.png","../images/grn_blu.png","../images/gry_blk.png","../images/ylw_slt.png","../images/wht_red.png","../images/grn_prp.png","../images/blu_wht.png","../images/ylw_pnk.png"],"mutagen_generator_assignment":[0,1],"goal":2,"start":6,"action_noise":0.15,"location_history":"[6,11,10,4,5,11,10,9,3,4,10,9,8,2]","action_history":"[0,0,1,0,1,1,0,0,0,1,0,0,1]","mutagen_history":"[0,0,1,0,1,1,0,0,0,1,0,0,1]","location_rts":"[2207,599,308,586,363,1289,330,309,432,529,321,421,343]","trial_type":"fractal-mutation","trial_index":64,"time_elapsed":2261901,"internal_node_id":"0.0-5.0-25.0"},{"group":"dihedral group of order 12","fractal_assignment":["../images/red_prp.png","../images/grn_red.png","../images/org_blu.png","../images/cyn_red.png","../images/pnk_blu.png","../images/grn_blu.png","../images/gry_blk.png","../images/ylw_slt.png","../images/wht_red.png","../images/grn_prp.png","../images/blu_wht.png","../images/ylw_pnk.png"],"mutagen_generator_assignment":[0,1],"goal":8,"start":2,"action_noise":0.15,"location_history":"[2,8]","action_history":"[1]","mutagen_history":"[1]","location_rts":"[2387]","trial_type":"fractal-mutation","trial_index":65,"time_elapsed":2269187,"internal_node_id":"0.0-5.0-26.0"},{"group":"dihedral group of order 12","fractal_assignment":["../images/red_prp.png","../images/grn_red.png","../images/org_blu.png","../images/cyn_red.png","../images/pnk_blu.png","../images/grn_blu.png","../images/gry_blk.png","../images/ylw_slt.png","../images/wht_red.png","../images/grn_prp.png","../images/blu_wht.png","../images/ylw_pnk.png"],"mutagen_generator_assignment":[0,1],"goal":0,"start":8,"action_noise":0.15,"location_history":"[8,7,6,11,10,9,3,4,5,11,5,11,5,11,5,0]","action_history":"[0,1,1,1,1,1,0,0,1,1,0,0,1,1,0]","mutagen_history":"[0,1,1,1,1,1,0,0,1,1,0,0,1,1,0]","location_rts":"[943,493,347,333,421,377,809,413,398,799,380,1408,437,568,378]","trial_type":"fractal-mutation","trial_index":66,"time_elapsed":2300650,"internal_node_id":"0.0-5.0-27.0"},{"group":"dihedral group of order 12","fractal_assignment":["../images/red_prp.png","../images/grn_red.png","../images/org_blu.png","../images/cyn_red.png","../images/pnk_blu.png","../images/grn_blu.png","../images/gry_blk.png","../images/ylw_slt.png","../images/wht_red.png","../images/grn_prp.png","../images/blu_wht.png","../images/ylw_pnk.png"],"mutagen_generator_assignment":[0,1],"goal":3,"start":0,"action_noise":0.15,"location_history":"[0,6,11,10,9,3]","action_history":"[1,0,0,0,1]","mutagen_history":"[1,0,0,0,1]","location_rts":"[29615,343,726,338,426]","trial_type":"fractal-mutation","trial_index":67,"time_elapsed":2342349,"internal_node_id":"0.0-5.0-28.0"},{"group":"dihedral group of order 12","fractal_assignment":["../images/red_prp.png","../images/grn_red.png","../images/org_blu.png","../images/cyn_red.png","../images/pnk_blu.png","../images/grn_blu.png","../images/gry_blk.png","../images/ylw_slt.png","../images/wht_red.png","../images/grn_prp.png","../images/blu_wht.png","../images/ylw_pnk.png"],"mutagen_generator_assignment":[0,1],"goal":4,"start":3,"action_noise":0.15,"location_history":"[3,4]","action_history":"[0]","mutagen_history":"[0]","location_rts":"[987]","trial_type":"fractal-mutation","trial_index":68,"time_elapsed":2347894,"internal_node_id":"0.0-5.0-29.0"},{"group":"dihedral group of order 12","fractal_assignment":["../images/red_prp.png","../images/grn_red.png","../images/org_blu.png","../images/cyn_red.png","../images/pnk_blu.png","../images/grn_blu.png","../images/gry_blk.png","../images/ylw_slt.png","../images/wht_red.png","../images/grn_prp.png","../images/blu_wht.png","../images/ylw_pnk.png"],"mutagen_generator_assignment":[0,1],"goal":10,"start":4,"action_noise":0.15,"location_history":"[4,5,11,10]","action_history":"[0,0,0]","mutagen_history":"[0,0,0]","location_rts":"[1512,636,380]","trial_type":"fractal-mutation","trial_index":69,"time_elapsed":2357102,"internal_node_id":"0.0-5.0-30.0"},{"group":"dihedral group of order 12","fractal_assignment":["../images/red_prp.png","../images/grn_red.png","../images/org_blu.png","../images/cyn_red.png","../images/pnk_blu.png","../images/grn_blu.png","../images/gry_blk.png","../images/ylw_slt.png","../images/wht_red.png","../images/grn_prp.png","../images/blu_wht.png","../images/ylw_pnk.png"],"mutagen_generator_assignment":[0,1],"goal":11,"start":10,"action_noise":0.15,"location_history":"[10,4,10,4,5,11]","action_history":"[1,1,1,0,1]","mutagen_history":"[1,1,1,0,1]","location_rts":"[1940,420,372,447,631]","trial_type":"fractal-mutation","trial_index":70,"time_elapsed":2371077,"internal_node_id":"0.0-5.0-31.0"},{"group":"dihedral group of order 12","fractal_assignment":["../images/red_prp.png","../images/grn_red.png","../images/org_blu.png","../images/cyn_red.png","../images/pnk_blu.png","../images/grn_blu.png","../images/gry_blk.png","../images/ylw_slt.png","../images/wht_red.png","../images/grn_prp.png","../images/blu_wht.png","../images/ylw_pnk.png"],"mutagen_generator_assignment":[0,1],"goal":1,"start":11,"action_noise":0.15,"location_history":"[11,5,0,1]","action_history":"[1,0,0]","mutagen_history":"[1,0,0]","location_rts":"[2031,427,580]","trial_type":"fractal-mutation","trial_index":71,"time_elapsed":2381368,"internal_node_id":"0.0-5.0-32.0"},{"group":"dihedral group of order 12","fractal_assignment":["../images/red_prp.png","../images/grn_red.png","../images/org_blu.png","../images/cyn_red.png","../images/pnk_blu.png","../images/grn_blu.png","../images/gry_blk.png","../images/ylw_slt.png","../images/wht_red.png","../images/grn_prp.png","../images/blu_wht.png","../images/ylw_pnk.png"],"mutagen_generator_assignment":[0,1],"goal":5,"start":1,"action_noise":0.15,"location_history":"[1,7,1,7,6,11,5]","action_history":"[1,1,1,0,0,1]","mutagen_history":"[1,1,1,0,0,1]","location_rts":"[1501,449,387,832,880,712]","trial_type":"fractal-mutation","trial_index":72,"time_elapsed":2397794,"internal_node_id":"0.0-5.0-33.0"},{"group":"dihedral group of order 12","fractal_assignment":["../images/red_prp.png","../images/grn_red.png","../images/org_blu.png","../images/cyn_red.png","../images/pnk_blu.png","../images/grn_blu.png","../images/gry_blk.png","../images/ylw_slt.png","../images/wht_red.png","../images/grn_prp.png","../images/blu_wht.png","../images/ylw_pnk.png"],"mutagen_generator_assignment":[0,1],"goal":9,"start":5,"action_noise":0.15,"location_history":"[5,0,1,2,8,7,1,7,6,0,1,2,8,2,8,7,1,2,3,9]","action_history":"[0,0,0,1,0,1,1,0,0,0,0,1,0,0,1,1,0,1,1]","mutagen_history":"[0,0,0,1,0,1,1,0,0,0,0,1,0,0,1,1,0,1,1]","location_rts":"[2282,505,459,415,483,406,577,432,371,374,864,888,492,746,456,441,1416,613,779]","trial_type":"fractal-mutation","trial_index":73,"time_elapsed":2438177,"internal_node_id":"0.0-5.0-34.0"},{"view_history":"[{\"page_index\":0,\"viewing_time\":15361}]","rt":15363,"trial_type":"instructions","trial_index":74,"time_elapsed":2454541,"internal_node_id":"0.0-6.0"},{"rt":27096,"responses":"{\"Q0\":\"This was fun. Looking forward to tomorrow. Thank you for the opportunity to participate.\"}","trial_type":"survey-text","trial_index":75,"time_elapsed":2482651,"internal_node_id":"0.0-7.0"}]