[{"view_history":"[{\"page_index\":0,\"viewing_time\":1089},{\"page_index\":1,\"viewing_time\":963},{\"page_index\":2,\"viewing_time\":1011},{\"page_index\":3,\"viewing_time\":967}]","rt":4030,"trial_type":"instructions","trial_index":0,"time_elapsed":4031,"internal_node_id":"0.0-0.0"},{"view_history":"[{\"page_index\":0,\"viewing_time\":874},{\"page_index\":1,\"viewing_time\":1040}]","rt":1915,"trial_type":"instructions","trial_index":1,"time_elapsed":6947,"internal_node_id":"0.0-1.0"},{"group":"dihedral group of order 12","room_assignment":["brown","grey","orange","olive","cyan","green","ivory","purple","yellow","red","blue","pink"],"door_color_assignment":["white","black"],"door_generator_assignment":[0,1],"goal":4,"start":0,"action_noise":0.15,"location_history":"[0,1,7,6,0,1,7,6,11,10,9,3,4]","action_history":"[0,1,0,1,0,1,0,0,0,0,0,0]","door_history":"[0,1,0,1,0,1,0,0,0,0,0,0]","location_rts":"[894,5054,930,407,58955,852,363,262,1339,846,506,166]","trial_type":"two-door-navigation","trial_index":2,"time_elapsed":93809,"internal_node_id":"0.0-2.0-0.0"},{"group":"dihedral group of order 12","room_assignment":["brown","grey","orange","olive","cyan","green","ivory","purple","yellow","red","blue","pink"],"door_color_assignment":["white","black"],"door_generator_assignment":[0,1],"goal":9,"start":4,"action_noise":0.15,"location_history":"[4,10,9]","action_history":"[1,1]","door_history":"[1,1]","location_rts":"[1591,63]","trial_type":"two-door-navigation","trial_index":3,"time_elapsed":101115,"internal_node_id":"0.0-2.0-1.0"},{"group":"dihedral group of order 12","room_assignment":["brown","grey","orange","olive","cyan","green","ivory","purple","yellow","red","blue","pink"],"door_color_assignment":["white","black"],"door_generator_assignment":[0,1],"goal":10,"start":9,"action_noise":0.15,"location_history":"[9,8,2,8,2,8,2,8,2,8,2,8,7,6,0,6,11,10]","action_history":"[0,0,1,1,1,1,1,1,1,1,1,1,1,1,1,1,0]","door_history":"[0,0,1,1,1,1,1,1,1,1,1,1,1,1,1,1,0]","location_rts":"[19559,114,731,168,134,410,20,154,126,74,61,105,95072,208,18807,285,167]","trial_type":"two-door-navigation","trial_index":4,"time_elapsed":258907,"internal_node_id":"0.0-2.0-2.0"},{"group":"dihedral group of order 12","room_assignment":["brown","grey","orange","olive","cyan","green","ivory","purple","yellow","red","blue","pink"],"door_color_assignment":["white","black"],"door_generator_assignment":[0,1],"goal":2,"start":10,"action_noise":0.15,"location_history":"[10,4,10,9,8,7,1,2]","action_history":"[1,1,0,0,0,0,0]","door_history":"[1,1,0,0,0,0,0]","location_rts":"[449,331,556,283,259,35,404]","trial_type":"two-door-navigation","trial_index":5,"time_elapsed":272140,"internal_node_id":"0.0-2.0-3.0"},{"group":"dihedral group of order 12","room_assignment":["brown","grey","orange","olive","cyan","green","ivory","purple","yellow","red","blue","pink"],"door_color_assignment":["white","black"],"door_generator_assignment":[0,1],"goal":5,"start":2,"action_noise":0.15,"location_history":"[2,8,2,8,2,8,7,1,7,1,7,1,7,1,7,6,0,6,0,1,7,1,7,1,7,6,0,6,11,10,9,8,2,3,9,3,9,3,4,10,4,5]","action_history":"[1,1,1,1,1,1,1,1,1,1,1,1,1,1,1,1,1,1,1,1,1,1,1,1,1,1,1,1,1,1,1,1,1,1,1,1,1,1,1,1,1]","door_history":"[1,1,1,1,1,1,1,1,1,1,1,1,1,1,1,1,1,1,1,1,1,1,1,1,1,1,1,1,1,1,1,1,1,1,1,1,1,1,1,1,1]","location_rts":"[250,196,201,360,7,165,103,2190,70,243,451,272,118,237,154,117,41,518,79,32,507,559,729,343,138,359,164,144,107,227,484,269,46,857,351,27,424,1153,241,788,1341]","trial_type":"two-door-navigation","trial_index":6,"time_elapsed":334622,"internal_node_id":"0.0-2.0-4.0"},{"group":"dihedral group of order 12","room_assignment":["brown","grey","orange","olive","cyan","green","ivory","purple","yellow","red","blue","pink"],"door_color_assignment":["white","black"],"door_generator_assignment":[0,1],"goal":11,"start":5,"action_noise":0.15,"location_history":"[5,11]","action_history":"[1]","door_history":"[1]","location_rts":"[1243]","trial_type":"two-door-navigation","trial_index":7,"time_elapsed":340449,"internal_node_id":"0.0-2.0-5.0"},{"group":"dihedral group of order 12","room_assignment":["brown","grey","orange","olive","cyan","green","ivory","purple","yellow","red","blue","pink"],"door_color_assignment":["white","black"],"door_generator_assignment":[0,1],"goal":6,"start":11,"action_noise":0.15,"location_history":"[11,5,11,5,11,5,0,6]","action_history":"[1,1,1,1,1,1,1]","door_history":"[1,1,1,1,1,1,1]","location_rts":"[155,1621,248,216,4756,43,1026]","trial_type":"two-door-navigation","trial_index":8,"time_elapsed":359491,"internal_node_id":"0.0-2.0-6.0"},{"group":"dihedral group of order 12","room_assignment":["brown","grey","orange","olive","cyan","green","ivory","purple","yellow","red","blue","pink"],"door_color_assignment":["white","black"],"door_generator_assignment":[0,1],"goal":3,"start":6,"action_noise":0.15,"location_history":"[6,0,6,11,5,0,1,7,6,11,5,11,10,4,5,11,5,11,5,11,5,11,5,11,5,11,5,11,5,11,5,0,6,0,6,0,6,0,6,0,6,0,6,0,6,0,6,0,6,11,10,9,8,7,6,11,10,9,8,7,6,11,10,9,8,7,6,11,10,9,8,7,6,11,10,4,5,0,1,2,3]","action_history":"[1,1,1,1,1,1,1,1,1,1,1,1,1,1,1,1,1,1,1,1,1,1,1,1,1,1,1,1,1,1,1,1,1,1,1,1,1,1,1,1,1,1,1,1,1,1,1,1,0,0,0,0,0,0,0,0,0,0,0,0,0,0,0,0,0,0,0,0,0,0,0,0,0,0,0,0,0,0,0,0]","door_history":"[1,1,1,1,1,1,1,1,1,1,1,1,1,1,1,1,1,1,1,1,1,1,1,1,1,1,1,1,1,1,1,1,1,1,1,1,1,1,1,1,1,1,1,1,1,1,1,1,0,0,0,0,0,0,0,0,0,0,0,0,0,0,0,0,0,0,0,0,0,0,0,0,0,0,0,0,0,0,0,0]","location_rts":"[27,85,227,266,560,456,169,225,73,250,414,296,113,298,350,77,508,515,46,207,260,79895,334,1495,367,34,8,541,84,357,269,252,67,179,352,251,323,53,287,162,397,469,6948,537,56,52,191,276,89,91,390,467,73,174,396,323,1869,459,252,185,292,3186,137,129,508,760,953,88,434,74,741,279,352,184,299,180,427,290,224,144]","trial_type":"two-door-navigation","trial_index":9,"time_elapsed":563489,"internal_node_id":"0.0-2.0-7.0"},{"group":"dihedral group of order 12","room_assignment":["brown","grey","orange","olive","cyan","green","ivory","purple","yellow","red","blue","pink"],"door_color_assignment":["white","black"],"door_generator_assignment":[0,1],"goal":8,"start":3,"action_noise":0.15,"location_history":"[3,9,8]","action_history":"[0,0]","door_history":"[0,0]","location_rts":"[886,478]","trial_type":"two-door-navigation","trial_index":10,"time_elapsed":570534,"internal_node_id":"0.0-2.0-8.0"},{"group":"dihedral group of order 12","room_assignment":["brown","grey","orange","olive","cyan","green","ivory","purple","yellow","red","blue","pink"],"door_color_assignment":["white","black"],"door_generator_assignment":[0,1],"goal":1,"start":8,"action_noise":0.15,"location_history":"[8,2,3,4,5,11,5,11,5,11,5,11,5,11,5,11,10,4,5,11,5,0,6,0,6,0,6,0,1]","action_history":"[0,0,0,1,1,1,1,1,1,1,1,1,1,1,1,1,1,1,1,1,1,1,1,1,1,1,1,1]","door_history":"[0,0,0,1,1,1,1,1,1,1,1,1,1,1,1,1,1,1,1,1,1,1,1,1,1,1,1,1]","location_rts":"[213,21,178,8611,307,1254,150,244,77,90,228,379,451,98,109,200,65,70,409,232,34,30,1258,2278,13,249,120,225]","trial_type":"two-door-navigation","trial_index":11,"time_elapsed":621806,"internal_node_id":"0.0-2.0-9.0"},{"group":"dihedral group of order 12","room_assignment":["brown","grey","orange","olive","cyan","green","ivory","purple","yellow","red","blue","pink"],"door_color_assignment":["white","black"],"door_generator_assignment":[0,1],"goal":7,"start":1,"action_noise":0.15,"location_history":"[1,7]","action_history":"[1]","door_history":"[1]","location_rts":"[337]","trial_type":"two-door-navigation","trial_index":12,"time_elapsed":626722,"internal_node_id":"0.0-2.0-10.0"},{"group":"dihedral group of order 12","room_assignment":["brown","grey","orange","olive","cyan","green","ivory","purple","yellow","red","blue","pink"],"door_color_assignment":["white","black"],"door_generator_assignment":[0,1],"goal":5,"start":7,"action_noise":0.15,"location_history":"[7,6,0,6,0,6,0,1,7,1,7,1,2,8,2,8,2,3,9,3,9,8,2,8,2,8,2,8,2,8,7,1,7,1,2,3,4,10,4,10,4,5]","action_history":"[1,1,1,1,1,1,1,1,1,1,1,1,1,1,1,1,1,1,1,1,1,1,1,1,1,1,1,1,1,1,1,1,1,1,0,0,1,1,1,1,1]","door_history":"[1,1,1,1,1,1,1,1,1,1,1,1,1,1,1,1,1,1,1,1,1,1,1,1,1,1,1,1,1,1,1,1,1,1,0,0,1,1,1,1,1]","location_rts":"[8435,88,415,107,258,310,177,8602,395,420,159,234,347,324,15221,27327,661850,300,167,69,84,225,42,119,118,501,257,38,216,248967,201,119,120,38862,200,231,2,111,88,282330,219]","trial_type":"two-door-navigation","trial_index":13,"time_elapsed":1972305,"internal_node_id":"0.0-2.0-11.0"},{"group":"dihedral group of order 12","room_assignment":["brown","grey","orange","olive","cyan","green","ivory","purple","yellow","red","blue","pink"],"door_color_assignment":["white","black"],"door_generator_assignment":[0,1],"goal":8,"start":5,"action_noise":0.15,"location_history":"[5,11,5,11,5,11,5,11,5,0,6,11,10,4,10,9,3,4,10,4,10,4,5,11,10,4,10,4,10,4,10,4,10,4,10,4,10,4,5,11,10,9,8]","action_history":"[1,1,1,1,1,1,1,1,1,1,0,1,1,1,0,1,1,1,1,1,1,1,1,0,0,1,1,1,1,1,1,1,1,1,1,1,1,0,1,0,0,1]","door_history":"[1,1,1,1,1,1,1,1,1,1,0,1,1,1,0,1,1,1,1,1,1,1,1,0,0,1,1,1,1,1,1,1,1,1,1,1,1,0,1,0,0,1]","location_rts":"[1362,31,185,216,81090,153,87,504891,36,5035,361,4194,307,31628,205,164,204,176950,25,21,272,6,201,561,137,75709,3854,96,31288,80,156,297136,49,81,80,189,108,5403,426,305,155,143]","trial_type":"two-door-navigation","trial_index":14,"time_elapsed":3243944,"internal_node_id":"0.0-2.0-12.0"},{"group":"dihedral group of order 12","room_assignment":["brown","grey","orange","olive","cyan","green","ivory","purple","yellow","red","blue","pink"],"door_color_assignment":["white","black"],"door_generator_assignment":[0,1],"goal":11,"start":8,"action_noise":0.15,"location_history":"[8,2,3,4,10,9,3,4,5,11]","action_history":"[1,0,0,1,0,0,0,0,0]","door_history":"[1,0,0,1,0,0,0,0,0]","location_rts":"[329,110,45,359,118,106,120,145,7]","trial_type":"two-door-navigation","trial_index":15,"time_elapsed":3258383,"internal_node_id":"0.0-2.0-13.0"},{"group":"dihedral group of order 12","room_assignment":["brown","grey","orange","olive","cyan","green","ivory","purple","yellow","red","blue","pink"],"door_color_assignment":["white","black"],"door_generator_assignment":[0,1],"goal":6,"start":11,"action_noise":0.15,"location_history":"[11,5,11,5,11,10,9,8,7,1,7,6]","action_history":"[1,1,1,1,0,1,0,0,1,1,0]","door_history":"[1,1,1,1,0,1,0,0,1,1,0]","location_rts":"[265,56,183,268,87,54,174,85,390,118,358]","trial_type":"two-door-navigation","trial_index":16,"time_elapsed":3275630,"internal_node_id":"0.0-2.0-14.0"},{"group":"dihedral group of order 12","room_assignment":["brown","grey","orange","olive","cyan","green","ivory","purple","yellow","red","blue","pink"],"door_color_assignment":["white","black"],"door_generator_assignment":[0,1],"goal":7,"start":6,"action_noise":0.15,"location_history":"[6,11,5,11,5,0,6,11,10,9,3,4,10,4,10,4,10,4,10,4,10,4,10,4,5,11,5,11,5,11,5,0,1,2,3,4,10,4,10,9,3,9,3,4,10,4,10,4,10,4,10,4,10,9,8,2,8,2,8,2,8,2,8,2,3,9,3,9,3,9,8,2,8,2,8,2,8,7]","action_history":"[0,1,1,1,0,1,0,0,0,0,0,1,1,1,1,1,1,1,1,1,1,1,1,0,1,1,1,1,1,1,1,0,0,0,0,1,1,1,0,1,1,0,0,0,1,1,1,1,1,1,1,0,0,0,1,1,1,1,1,1,1,1,1,1,1,1,1,1,1,1,1,1,1,1,1,1,1]","door_history":"[0,1,1,1,0,1,0,0,0,0,0,1,1,1,1,1,1,1,1,1,1,1,1,0,1,1,1,1,1,1,1,0,0,0,0,1,1,1,0,1,1,0,0,0,1,1,1,1,1,1,1,0,0,0,1,1,1,1,1,1,1,1,1,1,1,1,1,1,1,1,1,1,1,1,1,1,1]","location_rts":"[256,184,222,681,33,100,195,72,66,2523,2483,26,102,3463,329,94,404,88,379,138,234,148,125,21,160,153,16,41,103,165,156,164,39,77,10,924,423,30,357,77,578,3479,94,2113,8626,264,273,58,10,135,1938,2218,265,59,2855,8475,132,14,17367,82,111,175,160,154,223,193,241,30,53,26067,182,306,1266,153,107,189,6]","trial_type":"two-door-navigation","trial_index":17,"time_elapsed":3454569,"internal_node_id":"0.0-2.0-15.0"},{"group":"dihedral group of order 12","room_assignment":["brown","grey","orange","olive","cyan","green","ivory","purple","yellow","red","blue","pink"],"door_color_assignment":["white","black"],"door_generator_assignment":[0,1],"goal":10,"start":7,"action_noise":0.15,"location_history":"[7,6,0,6,0,6,0,6,0,6,0,6,0,6,0,6,0,1,7,1,7,6,0,6,0,6,0,6,11,5,0,6,11,10]","action_history":"[1,1,1,1,1,1,1,1,1,1,1,1,1,1,1,1,1,1,1,1,1,1,1,1,1,1,1,1,1,1,1,0,0]","door_history":"[1,1,1,1,1,1,1,1,1,1,1,1,1,1,1,1,1,1,1,1,1,1,1,1,1,1,1,1,1,1,1,0,0]","location_rts":"[33,118,193,97,94,231,2,255,36,337,382,138,148,295,154,93,194,170,293,634,110,148,721,253,206,141,215,993,3,145,106,99,132]","trial_type":"two-door-navigation","trial_index":18,"time_elapsed":3500540,"internal_node_id":"0.0-2.0-16.0"},{"group":"dihedral group of order 12","room_assignment":["brown","grey","orange","olive","cyan","green","ivory","purple","yellow","red","blue","pink"],"door_color_assignment":["white","black"],"door_generator_assignment":[0,1],"goal":0,"start":10,"action_noise":0.15,"location_history":"[10,9,8,7,6,0]","action_history":"[0,0,0,0,1]","door_history":"[0,0,0,0,1]","location_rts":"[239,724,769,139,750]","trial_type":"two-door-navigation","trial_index":19,"time_elapsed":3512008,"internal_node_id":"0.0-2.0-17.0"},{"group":"dihedral group of order 12","room_assignment":["brown","grey","orange","olive","cyan","green","ivory","purple","yellow","red","blue","pink"],"door_color_assignment":["white","black"],"door_generator_assignment":[0,1],"goal":9,"start":0,"action_noise":0.15,"location_history":"[0,1,7,1,7,6,0,6,0,6,0,6,0,6,0,6,0,6,0,6,0,6,0,6,0,6,11,5,11,5,11,5,11,5,11,5,11,5,0,6,0,6,0,1,7,1,7,1,7,1,7,1,7,1,7,1,7,1,7,1,7,1,7,1,7,1,7,1,7,1,7,1,7,1,7,1,7,1,7,6,0,6,0,6,0,6,0,6,0,6,0,1,7,6,11,5,11,5,11,5,11,5,11,10,4,10,9]","action_history":"[1,1,1,1,1,1,1,1,1,1,1,1,1,1,1,1,1,1,1,1,1,1,1,1,1,1,1,1,1,1,1,1,1,1,1,1,1,1,1,1,1,1,1,1,1,1,1,1,1,1,1,1,1,1,1,1,1,1,1,1,1,1,1,1,1,1,1,1,1,1,1,1,1,1,1,1,1,1,1,1,1,1,1,1,1,1,1,1,1,1,1,1,1,1,1,1,1,1,1,1,1,1,1,1,1,1]","door_history":"[1,1,1,1,1,1,1,1,1,1,1,1,1,1,1,1,1,1,1,1,1,1,1,1,1,1,1,1,1,1,1,1,1,1,1,1,1,1,1,1,1,1,1,1,1,1,1,1,1,1,1,1,1,1,1,1,1,1,1,1,1,1,1,1,1,1,1,1,1,1,1,1,1,1,1,1,1,1,1,1,1,1,1,1,1,1,1,1,1,1,1,1,1,1,1,1,1,1,1,1,1,1,1,1,1,1]","location_rts":"[161,222,250,298,2,101,22,7826,1046,539,32,446,310,244,86,346,196,221,255,204,249,64,295,249,68,161,440,238,306,239,481,163,423,136,7,142,25,55,228,265,46,742,242,469,272,11,186,294,139,1150,181,151,223,17,561,69,60,181,724,1959,336,1361,351,139,397,287,5485,3045,130,699,1314,1572,1424,912,531,98,151,144,50,626,639,84,571,475,942,446,12701,57,265,676,97,417,198,1273,662,586,434,237,421,189,401,319,421,169,329,95]","trial_type":"two-door-navigation","trial_index":20,"time_elapsed":3695652,"internal_node_id":"0.0-2.0-18.0"},{"group":"dihedral group of order 12","room_assignment":["brown","grey","orange","olive","cyan","green","ivory","purple","yellow","red","blue","pink"],"door_color_assignment":["white","black"],"door_generator_assignment":[0,1],"goal":4,"start":9,"action_noise":0.15,"location_history":"[9,3,9,3,9,3,9,8,2,3,9,3,9,3,9,3,4]","action_history":"[1,1,1,1,1,1,1,1,1,1,1,1,1,1,1,1]","door_history":"[1,1,1,1,1,1,1,1,1,1,1,1,1,1,1,1]","location_rts":"[268,1751,510,243,314,933,376,613,201,197,443,87,203,119,120,4061]","trial_type":"two-door-navigation","trial_index":21,"time_elapsed":3726690,"internal_node_id":"0.0-2.0-19.0"},{"group":"dihedral group of order 12","room_assignment":["brown","grey","orange","olive","cyan","green","ivory","purple","yellow","red","blue","pink"],"door_color_assignment":["white","black"],"door_generator_assignment":[0,1],"goal":2,"start":4,"action_noise":0.15,"location_history":"[4,10,4,5,0,6,0,6,0,6,0,6,0,6,0,6,0,6,0,6,0,6,0,6,11,5,11,5,11,5,11,5,11,5,11,5,11,5,11,5,11,5,11,5,11,5,11,10,4,10,4,10,4,10,4,10,4,10,4,10,9,3,9,3,9,3,9,3,4,10,4,10,9,3,9,3,9,3,9,3,9,8,7,6,11,10,4,5,0,1,2]","action_history":"[1,1,1,1,1,1,1,1,1,1,1,1,1,1,1,1,1,1,1,1,1,1,1,1,1,1,1,1,1,1,1,1,1,1,1,1,1,1,1,1,1,1,1,1,1,1,1,1,1,1,1,1,1,1,1,1,1,1,1,1,1,1,1,1,1,1,1,1,1,1,1,1,1,1,1,1,1,1,1,1,0,0,0,0,0,0,0,0,0,0]","door_history":"[1,1,1,1,1,1,1,1,1,1,1,1,1,1,1,1,1,1,1,1,1,1,1,1,1,1,1,1,1,1,1,1,1,1,1,1,1,1,1,1,1,1,1,1,1,1,1,1,1,1,1,1,1,1,1,1,1,1,1,1,1,1,1,1,1,1,1,1,1,1,1,1,1,1,1,1,1,1,1,1,0,0,0,0,0,0,0,0,0,0]","location_rts":"[481,97,68,204,191,64,209,262,286,7130,267,330,68,101,708,16,366,86,319,823,58,618,158,282,1028,1019,722,26,201,1526,708,1968,491,187,394,105,156,1189,491,568,80,316,29828,7,36170,107,5531,0,124,96,409,89,412,417,406,266,38,101,237,51,34,231,255,17,39,122,147,98,140,499,88,186,200,53,7502,253,667,8707,149,84,1705,25,240,24,13,101,203,108,200,11]","trial_type":"two-door-navigation","trial_index":22,"time_elapsed":3947014,"internal_node_id":"0.0-2.0-20.0"},{"group":"dihedral group of order 12","room_assignment":["brown","grey","orange","olive","cyan","green","ivory","purple","yellow","red","blue","pink"],"door_color_assignment":["white","black"],"door_generator_assignment":[0,1],"goal":1,"start":2,"action_noise":0.15,"location_history":"[2,3,4,5,0,1]","action_history":"[0,0,0,0,0]","door_history":"[0,0,0,0,0]","location_rts":"[357,20,49,24,535]","trial_type":"two-door-navigation","trial_index":23,"time_elapsed":3956839,"internal_node_id":"0.0-2.0-21.0"},{"group":"dihedral group of order 12","room_assignment":["brown","grey","orange","olive","cyan","green","ivory","purple","yellow","red","blue","pink"],"door_color_assignment":["white","black"],"door_generator_assignment":[0,1],"goal":3,"start":1,"action_noise":0.15,"location_history":"[1,2,3]","action_history":"[0,0]","door_history":"[0,0]","location_rts":"[34,20350]","trial_type":"two-door-navigation","trial_index":24,"time_elapsed":3982853,"internal_node_id":"0.0-2.0-22.0"},{"group":"dihedral group of order 12","room_assignment":["brown","grey","orange","olive","cyan","green","ivory","purple","yellow","red","blue","pink"],"door_color_assignment":["white","black"],"door_generator_assignment":[0,1],"goal":7,"start":3,"action_noise":0.15,"location_history":"[3,4,5,0,1,2,3,4,5,0,1,7]","action_history":"[0,0,0,0,0,0,0,0,0,0,0]","door_history":"[0,0,0,0,0,0,0,0,0,0,0]","location_rts":"[19,231,166,218,271,36,133,94,90,188,36]","trial_type":"two-door-navigation","trial_index":25,"time_elapsed":3999587,"internal_node_id":"0.0-2.0-23.0"},{"group":"dihedral group of order 12","room_assignment":["brown","grey","orange","olive","cyan","green","ivory","purple","yellow","red","blue","pink"],"door_color_assignment":["white","black"],"door_generator_assignment":[0,1],"goal":6,"start":7,"action_noise":0.15,"location_history":"[7,1,2,3,4,10,9,8,7,6]","action_history":"[0,0,0,0,0,0,0,0,0]","door_history":"[0,0,0,0,0,0,0,0,0]","location_rts":"[143,160,222,289,116,197,109,274,255]","trial_type":"two-door-navigation","trial_index":26,"time_elapsed":4014456,"internal_node_id":"0.0-2.0-24.0"},{"group":"dihedral group of order 12","room_assignment":["brown","grey","orange","olive","cyan","green","ivory","purple","yellow","red","blue","pink"],"door_color_assignment":["white","black"],"door_generator_assignment":[0,1],"goal":2,"start":6,"action_noise":0.15,"location_history":"[6,11,10,4,5,11,5,0,6,0,6,11,10,4,10,4,10,4,10,4,10,4,10,4,10,4,10,4,10,4,10,9,8,7,1,7,6,0,6,0,6,0,6,0,6,11,5,11,5,0,6,11,10,4,5,11,10,4,10,4,5,11,5,0,1,2]","action_history":"[0,0,1,0,1,1,1,1,1,0,0,1,1,1,1,1,1,1,1,1,1,1,1,1,1,1,1,1,1,1,0,0,0,0,1,1,1,1,1,1,1,1,1,1,1,1,1,1,0,1,0,0,1,1,1,1,1,1,1,1,1,1,0,0,0]","door_history":"[0,0,1,0,1,1,1,1,1,0,0,1,1,1,1,1,1,1,1,1,1,1,1,1,1,1,1,1,1,1,0,0,0,0,1,1,1,1,1,1,1,1,1,1,1,1,1,1,0,1,0,0,1,1,1,1,1,1,1,1,1,1,0,0,0]","location_rts":"[22,134,78,140,491,108,19,51,79,222,128,203,152,243,127,139,101,265,69,74,185,181,169,63,284,40,19,164,23128,8930,396,94,3446,359,15266,178,507,122,222,3194,27,10607,29,10,175,219,146,252,487,2054,2981,383,2437,102,75,269,116,156,24607,13,137,2,2451,193,140]","trial_type":"two-door-navigation","trial_index":27,"time_elapsed":4194535,"internal_node_id":"0.0-2.0-25.0"},{"group":"dihedral group of order 12","room_assignment":["brown","grey","orange","olive","cyan","green","ivory","purple","yellow","red","blue","pink"],"door_color_assignment":["white","black"],"door_generator_assignment":[0,1],"goal":8,"start":2,"action_noise":0.15,"location_history":"[2,3,4,5,0,1,2,8]","action_history":"[0,0,0,0,0,0,0]","door_history":"[0,0,0,0,0,0,0]","location_rts":"[149,168,91,723,151,279,152]","trial_type":"two-door-navigation","trial_index":28,"time_elapsed":4207228,"internal_node_id":"0.0-2.0-26.0"},{"group":"dihedral group of order 12","room_assignment":["brown","grey","orange","olive","cyan","green","ivory","purple","yellow","red","blue","pink"],"door_color_assignment":["white","black"],"door_generator_assignment":[0,1],"goal":0,"start":8,"action_noise":0.15,"location_history":"[8,7,6,11,10,9,8,7,6,11,10,9,8,7,6,0]","action_history":"[0,0,0,0,0,0,0,0,0,0,0,0,0,0,0]","door_history":"[0,0,0,0,0,0,0,0,0,0,0,0,0,0,0]","location_rts":"[67,152,414,569,310,157,148,258,143,251,242,343,160,410,388]","trial_type":"two-door-navigation","trial_index":29,"time_elapsed":4230832,"internal_node_id":"0.0-2.0-27.0"},{"group":"dihedral group of order 12","room_assignment":["brown","grey","orange","olive","cyan","green","ivory","purple","yellow","red","blue","pink"],"door_color_assignment":["white","black"],"door_generator_assignment":[0,1],"goal":3,"start":0,"action_noise":0.15,"location_history":"[0,1,7,6,0,1,2,8,2,3]","action_history":"[0,0,0,0,0,0,0,0,0]","door_history":"[0,0,0,0,0,0,0,0,0]","location_rts":"[40,155,271,259,174,76,193,636,259]","trial_type":"two-door-navigation","trial_index":30,"time_elapsed":4246028,"internal_node_id":"0.0-2.0-28.0"},{"group":"dihedral group of order 12","room_assignment":["brown","grey","orange","olive","cyan","green","ivory","purple","yellow","red","blue","pink"],"door_color_assignment":["white","black"],"door_generator_assignment":[0,1],"goal":4,"start":3,"action_noise":0.15,"location_history":"[3,4]","action_history":"[0]","door_history":"[0]","location_rts":"[334]","trial_type":"two-door-navigation","trial_index":31,"time_elapsed":4250938,"internal_node_id":"0.0-2.0-29.0"},{"group":"dihedral group of order 12","room_assignment":["brown","grey","orange","olive","cyan","green","ivory","purple","yellow","red","blue","pink"],"door_color_assignment":["white","black"],"door_generator_assignment":[0,1],"goal":10,"start":4,"action_noise":0.15,"location_history":"[4,5,0,1,7,6,11,5,0,1,2,3,4,5,0,1,2,3,4,5,0,1,2,3,4,5,0,1,2,3,4,5,0,1,2,3,4,10]","action_history":"[0,0,0,0,0,0,0,0,0,0,0,0,0,0,0,0,0,0,0,0,0,0,0,0,0,0,0,0,0,0,0,0,0,0,0,0,0]","door_history":"[0,0,0,0,0,0,0,0,0,0,0,0,0,0,0,0,0,0,0,0,0,0,0,0,0,0,0,0,0,0,0,0,0,0,0,0,0]","location_rts":"[62,100,77,7,136,134,83,156,980,138,32,15,153,313,141,87,447,4339,79,221,240,141,186,124,225,382,261,29,211,364,240,216,188,30,131,216,16]","trial_type":"two-door-navigation","trial_index":32,"time_elapsed":4304957,"internal_node_id":"0.0-2.0-30.0"},{"group":"dihedral group of order 12","room_assignment":["brown","grey","orange","olive","cyan","green","ivory","purple","yellow","red","blue","pink"],"door_color_assignment":["white","black"],"door_generator_assignment":[0,1],"goal":11,"start":10,"action_noise":0.15,"location_history":"[10,9,8,7,6,11]","action_history":"[0,0,0,0,0]","door_history":"[0,0,0,0,0]","location_rts":"[199,87,358,7,161]","trial_type":"two-door-navigation","trial_index":33,"time_elapsed":4314636,"internal_node_id":"0.0-2.0-31.0"},{"group":"dihedral group of order 12","room_assignment":["brown","grey","orange","olive","cyan","green","ivory","purple","yellow","red","blue","pink"],"door_color_assignment":["white","black"],"door_generator_assignment":[0,1],"goal":1,"start":11,"action_noise":0.15,"location_history":"[11,10,9,8,7,6,11,10,9,8,7,6,11,10,4,10,4,10,9,3,4,10,4,10,9,3,9,3,9,8,2,8,7,1]","action_history":"[0,0,0,0,0,0,0,0,0,0,0,0,0,1,1,1,1,1,1,1,1,1,1,1,1,1,1,1,1,1,1,1,1]","door_history":"[0,0,0,0,0,0,0,0,0,0,0,0,0,1,1,1,1,1,1,1,1,1,1,1,1,1,1,1,1,1,1,1,1]","location_rts":"[15,1878,378,77,288,6,13,252,265,87,172,1823,156,23765,252,397,72431,328,8,178,74,56,42,207032,72,177,146,69,519,130,8917,45,133]","trial_type":"two-door-navigation","trial_index":34,"time_elapsed":4673597,"internal_node_id":"0.0-2.0-32.0"},{"group":"dihedral group of order 12","room_assignment":["brown","grey","orange","olive","cyan","green","ivory","purple","yellow","red","blue","pink"],"door_color_assignment":["white","black"],"door_generator_assignment":[0,1],"goal":5,"start":1,"action_noise":0.15,"location_history":"[1,7,1,7,6,0,6,0,6,0,6,0,6,0,6,0,6,0,6,11,5]","action_history":"[1,1,1,1,1,1,1,1,1,1,1,1,1,1,1,1,1,1,1,1]","door_history":"[1,1,1,1,1,1,1,1,1,1,1,1,1,1,1,1,1,1,1,1]","location_rts":"[5385,384,325,68,434,160,441,153,9,613,44,1421,346,133,222,568,1142,32,334,347]","trial_type":"two-door-navigation","trial_index":35,"time_elapsed":4711018,"internal_node_id":"0.0-2.0-33.0"},{"group":"dihedral group of order 12","room_assignment":["brown","grey","orange","olive","cyan","green","ivory","purple","yellow","red","blue","pink"],"door_color_assignment":["white","black"],"door_generator_assignment":[0,1],"goal":9,"start":5,"action_noise":0.15,"location_history":"[5,11,5,11,5,0,6,0,6,0,1,7,6,0,1,7,1,7,1,2,8,7,1,7,1,7,1,7,1,7,1,7,1,7,1,7,1,7,1,7,1,7,1,7,1,7,1,2,8,2,8,2,8,2,8,7,1,2,8,2,8,7,1,7,1,7,1,7,1,2,3,4,5,0,1,2,3,4,5,11,10,4,5,0,1,2,3,4,5,0,1,2,3,4,5,0,6,0,1,2,3,4,5,11,10,4,5,0,1,2,3,4,5,0,1,2,8,7,6,11,10,9]","action_history":"[1,1,1,1,1,1,1,1,1,1,1,1,1,1,1,1,1,1,1,1,1,1,1,1,1,1,1,1,1,1,1,1,1,1,1,1,1,1,1,1,1,1,1,1,1,1,1,1,1,1,1,1,1,1,1,1,1,1,1,1,1,1,1,1,1,1,1,1,0,0,0,0,0,0,0,0,0,0,0,0,0,0,0,0,0,0,0,0,0,0,0,0,0,0,0,0,0,0,0,0,0,0,0,0,0,0,0,0,0,0,0,0,0,0,0,0,0,0,0,0,0]","door_history":"[1,1,1,1,1,1,1,1,1,1,1,1,1,1,1,1,1,1,1,1,1,1,1,1,1,1,1,1,1,1,1,1,1,1,1,1,1,1,1,1,1,1,1,1,1,1,1,1,1,1,1,1,1,1,1,1,1,1,1,1,1,1,1,1,1,1,1,1,0,0,0,0,0,0,0,0,0,0,0,0,0,0,0,0,0,0,0,0,0,0,0,0,0,0,0,0,0,0,0,0,0,0,0,0,0,0,0,0,0,0,0,0,0,0,0,0,0,0,0,0,0]","location_rts":"[356,90,62,555,671,319,140,29,2582,2670,35,336,10,277,790,400,378,290,548,217,444,460,185,181,143,689,110,44,196,264,229,344,97,34,779,134,540,194,182,451,272,7614,607,20,705,286,909,116,162,221,663,33,2471,1934,59,312,29,60,354,72,200,63,34,225,159,342,111,2333,44498,375,2602,528,203,139,306,375,666,324,38,309,120,90,181,232,198,367,895,568,160,143,562,689,562,28,25,90,196,297,1011,415,32,475,19,116,353,296,79,100,1583,248,596,180,153,16,236,36,388,132,286,115,380]","trial_type":"two-door-navigation","trial_index":36,"time_elapsed":4944089,"internal_node_id":"0.0-2.0-34.0"},{"view_history":"[{\"page_index\":0,\"viewing_time\":8003}]","rt":8003,"trial_type":"instructions","trial_index":37,"time_elapsed":4953097,"internal_node_id":"0.0-3.0"},{"view_history":"[{\"page_index\":0,\"viewing_time\":2836},{\"page_index\":1,\"viewing_time\":3738}]","rt":6574,"trial_type":"instructions","trial_index":38,"time_elapsed":4960676,"internal_node_id":"0.0-4.0"},{"group":"dicyclic group of order 12","fractal_assignment":["../images/grn_blu.png","../images/wht_red.png","../images/org_blu.png","../images/grn_prp.png","../images/gry_blk.png","../images/pnk_blu.png","../images/ylw_pnk.png","../images/grn_red.png","../images/cyn_red.png","../images/ylw_slt.png","../images/red_prp.png","../images/blu_wht.png"],"mutagen_generator_assignment":[1,0],"goal":4,"start":0,"action_noise":0.15,"location_history":"[0,1,5,10,7,11,4]","action_history":"[0,1,0,0,1,0]","mutagen_history":"[1,0,1,1,0,1]","location_rts":"[57917,331,320,201,127,192]","trial_type":"fractal-mutation","trial_index":39,"time_elapsed":5030015,"internal_node_id":"0.0-5.0-0.0"},{"group":"dicyclic group of order 12","fractal_assignment":["../images/grn_blu.png","../images/wht_red.png","../images/org_blu.png","../images/grn_prp.png","../images/gry_blk.png","../images/pnk_blu.png","../images/ylw_pnk.png","../images/grn_red.png","../images/cyn_red.png","../images/ylw_slt.png","../images/red_prp.png","../images/blu_wht.png"],"mutagen_generator_assignment":[1,0],"goal":9,"start":4,"action_noise":0.15,"location_history":"[4,9]","action_history":"[0]","mutagen_history":"[1]","location_rts":"[567]","trial_type":"fractal-mutation","trial_index":40,"time_elapsed":5035222,"internal_node_id":"0.0-5.0-1.0"},{"group":"dicyclic group of order 12","fractal_assignment":["../images/grn_blu.png","../images/wht_red.png","../images/org_blu.png","../images/grn_prp.png","../images/gry_blk.png","../images/pnk_blu.png","../images/ylw_pnk.png","../images/grn_red.png","../images/cyn_red.png","../images/ylw_slt.png","../images/red_prp.png","../images/blu_wht.png"],"mutagen_generator_assignment":[1,0],"goal":10,"start":9,"action_noise":0.15,"location_history":"[9,1,5,9,1,5,10]","action_history":"[1,1,1,1,1,0]","mutagen_history":"[0,0,0,0,0,1]","location_rts":"[33323,11298,52,73,135,128]","trial_type":"fractal-mutation","trial_index":41,"time_elapsed":5090250,"internal_node_id":"0.0-5.0-2.0"},{"group":"dicyclic group of order 12","fractal_assignment":["../images/grn_blu.png","../images/wht_red.png","../images/org_blu.png","../images/grn_prp.png","../images/gry_blk.png","../images/pnk_blu.png","../images/ylw_pnk.png","../images/grn_red.png","../images/cyn_red.png","../images/ylw_slt.png","../images/red_prp.png","../images/blu_wht.png"],"mutagen_generator_assignment":[1,0],"goal":2,"start":10,"action_noise":0.15,"location_history":"[10,7,11,4,8,5,9,6,10,2]","action_history":"[0,1,0,1,1,1,1,1,1]","mutagen_history":"[1,0,1,0,0,0,0,0,0]","location_rts":"[511,19,116,208,227,159,103,214,208]","trial_type":"fractal-mutation","trial_index":42,"time_elapsed":5105445,"internal_node_id":"0.0-5.0-3.0"},{"group":"dicyclic group of order 12","fractal_assignment":["../images/grn_blu.png","../images/wht_red.png","../images/org_blu.png","../images/grn_prp.png","../images/gry_blk.png","../images/pnk_blu.png","../images/ylw_pnk.png","../images/grn_red.png","../images/cyn_red.png","../images/ylw_slt.png","../images/red_prp.png","../images/blu_wht.png"],"mutagen_generator_assignment":[1,0],"goal":5,"start":2,"action_noise":0.15,"location_history":"[2,6,10,7,8,0,1,5]","action_history":"[1,1,1,1,0,0,1]","mutagen_history":"[0,0,0,0,1,1,0]","location_rts":"[153,242,189,165,136,20,239]","trial_type":"fractal-mutation","trial_index":43,"time_elapsed":5117750,"internal_node_id":"0.0-5.0-4.0"},{"group":"dicyclic group of order 12","fractal_assignment":["../images/grn_blu.png","../images/wht_red.png","../images/org_blu.png","../images/grn_prp.png","../images/gry_blk.png","../images/pnk_blu.png","../images/ylw_pnk.png","../images/grn_red.png","../images/cyn_red.png","../images/ylw_slt.png","../images/red_prp.png","../images/blu_wht.png"],"mutagen_generator_assignment":[1,0],"goal":11,"start":5,"action_noise":0.15,"location_history":"[5,9,1,5,10,2,6,10,7,8,5,9,1,5,9,6,10,2,6,11]","action_history":"[0,1,0,0,1,1,0,0,1,0,1,1,1,1,0,1,1,1,0]","mutagen_history":"[1,0,1,1,0,0,1,1,0,1,0,0,0,0,1,0,0,0,1]","location_rts":"[447,68,17,14,161,154,320,421,165,5,80,179,72,267,152,237,85,10,87]","trial_type":"fractal-mutation","trial_index":44,"time_elapsed":5145206,"internal_node_id":"0.0-5.0-5.0"},{"group":"dicyclic group of order 12","fractal_assignment":["../images/grn_blu.png","../images/wht_red.png","../images/org_blu.png","../images/grn_prp.png","../images/gry_blk.png","../images/pnk_blu.png","../images/ylw_pnk.png","../images/grn_red.png","../images/cyn_red.png","../images/ylw_slt.png","../images/red_prp.png","../images/blu_wht.png"],"mutagen_generator_assignment":[1,0],"goal":6,"start":11,"action_noise":0.15,"location_history":"[11,4,9,6]","action_history":"[0,0,0]","mutagen_history":"[1,1,1]","location_rts":"[318,60,4]","trial_type":"fractal-mutation","trial_index":45,"time_elapsed":5152464,"internal_node_id":"0.0-5.0-6.0"},{"group":"dicyclic group of order 12","fractal_assignment":["../images/grn_blu.png","../images/wht_red.png","../images/org_blu.png","../images/grn_prp.png","../images/gry_blk.png","../images/pnk_blu.png","../images/ylw_pnk.png","../images/grn_red.png","../images/cyn_red.png","../images/ylw_slt.png","../images/red_prp.png","../images/blu_wht.png"],"mutagen_generator_assignment":[1,0],"goal":3,"start":6,"action_noise":0.15,"location_history":"[6,10,7,8,0,1,2,3]","action_history":"[1,0,0,1,0,0,1]","mutagen_history":"[0,1,1,0,1,1,0]","location_rts":"[197,77,169,34,222,672,95]","trial_type":"fractal-mutation","trial_index":46,"time_elapsed":5165190,"internal_node_id":"0.0-5.0-7.0"},{"group":"dicyclic group of order 12","fractal_assignment":["../images/grn_blu.png","../images/wht_red.png","../images/org_blu.png","../images/grn_prp.png","../images/gry_blk.png","../images/pnk_blu.png","../images/ylw_pnk.png","../images/grn_red.png","../images/cyn_red.png","../images/ylw_slt.png","../images/red_prp.png","../images/blu_wht.png"],"mutagen_generator_assignment":[1,0],"goal":8,"start":3,"action_noise":0.15,"location_history":"[3,7,11,3,0,1,2,6,10,2,6,10,2,3,0,1,5,9,6,10,7,8]","action_history":"[0,1,1,0,1,1,1,0,1,1,1,1,1,0,0,1,1,0,1,0,0]","mutagen_history":"[1,0,0,1,0,0,0,1,0,0,0,0,0,1,1,0,0,1,0,1,1]","location_rts":"[440,678,43,76,179,781,788,63,116,18,729,346,192,135,368,1996,152,261,2145,262,180]","trial_type":"fractal-mutation","trial_index":47,"time_elapsed":5201904,"internal_node_id":"0.0-5.0-8.0"},{"group":"dicyclic group of order 12","fractal_assignment":["../images/grn_blu.png","../images/wht_red.png","../images/org_blu.png","../images/grn_prp.png","../images/gry_blk.png","../images/pnk_blu.png","../images/ylw_pnk.png","../images/grn_red.png","../images/cyn_red.png","../images/ylw_slt.png","../images/red_prp.png","../images/blu_wht.png"],"mutagen_generator_assignment":[1,0],"goal":1,"start":8,"action_noise":0.15,"location_history":"[8,5,10,2,6,11,4,9,6,10,2,6,11,3,7,11,4,8,0,1]","action_history":"[0,0,1,1,0,0,1,1,1,1,1,0,1,1,1,1,1,1,0]","mutagen_history":"[1,1,0,0,1,1,0,0,0,0,0,1,0,0,0,0,0,0,1]","location_rts":"[142,14,2,137,47,76,30,376,44,1886,119,154,144,150,22,191,22,43,172]","trial_type":"fractal-mutation","trial_index":48,"time_elapsed":5230167,"internal_node_id":"0.0-5.0-9.0"},{"group":"dicyclic group of order 12","fractal_assignment":["../images/grn_blu.png","../images/wht_red.png","../images/org_blu.png","../images/grn_prp.png","../images/gry_blk.png","../images/pnk_blu.png","../images/ylw_pnk.png","../images/grn_red.png","../images/cyn_red.png","../images/ylw_slt.png","../images/red_prp.png","../images/blu_wht.png"],"mutagen_generator_assignment":[1,0],"goal":7,"start":1,"action_noise":0.15,"location_history":"[1,2,6,10,2,6,10,2,3,0,4,9,6,11,4,8,5,10,7]","action_history":"[0,1,1,1,1,1,1,1,0,1,0,1,0,0,1,0,0,0]","mutagen_history":"[1,0,0,0,0,0,0,0,1,0,1,0,1,1,0,1,1,1]","location_rts":"[164,22,307,79,526,1012,106,162,122,640,46,38,110,246,53,72,266,264]","trial_type":"fractal-mutation","trial_index":49,"time_elapsed":5257884,"internal_node_id":"0.0-5.0-10.0"},{"group":"dicyclic group of order 12","fractal_assignment":["../images/grn_blu.png","../images/wht_red.png","../images/org_blu.png","../images/grn_prp.png","../images/gry_blk.png","../images/pnk_blu.png","../images/ylw_pnk.png","../images/grn_red.png","../images/cyn_red.png","../images/ylw_slt.png","../images/red_prp.png","../images/blu_wht.png"],"mutagen_generator_assignment":[1,0],"goal":5,"start":7,"action_noise":0.15,"location_history":"[7,8,0,4,8,5]","action_history":"[0,1,1,1,1]","mutagen_history":"[1,0,0,0,0]","location_rts":"[153,423,32,77,180]","trial_type":"fractal-mutation","trial_index":50,"time_elapsed":5267762,"internal_node_id":"0.0-5.0-11.0"},{"group":"dicyclic group of order 12","fractal_assignment":["../images/grn_blu.png","../images/wht_red.png","../images/org_blu.png","../images/grn_prp.png","../images/gry_blk.png","../images/pnk_blu.png","../images/ylw_pnk.png","../images/grn_red.png","../images/cyn_red.png","../images/ylw_slt.png","../images/red_prp.png","../images/blu_wht.png"],"mutagen_generator_assignment":[1,0],"goal":8,"start":5,"action_noise":0.15,"location_history":"[5,10,7,8]","action_history":"[0,0,0]","mutagen_history":"[1,1,1]","location_rts":"[164,54,168]","trial_type":"fractal-mutation","trial_index":51,"time_elapsed":5275025,"internal_node_id":"0.0-5.0-12.0"},{"group":"dicyclic group of order 12","fractal_assignment":["../images/grn_blu.png","../images/wht_red.png","../images/org_blu.png","../images/grn_prp.png","../images/gry_blk.png","../images/pnk_blu.png","../images/ylw_pnk.png","../images/grn_red.png","../images/cyn_red.png","../images/ylw_slt.png","../images/red_prp.png","../images/blu_wht.png"],"mutagen_generator_assignment":[1,0],"goal":11,"start":8,"action_noise":0.15,"location_history":"[8,0,4,9,6,10,2,3,7,11]","action_history":"[1,1,0,0,1,0,0,1,1]","mutagen_history":"[0,0,1,1,0,1,1,0,0]","location_rts":"[331,211,354,244,281,30,91,318,306]","trial_type":"fractal-mutation","trial_index":52,"time_elapsed":5290638,"internal_node_id":"0.0-5.0-13.0"},{"group":"dicyclic group of order 12","fractal_assignment":["../images/grn_blu.png","../images/wht_red.png","../images/org_blu.png","../images/grn_prp.png","../images/gry_blk.png","../images/pnk_blu.png","../images/ylw_pnk.png","../images/grn_red.png","../images/cyn_red.png","../images/ylw_slt.png","../images/red_prp.png","../images/blu_wht.png"],"mutagen_generator_assignment":[1,0],"goal":6,"start":11,"action_noise":0.15,"location_history":"[11,3,0,4,9,1,2,6]","action_history":"[0,0,0,0,1,0,1]","mutagen_history":"[1,1,1,1,0,1,0]","location_rts":"[195,53,68,7,86,109,0]","trial_type":"fractal-mutation","trial_index":53,"time_elapsed":5302465,"internal_node_id":"0.0-5.0-14.0"},{"group":"dicyclic group of order 12","fractal_assignment":["../images/grn_blu.png","../images/wht_red.png","../images/org_blu.png","../images/grn_prp.png","../images/gry_blk.png","../images/pnk_blu.png","../images/ylw_pnk.png","../images/grn_red.png","../images/cyn_red.png","../images/ylw_slt.png","../images/red_prp.png","../images/blu_wht.png"],"mutagen_generator_assignment":[1,0],"goal":7,"start":6,"action_noise":0.15,"location_history":"[6,11,4,8,5,9,1,2,3,7]","action_history":"[0,1,1,0,1,1,0,0,0]","mutagen_history":"[1,0,0,1,0,0,1,1,1]","location_rts":"[259,561,124,169,112,116,164,377,236]","trial_type":"fractal-mutation","trial_index":54,"time_elapsed":5318096,"internal_node_id":"0.0-5.0-15.0"},{"group":"dicyclic group of order 12","fractal_assignment":["../images/grn_blu.png","../images/wht_red.png","../images/org_blu.png","../images/grn_prp.png","../images/gry_blk.png","../images/pnk_blu.png","../images/ylw_pnk.png","../images/grn_red.png","../images/cyn_red.png","../images/ylw_slt.png","../images/red_prp.png","../images/blu_wht.png"],"mutagen_generator_assignment":[1,0],"goal":10,"start":7,"action_noise":0.15,"location_history":"[7,11,4,8,5,10]","action_history":"[1,1,1,0,0]","mutagen_history":"[0,0,0,1,1]","location_rts":"[201,126,193,53,313]","trial_type":"fractal-mutation","trial_index":55,"time_elapsed":5327945,"internal_node_id":"0.0-5.0-16.0"},{"group":"dicyclic group of order 12","fractal_assignment":["../images/grn_blu.png","../images/wht_red.png","../images/org_blu.png","../images/grn_prp.png","../images/gry_blk.png","../images/pnk_blu.png","../images/ylw_pnk.png","../images/grn_red.png","../images/cyn_red.png","../images/ylw_slt.png","../images/red_prp.png","../images/blu_wht.png"],"mutagen_generator_assignment":[1,0],"goal":0,"start":10,"action_noise":0.15,"location_history":"[10,2,6,11,3,0]","action_history":"[1,1,0,1,1]","mutagen_history":"[0,0,1,0,0]","location_rts":"[305,203,120,223,251]","trial_type":"fractal-mutation","trial_index":56,"time_elapsed":5338014,"internal_node_id":"0.0-5.0-17.0"},{"group":"dicyclic group of order 12","fractal_assignment":["../images/grn_blu.png","../images/wht_red.png","../images/org_blu.png","../images/grn_prp.png","../images/gry_blk.png","../images/pnk_blu.png","../images/ylw_pnk.png","../images/grn_red.png","../images/cyn_red.png","../images/ylw_slt.png","../images/red_prp.png","../images/blu_wht.png"],"mutagen_generator_assignment":[1,0],"goal":9,"start":0,"action_noise":0.15,"location_history":"[0,4,9]","action_history":"[1,0]","mutagen_history":"[0,1]","location_rts":"[102,246]","trial_type":"fractal-mutation","trial_index":57,"time_elapsed":5344067,"internal_node_id":"0.0-5.0-18.0"},{"group":"dicyclic group of order 12","fractal_assignment":["../images/grn_blu.png","../images/wht_red.png","../images/org_blu.png","../images/grn_prp.png","../images/gry_blk.png","../images/pnk_blu.png","../images/ylw_pnk.png","../images/grn_red.png","../images/cyn_red.png","../images/ylw_slt.png","../images/red_prp.png","../images/blu_wht.png"],"mutagen_generator_assignment":[1,0],"goal":4,"start":9,"action_noise":0.15,"location_history":"[9,1,2,6,10,7,11,3,0,4]","action_history":"[1,0,1,1,0,1,1,1,1]","mutagen_history":"[0,1,0,0,1,0,0,0,0]","location_rts":"[348,166,45,248,143,238,253,139,106]","trial_type":"fractal-mutation","trial_index":58,"time_elapsed":5359164,"internal_node_id":"0.0-5.0-19.0"},{"group":"dicyclic group of order 12","fractal_assignment":["../images/grn_blu.png","../images/wht_red.png","../images/org_blu.png","../images/grn_prp.png","../images/gry_blk.png","../images/pnk_blu.png","../images/ylw_pnk.png","../images/grn_red.png","../images/cyn_red.png","../images/ylw_slt.png","../images/red_prp.png","../images/blu_wht.png"],"mutagen_generator_assignment":[1,0],"goal":2,"start":4,"action_noise":0.15,"location_history":"[4,9,1,5,9,1,5,9,1,5,9,1,5,10,2]","action_history":"[0,0,0,1,1,1,1,1,1,1,1,1,0,1]","mutagen_history":"[1,1,1,0,0,0,0,0,0,0,0,0,1,0]","location_rts":"[541,247,36,73,257,87,538,290,10,163,131,74,17,122]","trial_type":"fractal-mutation","trial_index":59,"time_elapsed":5380786,"internal_node_id":"0.0-5.0-20.0"},{"group":"dicyclic group of order 12","fractal_assignment":["../images/grn_blu.png","../images/wht_red.png","../images/org_blu.png","../images/grn_prp.png","../images/gry_blk.png","../images/pnk_blu.png","../images/ylw_pnk.png","../images/grn_red.png","../images/cyn_red.png","../images/ylw_slt.png","../images/red_prp.png","../images/blu_wht.png"],"mutagen_generator_assignment":[1,0],"goal":1,"start":2,"action_noise":0.15,"location_history":"[2,6,10,2,6,11,4,9,1]","action_history":"[1,0,1,1,0,0,0,1]","mutagen_history":"[0,1,0,0,1,1,1,0]","location_rts":"[355,169,155,0,71,63,149,181]","trial_type":"fractal-mutation","trial_index":60,"time_elapsed":5394303,"internal_node_id":"0.0-5.0-21.0"},{"group":"dicyclic group of order 12","fractal_assignment":["../images/grn_blu.png","../images/wht_red.png","../images/org_blu.png","../images/grn_prp.png","../images/gry_blk.png","../images/pnk_blu.png","../images/ylw_pnk.png","../images/grn_red.png","../images/cyn_red.png","../images/ylw_slt.png","../images/red_prp.png","../images/blu_wht.png"],"mutagen_generator_assignment":[1,0],"goal":3,"start":1,"action_noise":0.15,"location_history":"[1,2,3]","action_history":"[0,0]","mutagen_history":"[1,1]","location_rts":"[52,418]","trial_type":"fractal-mutation","trial_index":61,"time_elapsed":5400528,"internal_node_id":"0.0-5.0-22.0"},{"group":"dicyclic group of order 12","fractal_assignment":["../images/grn_blu.png","../images/wht_red.png","../images/org_blu.png","../images/grn_prp.png","../images/gry_blk.png","../images/pnk_blu.png","../images/ylw_pnk.png","../images/grn_red.png","../images/cyn_red.png","../images/ylw_slt.png","../images/red_prp.png","../images/blu_wht.png"],"mutagen_generator_assignment":[1,0],"goal":7,"start":3,"action_noise":0.15,"location_history":"[3,0,4,8,0,4,9,6,10,7]","action_history":"[0,0,1,1,0,0,0,0,0]","mutagen_history":"[1,1,0,0,1,1,1,1,1]","location_rts":"[250,41,8,243,180,9,185,17,12]","trial_type":"fractal-mutation","trial_index":62,"time_elapsed":5415028,"internal_node_id":"0.0-5.0-23.0"},{"group":"dicyclic group of order 12","fractal_assignment":["../images/grn_blu.png","../images/wht_red.png","../images/org_blu.png","../images/grn_prp.png","../images/gry_blk.png","../images/pnk_blu.png","../images/ylw_pnk.png","../images/grn_red.png","../images/cyn_red.png","../images/ylw_slt.png","../images/red_prp.png","../images/blu_wht.png"],"mutagen_generator_assignment":[1,0],"goal":6,"start":7,"action_noise":0.15,"location_history":"[7,8,0,1,5,9,1,5,9,6]","action_history":"[0,0,0,1,1,1,1,1,0]","mutagen_history":"[1,1,1,0,0,0,0,0,1]","location_rts":"[211,16,54,254,32,8,341,94,34]","trial_type":"fractal-mutation","trial_index":63,"time_elapsed":5429560,"internal_node_id":"0.0-5.0-24.0"},{"group":"dicyclic group of order 12","fractal_assignment":["../images/grn_blu.png","../images/wht_red.png","../images/org_blu.png","../images/grn_prp.png","../images/gry_blk.png","../images/pnk_blu.png","../images/ylw_pnk.png","../images/grn_red.png","../images/cyn_red.png","../images/ylw_slt.png","../images/red_prp.png","../images/blu_wht.png"],"mutagen_generator_assignment":[1,0],"goal":2,"start":6,"action_noise":0.15,"location_history":"[6,10,2]","action_history":"[1,1]","mutagen_history":"[0,0]","location_rts":"[187,56]","trial_type":"fractal-mutation","trial_index":64,"time_elapsed":5435464,"internal_node_id":"0.0-5.0-25.0"},{"group":"dicyclic group of order 12","fractal_assignment":["../images/grn_blu.png","../images/wht_red.png","../images/org_blu.png","../images/grn_prp.png","../images/gry_blk.png","../images/pnk_blu.png","../images/ylw_pnk.png","../images/grn_red.png","../images/cyn_red.png","../images/ylw_slt.png","../images/red_prp.png","../images/blu_wht.png"],"mutagen_generator_assignment":[1,0],"goal":8,"start":2,"action_noise":0.15,"location_history":"[2,6,11,3,0,4,8]","action_history":"[1,0,1,0,0,1]","mutagen_history":"[0,1,0,1,1,0]","location_rts":"[35,164,94,18,49,32]","trial_type":"fractal-mutation","trial_index":65,"time_elapsed":5446021,"internal_node_id":"0.0-5.0-26.0"},{"group":"dicyclic group of order 12","fractal_assignment":["../images/grn_blu.png","../images/wht_red.png","../images/org_blu.png","../images/grn_prp.png","../images/gry_blk.png","../images/pnk_blu.png","../images/ylw_pnk.png","../images/grn_red.png","../images/cyn_red.png","../images/ylw_slt.png","../images/red_prp.png","../images/blu_wht.png"],"mutagen_generator_assignment":[1,0],"goal":0,"start":8,"action_noise":0.15,"location_history":"[8,0]","action_history":"[1]","mutagen_history":"[0]","location_rts":"[75]","trial_type":"fractal-mutation","trial_index":66,"time_elapsed":5450715,"internal_node_id":"0.0-5.0-27.0"},{"group":"dicyclic group of order 12","fractal_assignment":["../images/grn_blu.png","../images/wht_red.png","../images/org_blu.png","../images/grn_prp.png","../images/gry_blk.png","../images/pnk_blu.png","../images/ylw_pnk.png","../images/grn_red.png","../images/cyn_red.png","../images/ylw_slt.png","../images/red_prp.png","../images/blu_wht.png"],"mutagen_generator_assignment":[1,0],"goal":3,"start":0,"action_noise":0.15,"location_history":"[0,4,8,0,4,8,0,1,2,6,11,4,8,0,1,5,9,6,10,2,6,11,4,9,6,10,7,8,5,10,7,11,3]","action_history":"[0,0,0,0,1,0,0,0,0,1,1,1,1,1,1,0,0,1,1,1,0,0,0,0,1,0,0,0,0,0,1,1]","mutagen_history":"[1,1,1,1,0,1,1,1,1,0,0,0,0,0,0,1,1,0,0,0,1,1,1,1,0,1,1,1,1,1,0,0]","location_rts":"[127,160,171,137,183,132,111,51,145,23,197,288,174,146,123,41,223,256,82,133,247,132,217,158,108,216,206,433,293,178,351,163]","trial_type":"fractal-mutation","trial_index":67,"time_elapsed":5495423,"internal_node_id":"0.0-5.0-28.0"},{"group":"dicyclic group of order 12","fractal_assignment":["../images/grn_blu.png","../images/wht_red.png","../images/org_blu.png","../images/grn_prp.png","../images/gry_blk.png","../images/pnk_blu.png","../images/ylw_pnk.png","../images/grn_red.png","../images/cyn_red.png","../images/ylw_slt.png","../images/red_prp.png","../images/blu_wht.png"],"mutagen_generator_assignment":[1,0],"goal":4,"start":3,"action_noise":0.15,"location_history":"[3,0,4]","action_history":"[0,1]","mutagen_history":"[1,0]","location_rts":"[285,888]","trial_type":"fractal-mutation","trial_index":68,"time_elapsed":5502323,"internal_node_id":"0.0-5.0-29.0"},{"group":"dicyclic group of order 12","fractal_assignment":["../images/grn_blu.png","../images/wht_red.png","../images/org_blu.png","../images/grn_prp.png","../images/gry_blk.png","../images/pnk_blu.png","../images/ylw_pnk.png","../images/grn_red.png","../images/cyn_red.png","../images/ylw_slt.png","../images/red_prp.png","../images/blu_wht.png"],"mutagen_generator_assignment":[1,0],"goal":10,"start":4,"action_noise":0.15,"location_history":"[4,8,5,10]","action_history":"[1,1,1]","mutagen_history":"[0,0,0]","location_rts":"[235,48,127]","trial_type":"fractal-mutation","trial_index":69,"time_elapsed":5509458,"internal_node_id":"0.0-5.0-30.0"},{"group":"dicyclic group of order 12","fractal_assignment":["../images/grn_blu.png","../images/wht_red.png","../images/org_blu.png","../images/grn_prp.png","../images/gry_blk.png","../images/pnk_blu.png","../images/ylw_pnk.png","../images/grn_red.png","../images/cyn_red.png","../images/ylw_slt.png","../images/red_prp.png","../images/blu_wht.png"],"mutagen_generator_assignment":[1,0],"goal":11,"start":10,"action_noise":0.15,"location_history":"[10,7,8,5,10,2,3,0,1,2,6,11]","action_history":"[0,0,0,0,1,0,0,0,0,0,0]","mutagen_history":"[1,1,1,1,0,1,1,1,1,1,1]","location_rts":"[41,13,236,233,287,234,46,72,7,310,121]","trial_type":"fractal-mutation","trial_index":70,"time_elapsed":5526893,"internal_node_id":"0.0-5.0-31.0"},{"group":"dicyclic group of order 12","fractal_assignment":["../images/grn_blu.png","../images/wht_red.png","../images/org_blu.png","../images/grn_prp.png","../images/gry_blk.png","../images/pnk_blu.png","../images/ylw_pnk.png","../images/grn_red.png","../images/cyn_red.png","../images/ylw_slt.png","../images/red_prp.png","../images/blu_wht.png"],"mutagen_generator_assignment":[1,0],"goal":1,"start":11,"action_noise":0.15,"location_history":"[11,4,8,0,4,9,6,11,4,9,1]","action_history":"[0,1,1,1,1,1,0,0,0,1]","mutagen_history":"[1,0,0,0,0,0,1,1,1,0]","location_rts":"[126,271,9,46,7,127,229,199,84,385]","trial_type":"fractal-mutation","trial_index":71,"time_elapsed":5542938,"internal_node_id":"0.0-5.0-32.0"},{"group":"dicyclic group of order 12","fractal_assignment":["../images/grn_blu.png","../images/wht_red.png","../images/org_blu.png","../images/grn_prp.png","../images/gry_blk.png","../images/pnk_blu.png","../images/ylw_pnk.png","../images/grn_red.png","../images/cyn_red.png","../images/ylw_slt.png","../images/red_prp.png","../images/blu_wht.png"],"mutagen_generator_assignment":[1,0],"goal":5,"start":1,"action_noise":0.15,"location_history":"[1,5]","action_history":"[1]","mutagen_history":"[0]","location_rts":"[36]","trial_type":"fractal-mutation","trial_index":72,"time_elapsed":5547564,"internal_node_id":"0.0-5.0-33.0"},{"group":"dicyclic group of order 12","fractal_assignment":["../images/grn_blu.png","../images/wht_red.png","../images/org_blu.png","../images/grn_prp.png","../images/gry_blk.png","../images/pnk_blu.png","../images/ylw_pnk.png","../images/grn_red.png","../images/cyn_red.png","../images/ylw_slt.png","../images/red_prp.png","../images/blu_wht.png"],"mutagen_generator_assignment":[1,0],"goal":9,"start":5,"action_noise":0.15,"location_history":"[5,10,2,3,7,11,4,8,0,1,5,9]","action_history":"[0,1,0,1,1,0,1,1,0,1,1]","mutagen_history":"[1,0,1,0,0,1,0,0,1,0,0]","location_rts":"[34,193,109,228,2,108,178,111,79,23,227]","trial_type":"fractal-mutation","trial_index":73,"time_elapsed":5564531,"internal_node_id":"0.0-5.0-34.0"},{"view_history":"[{\"page_index\":0,\"viewing_time\":23287}]","rt":23288,"trial_type":"instructions","trial_index":74,"time_elapsed":5588823,"internal_node_id":"0.0-6.0"},{"rt":1526,"responses":"{\"Q0\":\"\"}","trial_type":"survey-text","trial_index":75,"time_elapsed":5591356,"internal_node_id":"0.0-7.0"}]