[{"view_history":"[{\"page_index\":0,\"viewing_time\":138657},{\"page_index\":1,\"viewing_time\":12658},{\"page_index\":2,\"viewing_time\":14458},{\"page_index\":3,\"viewing_time\":2358}]","rt":168132,"trial_type":"instructions","trial_index":0,"time_elapsed":168134,"internal_node_id":"0.0-0.0"},{"view_history":"[{\"page_index\":0,\"viewing_time\":1649},{\"page_index\":1,\"viewing_time\":26165}]","rt":27814,"trial_type":"instructions","trial_index":1,"time_elapsed":196948,"internal_node_id":"0.0-1.0"},{"group":"dihedral group of order 12","room_assignment":["green","ivory","pink","grey","red","brown","blue","olive","orange","purple","yellow","cyan"],"door_color_assignment":["black","white"],"door_generator_assignment":[1,0],"goal":4,"start":0,"action_noise":0.15,"location_history":"[0,6,11,10,9,8,7,6,11,5,0,1,7,1,2,3,4]","action_history":"[1,0,0,0,0,0,0,0,0,0,1,1,1,0,0,0]","door_history":"[0,1,1,1,1,1,1,1,1,1,0,0,0,1,1,1]","location_rts":"[2889,1233,582,375,385,375,354,324,373,444,590,562,341,432,544,511]","trial_type":"two-door-navigation","trial_index":2,"time_elapsed":226909,"internal_node_id":"0.0-2.0-0.0"},{"group":"dihedral group of order 12","room_assignment":["green","ivory","pink","grey","red","brown","blue","olive","orange","purple","yellow","cyan"],"door_color_assignment":["black","white"],"door_generator_assignment":[1,0],"goal":9,"start":4,"action_noise":0.15,"location_history":"[4,5,0,1,2,3,4,5,0,6,0,1,2,3,4,5,0,6,0,1,2,3,4,5,0,1,2,3,9]","action_history":"[0,0,0,0,0,0,0,1,1,0,0,0,0,0,0,0,1,1,1,0,0,0,0,0,0,0,1,1]","door_history":"[1,1,1,1,1,1,1,0,0,1,1,1,1,1,1,1,0,0,0,1,1,1,1,1,1,1,0,0]","location_rts":"[1869,246,303,336,472,333,704,404,398,506,337,519,516,459,402,625,174,349,359,658,243,601,519,415,254,1252,465,403]","trial_type":"two-door-navigation","trial_index":3,"time_elapsed":272770,"internal_node_id":"0.0-2.0-1.0"},{"group":"dihedral group of order 12","room_assignment":["green","ivory","pink","grey","red","brown","blue","olive","orange","purple","yellow","cyan"],"door_color_assignment":["black","white"],"door_generator_assignment":[1,0],"goal":10,"start":9,"action_noise":0.15,"location_history":"[9,8,7,1,2,3,9,8,2,3,4,5,0,1,7,6,11,5,0,1,2,3,4,5,11,10]","action_history":"[0,0,0,0,0,1,0,0,0,0,0,0,1,1,0,0,0,0,0,0,1,0,0,1,0]","door_history":"[1,1,1,1,1,0,1,1,1,1,1,1,0,0,1,1,1,1,1,1,0,1,1,0,1]","location_rts":"[1292,256,290,88,197,23,173,2780,225,136,186,353,29,97,201,147,214,137,202,180,97,124,215,153,204]","trial_type":"two-door-navigation","trial_index":4,"time_elapsed":309468,"internal_node_id":"0.0-2.0-2.0"},{"group":"dihedral group of order 12","room_assignment":["green","ivory","pink","grey","red","brown","blue","olive","orange","purple","yellow","cyan"],"door_color_assignment":["black","white"],"door_generator_assignment":[1,0],"goal":2,"start":10,"action_noise":0.15,"location_history":"[10,4,10,9,8,7,6,11,5,0,1,2]","action_history":"[0,1,0,0,0,0,0,1,0,0,0]","door_history":"[1,0,1,1,1,1,1,0,1,1,1]","location_rts":"[1095,442,219,332,219,217,96,137,157,76,126]","trial_type":"two-door-navigation","trial_index":5,"time_elapsed":327162,"internal_node_id":"0.0-2.0-3.0"},{"group":"dihedral group of order 12","room_assignment":["green","ivory","pink","grey","red","brown","blue","olive","orange","purple","yellow","cyan"],"door_color_assignment":["black","white"],"door_generator_assignment":[1,0],"goal":5,"start":2,"action_noise":0.15,"location_history":"[2,3,4,10,9,8,2,8,7,6,11,5]","action_history":"[0,0,1,0,0,1,0,0,0,0,1]","door_history":"[1,1,0,1,1,0,1,1,1,1,0]","location_rts":"[802,243,63,94,107,179,136,89,215,76,224]","trial_type":"two-door-navigation","trial_index":6,"time_elapsed":343972,"internal_node_id":"0.0-2.0-4.0"},{"group":"dihedral group of order 12","room_assignment":["green","ivory","pink","grey","red","brown","blue","olive","orange","purple","yellow","cyan"],"door_color_assignment":["black","white"],"door_generator_assignment":[1,0],"goal":11,"start":5,"action_noise":0.15,"location_history":"[5,0,1,2,8,7,1,2,3,9,8,7,6,11]","action_history":"[0,0,0,1,0,0,0,0,1,0,0,0,0]","door_history":"[1,1,1,0,1,1,1,1,0,1,1,1,1]","location_rts":"[870,500,14815,381,76,201,37,235,331,198,40,274,50]","trial_type":"two-door-navigation","trial_index":7,"time_elapsed":378571,"internal_node_id":"0.0-2.0-5.0"},{"group":"dihedral group of order 12","room_assignment":["green","ivory","pink","grey","red","brown","blue","olive","orange","purple","yellow","cyan"],"door_color_assignment":["black","white"],"door_generator_assignment":[1,0],"goal":6,"start":11,"action_noise":0.15,"location_history":"[11,10,4,5,0,6]","action_history":"[0,1,0,0,1]","door_history":"[1,0,1,1,0]","location_rts":"[1251,10,315,170,113]","trial_type":"two-door-navigation","trial_index":8,"time_elapsed":388965,"internal_node_id":"0.0-2.0-6.0"},{"group":"dihedral group of order 12","room_assignment":["green","ivory","pink","grey","red","brown","blue","olive","orange","purple","yellow","cyan"],"door_color_assignment":["black","white"],"door_generator_assignment":[1,0],"goal":3,"start":6,"action_noise":0.15,"location_history":"[6,11,5,11,5,0,6,11,10,4,5,0,1,7,1,2,3]","action_history":"[0,1,0,0,0,1,0,0,1,0,0,0,1,0,0,0]","door_history":"[1,0,1,1,1,0,1,1,0,1,1,1,0,1,1,1]","location_rts":"[726,236,189,304,124,88,142,189,223,112,193,186,135,203,178,189]","trial_type":"two-door-navigation","trial_index":9,"time_elapsed":411995,"internal_node_id":"0.0-2.0-7.0"},{"group":"dihedral group of order 12","room_assignment":["green","ivory","pink","grey","red","brown","blue","olive","orange","purple","yellow","cyan"],"door_color_assignment":["black","white"],"door_generator_assignment":[1,0],"goal":8,"start":3,"action_noise":0.15,"location_history":"[3,4,5,11,10,4,10,9,8]","action_history":"[0,0,1,0,0,1,0,0]","door_history":"[1,1,0,1,1,0,1,1]","location_rts":"[1028,118,297,138,234,153,140,205]","trial_type":"two-door-navigation","trial_index":10,"time_elapsed":425871,"internal_node_id":"0.0-2.0-8.0"},{"group":"dihedral group of order 12","room_assignment":["green","ivory","pink","grey","red","brown","blue","olive","orange","purple","yellow","cyan"],"door_color_assignment":["black","white"],"door_generator_assignment":[1,0],"goal":1,"start":8,"action_noise":0.15,"location_history":"[8,7,6,0,1]","action_history":"[0,0,1,0]","door_history":"[1,1,0,1]","location_rts":"[539,234,338,129]","trial_type":"two-door-navigation","trial_index":11,"time_elapsed":434644,"internal_node_id":"0.0-2.0-9.0"},{"group":"dihedral group of order 12","room_assignment":["green","ivory","pink","grey","red","brown","blue","olive","orange","purple","yellow","cyan"],"door_color_assignment":["black","white"],"door_generator_assignment":[1,0],"goal":7,"start":1,"action_noise":0.15,"location_history":"[1,7]","action_history":"[0]","door_history":"[1]","location_rts":"[688]","trial_type":"two-door-navigation","trial_index":12,"time_elapsed":439843,"internal_node_id":"0.0-2.0-10.0"},{"group":"dihedral group of order 12","room_assignment":["green","ivory","pink","grey","red","brown","blue","olive","orange","purple","yellow","cyan"],"door_color_assignment":["black","white"],"door_generator_assignment":[1,0],"goal":5,"start":7,"action_noise":0.15,"location_history":"[7,6,0,6,11,10,9,8,2,3,4,5]","action_history":"[0,1,0,0,1,0,0,1,0,0,1]","door_history":"[1,0,1,1,0,1,1,0,1,1,0]","location_rts":"[585,193,338,28,20,97,352,346,286,23,334]","trial_type":"two-door-navigation","trial_index":13,"time_elapsed":457033,"internal_node_id":"0.0-2.0-11.0"},{"group":"dihedral group of order 12","room_assignment":["green","ivory","pink","grey","red","brown","blue","olive","orange","purple","yellow","cyan"],"door_color_assignment":["black","white"],"door_generator_assignment":[1,0],"goal":8,"start":5,"action_noise":0.15,"location_history":"[5,0,6,11,10,4,5,0,6,11,10,4,5,0,6,11,10,4,5,11,10,4,5,11,5,11,10,4,10,9,8]","action_history":"[0,1,0,0,1,0,0,1,0,0,1,0,0,1,0,0,1,0,1,0,1,0,0,1,0,0,1,0,0,0]","door_history":"[1,0,1,1,0,1,1,0,1,1,0,1,1,0,1,1,0,1,0,1,0,1,1,0,1,1,0,1,1,1]","location_rts":"[576,42,47,83,124,210,315,176,214,118,129,134,133,61,109,158,47,111,3552,4446,30,199,105,132,164,121,185,140,307,118]","trial_type":"two-door-navigation","trial_index":14,"time_elapsed":503054,"internal_node_id":"0.0-2.0-12.0"},{"group":"dihedral group of order 12","room_assignment":["green","ivory","pink","grey","red","brown","blue","olive","orange","purple","yellow","cyan"],"door_color_assignment":["black","white"],"door_generator_assignment":[1,0],"goal":11,"start":8,"action_noise":0.15,"location_history":"[8,7,1,2,8,7,1,2,8,2,8,7,6,11]","action_history":"[0,1,0,0,0,1,0,0,0,1,0,0,0]","door_history":"[1,0,1,1,1,0,1,1,1,0,1,1,1]","location_rts":"[472,217,114,119,17,230,291,163,56,51,155,90,137]","trial_type":"two-door-navigation","trial_index":15,"time_elapsed":521759,"internal_node_id":"0.0-2.0-13.0"},{"group":"dihedral group of order 12","room_assignment":["green","ivory","pink","grey","red","brown","blue","olive","orange","purple","yellow","cyan"],"door_color_assignment":["black","white"],"door_generator_assignment":[1,0],"goal":6,"start":11,"action_noise":0.15,"location_history":"[11,5,11,10,9,3,4,5,0,1,2,3,4,10,9,8,7,1,2,3,4,10,9,8,2,3,9,8,7,6]","action_history":"[0,1,0,0,1,0,0,0,1,0,0,0,1,0,0,0,1,0,0,0,1,0,0,0,0,0,0,0,0]","door_history":"[1,0,1,1,0,1,1,1,0,1,1,1,0,1,1,1,0,1,1,1,0,1,1,1,1,1,1,1,1]","location_rts":"[324,102,155,163,183,74,92,34,54,44,21,147,94,79,170,26,65,92,2,10,67,42,52,135,125,257,30,173,73]","trial_type":"two-door-navigation","trial_index":16,"time_elapsed":557373,"internal_node_id":"0.0-2.0-14.0"},{"group":"dihedral group of order 12","room_assignment":["green","ivory","pink","grey","red","brown","blue","olive","orange","purple","yellow","cyan"],"door_color_assignment":["black","white"],"door_generator_assignment":[1,0],"goal":7,"start":6,"action_noise":0.15,"location_history":"[6,11,10,9,8,2,3,4,10,4,5,11,10,4,10,9,8,2,3,4,5,11,10,4,5,0,1,7]","action_history":"[0,0,0,0,0,0,0,0,0,0,1,0,0,1,0,0,1,0,0,0,0,0,0,0,0,0,0]","door_history":"[1,1,1,1,1,1,1,1,1,1,0,1,1,0,1,1,0,1,1,1,1,1,1,1,1,1,1]","location_rts":"[281,159,118,154,50,21,186,20,99,116,130,101,123,416,128,21,117,103,138,165,52,57,91,94,59,176,22]","trial_type":"two-door-navigation","trial_index":17,"time_elapsed":591255,"internal_node_id":"0.0-2.0-15.0"},{"group":"dihedral group of order 12","room_assignment":["green","ivory","pink","grey","red","brown","blue","olive","orange","purple","yellow","cyan"],"door_color_assignment":["black","white"],"door_generator_assignment":[1,0],"goal":10,"start":7,"action_noise":0.15,"location_history":"[7,6,11,5,11,10]","action_history":"[0,0,1,1,0]","door_history":"[1,1,0,0,1]","location_rts":"[586,262,149,2822,36]","trial_type":"two-door-navigation","trial_index":18,"time_elapsed":603650,"internal_node_id":"0.0-2.0-16.0"},{"group":"dihedral group of order 12","room_assignment":["green","ivory","pink","grey","red","brown","blue","olive","orange","purple","yellow","cyan"],"door_color_assignment":["black","white"],"door_generator_assignment":[1,0],"goal":0,"start":10,"action_noise":0.15,"location_history":"[10,9,8,7,1,2,8,7,6,11,10,4,5,0]","action_history":"[0,0,0,1,0,0,0,0,0,0,0,0,0]","door_history":"[1,1,1,0,1,1,1,1,1,1,1,1,1]","location_rts":"[281,12,125,113,145,368,116,41,38,37,51,44,58]","trial_type":"two-door-navigation","trial_index":19,"time_elapsed":621664,"internal_node_id":"0.0-2.0-17.0"},{"group":"dihedral group of order 12","room_assignment":["green","ivory","pink","grey","red","brown","blue","olive","orange","purple","yellow","cyan"],"door_color_assignment":["black","white"],"door_generator_assignment":[1,0],"goal":9,"start":0,"action_noise":0.15,"location_history":"[0,1,2,3,4,10,9]","action_history":"[0,0,0,0,0,0]","door_history":"[1,1,1,1,1,1]","location_rts":"[371,146,268,164,90,152]","trial_type":"two-door-navigation","trial_index":20,"time_elapsed":632409,"internal_node_id":"0.0-2.0-18.0"},{"group":"dihedral group of order 12","room_assignment":["green","ivory","pink","grey","red","brown","blue","olive","orange","purple","yellow","cyan"],"door_color_assignment":["black","white"],"door_generator_assignment":[1,0],"goal":4,"start":9,"action_noise":0.15,"location_history":"[9,8,7,1,2,3,4]","action_history":"[0,0,1,0,0,0]","door_history":"[1,1,0,1,1,1]","location_rts":"[271,183,70,105,72,109]","trial_type":"two-door-navigation","trial_index":21,"time_elapsed":642769,"internal_node_id":"0.0-2.0-19.0"},{"group":"dihedral group of order 12","room_assignment":["green","ivory","pink","grey","red","brown","blue","olive","orange","purple","yellow","cyan"],"door_color_assignment":["black","white"],"door_generator_assignment":[1,0],"goal":2,"start":4,"action_noise":0.15,"location_history":"[4,10,9,8,7,6,11,10,9,8,7,6,0,6,11,10,9,8,7,6,0,1,2]","action_history":"[1,0,0,0,0,0,0,0,0,0,0,1,0,0,0,0,0,0,0,1,0,1]","door_history":"[0,1,1,1,1,1,1,1,1,1,1,0,1,1,1,1,1,1,1,0,1,0]","location_rts":"[1379,106,157,31,166,233,156,338,113,388,2,219,164,135,86,141,85,33,112,75,119,145]","trial_type":"two-door-navigation","trial_index":22,"time_elapsed":672815,"internal_node_id":"0.0-2.0-20.0"},{"group":"dihedral group of order 12","room_assignment":["green","ivory","pink","grey","red","brown","blue","olive","orange","purple","yellow","cyan"],"door_color_assignment":["black","white"],"door_generator_assignment":[1,0],"goal":1,"start":2,"action_noise":0.15,"location_history":"[2,3,4,5,0,1]","action_history":"[0,0,0,0,0]","door_history":"[1,1,1,1,1]","location_rts":"[800,62,9,3,438]","trial_type":"two-door-navigation","trial_index":23,"time_elapsed":682665,"internal_node_id":"0.0-2.0-21.0"},{"group":"dihedral group of order 12","room_assignment":["green","ivory","pink","grey","red","brown","blue","olive","orange","purple","yellow","cyan"],"door_color_assignment":["black","white"],"door_generator_assignment":[1,0],"goal":3,"start":1,"action_noise":0.15,"location_history":"[1,2,3]","action_history":"[0,0]","door_history":"[1,1]","location_rts":"[445,229]","trial_type":"two-door-navigation","trial_index":24,"time_elapsed":688859,"internal_node_id":"0.0-2.0-22.0"},{"group":"dihedral group of order 12","room_assignment":["green","ivory","pink","grey","red","brown","blue","olive","orange","purple","yellow","cyan"],"door_color_assignment":["black","white"],"door_generator_assignment":[1,0],"goal":7,"start":3,"action_noise":0.15,"location_history":"[3,9,8,2,3,9,8,7]","action_history":"[1,0,0,0,0,0,0]","door_history":"[0,1,1,1,1,1,1]","location_rts":"[560,6,288,144,162,230,85]","trial_type":"two-door-navigation","trial_index":25,"time_elapsed":700890,"internal_node_id":"0.0-2.0-23.0"},{"group":"dihedral group of order 12","room_assignment":["green","ivory","pink","grey","red","brown","blue","olive","orange","purple","yellow","cyan"],"door_color_assignment":["black","white"],"door_generator_assignment":[1,0],"goal":6,"start":7,"action_noise":0.15,"location_history":"[7,6]","action_history":"[0]","door_history":"[1]","location_rts":"[470]","trial_type":"two-door-navigation","trial_index":26,"time_elapsed":705874,"internal_node_id":"0.0-2.0-24.0"},{"group":"dihedral group of order 12","room_assignment":["green","ivory","pink","grey","red","brown","blue","olive","orange","purple","yellow","cyan"],"door_color_assignment":["black","white"],"door_generator_assignment":[1,0],"goal":2,"start":6,"action_noise":0.15,"location_history":"[6,11,5,0,1,2]","action_history":"[0,1,0,0,0]","door_history":"[1,0,1,1,1]","location_rts":"[429,61,71,149,50]","trial_type":"two-door-navigation","trial_index":27,"time_elapsed":715181,"internal_node_id":"0.0-2.0-25.0"},{"group":"dihedral group of order 12","room_assignment":["green","ivory","pink","grey","red","brown","blue","olive","orange","purple","yellow","cyan"],"door_color_assignment":["black","white"],"door_generator_assignment":[1,0],"goal":8,"start":2,"action_noise":0.15,"location_history":"[2,8]","action_history":"[1]","door_history":"[0]","location_rts":"[549]","trial_type":"two-door-navigation","trial_index":28,"time_elapsed":720244,"internal_node_id":"0.0-2.0-26.0"},{"group":"dihedral group of order 12","room_assignment":["green","ivory","pink","grey","red","brown","blue","olive","orange","purple","yellow","cyan"],"door_color_assignment":["black","white"],"door_generator_assignment":[1,0],"goal":0,"start":8,"action_noise":0.15,"location_history":"[8,7,1,2,8,7,6,11,10,4,5,0]","action_history":"[0,1,0,1,0,0,0,0,1,0,0]","door_history":"[1,0,1,0,1,1,1,1,0,1,1]","location_rts":"[321,353,188,195,177,165,727,51,6,58,63]","trial_type":"two-door-navigation","trial_index":29,"time_elapsed":737131,"internal_node_id":"0.0-2.0-27.0"},{"group":"dihedral group of order 12","room_assignment":["green","ivory","pink","grey","red","brown","blue","olive","orange","purple","yellow","cyan"],"door_color_assignment":["black","white"],"door_generator_assignment":[1,0],"goal":3,"start":0,"action_noise":0.15,"location_history":"[0,1,2,8,7,6,0,1,2,8,2,3]","action_history":"[0,1,0,0,0,1,0,0,1,0,0]","door_history":"[1,0,1,1,1,0,1,1,0,1,1]","location_rts":"[347,366,131,200,173,37,101,12,138,93,160]","trial_type":"two-door-navigation","trial_index":30,"time_elapsed":753472,"internal_node_id":"0.0-2.0-28.0"},{"group":"dihedral group of order 12","room_assignment":["green","ivory","pink","grey","red","brown","blue","olive","orange","purple","yellow","cyan"],"door_color_assignment":["black","white"],"door_generator_assignment":[1,0],"goal":4,"start":3,"action_noise":0.15,"location_history":"[3,4]","action_history":"[0]","door_history":"[1]","location_rts":"[368]","trial_type":"two-door-navigation","trial_index":31,"time_elapsed":758351,"internal_node_id":"0.0-2.0-29.0"},{"group":"dihedral group of order 12","room_assignment":["green","ivory","pink","grey","red","brown","blue","olive","orange","purple","yellow","cyan"],"door_color_assignment":["black","white"],"door_generator_assignment":[1,0],"goal":10,"start":4,"action_noise":0.15,"location_history":"[4,5,0,6,11,5,0,1,7,6,11,10]","action_history":"[0,0,1,0,0,0,0,1,0,0,0]","door_history":"[1,1,0,1,1,1,1,0,1,1,1]","location_rts":"[747,26,144,136,149,158,143,271,19,316,245]","trial_type":"two-door-navigation","trial_index":32,"time_elapsed":775289,"internal_node_id":"0.0-2.0-30.0"},{"group":"dihedral group of order 12","room_assignment":["green","ivory","pink","grey","red","brown","blue","olive","orange","purple","yellow","cyan"],"door_color_assignment":["black","white"],"door_generator_assignment":[1,0],"goal":11,"start":10,"action_noise":0.15,"location_history":"[10,4,5,0,6,11]","action_history":"[1,0,0,1,0]","door_history":"[0,1,1,0,1]","location_rts":"[2974,563,378,17,158]","trial_type":"two-door-navigation","trial_index":33,"time_elapsed":787919,"internal_node_id":"0.0-2.0-31.0"},{"group":"dihedral group of order 12","room_assignment":["green","ivory","pink","grey","red","brown","blue","olive","orange","purple","yellow","cyan"],"door_color_assignment":["black","white"],"door_generator_assignment":[1,0],"goal":1,"start":11,"action_noise":0.15,"location_history":"[11,5,0,1]","action_history":"[1,0,0]","door_history":"[0,1,1]","location_rts":"[581,378,246]","trial_type":"two-door-navigation","trial_index":34,"time_elapsed":795642,"internal_node_id":"0.0-2.0-32.0"},{"group":"dihedral group of order 12","room_assignment":["green","ivory","pink","grey","red","brown","blue","olive","orange","purple","yellow","cyan"],"door_color_assignment":["black","white"],"door_generator_assignment":[1,0],"goal":5,"start":1,"action_noise":0.15,"location_history":"[1,7,1,2,3,9,8,7,6,0,1,2,3,9,8,7,6,0,1,2,3,4,5]","action_history":"[0,1,0,0,1,0,0,0,1,0,0,0,1,0,0,0,1,0,0,0,0,0]","door_history":"[1,0,1,1,0,1,1,1,0,1,1,1,0,1,1,1,0,1,1,1,1,1]","location_rts":"[87,520,44,92,117,67,34,234,90,221,155,242,24,576,382,534,364,566,155,68,151,46]","trial_type":"two-door-navigation","trial_index":35,"time_elapsed":826062,"internal_node_id":"0.0-2.0-33.0"},{"group":"dihedral group of order 12","room_assignment":["green","ivory","pink","grey","red","brown","blue","olive","orange","purple","yellow","cyan"],"door_color_assignment":["black","white"],"door_generator_assignment":[1,0],"goal":9,"start":5,"action_noise":0.15,"location_history":"[5,11,10,4,5,11,10,9]","action_history":"[0,0,1,0,1,0,0]","door_history":"[1,1,0,1,0,1,1]","location_rts":"[463,317,155,89,96,339,50]","trial_type":"two-door-navigation","trial_index":36,"time_elapsed":838130,"internal_node_id":"0.0-2.0-34.0"},{"view_history":"[{\"page_index\":0,\"viewing_time\":3921}]","rt":3922,"trial_type":"instructions","trial_index":37,"time_elapsed":843053,"internal_node_id":"0.0-3.0"},{"view_history":"[{\"page_index\":0,\"viewing_time\":152649},{\"page_index\":1,\"viewing_time\":25247}]","rt":177897,"trial_type":"instructions","trial_index":38,"time_elapsed":1021951,"internal_node_id":"0.0-4.0"},{"group":"dicyclic group of order 12","fractal_assignment":["../images/ylw_pnk.png","../images/grn_red.png","../images/cyn_red.png","../images/grn_blu.png","../images/ylw_slt.png","../images/pnk_blu.png","../images/blu_wht.png","../images/gry_blk.png","../images/org_blu.png","../images/grn_prp.png","../images/wht_red.png","../images/red_prp.png"],"mutagen_generator_assignment":[0,1],"goal":4,"start":0,"action_noise":0.15,"location_history":"[0,4]","action_history":"[0]","mutagen_history":"[0]","location_rts":"[2615]","trial_type":"fractal-mutation","trial_index":39,"time_elapsed":1029104,"internal_node_id":"0.0-5.0-0.0"},{"group":"dicyclic group of order 12","fractal_assignment":["../images/ylw_pnk.png","../images/grn_red.png","../images/cyn_red.png","../images/grn_blu.png","../images/ylw_slt.png","../images/pnk_blu.png","../images/blu_wht.png","../images/gry_blk.png","../images/org_blu.png","../images/grn_prp.png","../images/wht_red.png","../images/red_prp.png"],"mutagen_generator_assignment":[0,1],"goal":9,"start":4,"action_noise":0.15,"location_history":"[4,9]","action_history":"[0]","mutagen_history":"[0]","location_rts":"[313]","trial_type":"fractal-mutation","trial_index":40,"time_elapsed":1033940,"internal_node_id":"0.0-5.0-1.0"},{"group":"dicyclic group of order 12","fractal_assignment":["../images/ylw_pnk.png","../images/grn_red.png","../images/cyn_red.png","../images/grn_blu.png","../images/ylw_slt.png","../images/pnk_blu.png","../images/blu_wht.png","../images/gry_blk.png","../images/org_blu.png","../images/grn_prp.png","../images/wht_red.png","../images/red_prp.png"],"mutagen_generator_assignment":[0,1],"goal":10,"start":9,"action_noise":0.15,"location_history":"[9,1,5,10]","action_history":"[1,1,0]","mutagen_history":"[1,1,0]","location_rts":"[613,42,15]","trial_type":"fractal-mutation","trial_index":41,"time_elapsed":1041207,"internal_node_id":"0.0-5.0-2.0"},{"group":"dicyclic group of order 12","fractal_assignment":["../images/ylw_pnk.png","../images/grn_red.png","../images/cyn_red.png","../images/grn_blu.png","../images/ylw_slt.png","../images/pnk_blu.png","../images/blu_wht.png","../images/gry_blk.png","../images/org_blu.png","../images/grn_prp.png","../images/wht_red.png","../images/red_prp.png"],"mutagen_generator_assignment":[0,1],"goal":2,"start":10,"action_noise":0.15,"location_history":"[10,2]","action_history":"[1]","mutagen_history":"[1]","location_rts":"[281]","trial_type":"fractal-mutation","trial_index":42,"time_elapsed":1046019,"internal_node_id":"0.0-5.0-3.0"},{"group":"dicyclic group of order 12","fractal_assignment":["../images/ylw_pnk.png","../images/grn_red.png","../images/cyn_red.png","../images/grn_blu.png","../images/ylw_slt.png","../images/pnk_blu.png","../images/blu_wht.png","../images/gry_blk.png","../images/org_blu.png","../images/grn_prp.png","../images/wht_red.png","../images/red_prp.png"],"mutagen_generator_assignment":[0,1],"goal":5,"start":2,"action_noise":0.15,"location_history":"[2,6,11,3,7,8,5]","action_history":"[1,0,1,1,0,0]","mutagen_history":"[1,0,1,1,0,0]","location_rts":"[168,189,61,144,67,32]","trial_type":"fractal-mutation","trial_index":43,"time_elapsed":1056340,"internal_node_id":"0.0-5.0-4.0"},{"group":"dicyclic group of order 12","fractal_assignment":["../images/ylw_pnk.png","../images/grn_red.png","../images/cyn_red.png","../images/grn_blu.png","../images/ylw_slt.png","../images/pnk_blu.png","../images/blu_wht.png","../images/gry_blk.png","../images/org_blu.png","../images/grn_prp.png","../images/wht_red.png","../images/red_prp.png"],"mutagen_generator_assignment":[0,1],"goal":11,"start":5,"action_noise":0.15,"location_history":"[5,9,6,10,2,3,0,1,5,9,6,11]","action_history":"[1,0,0,1,1,0,0,1,1,0,0]","mutagen_history":"[1,0,0,1,1,0,0,1,1,0,0]","location_rts":"[209,232,52,49,52,79,101,49,10,154,195]","trial_type":"fractal-mutation","trial_index":44,"time_elapsed":1072271,"internal_node_id":"0.0-5.0-5.0"},{"group":"dicyclic group of order 12","fractal_assignment":["../images/ylw_pnk.png","../images/grn_red.png","../images/cyn_red.png","../images/grn_blu.png","../images/ylw_slt.png","../images/pnk_blu.png","../images/blu_wht.png","../images/gry_blk.png","../images/org_blu.png","../images/grn_prp.png","../images/wht_red.png","../images/red_prp.png"],"mutagen_generator_assignment":[0,1],"goal":6,"start":11,"action_noise":0.15,"location_history":"[11,3,0,1,2,6]","action_history":"[1,1,0,0,1]","mutagen_history":"[1,1,0,0,1]","location_rts":"[229,273,88,44,2]","trial_type":"fractal-mutation","trial_index":45,"time_elapsed":1081553,"internal_node_id":"0.0-5.0-6.0"},{"group":"dicyclic group of order 12","fractal_assignment":["../images/ylw_pnk.png","../images/grn_red.png","../images/cyn_red.png","../images/grn_blu.png","../images/ylw_slt.png","../images/pnk_blu.png","../images/blu_wht.png","../images/gry_blk.png","../images/org_blu.png","../images/grn_prp.png","../images/wht_red.png","../images/red_prp.png"],"mutagen_generator_assignment":[0,1],"goal":3,"start":6,"action_noise":0.15,"location_history":"[6,10,7,8,5,10,2,6,11,3]","action_history":"[1,0,1,1,0,0,1,0,1]","mutagen_history":"[1,0,1,1,0,0,1,0,1]","location_rts":"[151,88,145,100,77,118,54,85,62]","trial_type":"fractal-mutation","trial_index":46,"time_elapsed":1095168,"internal_node_id":"0.0-5.0-7.0"},{"group":"dicyclic group of order 12","fractal_assignment":["../images/ylw_pnk.png","../images/grn_red.png","../images/cyn_red.png","../images/grn_blu.png","../images/ylw_slt.png","../images/pnk_blu.png","../images/blu_wht.png","../images/gry_blk.png","../images/org_blu.png","../images/grn_prp.png","../images/wht_red.png","../images/red_prp.png"],"mutagen_generator_assignment":[0,1],"goal":8,"start":3,"action_noise":0.15,"location_history":"[3,0,1,5,10,2,3,0,4,9,1,5,9,6,11,4,8]","action_history":"[0,0,1,0,1,0,1,1,0,1,1,1,0,0,0,0]","mutagen_history":"[0,0,1,0,1,0,1,1,0,1,1,1,0,0,0,0]","location_rts":"[91,225,102,76,89,43,121,160,233,118,16,103,121,44,131,78]","trial_type":"fractal-mutation","trial_index":47,"time_elapsed":1116846,"internal_node_id":"0.0-5.0-8.0"},{"group":"dicyclic group of order 12","fractal_assignment":["../images/ylw_pnk.png","../images/grn_red.png","../images/cyn_red.png","../images/grn_blu.png","../images/ylw_slt.png","../images/pnk_blu.png","../images/blu_wht.png","../images/gry_blk.png","../images/org_blu.png","../images/grn_prp.png","../images/wht_red.png","../images/red_prp.png"],"mutagen_generator_assignment":[0,1],"goal":1,"start":8,"action_noise":0.15,"location_history":"[8,0,4,9,6,10,2,6,11,3,7,11,4,9,1]","action_history":"[1,1,0,0,1,0,1,0,0,1,1,0,0,1]","mutagen_history":"[1,1,0,0,1,0,1,0,0,1,1,0,0,1]","location_rts":"[320,1,168,37,108,87,17,7,126,97,23,31,152,57]","trial_type":"fractal-mutation","trial_index":48,"time_elapsed":1135920,"internal_node_id":"0.0-5.0-9.0"},{"group":"dicyclic group of order 12","fractal_assignment":["../images/ylw_pnk.png","../images/grn_red.png","../images/cyn_red.png","../images/grn_blu.png","../images/ylw_slt.png","../images/pnk_blu.png","../images/blu_wht.png","../images/gry_blk.png","../images/org_blu.png","../images/grn_prp.png","../images/wht_red.png","../images/red_prp.png"],"mutagen_generator_assignment":[0,1],"goal":7,"start":1,"action_noise":0.15,"location_history":"[1,5,9,1,2,3,7]","action_history":"[1,1,1,0,0,1]","mutagen_history":"[1,1,1,0,0,1]","location_rts":"[66,36,172,494,216,132]","trial_type":"fractal-mutation","trial_index":49,"time_elapsed":1146697,"internal_node_id":"0.0-5.0-10.0"},{"group":"dicyclic group of order 12","fractal_assignment":["../images/ylw_pnk.png","../images/grn_red.png","../images/cyn_red.png","../images/grn_blu.png","../images/ylw_slt.png","../images/pnk_blu.png","../images/blu_wht.png","../images/gry_blk.png","../images/org_blu.png","../images/grn_prp.png","../images/wht_red.png","../images/red_prp.png"],"mutagen_generator_assignment":[0,1],"goal":5,"start":7,"action_noise":0.15,"location_history":"[7,11,4,9,1,2,6,10,2,6,11,3,0,4,9,1,2,6,10,2,6,10,7,11,4,8,5]","action_history":"[1,0,0,1,0,1,0,1,1,0,1,0,1,0,1,0,1,1,1,1,1,0,1,0,1,0]","mutagen_history":"[1,0,0,1,0,1,0,1,1,0,1,0,1,0,1,0,1,1,1,1,1,0,1,0,1,0]","location_rts":"[539,143,157,114,71,85,97,1,35,83,25,124,4,257,222,87,104,134,49,82,107,294,160,215,48,85]","trial_type":"fractal-mutation","trial_index":50,"time_elapsed":1180133,"internal_node_id":"0.0-5.0-11.0"},{"group":"dicyclic group of order 12","fractal_assignment":["../images/ylw_pnk.png","../images/grn_red.png","../images/cyn_red.png","../images/grn_blu.png","../images/ylw_slt.png","../images/pnk_blu.png","../images/blu_wht.png","../images/gry_blk.png","../images/org_blu.png","../images/grn_prp.png","../images/wht_red.png","../images/red_prp.png"],"mutagen_generator_assignment":[0,1],"goal":8,"start":5,"action_noise":0.15,"location_history":"[5,9,6,11,4,8]","action_history":"[1,1,0,0,1]","mutagen_history":"[1,1,0,0,1]","location_rts":"[7582,13,73,116,9]","trial_type":"fractal-mutation","trial_index":51,"time_elapsed":1196540,"internal_node_id":"0.0-5.0-12.0"},{"group":"dicyclic group of order 12","fractal_assignment":["../images/ylw_pnk.png","../images/grn_red.png","../images/cyn_red.png","../images/grn_blu.png","../images/ylw_slt.png","../images/pnk_blu.png","../images/blu_wht.png","../images/gry_blk.png","../images/org_blu.png","../images/grn_prp.png","../images/wht_red.png","../images/red_prp.png"],"mutagen_generator_assignment":[0,1],"goal":11,"start":8,"action_noise":0.15,"location_history":"[8,5,9,6,10,2,3,7,8,5,10,7,11]","action_history":"[0,1,0,1,1,1,1,0,0,1,0,1]","mutagen_history":"[0,1,0,1,1,1,1,0,0,1,0,1]","location_rts":"[108,62,203,318,4780,57,13,29,127,197,229,30]","trial_type":"fractal-mutation","trial_index":52,"time_elapsed":1218438,"internal_node_id":"0.0-5.0-13.0"},{"group":"dicyclic group of order 12","fractal_assignment":["../images/ylw_pnk.png","../images/grn_red.png","../images/cyn_red.png","../images/grn_blu.png","../images/ylw_slt.png","../images/pnk_blu.png","../images/blu_wht.png","../images/gry_blk.png","../images/org_blu.png","../images/grn_prp.png","../images/wht_red.png","../images/red_prp.png"],"mutagen_generator_assignment":[0,1],"goal":6,"start":11,"action_noise":0.15,"location_history":"[11,3,0,1,2,3,0,1,5,9,6]","action_history":"[1,0,0,0,0,0,1,1,1,0]","mutagen_history":"[1,0,0,0,0,0,1,1,1,0]","location_rts":"[123,387,312,563,58,29,69,105,41,37]","trial_type":"fractal-mutation","trial_index":53,"time_elapsed":1233850,"internal_node_id":"0.0-5.0-14.0"},{"group":"dicyclic group of order 12","fractal_assignment":["../images/ylw_pnk.png","../images/grn_red.png","../images/cyn_red.png","../images/grn_blu.png","../images/ylw_slt.png","../images/pnk_blu.png","../images/blu_wht.png","../images/gry_blk.png","../images/org_blu.png","../images/grn_prp.png","../images/wht_red.png","../images/red_prp.png"],"mutagen_generator_assignment":[0,1],"goal":7,"start":6,"action_noise":0.15,"location_history":"[6,10,7]","action_history":"[1,0]","mutagen_history":"[1,0]","location_rts":"[51,41]","trial_type":"fractal-mutation","trial_index":54,"time_elapsed":1239487,"internal_node_id":"0.0-5.0-15.0"},{"group":"dicyclic group of order 12","fractal_assignment":["../images/ylw_pnk.png","../images/grn_red.png","../images/cyn_red.png","../images/grn_blu.png","../images/ylw_slt.png","../images/pnk_blu.png","../images/blu_wht.png","../images/gry_blk.png","../images/org_blu.png","../images/grn_prp.png","../images/wht_red.png","../images/red_prp.png"],"mutagen_generator_assignment":[0,1],"goal":10,"start":7,"action_noise":0.15,"location_history":"[7,11,4,8,0,4,8,0,1,2,6,11,4,8,5,10]","action_history":"[1,0,1,1,0,1,1,0,0,1,0,0,1,0,0]","mutagen_history":"[1,0,1,1,0,1,1,0,0,1,0,0,1,0,0]","location_rts":"[29,73,10,15,22,35,126,51,101,2,113,167,167,114,233]","trial_type":"fractal-mutation","trial_index":55,"time_elapsed":1259585,"internal_node_id":"0.0-5.0-16.0"},{"group":"dicyclic group of order 12","fractal_assignment":["../images/ylw_pnk.png","../images/grn_red.png","../images/cyn_red.png","../images/grn_blu.png","../images/ylw_slt.png","../images/pnk_blu.png","../images/blu_wht.png","../images/gry_blk.png","../images/org_blu.png","../images/grn_prp.png","../images/wht_red.png","../images/red_prp.png"],"mutagen_generator_assignment":[0,1],"goal":0,"start":10,"action_noise":0.15,"location_history":"[10,7,8,0]","action_history":"[1,0,1]","mutagen_history":"[1,0,1]","location_rts":"[55,54,102]","trial_type":"fractal-mutation","trial_index":56,"time_elapsed":1266373,"internal_node_id":"0.0-5.0-17.0"},{"group":"dicyclic group of order 12","fractal_assignment":["../images/ylw_pnk.png","../images/grn_red.png","../images/cyn_red.png","../images/grn_blu.png","../images/ylw_slt.png","../images/pnk_blu.png","../images/blu_wht.png","../images/gry_blk.png","../images/org_blu.png","../images/grn_prp.png","../images/wht_red.png","../images/red_prp.png"],"mutagen_generator_assignment":[0,1],"goal":9,"start":0,"action_noise":0.15,"location_history":"[0,1,2,6,11,4,9]","action_history":"[1,0,1,0,0,1]","mutagen_history":"[1,0,1,0,0,1]","location_rts":"[4,89,88,82,73,5]","trial_type":"fractal-mutation","trial_index":57,"time_elapsed":1276351,"internal_node_id":"0.0-5.0-18.0"},{"group":"dicyclic group of order 12","fractal_assignment":["../images/ylw_pnk.png","../images/grn_red.png","../images/cyn_red.png","../images/grn_blu.png","../images/ylw_slt.png","../images/pnk_blu.png","../images/blu_wht.png","../images/gry_blk.png","../images/org_blu.png","../images/grn_prp.png","../images/wht_red.png","../images/red_prp.png"],"mutagen_generator_assignment":[0,1],"goal":4,"start":9,"action_noise":0.15,"location_history":"[9,6,11,4]","action_history":"[0,0,0]","mutagen_history":"[0,0,0]","location_rts":"[165,29,181]","trial_type":"fractal-mutation","trial_index":58,"time_elapsed":1283284,"internal_node_id":"0.0-5.0-19.0"},{"group":"dicyclic group of order 12","fractal_assignment":["../images/ylw_pnk.png","../images/grn_red.png","../images/cyn_red.png","../images/grn_blu.png","../images/ylw_slt.png","../images/pnk_blu.png","../images/blu_wht.png","../images/gry_blk.png","../images/org_blu.png","../images/grn_prp.png","../images/wht_red.png","../images/red_prp.png"],"mutagen_generator_assignment":[0,1],"goal":2,"start":4,"action_noise":0.15,"location_history":"[4,9,6,10,7,11,4,9,1,2]","action_history":"[0,0,1,0,0,0,1,1,0]","mutagen_history":"[0,0,1,0,0,0,1,1,0]","location_rts":"[5,73,116,25,18,3,12,48,73]","trial_type":"fractal-mutation","trial_index":59,"time_elapsed":1296349,"internal_node_id":"0.0-5.0-20.0"},{"group":"dicyclic group of order 12","fractal_assignment":["../images/ylw_pnk.png","../images/grn_red.png","../images/cyn_red.png","../images/grn_blu.png","../images/ylw_slt.png","../images/pnk_blu.png","../images/blu_wht.png","../images/gry_blk.png","../images/org_blu.png","../images/grn_prp.png","../images/wht_red.png","../images/red_prp.png"],"mutagen_generator_assignment":[0,1],"goal":1,"start":2,"action_noise":0.15,"location_history":"[2,3,0,4,8,5,9,6,11,4,8,0,4,9,1]","action_history":"[1,0,1,0,1,1,0,1,0,1,1,1,0,1]","mutagen_history":"[1,0,1,0,1,1,0,1,0,1,1,1,0,1]","location_rts":"[1283,2642,203,54,57,96,64,167,126,37,69,97,159,360]","trial_type":"fractal-mutation","trial_index":60,"time_elapsed":1319557,"internal_node_id":"0.0-5.0-21.0"},{"group":"dicyclic group of order 12","fractal_assignment":["../images/ylw_pnk.png","../images/grn_red.png","../images/cyn_red.png","../images/grn_blu.png","../images/ylw_slt.png","../images/pnk_blu.png","../images/blu_wht.png","../images/gry_blk.png","../images/org_blu.png","../images/grn_prp.png","../images/wht_red.png","../images/red_prp.png"],"mutagen_generator_assignment":[0,1],"goal":3,"start":1,"action_noise":0.15,"location_history":"[1,5,10,2,6,11,4,8,0,4,9,1,5,9,6,11,3]","action_history":"[0,0,1,0,0,0,1,1,1,1,1,1,1,0,0,0]","mutagen_history":"[0,0,1,0,0,0,1,1,1,1,1,1,1,0,0,0]","location_rts":"[352,69,12,93,372,116,242,191,20,120,119,100,144,368,18,35]","trial_type":"fractal-mutation","trial_index":61,"time_elapsed":1341795,"internal_node_id":"0.0-5.0-22.0"},{"group":"dicyclic group of order 12","fractal_assignment":["../images/ylw_pnk.png","../images/grn_red.png","../images/cyn_red.png","../images/grn_blu.png","../images/ylw_slt.png","../images/pnk_blu.png","../images/blu_wht.png","../images/gry_blk.png","../images/org_blu.png","../images/grn_prp.png","../images/wht_red.png","../images/red_prp.png"],"mutagen_generator_assignment":[0,1],"goal":7,"start":3,"action_noise":0.15,"location_history":"[3,0,4,8,0,4,8,5,9,1,2,3,0,1,5,10,7]","action_history":"[0,1,1,1,1,1,0,0,1,0,0,1,0,1,0,1]","mutagen_history":"[0,1,1,1,1,1,0,0,1,0,0,1,0,1,0,1]","location_rts":"[59,31,57,70,75,4036,15,37,28,55,74,31,102,112,106,33]","trial_type":"fractal-mutation","trial_index":62,"time_elapsed":1366662,"internal_node_id":"0.0-5.0-23.0"},{"group":"dicyclic group of order 12","fractal_assignment":["../images/ylw_pnk.png","../images/grn_red.png","../images/cyn_red.png","../images/grn_blu.png","../images/ylw_slt.png","../images/pnk_blu.png","../images/blu_wht.png","../images/gry_blk.png","../images/org_blu.png","../images/grn_prp.png","../images/wht_red.png","../images/red_prp.png"],"mutagen_generator_assignment":[0,1],"goal":6,"start":7,"action_noise":0.15,"location_history":"[7,8,0,1,5,10,2,3,0,4,8,5,10,7,8,5,10,2,6]","action_history":"[0,1,0,1,0,1,0,0,1,1,0,0,0,0,0,1,1,1]","mutagen_history":"[0,1,0,1,0,1,0,0,1,1,0,0,0,0,0,1,1,1]","location_rts":"[79,38,67,227,124,72,121,80,124,189,46,298,12,145,26,480,82,93]","trial_type":"fractal-mutation","trial_index":63,"time_elapsed":1390972,"internal_node_id":"0.0-5.0-24.0"},{"group":"dicyclic group of order 12","fractal_assignment":["../images/ylw_pnk.png","../images/grn_red.png","../images/cyn_red.png","../images/grn_blu.png","../images/ylw_slt.png","../images/pnk_blu.png","../images/blu_wht.png","../images/gry_blk.png","../images/org_blu.png","../images/grn_prp.png","../images/wht_red.png","../images/red_prp.png"],"mutagen_generator_assignment":[0,1],"goal":2,"start":6,"action_noise":0.15,"location_history":"[6,10,2]","action_history":"[1,1]","mutagen_history":"[1,1]","location_rts":"[162,182]","trial_type":"fractal-mutation","trial_index":64,"time_elapsed":1396888,"internal_node_id":"0.0-5.0-25.0"},{"group":"dicyclic group of order 12","fractal_assignment":["../images/ylw_pnk.png","../images/grn_red.png","../images/cyn_red.png","../images/grn_blu.png","../images/ylw_slt.png","../images/pnk_blu.png","../images/blu_wht.png","../images/gry_blk.png","../images/org_blu.png","../images/grn_prp.png","../images/wht_red.png","../images/red_prp.png"],"mutagen_generator_assignment":[0,1],"goal":8,"start":2,"action_noise":0.15,"location_history":"[2,6,10,2,3,0,4,8]","action_history":"[1,1,0,0,1,1,1]","mutagen_history":"[1,1,0,0,1,1,1]","location_rts":"[194,162,200,204,155,178,169]","trial_type":"fractal-mutation","trial_index":65,"time_elapsed":1408850,"internal_node_id":"0.0-5.0-26.0"},{"group":"dicyclic group of order 12","fractal_assignment":["../images/ylw_pnk.png","../images/grn_red.png","../images/cyn_red.png","../images/grn_blu.png","../images/ylw_slt.png","../images/pnk_blu.png","../images/blu_wht.png","../images/gry_blk.png","../images/org_blu.png","../images/grn_prp.png","../images/wht_red.png","../images/red_prp.png"],"mutagen_generator_assignment":[0,1],"goal":0,"start":8,"action_noise":0.15,"location_history":"[8,5,9,1,5,9,6,11,3,7,8,0]","action_history":"[1,1,1,1,1,1,0,1,1,0,1]","mutagen_history":"[1,1,1,1,1,1,0,1,1,0,1]","location_rts":"[32,160,213,229,205,197,1,189,193,198,217]","trial_type":"fractal-mutation","trial_index":66,"time_elapsed":1425434,"internal_node_id":"0.0-5.0-27.0"},{"group":"dicyclic group of order 12","fractal_assignment":["../images/ylw_pnk.png","../images/grn_red.png","../images/cyn_red.png","../images/grn_blu.png","../images/ylw_slt.png","../images/pnk_blu.png","../images/blu_wht.png","../images/gry_blk.png","../images/org_blu.png","../images/grn_prp.png","../images/wht_red.png","../images/red_prp.png"],"mutagen_generator_assignment":[0,1],"goal":3,"start":0,"action_noise":0.15,"location_history":"[0,4,9,1,2,3]","action_history":"[1,0,1,0,0]","mutagen_history":"[1,0,1,0,0]","location_rts":"[20,89,39,35,45]","trial_type":"fractal-mutation","trial_index":67,"time_elapsed":1434312,"internal_node_id":"0.0-5.0-28.0"},{"group":"dicyclic group of order 12","fractal_assignment":["../images/ylw_pnk.png","../images/grn_red.png","../images/cyn_red.png","../images/grn_blu.png","../images/ylw_slt.png","../images/pnk_blu.png","../images/blu_wht.png","../images/gry_blk.png","../images/org_blu.png","../images/grn_prp.png","../images/wht_red.png","../images/red_prp.png"],"mutagen_generator_assignment":[0,1],"goal":4,"start":3,"action_noise":0.15,"location_history":"[3,0,4]","action_history":"[1,1]","mutagen_history":"[1,1]","location_rts":"[74,41]","trial_type":"fractal-mutation","trial_index":68,"time_elapsed":1440008,"internal_node_id":"0.0-5.0-29.0"},{"group":"dicyclic group of order 12","fractal_assignment":["../images/ylw_pnk.png","../images/grn_red.png","../images/cyn_red.png","../images/grn_blu.png","../images/ylw_slt.png","../images/pnk_blu.png","../images/blu_wht.png","../images/gry_blk.png","../images/org_blu.png","../images/grn_prp.png","../images/wht_red.png","../images/red_prp.png"],"mutagen_generator_assignment":[0,1],"goal":10,"start":4,"action_noise":0.15,"location_history":"[4,9,1,2,6,10]","action_history":"[0,1,0,1,0]","mutagen_history":"[0,1,0,1,0]","location_rts":"[47,7,78,36,84]","trial_type":"fractal-mutation","trial_index":69,"time_elapsed":1448897,"internal_node_id":"0.0-5.0-30.0"},{"group":"dicyclic group of order 12","fractal_assignment":["../images/ylw_pnk.png","../images/grn_red.png","../images/cyn_red.png","../images/grn_blu.png","../images/ylw_slt.png","../images/pnk_blu.png","../images/blu_wht.png","../images/gry_blk.png","../images/org_blu.png","../images/grn_prp.png","../images/wht_red.png","../images/red_prp.png"],"mutagen_generator_assignment":[0,1],"goal":11,"start":10,"action_noise":0.15,"location_history":"[10,2,3,7,11]","action_history":"[1,0,0,1]","mutagen_history":"[1,0,0,1]","location_rts":"[51,68,128,136]","trial_type":"fractal-mutation","trial_index":70,"time_elapsed":1456892,"internal_node_id":"0.0-5.0-31.0"},{"group":"dicyclic group of order 12","fractal_assignment":["../images/ylw_pnk.png","../images/grn_red.png","../images/cyn_red.png","../images/grn_blu.png","../images/ylw_slt.png","../images/pnk_blu.png","../images/blu_wht.png","../images/gry_blk.png","../images/org_blu.png","../images/grn_prp.png","../images/wht_red.png","../images/red_prp.png"],"mutagen_generator_assignment":[0,1],"goal":1,"start":11,"action_noise":0.15,"location_history":"[11,4,9,1]","action_history":"[0,0,1]","mutagen_history":"[0,0,1]","location_rts":"[32,61,76]","trial_type":"fractal-mutation","trial_index":71,"time_elapsed":1463624,"internal_node_id":"0.0-5.0-32.0"},{"group":"dicyclic group of order 12","fractal_assignment":["../images/ylw_pnk.png","../images/grn_red.png","../images/cyn_red.png","../images/grn_blu.png","../images/ylw_slt.png","../images/pnk_blu.png","../images/blu_wht.png","../images/gry_blk.png","../images/org_blu.png","../images/grn_prp.png","../images/wht_red.png","../images/red_prp.png"],"mutagen_generator_assignment":[0,1],"goal":5,"start":1,"action_noise":0.15,"location_history":"[1,2,6,10,7,8,5]","action_history":"[0,1,1,1,0,0]","mutagen_history":"[0,1,1,1,0,0]","location_rts":"[38,158,41,41,91,21]","trial_type":"fractal-mutation","trial_index":72,"time_elapsed":1473696,"internal_node_id":"0.0-5.0-33.0"},{"group":"dicyclic group of order 12","fractal_assignment":["../images/ylw_pnk.png","../images/grn_red.png","../images/cyn_red.png","../images/grn_blu.png","../images/ylw_slt.png","../images/pnk_blu.png","../images/blu_wht.png","../images/gry_blk.png","../images/org_blu.png","../images/grn_prp.png","../images/wht_red.png","../images/red_prp.png"],"mutagen_generator_assignment":[0,1],"goal":9,"start":5,"action_noise":0.15,"location_history":"[5,10,2,6,10,7,11,3,0,4,8,0,1,2,6,11,4,8,0,1,5,10,2,6,11,4,9]","action_history":"[0,1,1,1,1,1,1,0,1,1,1,0,1,1,0,0,1,1,0,1,0,1,0,0,0,0]","mutagen_history":"[0,1,1,1,1,1,1,0,1,1,1,0,1,1,0,0,1,1,0,1,0,1,0,0,0,0]","location_rts":"[201,46,28,3,89,77,23,9,142,22,3,97,128,115,100,7,128,57,2,88,15,176,95,131,5,26]","trial_type":"fractal-mutation","trial_index":73,"time_elapsed":1505792,"internal_node_id":"0.0-5.0-34.0"},{"view_history":"[{\"page_index\":0,\"viewing_time\":6894}]","rt":6894,"trial_type":"instructions","trial_index":74,"time_elapsed":1513687,"internal_node_id":"0.0-6.0"},{"rt":7885,"responses":"{\"Q0\":\"a bit of long\"}","trial_type":"survey-text","trial_index":75,"time_elapsed":1522583,"internal_node_id":"0.0-7.0"}]