[{"view_history":"[{\"page_index\":0,\"viewing_time\":1499},{\"page_index\":1,\"viewing_time\":2100},{\"page_index\":2,\"viewing_time\":1282},{\"page_index\":1,\"viewing_time\":2501},{\"page_index\":2,\"viewing_time\":2724},{\"page_index\":3,\"viewing_time\":987},{\"page_index\":2,\"viewing_time\":6528},{\"page_index\":3,\"viewing_time\":10089}]","rt":27711,"trial_type":"instructions","trial_index":0,"time_elapsed":27712,"internal_node_id":"0.0-0.0"},{"view_history":"[{\"page_index\":0,\"viewing_time\":1877},{\"page_index\":1,\"viewing_time\":3147}]","rt":5024,"trial_type":"instructions","trial_index":1,"time_elapsed":33737,"internal_node_id":"0.0-1.0"},{"group":"dicyclic group of order 12","room_assignment":["blue","ivory","pink","purple","brown","red","cyan","grey","green","orange","olive","yellow"],"door_color_assignment":["white","black"],"door_generator_assignment":[0,1],"goal":4,"start":0,"action_noise":0.15,"location_history":"[0,1,2,3,0,4]","action_history":"[0,0,0,0,1]","door_history":"[0,0,0,0,1]","location_rts":"[39981,9808,7147,7240,7797]","trial_type":"two-door-navigation","trial_index":2,"time_elapsed":114302,"internal_node_id":"0.0-2.0-0.0"},{"group":"dicyclic group of order 12","room_assignment":["blue","ivory","pink","purple","brown","red","cyan","grey","green","orange","olive","yellow"],"door_color_assignment":["white","black"],"door_generator_assignment":[0,1],"goal":9,"start":4,"action_noise":0.15,"location_history":"[4,9]","action_history":"[0]","door_history":"[0]","location_rts":"[3822]","trial_type":"two-door-navigation","trial_index":3,"time_elapsed":122645,"internal_node_id":"0.0-2.0-1.0"},{"group":"dicyclic group of order 12","room_assignment":["blue","ivory","pink","purple","brown","red","cyan","grey","green","orange","olive","yellow"],"door_color_assignment":["white","black"],"door_generator_assignment":[0,1],"goal":10,"start":9,"action_noise":0.15,"location_history":"[9,6,10]","action_history":"[0,0]","door_history":"[0,0]","location_rts":"[7604,7842]","trial_type":"two-door-navigation","trial_index":4,"time_elapsed":143630,"internal_node_id":"0.0-2.0-2.0"},{"group":"dicyclic group of order 12","room_assignment":["blue","ivory","pink","purple","brown","red","cyan","grey","green","orange","olive","yellow"],"door_color_assignment":["white","black"],"door_generator_assignment":[0,1],"goal":2,"start":10,"action_noise":0.15,"location_history":"[10,7,8,5,10,7,11,4,8,0,4,9,1,2]","action_history":"[0,0,0,0,1,1,0,1,1,0,0,1,0]","door_history":"[0,0,0,0,1,1,0,1,1,0,0,1,0]","location_rts":"[6961,14024,7277,6782,9258,8428,8067,10750,13649,15075,10885,13474,4869]","trial_type":"two-door-navigation","trial_index":5,"time_elapsed":289863,"internal_node_id":"0.0-2.0-3.0"},{"group":"dicyclic group of order 12","room_assignment":["blue","ivory","pink","purple","brown","red","cyan","grey","green","orange","olive","yellow"],"door_color_assignment":["white","black"],"door_generator_assignment":[0,1],"goal":5,"start":2,"action_noise":0.15,"location_history":"[2,6,10,7,11,4,8,0,1,5]","action_history":"[1,1,0,1,1,1,0,0,1]","door_history":"[1,1,0,1,1,1,0,0,1]","location_rts":"[32496,9305,5719,4689,9273,4959,2506,2719,9141]","trial_type":"two-door-navigation","trial_index":6,"time_elapsed":383334,"internal_node_id":"0.0-2.0-4.0"},{"group":"dicyclic group of order 12","room_assignment":["blue","ivory","pink","purple","brown","red","cyan","grey","green","orange","olive","yellow"],"door_color_assignment":["white","black"],"door_generator_assignment":[0,1],"goal":11,"start":5,"action_noise":0.15,"location_history":"[5,9,1,2,3,7,11]","action_history":"[1,1,0,0,1,1]","door_history":"[1,1,0,0,1,1]","location_rts":"[6258,5010,4151,3043,5116,3452]","trial_type":"two-door-navigation","trial_index":7,"time_elapsed":419977,"internal_node_id":"0.0-2.0-5.0"},{"group":"dicyclic group of order 12","room_assignment":["blue","ivory","pink","purple","brown","red","cyan","grey","green","orange","olive","yellow"],"door_color_assignment":["white","black"],"door_generator_assignment":[0,1],"goal":6,"start":11,"action_noise":0.15,"location_history":"[11,3,7,11,3,0,1,5,9,6]","action_history":"[0,1,1,0,0,0,1,1,0]","door_history":"[0,1,1,0,0,0,1,1,0]","location_rts":"[12139,5889,48500,2149,4045,3266,2056,2421,2634]","trial_type":"two-door-navigation","trial_index":8,"time_elapsed":515746,"internal_node_id":"0.0-2.0-6.0"},{"group":"dicyclic group of order 12","room_assignment":["blue","ivory","pink","purple","brown","red","cyan","grey","green","orange","olive","yellow"],"door_color_assignment":["white","black"],"door_generator_assignment":[0,1],"goal":3,"start":6,"action_noise":0.15,"location_history":"[6,11,4,9,1,2,6,10,2,3]","action_history":"[1,0,0,1,1,1,0,1,0]","door_history":"[1,0,0,1,1,1,0,1,0]","location_rts":"[3394,15087,3346,1813,1955,1384,2747,3454,4009]","trial_type":"two-door-navigation","trial_index":9,"time_elapsed":565609,"internal_node_id":"0.0-2.0-7.0"},{"group":"dicyclic group of order 12","room_assignment":["blue","ivory","pink","purple","brown","red","cyan","grey","green","orange","olive","yellow"],"door_color_assignment":["white","black"],"door_generator_assignment":[0,1],"goal":8,"start":3,"action_noise":0.15,"location_history":"[3,0,1,5,9,1,2,3,0,1,5,10,2,6,10,7,11,4,9,1,2,6,10,2,3,0,1,2,3,0,1,5,9,1,2,6,10,7,11,3,0,1,2,6,11,3,0,4,8]","action_history":"[1,0,1,1,1,0,0,0,0,1,1,1,1,1,0,1,1,0,1,0,1,1,1,0,0,0,0,0,0,0,1,1,1,1,0,1,0,0,1,0,0,1,1,1,1,1,1,1]","door_history":"[1,0,1,1,1,0,0,0,0,1,1,1,1,1,0,1,1,0,1,0,1,1,1,0,0,0,0,0,0,0,1,1,1,1,0,1,0,0,1,0,0,1,1,1,1,1,1,1]","location_rts":"[12397,3117,10160,2059,2140,5497,3438,1361,2680,1264,2186,7746,2363,1159,2680,3631,741,297,78,109,204,309,229,187,212,241,167,29,254,545,319,537,1410,534,135,277,194,1935,1423,243,684,424,322,297,370,286,218,148]","trial_type":"two-door-navigation","trial_index":10,"time_elapsed":695240,"internal_node_id":"0.0-2.0-8.0"},{"group":"dicyclic group of order 12","room_assignment":["blue","ivory","pink","purple","brown","red","cyan","grey","green","orange","olive","yellow"],"door_color_assignment":["white","black"],"door_generator_assignment":[0,1],"goal":1,"start":8,"action_noise":0.15,"location_history":"[8,5,10,7,11,3,7,11,4,9,1]","action_history":"[0,0,0,1,1,1,1,0,0,1]","door_history":"[0,0,0,1,1,1,1,0,0,1]","location_rts":"[5403,427,1636,3998,2102,4370,1959,382,1988,3464]","trial_type":"two-door-navigation","trial_index":11,"time_elapsed":734664,"internal_node_id":"0.0-2.0-9.0"},{"group":"dicyclic group of order 12","room_assignment":["blue","ivory","pink","purple","brown","red","cyan","grey","green","orange","olive","yellow"],"door_color_assignment":["white","black"],"door_generator_assignment":[0,1],"goal":7,"start":1,"action_noise":0.15,"location_history":"[1,2,6,11,3,7]","action_history":"[0,1,0,1,1]","door_history":"[0,1,0,1,1]","location_rts":"[12296,433,328,274,2883]","trial_type":"two-door-navigation","trial_index":12,"time_elapsed":759466,"internal_node_id":"0.0-2.0-10.0"},{"group":"dicyclic group of order 12","room_assignment":["blue","ivory","pink","purple","brown","red","cyan","grey","green","orange","olive","yellow"],"door_color_assignment":["white","black"],"door_generator_assignment":[0,1],"goal":5,"start":7,"action_noise":0.15,"location_history":"[7,11,3,7,11,3,0,4,8,5]","action_history":"[1,0,1,0,0,0,1,1,0]","door_history":"[1,0,1,0,0,0,1,1,0]","location_rts":"[8236,291,59,348,321,371,303,291,310]","trial_type":"two-door-navigation","trial_index":13,"time_elapsed":782666,"internal_node_id":"0.0-2.0-11.0"},{"group":"dicyclic group of order 12","room_assignment":["blue","ivory","pink","purple","brown","red","cyan","grey","green","orange","olive","yellow"],"door_color_assignment":["white","black"],"door_generator_assignment":[0,1],"goal":8,"start":5,"action_noise":0.15,"location_history":"[5,9,6,11,4,9,6,11,4,8]","action_history":"[1,0,0,1,0,0,1,0,1]","door_history":"[1,0,0,1,0,0,1,0,1]","location_rts":"[7455,948,511,804,1083,368,1240,4214,1807]","trial_type":"two-door-navigation","trial_index":14,"time_elapsed":813760,"internal_node_id":"0.0-2.0-12.0"},{"group":"dicyclic group of order 12","room_assignment":["blue","ivory","pink","purple","brown","red","cyan","grey","green","orange","olive","yellow"],"door_color_assignment":["white","black"],"door_generator_assignment":[0,1],"goal":11,"start":8,"action_noise":0.15,"location_history":"[8,0,1,2,6,10,7,11]","action_history":"[1,0,0,1,1,0,0]","door_history":"[1,0,0,1,1,0,0]","location_rts":"[11364,545,2717,1314,1758,2104,928]","trial_type":"two-door-navigation","trial_index":15,"time_elapsed":845125,"internal_node_id":"0.0-2.0-13.0"},{"group":"dicyclic group of order 12","room_assignment":["blue","ivory","pink","purple","brown","red","cyan","grey","green","orange","olive","yellow"],"door_color_assignment":["white","black"],"door_generator_assignment":[0,1],"goal":6,"start":11,"action_noise":0.15,"location_history":"[11,4,8,5,9,6]","action_history":"[0,1,1,1,0]","door_history":"[0,1,1,1,0]","location_rts":"[3758,1849,2405,1614,2396]","trial_type":"two-door-navigation","trial_index":16,"time_elapsed":865746,"internal_node_id":"0.0-2.0-14.0"},{"group":"dicyclic group of order 12","room_assignment":["blue","ivory","pink","purple","brown","red","cyan","grey","green","orange","olive","yellow"],"door_color_assignment":["white","black"],"door_generator_assignment":[0,1],"goal":7,"start":6,"action_noise":0.15,"location_history":"[6,11,3,7]","action_history":"[0,1,1]","door_history":"[0,1,1]","location_rts":"[4072,1687,2076]","trial_type":"two-door-navigation","trial_index":17,"time_elapsed":880138,"internal_node_id":"0.0-2.0-15.0"},{"group":"dicyclic group of order 12","room_assignment":["blue","ivory","pink","purple","brown","red","cyan","grey","green","orange","olive","yellow"],"door_color_assignment":["white","black"],"door_generator_assignment":[0,1],"goal":10,"start":7,"action_noise":0.15,"location_history":"[7,11,4,8,5,10]","action_history":"[1,0,1,1,0]","door_history":"[1,0,1,1,0]","location_rts":"[5663,1766,2704,1958,1824]","trial_type":"two-door-navigation","trial_index":18,"time_elapsed":902647,"internal_node_id":"0.0-2.0-16.0"},{"group":"dicyclic group of order 12","room_assignment":["blue","ivory","pink","purple","brown","red","cyan","grey","green","orange","olive","yellow"],"door_color_assignment":["white","black"],"door_generator_assignment":[0,1],"goal":0,"start":10,"action_noise":0.15,"location_history":"[10,7,11,4,9,6,10,2,3,7,8,0]","action_history":"[0,1,0,0,0,1,1,0,1,0,1]","door_history":"[0,1,0,0,0,1,1,0,1,0,1]","location_rts":"[4906,1808,1563,1696,2627,1934,1710,2799,783,3090,1041]","trial_type":"two-door-navigation","trial_index":19,"time_elapsed":941302,"internal_node_id":"0.0-2.0-17.0"},{"group":"dicyclic group of order 12","room_assignment":["blue","ivory","pink","purple","brown","red","cyan","grey","green","orange","olive","yellow"],"door_color_assignment":["white","black"],"door_generator_assignment":[0,1],"goal":9,"start":0,"action_noise":0.15,"location_history":"[0,1,2,6,10,7,8,5,9]","action_history":"[0,1,0,1,0,1,0,0]","door_history":"[0,1,0,1,0,1,0,0]","location_rts":"[6341,2028,3638,2664,2077,3699,2249,1239]","trial_type":"two-door-navigation","trial_index":20,"time_elapsed":976897,"internal_node_id":"0.0-2.0-18.0"},{"group":"dicyclic group of order 12","room_assignment":["blue","ivory","pink","purple","brown","red","cyan","grey","green","orange","olive","yellow"],"door_color_assignment":["white","black"],"door_generator_assignment":[0,1],"goal":4,"start":9,"action_noise":0.15,"location_history":"[9,6,10,2,6,11,3,7,8,5,9,1,5,10,2,6,10,2,3,7,8,5,10,7,8,0,1,2,6,11,4]","action_history":"[0,1,1,1,0,1,0,0,0,1,1,1,0,0,1,1,1,0,1,0,1,0,1,0,0,1,0,1,0,1]","door_history":"[0,1,1,1,0,1,0,0,0,1,1,1,0,0,1,1,1,0,1,0,1,0,1,0,0,1,0,1,0,1]","location_rts":"[10418,1428,2120,2301,1415,2099,3120,1255,1882,1577,2476,2687,426,749,10732,2821,2054,1232,2163,698,1061,2818,414,743,575,2330,6310,418,275,577]","trial_type":"two-door-navigation","trial_index":21,"time_elapsed":1080105,"internal_node_id":"0.0-2.0-19.0"},{"group":"dicyclic group of order 12","room_assignment":["blue","ivory","pink","purple","brown","red","cyan","grey","green","orange","olive","yellow"],"door_color_assignment":["white","black"],"door_generator_assignment":[0,1],"goal":2,"start":4,"action_noise":0.15,"location_history":"[4,9,6,11,4,8,5,10,7,11,3,0,4,9,1,2]","action_history":"[1,0,1,0,1,0,0,0,1,1,0,0,0,1,0]","door_history":"[1,0,1,0,1,0,0,0,1,1,0,0,0,1,0]","location_rts":"[2045,488,263,15,2292,2253,708,814,1301,568,3592,1210,2535,1588,1843]","trial_type":"two-door-navigation","trial_index":22,"time_elapsed":1120385,"internal_node_id":"0.0-2.0-20.0"},{"group":"dicyclic group of order 12","room_assignment":["blue","ivory","pink","purple","brown","red","cyan","grey","green","orange","olive","yellow"],"door_color_assignment":["white","black"],"door_generator_assignment":[0,1],"goal":1,"start":2,"action_noise":0.15,"location_history":"[2,3,0,1]","action_history":"[0,0,0]","door_history":"[0,0,0]","location_rts":"[4044,2057,554]","trial_type":"two-door-navigation","trial_index":23,"time_elapsed":1133597,"internal_node_id":"0.0-2.0-21.0"},{"group":"dicyclic group of order 12","room_assignment":["blue","ivory","pink","purple","brown","red","cyan","grey","green","orange","olive","yellow"],"door_color_assignment":["white","black"],"door_generator_assignment":[0,1],"goal":3,"start":1,"action_noise":0.15,"location_history":"[1,5,9,1,5,9,6,10,2,3]","action_history":"[1,1,0,1,0,0,1,1,0]","door_history":"[1,1,0,1,0,0,1,1,0]","location_rts":"[3109,1285,3915,2405,1965,2032,2198,838,3597]","trial_type":"two-door-navigation","trial_index":24,"time_elapsed":1167611,"internal_node_id":"0.0-2.0-22.0"},{"group":"dicyclic group of order 12","room_assignment":["blue","ivory","pink","purple","brown","red","cyan","grey","green","orange","olive","yellow"],"door_color_assignment":["white","black"],"door_generator_assignment":[0,1],"goal":7,"start":3,"action_noise":0.15,"location_history":"[3,7]","action_history":"[1]","door_history":"[1]","location_rts":"[6133]","trial_type":"two-door-navigation","trial_index":25,"time_elapsed":1178264,"internal_node_id":"0.0-2.0-23.0"},{"group":"dicyclic group of order 12","room_assignment":["blue","ivory","pink","purple","brown","red","cyan","grey","green","orange","olive","yellow"],"door_color_assignment":["white","black"],"door_generator_assignment":[0,1],"goal":6,"start":7,"action_noise":0.15,"location_history":"[7,8,0,1,2,6]","action_history":"[0,1,0,0,1]","door_history":"[0,1,0,0,1]","location_rts":"[4880,2047,445,1900,908]","trial_type":"two-door-navigation","trial_index":26,"time_elapsed":1197039,"internal_node_id":"0.0-2.0-24.0"},{"group":"dicyclic group of order 12","room_assignment":["blue","ivory","pink","purple","brown","red","cyan","grey","green","orange","olive","yellow"],"door_color_assignment":["white","black"],"door_generator_assignment":[0,1],"goal":2,"start":6,"action_noise":0.15,"location_history":"[6,10,2]","action_history":"[0,1]","door_history":"[0,1]","location_rts":"[4385,2206]","trial_type":"two-door-navigation","trial_index":27,"time_elapsed":1209167,"internal_node_id":"0.0-2.0-25.0"},{"group":"dicyclic group of order 12","room_assignment":["blue","ivory","pink","purple","brown","red","cyan","grey","green","orange","olive","yellow"],"door_color_assignment":["white","black"],"door_generator_assignment":[0,1],"goal":8,"start":2,"action_noise":0.15,"location_history":"[2,6,11,4,8]","action_history":"[1,0,0,1]","door_history":"[1,0,0,1]","location_rts":"[3534,450,1961,1968]","trial_type":"two-door-navigation","trial_index":28,"time_elapsed":1224650,"internal_node_id":"0.0-2.0-26.0"},{"group":"dicyclic group of order 12","room_assignment":["blue","ivory","pink","purple","brown","red","cyan","grey","green","orange","olive","yellow"],"door_color_assignment":["white","black"],"door_generator_assignment":[0,1],"goal":0,"start":8,"action_noise":0.15,"location_history":"[8,0]","action_history":"[1]","door_history":"[1]","location_rts":"[7022]","trial_type":"two-door-navigation","trial_index":29,"time_elapsed":1236192,"internal_node_id":"0.0-2.0-27.0"},{"group":"dicyclic group of order 12","room_assignment":["blue","ivory","pink","purple","brown","red","cyan","grey","green","orange","olive","yellow"],"door_color_assignment":["white","black"],"door_generator_assignment":[0,1],"goal":3,"start":0,"action_noise":0.15,"location_history":"[0,4,8,5,10,7,8,5,10,2,6,10,2,3]","action_history":"[1,1,0,1,0,0,0,0,1,0,1,1,0]","door_history":"[1,1,0,1,0,0,0,0,1,0,1,1,0]","location_rts":"[4165,3858,1362,1770,2001,3339,1778,2329,1652,2337,2146,2442,3692]","trial_type":"two-door-navigation","trial_index":30,"time_elapsed":1285803,"internal_node_id":"0.0-2.0-28.0"},{"group":"dicyclic group of order 12","room_assignment":["blue","ivory","pink","purple","brown","red","cyan","grey","green","orange","olive","yellow"],"door_color_assignment":["white","black"],"door_generator_assignment":[0,1],"goal":4,"start":3,"action_noise":0.15,"location_history":"[3,7,11,3,7,11,3,7,11,4]","action_history":"[0,1,1,1,1,1,1,1,0]","door_history":"[0,1,1,1,1,1,1,1,0]","location_rts":"[3948,5767,744,3331,1128,1385,2986,2063,894]","trial_type":"two-door-navigation","trial_index":31,"time_elapsed":1320709,"internal_node_id":"0.0-2.0-29.0"},{"group":"dicyclic group of order 12","room_assignment":["blue","ivory","pink","purple","brown","red","cyan","grey","green","orange","olive","yellow"],"door_color_assignment":["white","black"],"door_generator_assignment":[0,1],"goal":10,"start":4,"action_noise":0.15,"location_history":"[4,9,6,11,3,0,1,2,6,11,3,0,4,9,1,2,3,7,11,4,9,1,5,9,6,11,3,7,8,0,1,2,6,11,3,0,4,8,0,4,9,6,11,3,0,1,2,6,10]","action_history":"[0,0,0,1,0,1,0,1,0,1,1,1,1,1,0,1,1,1,0,0,1,0,1,0,1,0,1,0,0,1,0,1,0,1,1,0,0,1,1,0,0,0,1,0,0,0,1,1]","door_history":"[0,0,0,1,0,1,0,1,0,1,1,1,1,1,0,1,1,1,0,0,1,0,1,0,1,0,1,0,0,1,0,1,0,1,1,0,0,1,1,0,0,0,1,0,0,0,1,1]","location_rts":"[7483,2005,1211,2368,2561,27913,2023,1791,1921,1440,1930,2281,1718,1867,2383,2220,427,1650,1425,888,643,289,1000,725,4702,1929,1493,1002,919,122,40,287,528,1112,327,184,222,258,268,220,237,1966,791,460,307,264,901,936]","trial_type":"two-door-navigation","trial_index":32,"time_elapsed":1462712,"internal_node_id":"0.0-2.0-30.0"},{"group":"dicyclic group of order 12","room_assignment":["blue","ivory","pink","purple","brown","red","cyan","grey","green","orange","olive","yellow"],"door_color_assignment":["white","black"],"door_generator_assignment":[0,1],"goal":11,"start":10,"action_noise":0.15,"location_history":"[10,7,11]","action_history":"[0,1]","door_history":"[0,1]","location_rts":"[2691,1346]","trial_type":"two-door-navigation","trial_index":33,"time_elapsed":1472289,"internal_node_id":"0.0-2.0-31.0"},{"group":"dicyclic group of order 12","room_assignment":["blue","ivory","pink","purple","brown","red","cyan","grey","green","orange","olive","yellow"],"door_color_assignment":["white","black"],"door_generator_assignment":[0,1],"goal":1,"start":11,"action_noise":0.15,"location_history":"[11,3,7,11,3,7,8,5,9,1]","action_history":"[0,1,1,0,0,0,0,1,1]","door_history":"[0,1,1,0,0,0,0,1,1]","location_rts":"[3932,2619,3936,1812,2417,613,2776,3580,2579]","trial_type":"two-door-navigation","trial_index":34,"time_elapsed":1509219,"internal_node_id":"0.0-2.0-32.0"},{"group":"dicyclic group of order 12","room_assignment":["blue","ivory","pink","purple","brown","red","cyan","grey","green","orange","olive","yellow"],"door_color_assignment":["white","black"],"door_generator_assignment":[0,1],"goal":5,"start":1,"action_noise":0.15,"location_history":"[1,5]","action_history":"[1]","door_history":"[1]","location_rts":"[2456]","trial_type":"two-door-navigation","trial_index":35,"time_elapsed":1516195,"internal_node_id":"0.0-2.0-33.0"},{"group":"dicyclic group of order 12","room_assignment":["blue","ivory","pink","purple","brown","red","cyan","grey","green","orange","olive","yellow"],"door_color_assignment":["white","black"],"door_generator_assignment":[0,1],"goal":9,"start":5,"action_noise":0.15,"location_history":"[5,9]","action_history":"[1]","door_history":"[1]","location_rts":"[6235]","trial_type":"two-door-navigation","trial_index":36,"time_elapsed":1526949,"internal_node_id":"0.0-2.0-34.0"},{"view_history":"[{\"page_index\":0,\"viewing_time\":1059}]","rt":1059,"trial_type":"instructions","trial_index":37,"time_elapsed":1529009,"internal_node_id":"0.0-3.0"},{"view_history":"[{\"page_index\":0,\"viewing_time\":872},{\"page_index\":1,\"viewing_time\":2013}]","rt":2885,"trial_type":"instructions","trial_index":38,"time_elapsed":1532895,"internal_node_id":"0.0-4.0"},{"group":"dicyclic group of order 12","fractal_assignment":["../images/org_blu.png","../images/blu_wht.png","../images/gry_blk.png","../images/ylw_slt.png","../images/grn_red.png","../images/wht_red.png","../images/grn_blu.png","../images/red_prp.png","../images/pnk_blu.png","../images/cyn_red.png","../images/ylw_pnk.png","../images/grn_prp.png"],"mutagen_generator_assignment":[0,1],"goal":4,"start":0,"action_noise":0.15,"location_history":"[0,1,5,10,7,8,5,9,6,11,4]","action_history":"[0,1,1,0,0,0,1,0,0,0]","mutagen_history":"[0,1,1,0,0,0,1,0,0,0]","location_rts":"[1666,474,313,261,293,285,313,232,325,290]","trial_type":"fractal-mutation","trial_index":39,"time_elapsed":1551484,"internal_node_id":"0.0-5.0-0.0"},{"group":"dicyclic group of order 12","fractal_assignment":["../images/org_blu.png","../images/blu_wht.png","../images/gry_blk.png","../images/ylw_slt.png","../images/grn_red.png","../images/wht_red.png","../images/grn_blu.png","../images/red_prp.png","../images/pnk_blu.png","../images/cyn_red.png","../images/ylw_pnk.png","../images/grn_prp.png"],"mutagen_generator_assignment":[0,1],"goal":9,"start":4,"action_noise":0.15,"location_history":"[4,9]","action_history":"[0]","mutagen_history":"[0]","location_rts":"[1173]","trial_type":"fractal-mutation","trial_index":40,"time_elapsed":1557182,"internal_node_id":"0.0-5.0-1.0"},{"group":"dicyclic group of order 12","fractal_assignment":["../images/org_blu.png","../images/blu_wht.png","../images/gry_blk.png","../images/ylw_slt.png","../images/grn_red.png","../images/wht_red.png","../images/grn_blu.png","../images/red_prp.png","../images/pnk_blu.png","../images/cyn_red.png","../images/ylw_pnk.png","../images/grn_prp.png"],"mutagen_generator_assignment":[0,1],"goal":10,"start":9,"action_noise":0.15,"location_history":"[9,1,2,3,7,8,0,4,9,6,11,3,0,4,8,5,10]","action_history":"[1,0,0,1,0,1,1,0,0,0,1,0,0,0,0,0]","mutagen_history":"[1,0,0,1,0,1,1,0,0,0,1,0,0,0,0,0]","location_rts":"[636,389,299,32,322,320,399,295,297,380,426,261,280,701,565,455]","trial_type":"fractal-mutation","trial_index":41,"time_elapsed":1583784,"internal_node_id":"0.0-5.0-2.0"},{"group":"dicyclic group of order 12","fractal_assignment":["../images/org_blu.png","../images/blu_wht.png","../images/gry_blk.png","../images/ylw_slt.png","../images/grn_red.png","../images/wht_red.png","../images/grn_blu.png","../images/red_prp.png","../images/pnk_blu.png","../images/cyn_red.png","../images/ylw_pnk.png","../images/grn_prp.png"],"mutagen_generator_assignment":[0,1],"goal":2,"start":10,"action_noise":0.15,"location_history":"[10,7,8,5,9,6,11,3,0,1,5,10,2]","action_history":"[0,0,0,1,0,0,0,0,0,1,0,1]","mutagen_history":"[0,0,0,1,0,0,0,0,0,1,0,1]","location_rts":"[721,323,341,394,835,528,530,582,882,273,373,392]","trial_type":"fractal-mutation","trial_index":42,"time_elapsed":1606094,"internal_node_id":"0.0-5.0-3.0"},{"group":"dicyclic group of order 12","fractal_assignment":["../images/org_blu.png","../images/blu_wht.png","../images/gry_blk.png","../images/ylw_slt.png","../images/grn_red.png","../images/wht_red.png","../images/grn_blu.png","../images/red_prp.png","../images/pnk_blu.png","../images/cyn_red.png","../images/ylw_pnk.png","../images/grn_prp.png"],"mutagen_generator_assignment":[0,1],"goal":5,"start":2,"action_noise":0.15,"location_history":"[2,3,0,4,9,6,10,7,8,0,1,5]","action_history":"[0,0,1,0,0,1,0,0,1,1,0]","mutagen_history":"[0,0,1,0,0,1,0,0,1,1,0]","location_rts":"[6322,495,761,367,359,282,585,465,346,38,257]","trial_type":"fractal-mutation","trial_index":43,"time_elapsed":1631514,"internal_node_id":"0.0-5.0-4.0"},{"group":"dicyclic group of order 12","fractal_assignment":["../images/org_blu.png","../images/blu_wht.png","../images/gry_blk.png","../images/ylw_slt.png","../images/grn_red.png","../images/wht_red.png","../images/grn_blu.png","../images/red_prp.png","../images/pnk_blu.png","../images/cyn_red.png","../images/ylw_pnk.png","../images/grn_prp.png"],"mutagen_generator_assignment":[0,1],"goal":11,"start":5,"action_noise":0.15,"location_history":"[5,9,6,10,2,3,0,4,9,1,2,6,10,2,6,11]","action_history":"[1,0,0,1,0,0,1,0,1,0,1,0,0,1,0]","mutagen_history":"[1,0,0,1,0,0,1,0,1,0,1,0,0,1,0]","location_rts":"[907,691,809,554,455,551,493,518,410,440,660,825,490,429,547]","trial_type":"fractal-mutation","trial_index":44,"time_elapsed":1659789,"internal_node_id":"0.0-5.0-5.0"},{"group":"dicyclic group of order 12","fractal_assignment":["../images/org_blu.png","../images/blu_wht.png","../images/gry_blk.png","../images/ylw_slt.png","../images/grn_red.png","../images/wht_red.png","../images/grn_blu.png","../images/red_prp.png","../images/pnk_blu.png","../images/cyn_red.png","../images/ylw_pnk.png","../images/grn_prp.png"],"mutagen_generator_assignment":[0,1],"goal":6,"start":11,"action_noise":0.15,"location_history":"[11,3,7,8,0,4,8,0,4,8,5,10,2,3,7,11,3,0,1,5,10,2,3,0,4,8,5,10,2,3,0,1,2,3,0,1,5,10,7,8,0,1,2,3,0,1,2,3,0,4,9,6]","action_history":"[0,1,0,1,1,0,0,1,0,0,0,1,0,1,0,1,0,0,1,0,0,0,0,1,1,0,0,0,0,0,0,1,0,0,0,0,0,0,0,1,0,0,0,0,1,0,0,0,1,0,0]","mutagen_history":"[0,1,0,1,1,0,0,1,0,0,0,1,0,1,0,1,0,0,1,0,0,0,0,1,1,0,0,0,0,0,0,1,0,0,0,0,0,0,0,1,0,0,0,0,1,0,0,0,1,0,0]","location_rts":"[1021,397,411,396,341,440,424,382,500,451,413,364,418,362,529,403,529,295,404,256,382,305,423,276,429,274,316,329,369,549,392,398,270,324,365,447,397,380,427,436,449,247,312,396,638,228,235,421,319,374,270]","trial_type":"fractal-mutation","trial_index":45,"time_elapsed":1737528,"internal_node_id":"0.0-5.0-6.0"},{"group":"dicyclic group of order 12","fractal_assignment":["../images/org_blu.png","../images/blu_wht.png","../images/gry_blk.png","../images/ylw_slt.png","../images/grn_red.png","../images/wht_red.png","../images/grn_blu.png","../images/red_prp.png","../images/pnk_blu.png","../images/cyn_red.png","../images/ylw_pnk.png","../images/grn_prp.png"],"mutagen_generator_assignment":[0,1],"goal":3,"start":6,"action_noise":0.15,"location_history":"[6,11,3]","action_history":"[0,1]","mutagen_history":"[0,1]","location_rts":"[250,466]","trial_type":"fractal-mutation","trial_index":46,"time_elapsed":1743845,"internal_node_id":"0.0-5.0-7.0"},{"group":"dicyclic group of order 12","fractal_assignment":["../images/org_blu.png","../images/blu_wht.png","../images/gry_blk.png","../images/ylw_slt.png","../images/grn_red.png","../images/wht_red.png","../images/grn_blu.png","../images/red_prp.png","../images/pnk_blu.png","../images/cyn_red.png","../images/ylw_pnk.png","../images/grn_prp.png"],"mutagen_generator_assignment":[0,1],"goal":8,"start":3,"action_noise":0.15,"location_history":"[3,0,4,9,1,2,3,7,11,3,7,8]","action_history":"[0,1,1,1,0,0,1,0,1,1,0]","mutagen_history":"[0,1,1,1,0,0,1,0,1,1,0]","location_rts":"[590,287,438,458,671,1260,544,882,517,614,573]","trial_type":"fractal-mutation","trial_index":47,"time_elapsed":1765925,"internal_node_id":"0.0-5.0-8.0"},{"group":"dicyclic group of order 12","fractal_assignment":["../images/org_blu.png","../images/blu_wht.png","../images/gry_blk.png","../images/ylw_slt.png","../images/grn_red.png","../images/wht_red.png","../images/grn_blu.png","../images/red_prp.png","../images/pnk_blu.png","../images/cyn_red.png","../images/ylw_pnk.png","../images/grn_prp.png"],"mutagen_generator_assignment":[0,1],"goal":1,"start":8,"action_noise":0.15,"location_history":"[8,5,9,1]","action_history":"[0,1,1]","mutagen_history":"[0,1,1]","location_rts":"[5310,527,822]","trial_type":"fractal-mutation","trial_index":48,"time_elapsed":1779269,"internal_node_id":"0.0-5.0-9.0"},{"group":"dicyclic group of order 12","fractal_assignment":["../images/org_blu.png","../images/blu_wht.png","../images/gry_blk.png","../images/ylw_slt.png","../images/grn_red.png","../images/wht_red.png","../images/grn_blu.png","../images/red_prp.png","../images/pnk_blu.png","../images/cyn_red.png","../images/ylw_pnk.png","../images/grn_prp.png"],"mutagen_generator_assignment":[0,1],"goal":7,"start":1,"action_noise":0.15,"location_history":"[1,2,3,0,4,9,1,5,9,6,11,4,9,1,5,10,2,3,7]","action_history":"[0,1,0,1,0,1,0,1,0,0,0,0,1,1,0,1,0,1]","mutagen_history":"[0,1,0,1,0,1,0,1,0,0,0,0,1,1,0,1,0,1]","location_rts":"[4179,370,391,643,433,754,251,415,932,324,445,521,355,288,405,842,426,265]","trial_type":"fractal-mutation","trial_index":49,"time_elapsed":1814178,"internal_node_id":"0.0-5.0-10.0"},{"group":"dicyclic group of order 12","fractal_assignment":["../images/org_blu.png","../images/blu_wht.png","../images/gry_blk.png","../images/ylw_slt.png","../images/grn_red.png","../images/wht_red.png","../images/grn_blu.png","../images/red_prp.png","../images/pnk_blu.png","../images/cyn_red.png","../images/ylw_pnk.png","../images/grn_prp.png"],"mutagen_generator_assignment":[0,1],"goal":5,"start":7,"action_noise":0.15,"location_history":"[7,8,5]","action_history":"[0,1]","mutagen_history":"[0,1]","location_rts":"[800,535]","trial_type":"fractal-mutation","trial_index":50,"time_elapsed":1821114,"internal_node_id":"0.0-5.0-11.0"},{"group":"dicyclic group of order 12","fractal_assignment":["../images/org_blu.png","../images/blu_wht.png","../images/gry_blk.png","../images/ylw_slt.png","../images/grn_red.png","../images/wht_red.png","../images/grn_blu.png","../images/red_prp.png","../images/pnk_blu.png","../images/cyn_red.png","../images/ylw_pnk.png","../images/grn_prp.png"],"mutagen_generator_assignment":[0,1],"goal":8,"start":5,"action_noise":0.15,"location_history":"[5,9,6,10,2,3,0,4,8]","action_history":"[1,0,1,0,0,0,1,0]","mutagen_history":"[1,0,1,0,0,0,1,0]","location_rts":"[3604,536,318,388,391,522,1688,479]","trial_type":"fractal-mutation","trial_index":51,"time_elapsed":1841060,"internal_node_id":"0.0-5.0-12.0"},{"group":"dicyclic group of order 12","fractal_assignment":["../images/org_blu.png","../images/blu_wht.png","../images/gry_blk.png","../images/ylw_slt.png","../images/grn_red.png","../images/wht_red.png","../images/grn_blu.png","../images/red_prp.png","../images/pnk_blu.png","../images/cyn_red.png","../images/ylw_pnk.png","../images/grn_prp.png"],"mutagen_generator_assignment":[0,1],"goal":11,"start":8,"action_noise":0.15,"location_history":"[8,5,9,1,5,9,6,11]","action_history":"[1,0,0,1,1,1,0]","mutagen_history":"[1,0,0,1,1,1,0]","location_rts":"[699,513,528,310,384,377,228]","trial_type":"fractal-mutation","trial_index":52,"time_elapsed":1855089,"internal_node_id":"0.0-5.0-13.0"},{"group":"dicyclic group of order 12","fractal_assignment":["../images/org_blu.png","../images/blu_wht.png","../images/gry_blk.png","../images/ylw_slt.png","../images/grn_red.png","../images/wht_red.png","../images/grn_blu.png","../images/red_prp.png","../images/pnk_blu.png","../images/cyn_red.png","../images/ylw_pnk.png","../images/grn_prp.png"],"mutagen_generator_assignment":[0,1],"goal":6,"start":11,"action_noise":0.15,"location_history":"[11,3,7,8,5,10,2,3,7,8,0,1,2,6]","action_history":"[1,0,0,0,0,1,0,1,0,0,1,0,1]","mutagen_history":"[1,0,0,0,0,1,0,1,0,0,1,0,1]","location_rts":"[606,424,276,280,310,344,439,540,637,457,693,404,338]","trial_type":"fractal-mutation","trial_index":53,"time_elapsed":1878195,"internal_node_id":"0.0-5.0-14.0"},{"group":"dicyclic group of order 12","fractal_assignment":["../images/org_blu.png","../images/blu_wht.png","../images/gry_blk.png","../images/ylw_slt.png","../images/grn_red.png","../images/wht_red.png","../images/grn_blu.png","../images/red_prp.png","../images/pnk_blu.png","../images/cyn_red.png","../images/ylw_pnk.png","../images/grn_prp.png"],"mutagen_generator_assignment":[0,1],"goal":7,"start":6,"action_noise":0.15,"location_history":"[6,11,3,7]","action_history":"[0,1,1]","mutagen_history":"[0,1,1]","location_rts":"[270,482,322]","trial_type":"fractal-mutation","trial_index":54,"time_elapsed":1885952,"internal_node_id":"0.0-5.0-15.0"},{"group":"dicyclic group of order 12","fractal_assignment":["../images/org_blu.png","../images/blu_wht.png","../images/gry_blk.png","../images/ylw_slt.png","../images/grn_red.png","../images/wht_red.png","../images/grn_blu.png","../images/red_prp.png","../images/pnk_blu.png","../images/cyn_red.png","../images/ylw_pnk.png","../images/grn_prp.png"],"mutagen_generator_assignment":[0,1],"goal":10,"start":7,"action_noise":0.15,"location_history":"[7,8,0,4,9,6,10]","action_history":"[0,1,1,0,0,1]","mutagen_history":"[0,1,1,0,0,1]","location_rts":"[2246,444,520,317,561,482]","trial_type":"fractal-mutation","trial_index":55,"time_elapsed":1900398,"internal_node_id":"0.0-5.0-16.0"},{"group":"dicyclic group of order 12","fractal_assignment":["../images/org_blu.png","../images/blu_wht.png","../images/gry_blk.png","../images/ylw_slt.png","../images/grn_red.png","../images/wht_red.png","../images/grn_blu.png","../images/red_prp.png","../images/pnk_blu.png","../images/cyn_red.png","../images/ylw_pnk.png","../images/grn_prp.png"],"mutagen_generator_assignment":[0,1],"goal":0,"start":10,"action_noise":0.15,"location_history":"[10,2,6,10,7,11,3,0]","action_history":"[0,1,1,0,0,1,0]","mutagen_history":"[0,1,1,0,0,1,0]","location_rts":"[336,378,519,381,543,550,290]","trial_type":"fractal-mutation","trial_index":56,"time_elapsed":1914326,"internal_node_id":"0.0-5.0-17.0"},{"group":"dicyclic group of order 12","fractal_assignment":["../images/org_blu.png","../images/blu_wht.png","../images/gry_blk.png","../images/ylw_slt.png","../images/grn_red.png","../images/wht_red.png","../images/grn_blu.png","../images/red_prp.png","../images/pnk_blu.png","../images/cyn_red.png","../images/ylw_pnk.png","../images/grn_prp.png"],"mutagen_generator_assignment":[0,1],"goal":9,"start":0,"action_noise":0.15,"location_history":"[0,4,9]","action_history":"[0,0]","mutagen_history":"[0,0]","location_rts":"[1033,476]","trial_type":"fractal-mutation","trial_index":57,"time_elapsed":1921377,"internal_node_id":"0.0-5.0-18.0"},{"group":"dicyclic group of order 12","fractal_assignment":["../images/org_blu.png","../images/blu_wht.png","../images/gry_blk.png","../images/ylw_slt.png","../images/grn_red.png","../images/wht_red.png","../images/grn_blu.png","../images/red_prp.png","../images/pnk_blu.png","../images/cyn_red.png","../images/ylw_pnk.png","../images/grn_prp.png"],"mutagen_generator_assignment":[0,1],"goal":4,"start":9,"action_noise":0.15,"location_history":"[9,1,5,9,6,10,7,8,5,10,2,3,7,11,3,7,8,0,1,2,6,11,3,7,11,4]","action_history":"[0,0,0,0,0,0,0,0,0,1,0,0,0,1,1,0,1,0,0,1,0,1,1,1,0]","mutagen_history":"[0,0,0,0,0,0,0,0,0,1,0,0,0,1,1,0,1,0,0,1,0,1,1,1,0]","location_rts":"[1108,345,410,411,730,421,687,643,441,359,260,309,285,445,469,247,359,406,380,426,600,415,419,586,489]","trial_type":"fractal-mutation","trial_index":58,"time_elapsed":1962801,"internal_node_id":"0.0-5.0-19.0"},{"group":"dicyclic group of order 12","fractal_assignment":["../images/org_blu.png","../images/blu_wht.png","../images/gry_blk.png","../images/ylw_slt.png","../images/grn_red.png","../images/wht_red.png","../images/grn_blu.png","../images/red_prp.png","../images/pnk_blu.png","../images/cyn_red.png","../images/ylw_pnk.png","../images/grn_prp.png"],"mutagen_generator_assignment":[0,1],"goal":2,"start":4,"action_noise":0.15,"location_history":"[4,9,1,2]","action_history":"[0,1,0]","mutagen_history":"[0,1,0]","location_rts":"[295,368,277]","trial_type":"fractal-mutation","trial_index":59,"time_elapsed":1970394,"internal_node_id":"0.0-5.0-20.0"},{"group":"dicyclic group of order 12","fractal_assignment":["../images/org_blu.png","../images/blu_wht.png","../images/gry_blk.png","../images/ylw_slt.png","../images/grn_red.png","../images/wht_red.png","../images/grn_blu.png","../images/red_prp.png","../images/pnk_blu.png","../images/cyn_red.png","../images/ylw_pnk.png","../images/grn_prp.png"],"mutagen_generator_assignment":[0,1],"goal":1,"start":2,"action_noise":0.15,"location_history":"[2,3,7,8,0,1]","action_history":"[0,1,0,1,0]","mutagen_history":"[0,1,0,1,0]","location_rts":"[401,404,335,414,323]","trial_type":"fractal-mutation","trial_index":60,"time_elapsed":1981061,"internal_node_id":"0.0-5.0-21.0"},{"group":"dicyclic group of order 12","fractal_assignment":["../images/org_blu.png","../images/blu_wht.png","../images/gry_blk.png","../images/ylw_slt.png","../images/grn_red.png","../images/wht_red.png","../images/grn_blu.png","../images/red_prp.png","../images/pnk_blu.png","../images/cyn_red.png","../images/ylw_pnk.png","../images/grn_prp.png"],"mutagen_generator_assignment":[0,1],"goal":3,"start":1,"action_noise":0.15,"location_history":"[1,2,6,11,3]","action_history":"[0,1,0,1]","mutagen_history":"[0,1,0,1]","location_rts":"[359,385,226,304]","trial_type":"fractal-mutation","trial_index":61,"time_elapsed":1990074,"internal_node_id":"0.0-5.0-22.0"},{"group":"dicyclic group of order 12","fractal_assignment":["../images/org_blu.png","../images/blu_wht.png","../images/gry_blk.png","../images/ylw_slt.png","../images/grn_red.png","../images/wht_red.png","../images/grn_blu.png","../images/red_prp.png","../images/pnk_blu.png","../images/cyn_red.png","../images/ylw_pnk.png","../images/grn_prp.png"],"mutagen_generator_assignment":[0,1],"goal":7,"start":3,"action_noise":0.15,"location_history":"[3,0,4,9,6,11,3,0,1,2,3,0,1,2,3,7]","action_history":"[0,1,0,1,0,1,0,1,0,1,0,0,0,0,1]","mutagen_history":"[0,1,0,1,0,1,0,1,0,1,0,0,0,0,1]","location_rts":"[241,181,295,327,362,496,351,356,478,537,342,247,292,382,263]","trial_type":"fractal-mutation","trial_index":62,"time_elapsed":2014675,"internal_node_id":"0.0-5.0-23.0"},{"group":"dicyclic group of order 12","fractal_assignment":["../images/org_blu.png","../images/blu_wht.png","../images/gry_blk.png","../images/ylw_slt.png","../images/grn_red.png","../images/wht_red.png","../images/grn_blu.png","../images/red_prp.png","../images/pnk_blu.png","../images/cyn_red.png","../images/ylw_pnk.png","../images/grn_prp.png"],"mutagen_generator_assignment":[0,1],"goal":6,"start":7,"action_noise":0.15,"location_history":"[7,8,0,4,9,6]","action_history":"[0,1,1,0,0]","mutagen_history":"[0,1,1,0,0]","location_rts":"[362,331,377,408,315]","trial_type":"fractal-mutation","trial_index":63,"time_elapsed":2025262,"internal_node_id":"0.0-5.0-24.0"},{"group":"dicyclic group of order 12","fractal_assignment":["../images/org_blu.png","../images/blu_wht.png","../images/gry_blk.png","../images/ylw_slt.png","../images/grn_red.png","../images/wht_red.png","../images/grn_blu.png","../images/red_prp.png","../images/pnk_blu.png","../images/cyn_red.png","../images/ylw_pnk.png","../images/grn_prp.png"],"mutagen_generator_assignment":[0,1],"goal":2,"start":6,"action_noise":0.15,"location_history":"[6,11,3,7,8,5,10,7,8,5,10,7,11,3,0,1,5,9,6,10,2]","action_history":"[0,1,1,0,0,0,0,1,0,0,1,1,1,0,0,0,0,0,0,1]","mutagen_history":"[0,1,1,0,0,0,0,1,0,0,1,1,1,0,0,0,0,0,0,1]","location_rts":"[388,300,450,321,339,381,499,327,360,440,315,767,479,330,293,406,343,377,318,319]","trial_type":"fractal-mutation","trial_index":64,"time_elapsed":2057758,"internal_node_id":"0.0-5.0-25.0"},{"group":"dicyclic group of order 12","fractal_assignment":["../images/org_blu.png","../images/blu_wht.png","../images/gry_blk.png","../images/ylw_slt.png","../images/grn_red.png","../images/wht_red.png","../images/grn_blu.png","../images/red_prp.png","../images/pnk_blu.png","../images/cyn_red.png","../images/ylw_pnk.png","../images/grn_prp.png"],"mutagen_generator_assignment":[0,1],"goal":8,"start":2,"action_noise":0.15,"location_history":"[2,3,7,11,4,9,1,5,9,1,5,10,7,8]","action_history":"[0,1,1,1,0,1,0,1,1,1,0,0,0]","mutagen_history":"[0,1,1,1,0,1,0,1,1,1,0,0,0]","location_rts":"[605,477,332,373,340,401,322,315,312,784,369,353,430]","trial_type":"fractal-mutation","trial_index":65,"time_elapsed":2080543,"internal_node_id":"0.0-5.0-26.0"},{"group":"dicyclic group of order 12","fractal_assignment":["../images/org_blu.png","../images/blu_wht.png","../images/gry_blk.png","../images/ylw_slt.png","../images/grn_red.png","../images/wht_red.png","../images/grn_blu.png","../images/red_prp.png","../images/pnk_blu.png","../images/cyn_red.png","../images/ylw_pnk.png","../images/grn_prp.png"],"mutagen_generator_assignment":[0,1],"goal":0,"start":8,"action_noise":0.15,"location_history":"[8,0]","action_history":"[1]","mutagen_history":"[1]","location_rts":"[587]","trial_type":"fractal-mutation","trial_index":66,"time_elapsed":2085716,"internal_node_id":"0.0-5.0-27.0"},{"group":"dicyclic group of order 12","fractal_assignment":["../images/org_blu.png","../images/blu_wht.png","../images/gry_blk.png","../images/ylw_slt.png","../images/grn_red.png","../images/wht_red.png","../images/grn_blu.png","../images/red_prp.png","../images/pnk_blu.png","../images/cyn_red.png","../images/ylw_pnk.png","../images/grn_prp.png"],"mutagen_generator_assignment":[0,1],"goal":3,"start":0,"action_noise":0.15,"location_history":"[0,4,8,5,9,6,10,7,8,0,1,2,3]","action_history":"[1,0,1,1,0,1,0,0,1,0,0,0]","mutagen_history":"[1,0,1,1,0,1,0,0,1,0,0,0]","location_rts":"[964,429,549,403,282,730,425,280,351,280,414,326]","trial_type":"fractal-mutation","trial_index":67,"time_elapsed":2107455,"internal_node_id":"0.0-5.0-28.0"},{"group":"dicyclic group of order 12","fractal_assignment":["../images/org_blu.png","../images/blu_wht.png","../images/gry_blk.png","../images/ylw_slt.png","../images/grn_red.png","../images/wht_red.png","../images/grn_blu.png","../images/red_prp.png","../images/pnk_blu.png","../images/cyn_red.png","../images/ylw_pnk.png","../images/grn_prp.png"],"mutagen_generator_assignment":[0,1],"goal":4,"start":3,"action_noise":0.15,"location_history":"[3,0,4]","action_history":"[0,1]","mutagen_history":"[0,1]","location_rts":"[625,262]","trial_type":"fractal-mutation","trial_index":68,"time_elapsed":2113941,"internal_node_id":"0.0-5.0-29.0"},{"group":"dicyclic group of order 12","fractal_assignment":["../images/org_blu.png","../images/blu_wht.png","../images/gry_blk.png","../images/ylw_slt.png","../images/grn_red.png","../images/wht_red.png","../images/grn_blu.png","../images/red_prp.png","../images/pnk_blu.png","../images/cyn_red.png","../images/ylw_pnk.png","../images/grn_prp.png"],"mutagen_generator_assignment":[0,1],"goal":10,"start":4,"action_noise":0.15,"location_history":"[4,8,0,4,8,0,4,9,6,11,4,8,0,4,8,5,9,1,5,10]","action_history":"[0,1,1,0,1,1,0,0,1,0,0,1,1,1,0,1,1,0,0]","mutagen_history":"[0,1,1,0,1,1,0,0,1,0,0,1,1,1,0,1,1,0,0]","location_rts":"[1134,343,428,242,372,744,320,222,343,297,553,320,282,382,449,288,530,290,255]","trial_type":"fractal-mutation","trial_index":69,"time_elapsed":2145498,"internal_node_id":"0.0-5.0-30.0"},{"group":"dicyclic group of order 12","fractal_assignment":["../images/org_blu.png","../images/blu_wht.png","../images/gry_blk.png","../images/ylw_slt.png","../images/grn_red.png","../images/wht_red.png","../images/grn_blu.png","../images/red_prp.png","../images/pnk_blu.png","../images/cyn_red.png","../images/ylw_pnk.png","../images/grn_prp.png"],"mutagen_generator_assignment":[0,1],"goal":11,"start":10,"action_noise":0.15,"location_history":"[10,7,11]","action_history":"[0,1]","mutagen_history":"[0,1]","location_rts":"[389,399]","trial_type":"fractal-mutation","trial_index":70,"time_elapsed":2151892,"internal_node_id":"0.0-5.0-31.0"},{"group":"dicyclic group of order 12","fractal_assignment":["../images/org_blu.png","../images/blu_wht.png","../images/gry_blk.png","../images/ylw_slt.png","../images/grn_red.png","../images/wht_red.png","../images/grn_blu.png","../images/red_prp.png","../images/pnk_blu.png","../images/cyn_red.png","../images/ylw_pnk.png","../images/grn_prp.png"],"mutagen_generator_assignment":[0,1],"goal":1,"start":11,"action_noise":0.15,"location_history":"[11,3,7,11,3,0,1]","action_history":"[1,1,0,1,0,0]","mutagen_history":"[1,1,0,1,0,0]","location_rts":"[1001,387,376,748,301,263]","trial_type":"fractal-mutation","trial_index":71,"time_elapsed":2164875,"internal_node_id":"0.0-5.0-32.0"},{"group":"dicyclic group of order 12","fractal_assignment":["../images/org_blu.png","../images/blu_wht.png","../images/gry_blk.png","../images/ylw_slt.png","../images/grn_red.png","../images/wht_red.png","../images/grn_blu.png","../images/red_prp.png","../images/pnk_blu.png","../images/cyn_red.png","../images/ylw_pnk.png","../images/grn_prp.png"],"mutagen_generator_assignment":[0,1],"goal":5,"start":1,"action_noise":0.15,"location_history":"[1,2,6,10,2,3,0,1,2,3,7,11,4,9,6,10,7,8,5]","action_history":"[0,1,0,1,0,0,0,1,0,1,1,0,1,0,1,1,0,1]","mutagen_history":"[0,1,0,1,0,0,0,1,0,1,1,0,1,0,1,1,0,1]","location_rts":"[259,309,345,502,308,401,313,447,408,406,563,467,338,474,678,3127,505,1268]","trial_type":"fractal-mutation","trial_index":72,"time_elapsed":2198701,"internal_node_id":"0.0-5.0-33.0"},{"group":"dicyclic group of order 12","fractal_assignment":["../images/org_blu.png","../images/blu_wht.png","../images/gry_blk.png","../images/ylw_slt.png","../images/grn_red.png","../images/wht_red.png","../images/grn_blu.png","../images/red_prp.png","../images/pnk_blu.png","../images/cyn_red.png","../images/ylw_pnk.png","../images/grn_prp.png"],"mutagen_generator_assignment":[0,1],"goal":9,"start":5,"action_noise":0.15,"location_history":"[5,10,7,8,0,1,2,3,7,8,0,1,2,6,11,3,0,1,2,6,11,4,8,5,10,7,11,4,9]","action_history":"[1,0,0,1,0,1,0,1,0,1,1,0,1,0,1,0,0,0,1,0,1,0,0,0,1,1,0,0]","mutagen_history":"[1,0,0,1,0,1,0,1,0,1,1,0,1,0,1,0,0,0,1,0,1,0,0,0,1,1,0,0]","location_rts":"[2438,300,355,432,479,1967,426,691,550,368,606,264,787,335,553,246,208,274,345,278,385,251,244,375,256,706,259,383]","trial_type":"fractal-mutation","trial_index":73,"time_elapsed":2246807,"internal_node_id":"0.0-5.0-34.0"},{"view_history":"[{\"page_index\":0,\"viewing_time\":1830}]","rt":1830,"trial_type":"instructions","trial_index":74,"time_elapsed":2249638,"internal_node_id":"0.0-6.0"},{"rt":1016,"responses":"{\"Q0\":\"\"}","trial_type":"survey-text","trial_index":75,"time_elapsed":2251658,"internal_node_id":"0.0-7.0"}]