[{"view_history":"[{\"page_index\":0,\"viewing_time\":17461},{\"page_index\":1,\"viewing_time\":12443},{\"page_index\":2,\"viewing_time\":20551},{\"page_index\":3,\"viewing_time\":6079}]","rt":56537,"trial_type":"instructions","trial_index":0,"time_elapsed":56540,"internal_node_id":"0.0-0.0"},{"view_history":"[{\"page_index\":0,\"viewing_time\":2639},{\"page_index\":1,\"viewing_time\":30146}]","rt":32786,"trial_type":"instructions","trial_index":1,"time_elapsed":90330,"internal_node_id":"0.0-1.0"},{"group":"dicyclic group of order 12","room_assignment":["red","grey","blue","ivory","orange","cyan","brown","yellow","olive","green","purple","pink"],"door_color_assignment":["black","white"],"door_generator_assignment":[0,1],"goal":4,"start":0,"action_noise":0.15,"location_history":"[0,1,2,6,10,2,6,11,4]","action_history":"[0,1,1,1,1,1,0,0]","door_history":"[0,1,1,1,1,1,0,0]","location_rts":"[7671,4291,1081,1989,1621,605,1648,2521]","trial_type":"two-door-navigation","trial_index":2,"time_elapsed":123535,"internal_node_id":"0.0-2.0-0.0"},{"group":"dicyclic group of order 12","room_assignment":["red","grey","blue","ivory","orange","cyan","brown","yellow","olive","green","purple","pink"],"door_color_assignment":["black","white"],"door_generator_assignment":[0,1],"goal":9,"start":4,"action_noise":0.15,"location_history":"[4,9]","action_history":"[0]","door_history":"[0]","location_rts":"[1932]","trial_type":"two-door-navigation","trial_index":3,"time_elapsed":130006,"internal_node_id":"0.0-2.0-1.0"},{"group":"dicyclic group of order 12","room_assignment":["red","grey","blue","ivory","orange","cyan","brown","yellow","olive","green","purple","pink"],"door_color_assignment":["black","white"],"door_generator_assignment":[0,1],"goal":10,"start":9,"action_noise":0.15,"location_history":"[9,1,5,9,6,11,4,9,6,11,3,7,11,3,7,11,4,9,6,10]","action_history":"[1,1,1,1,0,0,0,0,0,1,1,1,1,1,1,0,0,1,1]","door_history":"[1,1,1,1,0,0,0,0,0,1,1,1,1,1,1,0,0,1,1]","location_rts":"[2412,1773,1042,1109,860,1370,774,687,731,1435,501,516,1098,243,963,1391,600,621,654]","trial_type":"two-door-navigation","trial_index":4,"time_elapsed":171899,"internal_node_id":"0.0-2.0-2.0"},{"group":"dicyclic group of order 12","room_assignment":["red","grey","blue","ivory","orange","cyan","brown","yellow","olive","green","purple","pink"],"door_color_assignment":["black","white"],"door_generator_assignment":[0,1],"goal":2,"start":10,"action_noise":0.15,"location_history":"[10,7,8,5,9,6,10,2]","action_history":"[0,0,0,1,1,1,1]","door_history":"[0,0,0,1,1,1,1]","location_rts":"[2792,3357,948,1545,590,541,1446]","trial_type":"two-door-navigation","trial_index":5,"time_elapsed":193839,"internal_node_id":"0.0-2.0-3.0"},{"group":"dicyclic group of order 12","room_assignment":["red","grey","blue","ivory","orange","cyan","brown","yellow","olive","green","purple","pink"],"door_color_assignment":["black","white"],"door_generator_assignment":[0,1],"goal":5,"start":2,"action_noise":0.15,"location_history":"[2,6,10,2,6,11,4,9,1,2,3,0,4,8,0,4,8,0,4,9,6,11,3,0,4,8,0,4,8,0,1,2,6,11,3,0,1,5]","action_history":"[1,1,1,1,1,0,0,0,0,0,0,1,1,1,1,1,0,0,0,0,0,1,1,1,1,1,1,1,1,0,0,0,0,0,0,0,1]","door_history":"[1,1,1,1,1,0,0,0,0,0,0,1,1,1,1,1,0,0,0,0,0,1,1,1,1,1,1,1,1,0,0,0,0,0,0,0,1]","location_rts":"[1830,546,481,479,523,1340,598,512,456,458,1005,822,442,449,407,452,697,393,435,491,559,1790,631,607,421,420,439,443,531,1135,511,445,371,388,508,437,946]","trial_type":"two-door-navigation","trial_index":6,"time_elapsed":258879,"internal_node_id":"0.0-2.0-4.0"},{"group":"dicyclic group of order 12","room_assignment":["red","grey","blue","ivory","orange","cyan","brown","yellow","olive","green","purple","pink"],"door_color_assignment":["black","white"],"door_generator_assignment":[0,1],"goal":11,"start":5,"action_noise":0.15,"location_history":"[5,10,7,8,5,10,7,11]","action_history":"[0,0,0,0,0,0,0]","door_history":"[0,0,0,0,0,0,0]","location_rts":"[1971,424,483,428,434,396,476]","trial_type":"two-door-navigation","trial_index":7,"time_elapsed":274221,"internal_node_id":"0.0-2.0-5.0"},{"group":"dicyclic group of order 12","room_assignment":["red","grey","blue","ivory","orange","cyan","brown","yellow","olive","green","purple","pink"],"door_color_assignment":["black","white"],"door_generator_assignment":[0,1],"goal":6,"start":11,"action_noise":0.15,"location_history":"[11,3,7,8,0,1,5,9,1,2,6]","action_history":"[1,1,1,1,1,1,1,1,1,1]","door_history":"[1,1,1,1,1,1,1,1,1,1]","location_rts":"[2085,428,449,376,479,522,380,417,411,387]","trial_type":"two-door-navigation","trial_index":8,"time_elapsed":293957,"internal_node_id":"0.0-2.0-6.0"},{"group":"dicyclic group of order 12","room_assignment":["red","grey","blue","ivory","orange","cyan","brown","yellow","olive","green","purple","pink"],"door_color_assignment":["black","white"],"door_generator_assignment":[0,1],"goal":3,"start":6,"action_noise":0.15,"location_history":"[6,11,4,9,6,11,4,9,6,10,2,6,11,4,9,1,5,9,1,5,9,1,2,3]","action_history":"[0,0,0,0,0,0,0,0,1,1,1,1,1,1,1,1,1,1,1,1,1,0,0]","door_history":"[0,0,0,0,0,0,0,0,1,1,1,1,1,1,1,1,1,1,1,1,1,0,0]","location_rts":"[3569,406,358,485,402,333,347,382,410,359,360,403,364,523,458,379,401,366,450,466,417,1163,412]","trial_type":"two-door-navigation","trial_index":9,"time_elapsed":334278,"internal_node_id":"0.0-2.0-7.0"},{"group":"dicyclic group of order 12","room_assignment":["red","grey","blue","ivory","orange","cyan","brown","yellow","olive","green","purple","pink"],"door_color_assignment":["black","white"],"door_generator_assignment":[0,1],"goal":8,"start":3,"action_noise":0.15,"location_history":"[3,0,4,9,1,5,9,1,5,10,2,6,10,2,3,0,1,2,3,0,1,2,3,7,11,3,7,11,3,7,8]","action_history":"[0,0,1,1,1,1,1,1,1,1,1,1,1,0,0,0,0,0,0,0,0,0,1,1,1,1,1,1,1,0]","door_history":"[0,0,1,1,1,1,1,1,1,1,1,1,1,0,0,0,0,0,0,0,0,0,1,1,1,1,1,1,1,0]","location_rts":"[1570,579,721,840,660,452,1707,428,541,384,410,374,425,738,485,411,551,365,433,505,624,436,382,435,356,375,385,472,390,229]","trial_type":"two-door-navigation","trial_index":10,"time_elapsed":385302,"internal_node_id":"0.0-2.0-8.0"},{"group":"dicyclic group of order 12","room_assignment":["red","grey","blue","ivory","orange","cyan","brown","yellow","olive","green","purple","pink"],"door_color_assignment":["black","white"],"door_generator_assignment":[0,1],"goal":1,"start":8,"action_noise":0.15,"location_history":"[8,0,1]","action_history":"[1,0]","door_history":"[1,0]","location_rts":"[2854,816]","trial_type":"two-door-navigation","trial_index":11,"time_elapsed":394535,"internal_node_id":"0.0-2.0-9.0"},{"group":"dicyclic group of order 12","room_assignment":["red","grey","blue","ivory","orange","cyan","brown","yellow","olive","green","purple","pink"],"door_color_assignment":["black","white"],"door_generator_assignment":[0,1],"goal":7,"start":1,"action_noise":0.15,"location_history":"[1,2,6,10,2,3,0,1,5,9,6,10,2,3,0,1,2,3,0,4,9,6,10,2,6,10,7]","action_history":"[0,1,1,1,0,0,0,0,1,1,1,1,0,0,0,0,0,0,0,0,0,1,1,1,1,0]","door_history":"[0,1,1,1,0,0,0,0,1,1,1,1,0,0,0,0,0,0,0,0,0,1,1,1,1,0]","location_rts":"[1025,795,834,1141,1104,430,532,425,429,454,398,372,377,422,384,360,479,378,339,455,255,858,384,366,413,660]","trial_type":"two-door-navigation","trial_index":12,"time_elapsed":438891,"internal_node_id":"0.0-2.0-10.0"},{"group":"dicyclic group of order 12","room_assignment":["red","grey","blue","ivory","orange","cyan","brown","yellow","olive","green","purple","pink"],"door_color_assignment":["black","white"],"door_generator_assignment":[0,1],"goal":5,"start":7,"action_noise":0.15,"location_history":"[7,8,0,4,8,0,4,9,1,2,6,11,4,9,6,10,2,3,7,11,3,0,1,2,6,11,4,8,5]","action_history":"[0,0,1,1,0,1,0,1,0,1,0,0,0,0,1,1,1,1,1,1,0,0,0,0,0,1,1,0]","door_history":"[0,0,1,1,0,1,0,1,0,1,0,0,0,0,1,1,1,1,1,1,0,0,0,0,0,1,1,0]","location_rts":"[173,553,727,349,789,677,872,747,730,713,633,1328,588,404,357,394,404,883,405,370,651,410,347,370,354,305,384,522]","trial_type":"two-door-navigation","trial_index":13,"time_elapsed":486685,"internal_node_id":"0.0-2.0-11.0"},{"group":"dicyclic group of order 12","room_assignment":["red","grey","blue","ivory","orange","cyan","brown","yellow","olive","green","purple","pink"],"door_color_assignment":["black","white"],"door_generator_assignment":[0,1],"goal":8,"start":5,"action_noise":0.15,"location_history":"[5,9,1,5,9,6,11,4,9,1,5,9,6,11,4,9,6,10,2,6,11,3,7,8]","action_history":"[0,1,1,1,0,0,0,0,1,1,1,0,0,0,0,1,1,1,1,0,0,0,0]","door_history":"[0,1,1,1,0,0,0,0,1,1,1,0,0,0,0,1,1,1,1,0,0,0,0]","location_rts":"[1288,1073,949,537,1473,701,559,504,1496,637,493,1019,939,724,718,338,453,606,633,1602,606,585,509]","trial_type":"two-door-navigation","trial_index":14,"time_elapsed":532303,"internal_node_id":"0.0-2.0-12.0"},{"group":"dicyclic group of order 12","room_assignment":["red","grey","blue","ivory","orange","cyan","brown","yellow","olive","green","purple","pink"],"door_color_assignment":["black","white"],"door_generator_assignment":[0,1],"goal":11,"start":8,"action_noise":0.15,"location_history":"[8,5,9,6,11]","action_history":"[0,0,0,0]","door_history":"[0,0,0,0]","location_rts":"[1462,419,367,335]","trial_type":"two-door-navigation","trial_index":15,"time_elapsed":542509,"internal_node_id":"0.0-2.0-13.0"},{"group":"dicyclic group of order 12","room_assignment":["red","grey","blue","ivory","orange","cyan","brown","yellow","olive","green","purple","pink"],"door_color_assignment":["black","white"],"door_generator_assignment":[0,1],"goal":6,"start":11,"action_noise":0.15,"location_history":"[11,4,9,6]","action_history":"[0,1,0]","door_history":"[0,1,0]","location_rts":"[2672,706,591]","trial_type":"two-door-navigation","trial_index":16,"time_elapsed":553061,"internal_node_id":"0.0-2.0-14.0"},{"group":"dicyclic group of order 12","room_assignment":["red","grey","blue","ivory","orange","cyan","brown","yellow","olive","green","purple","pink"],"door_color_assignment":["black","white"],"door_generator_assignment":[0,1],"goal":7,"start":6,"action_noise":0.15,"location_history":"[6,10,7]","action_history":"[1,0]","door_history":"[1,0]","location_rts":"[1798,984]","trial_type":"two-door-navigation","trial_index":17,"time_elapsed":561417,"internal_node_id":"0.0-2.0-15.0"},{"group":"dicyclic group of order 12","room_assignment":["red","grey","blue","ivory","orange","cyan","brown","yellow","olive","green","purple","pink"],"door_color_assignment":["black","white"],"door_generator_assignment":[0,1],"goal":10,"start":7,"action_noise":0.15,"location_history":"[7,8,5,9,6,10]","action_history":"[1,0,0,0,1]","door_history":"[1,0,0,0,1]","location_rts":"[2366,1325,887,600,721]","trial_type":"two-door-navigation","trial_index":18,"time_elapsed":575980,"internal_node_id":"0.0-2.0-16.0"},{"group":"dicyclic group of order 12","room_assignment":["red","grey","blue","ivory","orange","cyan","brown","yellow","olive","green","purple","pink"],"door_color_assignment":["black","white"],"door_generator_assignment":[0,1],"goal":0,"start":10,"action_noise":0.15,"location_history":"[10,2,6,10,7,8,5,9,6,11,3,7,11,4,9,1,2,3,0]","action_history":"[1,0,0,0,0,0,1,1,1,1,1,1,0,0,0,0,0,0]","door_history":"[1,0,0,0,0,0,1,1,1,1,1,1,0,0,0,0,0,0]","location_rts":"[1236,360,466,465,524,409,425,416,493,400,388,401,410,406,358,465,487,397]","trial_type":"two-door-navigation","trial_index":19,"time_elapsed":606522,"internal_node_id":"0.0-2.0-17.0"},{"group":"dicyclic group of order 12","room_assignment":["red","grey","blue","ivory","orange","cyan","brown","yellow","olive","green","purple","pink"],"door_color_assignment":["black","white"],"door_generator_assignment":[0,1],"goal":9,"start":0,"action_noise":0.15,"location_history":"[0,1,2,3,0,4,9]","action_history":"[0,0,0,0,0,0]","door_history":"[0,0,0,0,0,0]","location_rts":"[1275,595,226,299,306,569]","trial_type":"two-door-navigation","trial_index":20,"time_elapsed":619469,"internal_node_id":"0.0-2.0-18.0"},{"group":"dicyclic group of order 12","room_assignment":["red","grey","blue","ivory","orange","cyan","brown","yellow","olive","green","purple","pink"],"door_color_assignment":["black","white"],"door_generator_assignment":[0,1],"goal":4,"start":9,"action_noise":0.15,"location_history":"[9,6,11,4]","action_history":"[0,0,0]","door_history":"[0,0,0]","location_rts":"[1155,444,366]","trial_type":"two-door-navigation","trial_index":21,"time_elapsed":628015,"internal_node_id":"0.0-2.0-19.0"},{"group":"dicyclic group of order 12","room_assignment":["red","grey","blue","ivory","orange","cyan","brown","yellow","olive","green","purple","pink"],"door_color_assignment":["black","white"],"door_generator_assignment":[0,1],"goal":2,"start":4,"action_noise":0.15,"location_history":"[4,8,0,4,8,0,1,5,10,7,8,0,4,8,5,9,6,11,4,8,0,1,2]","action_history":"[1,1,1,1,1,1,1,0,0,0,1,0,1,0,1,0,0,0,1,1,0,0]","door_history":"[1,1,1,1,1,1,1,0,0,0,1,0,1,0,1,0,0,0,1,1,0,0]","location_rts":"[1588,499,388,389,493,1040,618,300,753,986,399,406,653,476,715,408,406,380,855,469,357,370]","trial_type":"two-door-navigation","trial_index":22,"time_elapsed":667115,"internal_node_id":"0.0-2.0-20.0"},{"group":"dicyclic group of order 12","room_assignment":["red","grey","blue","ivory","orange","cyan","brown","yellow","olive","green","purple","pink"],"door_color_assignment":["black","white"],"door_generator_assignment":[0,1],"goal":1,"start":2,"action_noise":0.15,"location_history":"[2,6,10,2,6,10,2,6,10,7,11,3,7,11,4,8,5,10,7,8,0,4,8,5,9,1]","action_history":"[0,1,1,1,1,1,1,1,1,1,1,1,1,0,0,0,0,0,0,0,1,1,0,1,0]","door_history":"[0,1,1,1,1,1,1,1,1,1,1,1,1,0,0,0,0,0,0,0,1,1,0,1,0]","location_rts":"[1062,464,310,356,368,420,409,390,352,569,733,1383,501,807,385,384,357,437,700,362,278,449,350,405,462]","trial_type":"two-door-navigation","trial_index":23,"time_elapsed":708935,"internal_node_id":"0.0-2.0-21.0"},{"group":"dicyclic group of order 12","room_assignment":["red","grey","blue","ivory","orange","cyan","brown","yellow","olive","green","purple","pink"],"door_color_assignment":["black","white"],"door_generator_assignment":[0,1],"goal":3,"start":1,"action_noise":0.15,"location_history":"[1,2,6,10,2,3]","action_history":"[0,1,1,1,1]","door_history":"[0,1,1,1,1]","location_rts":"[1437,367,410,351,608]","trial_type":"two-door-navigation","trial_index":24,"time_elapsed":720765,"internal_node_id":"0.0-2.0-22.0"},{"group":"dicyclic group of order 12","room_assignment":["red","grey","blue","ivory","orange","cyan","brown","yellow","olive","green","purple","pink"],"door_color_assignment":["black","white"],"door_generator_assignment":[0,1],"goal":7,"start":3,"action_noise":0.15,"location_history":"[3,7]","action_history":"[0]","door_history":"[0]","location_rts":"[2139]","trial_type":"two-door-navigation","trial_index":25,"time_elapsed":727436,"internal_node_id":"0.0-2.0-23.0"},{"group":"dicyclic group of order 12","room_assignment":["red","grey","blue","ivory","orange","cyan","brown","yellow","olive","green","purple","pink"],"door_color_assignment":["black","white"],"door_generator_assignment":[0,1],"goal":6,"start":7,"action_noise":0.15,"location_history":"[7,8,5,10,2,3,0,1,5,9,1,5,10,7,11,3,0,1,2,6]","action_history":"[0,0,1,1,0,0,0,1,1,1,0,0,1,1,1,0,0,0,0]","door_history":"[0,0,1,1,0,0,0,1,1,1,0,0,1,1,1,0,0,0,0]","location_rts":"[888,1676,698,687,441,899,420,679,477,361,743,358,471,989,338,638,753,422,430]","trial_type":"two-door-navigation","trial_index":26,"time_elapsed":762787,"internal_node_id":"0.0-2.0-24.0"},{"group":"dicyclic group of order 12","room_assignment":["red","grey","blue","ivory","orange","cyan","brown","yellow","olive","green","purple","pink"],"door_color_assignment":["black","white"],"door_generator_assignment":[0,1],"goal":2,"start":6,"action_noise":0.15,"location_history":"[6,11,4,8,0,1,2]","action_history":"[1,0,0,0,0,1]","door_history":"[1,0,0,0,0,1]","location_rts":"[7466,507,370,399,357,172]","trial_type":"two-door-navigation","trial_index":27,"time_elapsed":781744,"internal_node_id":"0.0-2.0-25.0"},{"group":"dicyclic group of order 12","room_assignment":["red","grey","blue","ivory","orange","cyan","brown","yellow","olive","green","purple","pink"],"door_color_assignment":["black","white"],"door_generator_assignment":[0,1],"goal":8,"start":2,"action_noise":0.15,"location_history":"[2,6,11,4,9,6,10,2,6,11,3,7,8]","action_history":"[1,0,0,0,0,1,1,0,0,1,1,1]","door_history":"[1,0,0,0,0,1,1,0,0,1,1,1]","location_rts":"[1231,732,670,558,848,541,495,400,570,129,361,252]","trial_type":"two-door-navigation","trial_index":28,"time_elapsed":804338,"internal_node_id":"0.0-2.0-26.0"},{"group":"dicyclic group of order 12","room_assignment":["red","grey","blue","ivory","orange","cyan","brown","yellow","olive","green","purple","pink"],"door_color_assignment":["black","white"],"door_generator_assignment":[0,1],"goal":0,"start":8,"action_noise":0.15,"location_history":"[8,5,10,2,3,7,11,3,0]","action_history":"[0,0,0,1,1,1,1,1]","door_history":"[0,0,0,1,1,1,1,1]","location_rts":"[1508,470,359,740,410,377,335,302]","trial_type":"two-door-navigation","trial_index":29,"time_elapsed":820560,"internal_node_id":"0.0-2.0-27.0"},{"group":"dicyclic group of order 12","room_assignment":["red","grey","blue","ivory","orange","cyan","brown","yellow","olive","green","purple","pink"],"door_color_assignment":["black","white"],"door_generator_assignment":[0,1],"goal":3,"start":0,"action_noise":0.15,"location_history":"[0,4,8,5,10,2,3]","action_history":"[1,0,0,0,1,1]","door_history":"[1,0,0,0,1,1]","location_rts":"[1767,752,478,476,284,366]","trial_type":"two-door-navigation","trial_index":30,"time_elapsed":834314,"internal_node_id":"0.0-2.0-28.0"},{"group":"dicyclic group of order 12","room_assignment":["red","grey","blue","ivory","orange","cyan","brown","yellow","olive","green","purple","pink"],"door_color_assignment":["black","white"],"door_generator_assignment":[0,1],"goal":4,"start":3,"action_noise":0.15,"location_history":"[3,0,4]","action_history":"[0,1]","door_history":"[0,1]","location_rts":"[2043,789]","trial_type":"two-door-navigation","trial_index":31,"time_elapsed":842697,"internal_node_id":"0.0-2.0-29.0"},{"group":"dicyclic group of order 12","room_assignment":["red","grey","blue","ivory","orange","cyan","brown","yellow","olive","green","purple","pink"],"door_color_assignment":["black","white"],"door_generator_assignment":[0,1],"goal":10,"start":4,"action_noise":0.15,"location_history":"[4,8,0,1,5,9,1,2,3,7,8,0,4,8,0,4,8,0,4,9,1,5,9,1,5,9,6,11,4,9,6,11,4,9,6,11,3,0,1,5,9,6,10]","action_history":"[0,1,0,1,1,1,0,0,0,0,0,1,1,1,1,0,1,1,0,1,1,1,1,1,1,0,0,0,0,0,0,0,0,0,1,1,0,0,1,1,0,0]","door_history":"[0,1,0,1,1,1,0,0,0,0,0,1,1,1,1,0,1,1,0,1,1,1,1,1,1,0,0,0,0,0,0,0,0,0,1,1,0,0,1,1,0,0]","location_rts":"[498,422,1610,644,409,311,443,565,501,534,626,582,368,565,407,704,626,455,1974,2291,821,783,1112,677,641,1198,379,331,311,380,407,386,484,340,1024,424,271,321,175,362,340,419]","trial_type":"two-door-navigation","trial_index":32,"time_elapsed":915495,"internal_node_id":"0.0-2.0-30.0"},{"group":"dicyclic group of order 12","room_assignment":["red","grey","blue","ivory","orange","cyan","brown","yellow","olive","green","purple","pink"],"door_color_assignment":["black","white"],"door_generator_assignment":[0,1],"goal":11,"start":10,"action_noise":0.15,"location_history":"[10,7,8,0,4,8,0,4,8,5,9,1,5,10,7,8,5,9,6,11]","action_history":"[0,1,1,1,1,1,1,1,1,1,1,0,0,0,0,0,1,0,0]","door_history":"[0,1,1,1,1,1,1,1,1,1,1,0,0,0,0,0,1,0,0]","location_rts":"[1214,905,416,362,264,187,282,187,221,259,237,367,354,360,348,503,296,1120,318]","trial_type":"two-door-navigation","trial_index":33,"time_elapsed":946761,"internal_node_id":"0.0-2.0-31.0"},{"group":"dicyclic group of order 12","room_assignment":["red","grey","blue","ivory","orange","cyan","brown","yellow","olive","green","purple","pink"],"door_color_assignment":["black","white"],"door_generator_assignment":[0,1],"goal":1,"start":11,"action_noise":0.15,"location_history":"[11,3,7,8,5,9,6,11,4,9,1]","action_history":"[1,1,0,0,1,1,0,0,0,1]","door_history":"[1,1,0,0,1,1,0,0,0,1]","location_rts":"[765,419,294,462,315,458,327,305,381,880]","trial_type":"two-door-navigation","trial_index":34,"time_elapsed":965158,"internal_node_id":"0.0-2.0-32.0"},{"group":"dicyclic group of order 12","room_assignment":["red","grey","blue","ivory","orange","cyan","brown","yellow","olive","green","purple","pink"],"door_color_assignment":["black","white"],"door_generator_assignment":[0,1],"goal":5,"start":1,"action_noise":0.15,"location_history":"[1,2,6,10,7,8,0,4,9,6,11,3,0,1,2,6,11,3,0,1,2,6,11,4,8,0,1,2,6,10,2,6,11,4,8,5]","action_history":"[0,1,1,0,0,1,1,0,0,0,1,1,1,1,0,0,1,0,1,0,1,0,0,1,1,0,0,1,1,0,1,0,0,1,0]","door_history":"[0,1,1,0,0,1,1,0,0,0,1,1,1,1,0,0,1,0,1,0,1,0,0,1,1,0,0,1,1,0,1,0,0,1,0]","location_rts":"[2296,333,317,315,409,313,371,329,379,383,189,345,214,452,160,598,311,530,444,485,434,697,977,365,1281,406,448,292,345,399,528,379,914,300,506]","trial_type":"two-door-navigation","trial_index":35,"time_elapsed":1022058,"internal_node_id":"0.0-2.0-33.0"},{"group":"dicyclic group of order 12","room_assignment":["red","grey","blue","ivory","orange","cyan","brown","yellow","olive","green","purple","pink"],"door_color_assignment":["black","white"],"door_generator_assignment":[0,1],"goal":9,"start":5,"action_noise":0.15,"location_history":"[5,10,2,6,11,3,7,8,5,9]","action_history":"[0,1,1,0,1,1,0,0,1]","door_history":"[0,1,1,0,1,1,0,0,1]","location_rts":"[2163,592,965,657,593,367,122,1515,237]","trial_type":"two-door-navigation","trial_index":36,"time_elapsed":1042052,"internal_node_id":"0.0-2.0-34.0"},{"view_history":"[{\"page_index\":0,\"viewing_time\":3507}]","rt":3507,"trial_type":"instructions","trial_index":37,"time_elapsed":1046562,"internal_node_id":"0.0-3.0"},{"view_history":"[{\"page_index\":0,\"viewing_time\":3422},{\"page_index\":1,\"viewing_time\":28830}]","rt":32252,"trial_type":"instructions","trial_index":38,"time_elapsed":1079815,"internal_node_id":"0.0-4.0"},{"group":"dicyclic group of order 12","fractal_assignment":["../images/ylw_pnk.png","../images/org_blu.png","../images/wht_red.png","../images/pnk_blu.png","../images/gry_blk.png","../images/cyn_red.png","../images/red_prp.png","../images/grn_red.png","../images/grn_prp.png","../images/ylw_slt.png","../images/grn_blu.png","../images/blu_wht.png"],"mutagen_generator_assignment":[1,0],"goal":4,"start":0,"action_noise":0.15,"location_history":"[0,4]","action_history":"[1]","mutagen_history":"[0]","location_rts":"[16446]","trial_type":"fractal-mutation","trial_index":39,"time_elapsed":1100936,"internal_node_id":"0.0-5.0-0.0"},{"group":"dicyclic group of order 12","fractal_assignment":["../images/ylw_pnk.png","../images/org_blu.png","../images/wht_red.png","../images/pnk_blu.png","../images/gry_blk.png","../images/cyn_red.png","../images/red_prp.png","../images/grn_red.png","../images/grn_prp.png","../images/ylw_slt.png","../images/grn_blu.png","../images/blu_wht.png"],"mutagen_generator_assignment":[1,0],"goal":9,"start":4,"action_noise":0.15,"location_history":"[4,8,0,4,9]","action_history":"[1,1,1,0]","mutagen_history":"[0,0,0,1]","location_rts":"[10190,1502,5993,7158]","trial_type":"fractal-mutation","trial_index":40,"time_elapsed":1133968,"internal_node_id":"0.0-5.0-1.0"},{"group":"dicyclic group of order 12","fractal_assignment":["../images/ylw_pnk.png","../images/org_blu.png","../images/wht_red.png","../images/pnk_blu.png","../images/gry_blk.png","../images/cyn_red.png","../images/red_prp.png","../images/grn_red.png","../images/grn_prp.png","../images/ylw_slt.png","../images/grn_blu.png","../images/blu_wht.png"],"mutagen_generator_assignment":[1,0],"goal":10,"start":9,"action_noise":0.15,"location_history":"[9,6,10]","action_history":"[0,1]","mutagen_history":"[1,0]","location_rts":"[4048,1801]","trial_type":"fractal-mutation","trial_index":41,"time_elapsed":1145734,"internal_node_id":"0.0-5.0-2.0"},{"group":"dicyclic group of order 12","fractal_assignment":["../images/ylw_pnk.png","../images/org_blu.png","../images/wht_red.png","../images/pnk_blu.png","../images/gry_blk.png","../images/cyn_red.png","../images/red_prp.png","../images/grn_red.png","../images/grn_prp.png","../images/ylw_slt.png","../images/grn_blu.png","../images/blu_wht.png"],"mutagen_generator_assignment":[1,0],"goal":2,"start":10,"action_noise":0.15,"location_history":"[10,7,8,0,1,2]","action_history":"[0,0,1,0,0]","mutagen_history":"[1,1,0,1,1]","location_rts":"[2033,2295,2393,1539,979]","trial_type":"fractal-mutation","trial_index":42,"time_elapsed":1164506,"internal_node_id":"0.0-5.0-3.0"},{"group":"dicyclic group of order 12","fractal_assignment":["../images/ylw_pnk.png","../images/org_blu.png","../images/wht_red.png","../images/pnk_blu.png","../images/gry_blk.png","../images/cyn_red.png","../images/red_prp.png","../images/grn_red.png","../images/grn_prp.png","../images/ylw_slt.png","../images/grn_blu.png","../images/blu_wht.png"],"mutagen_generator_assignment":[1,0],"goal":5,"start":2,"action_noise":0.15,"location_history":"[2,3,0,4,8,5]","action_history":"[0,0,1,1,0]","mutagen_history":"[1,1,0,0,1]","location_rts":"[3797,904,1735,838,1134]","trial_type":"fractal-mutation","trial_index":43,"time_elapsed":1182304,"internal_node_id":"0.0-5.0-4.0"},{"group":"dicyclic group of order 12","fractal_assignment":["../images/ylw_pnk.png","../images/org_blu.png","../images/wht_red.png","../images/pnk_blu.png","../images/gry_blk.png","../images/cyn_red.png","../images/red_prp.png","../images/grn_red.png","../images/grn_prp.png","../images/ylw_slt.png","../images/grn_blu.png","../images/blu_wht.png"],"mutagen_generator_assignment":[1,0],"goal":11,"start":5,"action_noise":0.15,"location_history":"[5,9,1,5,10,2,3,0,4,8,5,9,1,2,6,11]","action_history":"[1,0,1,0,1,0,0,1,1,0,1,1,0,1,0]","mutagen_history":"[0,1,0,1,0,1,1,0,0,1,0,0,1,0,1]","location_rts":"[792,927,1240,1413,787,980,933,879,900,736,1323,1128,1460,1120,736]","trial_type":"fractal-mutation","trial_index":44,"time_elapsed":1218890,"internal_node_id":"0.0-5.0-5.0"},{"group":"dicyclic group of order 12","fractal_assignment":["../images/ylw_pnk.png","../images/org_blu.png","../images/wht_red.png","../images/pnk_blu.png","../images/gry_blk.png","../images/cyn_red.png","../images/red_prp.png","../images/grn_red.png","../images/grn_prp.png","../images/ylw_slt.png","../images/grn_blu.png","../images/blu_wht.png"],"mutagen_generator_assignment":[1,0],"goal":6,"start":11,"action_noise":0.15,"location_history":"[11,4,9,6]","action_history":"[0,0,0]","mutagen_history":"[1,1,1]","location_rts":"[4971,1064,710]","trial_type":"fractal-mutation","trial_index":45,"time_elapsed":1232829,"internal_node_id":"0.0-5.0-6.0"},{"group":"dicyclic group of order 12","fractal_assignment":["../images/ylw_pnk.png","../images/org_blu.png","../images/wht_red.png","../images/pnk_blu.png","../images/gry_blk.png","../images/cyn_red.png","../images/red_prp.png","../images/grn_red.png","../images/grn_prp.png","../images/ylw_slt.png","../images/grn_blu.png","../images/blu_wht.png"],"mutagen_generator_assignment":[1,0],"goal":3,"start":6,"action_noise":0.15,"location_history":"[6,11,3]","action_history":"[0,0]","mutagen_history":"[1,1]","location_rts":"[2671,574]","trial_type":"fractal-mutation","trial_index":46,"time_elapsed":1242032,"internal_node_id":"0.0-5.0-7.0"},{"group":"dicyclic group of order 12","fractal_assignment":["../images/ylw_pnk.png","../images/org_blu.png","../images/wht_red.png","../images/pnk_blu.png","../images/gry_blk.png","../images/cyn_red.png","../images/red_prp.png","../images/grn_red.png","../images/grn_prp.png","../images/ylw_slt.png","../images/grn_blu.png","../images/blu_wht.png"],"mutagen_generator_assignment":[1,0],"goal":8,"start":3,"action_noise":0.15,"location_history":"[3,7,8]","action_history":"[1,0]","mutagen_history":"[0,1]","location_rts":"[4560,1397]","trial_type":"fractal-mutation","trial_index":47,"time_elapsed":1253804,"internal_node_id":"0.0-5.0-8.0"},{"group":"dicyclic group of order 12","fractal_assignment":["../images/ylw_pnk.png","../images/org_blu.png","../images/wht_red.png","../images/pnk_blu.png","../images/gry_blk.png","../images/cyn_red.png","../images/red_prp.png","../images/grn_red.png","../images/grn_prp.png","../images/ylw_slt.png","../images/grn_blu.png","../images/blu_wht.png"],"mutagen_generator_assignment":[1,0],"goal":1,"start":8,"action_noise":0.15,"location_history":"[8,5,9,1]","action_history":"[1,1,0]","mutagen_history":"[0,0,1]","location_rts":"[2387,924,950]","trial_type":"fractal-mutation","trial_index":48,"time_elapsed":1265144,"internal_node_id":"0.0-5.0-9.0"},{"group":"dicyclic group of order 12","fractal_assignment":["../images/ylw_pnk.png","../images/org_blu.png","../images/wht_red.png","../images/pnk_blu.png","../images/gry_blk.png","../images/cyn_red.png","../images/red_prp.png","../images/grn_red.png","../images/grn_prp.png","../images/ylw_slt.png","../images/grn_blu.png","../images/blu_wht.png"],"mutagen_generator_assignment":[1,0],"goal":7,"start":1,"action_noise":0.15,"location_history":"[1,5,9,1,2,3,7]","action_history":"[1,1,1,1,0,1]","mutagen_history":"[0,0,0,0,1,0]","location_rts":"[1715,1146,1378,710,597,1962]","trial_type":"fractal-mutation","trial_index":49,"time_elapsed":1283094,"internal_node_id":"0.0-5.0-10.0"},{"group":"dicyclic group of order 12","fractal_assignment":["../images/ylw_pnk.png","../images/org_blu.png","../images/wht_red.png","../images/pnk_blu.png","../images/gry_blk.png","../images/cyn_red.png","../images/red_prp.png","../images/grn_red.png","../images/grn_prp.png","../images/ylw_slt.png","../images/grn_blu.png","../images/blu_wht.png"],"mutagen_generator_assignment":[1,0],"goal":5,"start":7,"action_noise":0.15,"location_history":"[7,8,5]","action_history":"[0,0]","mutagen_history":"[1,1]","location_rts":"[4048,1562]","trial_type":"fractal-mutation","trial_index":50,"time_elapsed":1294647,"internal_node_id":"0.0-5.0-11.0"},{"group":"dicyclic group of order 12","fractal_assignment":["../images/ylw_pnk.png","../images/org_blu.png","../images/wht_red.png","../images/pnk_blu.png","../images/gry_blk.png","../images/cyn_red.png","../images/red_prp.png","../images/grn_red.png","../images/grn_prp.png","../images/ylw_slt.png","../images/grn_blu.png","../images/blu_wht.png"],"mutagen_generator_assignment":[1,0],"goal":8,"start":5,"action_noise":0.15,"location_history":"[5,9,6,11,4,9,1,5,9,6,11,3,0,4,9,1,2,6,11,3,7,8]","action_history":"[1,0,0,0,0,1,1,1,0,0,1,0,1,0,1,0,1,0,1,1,0]","mutagen_history":"[0,1,1,1,1,0,0,0,1,1,0,1,0,1,0,1,0,1,0,0,1]","location_rts":"[1649,2598,1116,717,574,600,836,1130,1238,1004,707,858,674,1761,562,428,718,479,861,1382,935]","trial_type":"fractal-mutation","trial_index":51,"time_elapsed":1343897,"internal_node_id":"0.0-5.0-12.0"},{"group":"dicyclic group of order 12","fractal_assignment":["../images/ylw_pnk.png","../images/org_blu.png","../images/wht_red.png","../images/pnk_blu.png","../images/gry_blk.png","../images/cyn_red.png","../images/red_prp.png","../images/grn_red.png","../images/grn_prp.png","../images/ylw_slt.png","../images/grn_blu.png","../images/blu_wht.png"],"mutagen_generator_assignment":[1,0],"goal":11,"start":8,"action_noise":0.15,"location_history":"[8,0,4,9,6,10,2,6,10,2,3,0,1,5,10,7,11]","action_history":"[1,1,0,0,1,1,1,1,1,0,0,0,0,1,0,1]","mutagen_history":"[0,0,1,1,0,0,0,0,0,1,1,1,1,0,1,0]","location_rts":"[1660,546,975,1145,589,497,945,528,1294,755,1153,443,443,370,457,435]","trial_type":"fractal-mutation","trial_index":52,"time_elapsed":1378666,"internal_node_id":"0.0-5.0-13.0"},{"group":"dicyclic group of order 12","fractal_assignment":["../images/ylw_pnk.png","../images/org_blu.png","../images/wht_red.png","../images/pnk_blu.png","../images/gry_blk.png","../images/cyn_red.png","../images/red_prp.png","../images/grn_red.png","../images/grn_prp.png","../images/ylw_slt.png","../images/grn_blu.png","../images/blu_wht.png"],"mutagen_generator_assignment":[1,0],"goal":6,"start":11,"action_noise":0.15,"location_history":"[11,3,0,4,9,1,2,3,0,4,8,5,10,2,3,0,4,9,1,5,9,1,5,9,1,2,3,7,8,5,9,6]","action_history":"[0,0,1,0,1,0,1,0,1,0,0,0,1,0,0,1,1,1,1,1,1,1,1,1,0,0,1,0,0,1,0]","mutagen_history":"[1,1,0,1,0,1,0,1,0,1,1,1,0,1,1,0,0,0,0,0,0,0,0,0,1,1,0,1,1,0,1]","location_rts":"[1469,924,775,1414,770,1078,694,348,647,451,415,563,475,317,1037,502,931,456,1009,434,497,413,472,527,499,644,434,690,984,497,782]","trial_type":"fractal-mutation","trial_index":53,"time_elapsed":1440251,"internal_node_id":"0.0-5.0-14.0"},{"group":"dicyclic group of order 12","fractal_assignment":["../images/ylw_pnk.png","../images/org_blu.png","../images/wht_red.png","../images/pnk_blu.png","../images/gry_blk.png","../images/cyn_red.png","../images/red_prp.png","../images/grn_red.png","../images/grn_prp.png","../images/ylw_slt.png","../images/grn_blu.png","../images/blu_wht.png"],"mutagen_generator_assignment":[1,0],"goal":7,"start":6,"action_noise":0.15,"location_history":"[6,11,4,8,0,1,5,9,6,11,3,7]","action_history":"[0,0,1,1,1,1,1,1,1,1,1]","mutagen_history":"[1,1,0,0,0,0,0,0,0,0,0]","location_rts":"[2040,1353,770,813,385,614,608,505,724,497,417]","trial_type":"fractal-mutation","trial_index":54,"time_elapsed":1465311,"internal_node_id":"0.0-5.0-15.0"},{"group":"dicyclic group of order 12","fractal_assignment":["../images/ylw_pnk.png","../images/org_blu.png","../images/wht_red.png","../images/pnk_blu.png","../images/gry_blk.png","../images/cyn_red.png","../images/red_prp.png","../images/grn_red.png","../images/grn_prp.png","../images/ylw_slt.png","../images/grn_blu.png","../images/blu_wht.png"],"mutagen_generator_assignment":[1,0],"goal":10,"start":7,"action_noise":0.15,"location_history":"[7,8,5,10]","action_history":"[0,0,0]","mutagen_history":"[1,1,1]","location_rts":"[2141,1044,524]","trial_type":"fractal-mutation","trial_index":55,"time_elapsed":1476270,"internal_node_id":"0.0-5.0-16.0"},{"group":"dicyclic group of order 12","fractal_assignment":["../images/ylw_pnk.png","../images/org_blu.png","../images/wht_red.png","../images/pnk_blu.png","../images/gry_blk.png","../images/cyn_red.png","../images/red_prp.png","../images/grn_red.png","../images/grn_prp.png","../images/ylw_slt.png","../images/grn_blu.png","../images/blu_wht.png"],"mutagen_generator_assignment":[1,0],"goal":0,"start":10,"action_noise":0.15,"location_history":"[10,2,6,10,2,6,10,7,11,3,0]","action_history":"[1,1,1,1,1,1,0,1,1,1]","mutagen_history":"[0,0,0,0,0,0,1,0,0,0]","location_rts":"[466,370,518,448,474,449,440,1866,463,352]","trial_type":"fractal-mutation","trial_index":56,"time_elapsed":1497223,"internal_node_id":"0.0-5.0-17.0"},{"group":"dicyclic group of order 12","fractal_assignment":["../images/ylw_pnk.png","../images/org_blu.png","../images/wht_red.png","../images/pnk_blu.png","../images/gry_blk.png","../images/cyn_red.png","../images/red_prp.png","../images/grn_red.png","../images/grn_prp.png","../images/ylw_slt.png","../images/grn_blu.png","../images/blu_wht.png"],"mutagen_generator_assignment":[1,0],"goal":9,"start":0,"action_noise":0.15,"location_history":"[0,1,2,6,11,3,7,8,0,4,9]","action_history":"[0,0,1,0,1,1,0,1,1,0]","mutagen_history":"[1,1,0,1,0,0,1,0,0,1]","location_rts":"[1643,947,822,875,923,688,926,510,492,295]","trial_type":"fractal-mutation","trial_index":57,"time_elapsed":1520756,"internal_node_id":"0.0-5.0-18.0"},{"group":"dicyclic group of order 12","fractal_assignment":["../images/ylw_pnk.png","../images/org_blu.png","../images/wht_red.png","../images/pnk_blu.png","../images/gry_blk.png","../images/cyn_red.png","../images/red_prp.png","../images/grn_red.png","../images/grn_prp.png","../images/ylw_slt.png","../images/grn_blu.png","../images/blu_wht.png"],"mutagen_generator_assignment":[1,0],"goal":4,"start":9,"action_noise":0.15,"location_history":"[9,6,11,4]","action_history":"[0,0,0]","mutagen_history":"[1,1,1]","location_rts":"[5959,446,504]","trial_type":"fractal-mutation","trial_index":58,"time_elapsed":1534837,"internal_node_id":"0.0-5.0-19.0"},{"group":"dicyclic group of order 12","fractal_assignment":["../images/ylw_pnk.png","../images/org_blu.png","../images/wht_red.png","../images/pnk_blu.png","../images/gry_blk.png","../images/cyn_red.png","../images/red_prp.png","../images/grn_red.png","../images/grn_prp.png","../images/ylw_slt.png","../images/grn_blu.png","../images/blu_wht.png"],"mutagen_generator_assignment":[1,0],"goal":2,"start":4,"action_noise":0.15,"location_history":"[4,9,6,11,3,0,4,9,1,5,9,1,5,9,1,2]","action_history":"[0,0,0,0,0,0,0,1,1,1,1,1,1,1,0]","mutagen_history":"[1,1,1,1,1,1,1,0,0,0,0,0,0,0,1]","location_rts":"[2347,403,428,601,892,583,363,410,363,328,452,442,313,412,931]","trial_type":"fractal-mutation","trial_index":59,"time_elapsed":1565453,"internal_node_id":"0.0-5.0-20.0"},{"group":"dicyclic group of order 12","fractal_assignment":["../images/ylw_pnk.png","../images/org_blu.png","../images/wht_red.png","../images/pnk_blu.png","../images/gry_blk.png","../images/cyn_red.png","../images/red_prp.png","../images/grn_red.png","../images/grn_prp.png","../images/ylw_slt.png","../images/grn_blu.png","../images/blu_wht.png"],"mutagen_generator_assignment":[1,0],"goal":1,"start":2,"action_noise":0.15,"location_history":"[2,3,0,4,8,0,4,9,6,11,4,8,0,4,8,5,9,6,10,7,8,0,4,9,1]","action_history":"[0,0,1,1,1,1,0,0,1,0,1,1,1,1,0,1,0,1,0,0,0,1,0,1]","mutagen_history":"[1,1,0,0,0,0,1,1,0,1,0,0,0,0,1,0,1,0,1,1,1,0,1,0]","location_rts":"[2221,1342,1189,1100,922,1095,758,1573,832,433,398,690,1058,923,467,495,459,1104,1230,522,916,1393,664,952]","trial_type":"fractal-mutation","trial_index":60,"time_elapsed":1620174,"internal_node_id":"0.0-5.0-21.0"},{"group":"dicyclic group of order 12","fractal_assignment":["../images/ylw_pnk.png","../images/org_blu.png","../images/wht_red.png","../images/pnk_blu.png","../images/gry_blk.png","../images/cyn_red.png","../images/red_prp.png","../images/grn_red.png","../images/grn_prp.png","../images/ylw_slt.png","../images/grn_blu.png","../images/blu_wht.png"],"mutagen_generator_assignment":[1,0],"goal":3,"start":1,"action_noise":0.15,"location_history":"[1,2,6,10,7,8,5,9,6,11,4,8,5,9,6,10,7,11,3]","action_history":"[0,1,1,0,1,0,1,0,0,0,0,0,1,1,1,1,1,1]","mutagen_history":"[1,0,0,1,0,1,0,1,1,1,1,1,0,0,0,0,0,0]","location_rts":"[1653,1849,974,539,482,461,513,430,465,531,417,377,421,427,305,574,608,560]","trial_type":"fractal-mutation","trial_index":61,"time_elapsed":1656546,"internal_node_id":"0.0-5.0-22.0"},{"group":"dicyclic group of order 12","fractal_assignment":["../images/ylw_pnk.png","../images/org_blu.png","../images/wht_red.png","../images/pnk_blu.png","../images/gry_blk.png","../images/cyn_red.png","../images/red_prp.png","../images/grn_red.png","../images/grn_prp.png","../images/ylw_slt.png","../images/grn_blu.png","../images/blu_wht.png"],"mutagen_generator_assignment":[1,0],"goal":7,"start":3,"action_noise":0.15,"location_history":"[3,0,1,5,9,1,5,9,1,5,9,1,2,6,10,7]","action_history":"[0,0,1,1,1,1,1,1,1,1,1,1,1,1,0]","mutagen_history":"[1,1,0,0,0,0,0,0,0,0,0,0,0,0,1]","location_rts":"[607,385,175,304,461,531,331,402,469,383,372,794,549,716,567]","trial_type":"fractal-mutation","trial_index":62,"time_elapsed":1684464,"internal_node_id":"0.0-5.0-23.0"},{"group":"dicyclic group of order 12","fractal_assignment":["../images/ylw_pnk.png","../images/org_blu.png","../images/wht_red.png","../images/pnk_blu.png","../images/gry_blk.png","../images/cyn_red.png","../images/red_prp.png","../images/grn_red.png","../images/grn_prp.png","../images/ylw_slt.png","../images/grn_blu.png","../images/blu_wht.png"],"mutagen_generator_assignment":[1,0],"goal":6,"start":7,"action_noise":0.15,"location_history":"[7,11,3,0,1,2,3,0,1,2,3,7,8,5,10,7,11,3,7,8,0,4,9,6]","action_history":"[1,1,0,0,1,0,1,0,0,0,1,0,0,0,0,1,1,1,1,1,1,0,0]","mutagen_history":"[0,0,1,1,0,1,0,1,1,1,0,1,1,1,1,0,0,0,0,0,0,1,1]","location_rts":"[995,752,1033,1050,1147,489,1205,573,382,1140,456,474,615,391,302,265,446,610,4604,1121,823,428,423]","trial_type":"fractal-mutation","trial_index":63,"time_elapsed":1734969,"internal_node_id":"0.0-5.0-24.0"},{"group":"dicyclic group of order 12","fractal_assignment":["../images/ylw_pnk.png","../images/org_blu.png","../images/wht_red.png","../images/pnk_blu.png","../images/gry_blk.png","../images/cyn_red.png","../images/red_prp.png","../images/grn_red.png","../images/grn_prp.png","../images/ylw_slt.png","../images/grn_blu.png","../images/blu_wht.png"],"mutagen_generator_assignment":[1,0],"goal":2,"start":6,"action_noise":0.15,"location_history":"[6,11,4,8,0,1,2]","action_history":"[0,0,1,1,0,0]","mutagen_history":"[1,1,0,0,1,1]","location_rts":"[1473,531,311,489,509,457]","trial_type":"fractal-mutation","trial_index":64,"time_elapsed":1749411,"internal_node_id":"0.0-5.0-25.0"},{"group":"dicyclic group of order 12","fractal_assignment":["../images/ylw_pnk.png","../images/org_blu.png","../images/wht_red.png","../images/pnk_blu.png","../images/gry_blk.png","../images/cyn_red.png","../images/red_prp.png","../images/grn_red.png","../images/grn_prp.png","../images/ylw_slt.png","../images/grn_blu.png","../images/blu_wht.png"],"mutagen_generator_assignment":[1,0],"goal":8,"start":2,"action_noise":0.15,"location_history":"[2,3,7,11,4,9,1,5,9,1,2,3,7,8]","action_history":"[0,1,1,0,0,1,1,1,1,0,0,1,0]","mutagen_history":"[1,0,0,1,1,0,0,0,0,1,1,0,1]","location_rts":"[939,311,1107,786,705,445,593,380,172,640,431,413,524]","trial_type":"fractal-mutation","trial_index":65,"time_elapsed":1775832,"internal_node_id":"0.0-5.0-26.0"},{"group":"dicyclic group of order 12","fractal_assignment":["../images/ylw_pnk.png","../images/org_blu.png","../images/wht_red.png","../images/pnk_blu.png","../images/gry_blk.png","../images/cyn_red.png","../images/red_prp.png","../images/grn_red.png","../images/grn_prp.png","../images/ylw_slt.png","../images/grn_blu.png","../images/blu_wht.png"],"mutagen_generator_assignment":[1,0],"goal":0,"start":8,"action_noise":0.15,"location_history":"[8,0]","action_history":"[1]","mutagen_history":"[0]","location_rts":"[504]","trial_type":"fractal-mutation","trial_index":66,"time_elapsed":1781010,"internal_node_id":"0.0-5.0-27.0"},{"group":"dicyclic group of order 12","fractal_assignment":["../images/ylw_pnk.png","../images/org_blu.png","../images/wht_red.png","../images/pnk_blu.png","../images/gry_blk.png","../images/cyn_red.png","../images/red_prp.png","../images/grn_red.png","../images/grn_prp.png","../images/ylw_slt.png","../images/grn_blu.png","../images/blu_wht.png"],"mutagen_generator_assignment":[1,0],"goal":3,"start":0,"action_noise":0.15,"location_history":"[0,1,2,3]","action_history":"[0,1,0]","mutagen_history":"[1,0,1]","location_rts":"[661,375,415]","trial_type":"fractal-mutation","trial_index":67,"time_elapsed":1789514,"internal_node_id":"0.0-5.0-28.0"},{"group":"dicyclic group of order 12","fractal_assignment":["../images/ylw_pnk.png","../images/org_blu.png","../images/wht_red.png","../images/pnk_blu.png","../images/gry_blk.png","../images/cyn_red.png","../images/red_prp.png","../images/grn_red.png","../images/grn_prp.png","../images/ylw_slt.png","../images/grn_blu.png","../images/blu_wht.png"],"mutagen_generator_assignment":[1,0],"goal":4,"start":3,"action_noise":0.15,"location_history":"[3,0,4]","action_history":"[0,1]","mutagen_history":"[1,0]","location_rts":"[513,963]","trial_type":"fractal-mutation","trial_index":68,"time_elapsed":1796820,"internal_node_id":"0.0-5.0-29.0"},{"group":"dicyclic group of order 12","fractal_assignment":["../images/ylw_pnk.png","../images/org_blu.png","../images/wht_red.png","../images/pnk_blu.png","../images/gry_blk.png","../images/cyn_red.png","../images/red_prp.png","../images/grn_red.png","../images/grn_prp.png","../images/ylw_slt.png","../images/grn_blu.png","../images/blu_wht.png"],"mutagen_generator_assignment":[1,0],"goal":10,"start":4,"action_noise":0.15,"location_history":"[4,9,1,2,6,11,4,9,1,2,6,11,4,8,0,1,2,6,10]","action_history":"[0,1,0,1,0,1,0,1,0,1,0,0,0,0,0,0,1,1]","mutagen_history":"[1,0,1,0,1,0,1,0,1,0,1,1,1,1,1,1,0,0]","location_rts":"[697,567,815,467,497,479,411,452,383,375,437,388,425,554,439,340,263,422]","trial_type":"fractal-mutation","trial_index":69,"time_elapsed":1830098,"internal_node_id":"0.0-5.0-30.0"},{"group":"dicyclic group of order 12","fractal_assignment":["../images/ylw_pnk.png","../images/org_blu.png","../images/wht_red.png","../images/pnk_blu.png","../images/gry_blk.png","../images/cyn_red.png","../images/red_prp.png","../images/grn_red.png","../images/grn_prp.png","../images/ylw_slt.png","../images/grn_blu.png","../images/blu_wht.png"],"mutagen_generator_assignment":[1,0],"goal":11,"start":10,"action_noise":0.15,"location_history":"[10,7,8,0,1,5,10,2,6,10,2,6,11]","action_history":"[1,0,1,0,1,0,1,0,1,0,1,0]","mutagen_history":"[0,1,0,1,0,1,0,1,0,1,0,1]","location_rts":"[458,449,406,353,348,651,412,420,429,276,460,484]","trial_type":"fractal-mutation","trial_index":70,"time_elapsed":1853043,"internal_node_id":"0.0-5.0-31.0"},{"group":"dicyclic group of order 12","fractal_assignment":["../images/ylw_pnk.png","../images/org_blu.png","../images/wht_red.png","../images/pnk_blu.png","../images/gry_blk.png","../images/cyn_red.png","../images/red_prp.png","../images/grn_red.png","../images/grn_prp.png","../images/ylw_slt.png","../images/grn_blu.png","../images/blu_wht.png"],"mutagen_generator_assignment":[1,0],"goal":1,"start":11,"action_noise":0.15,"location_history":"[11,4,9,1]","action_history":"[1,0,1]","mutagen_history":"[0,1,0]","location_rts":"[1358,2571,413]","trial_type":"fractal-mutation","trial_index":71,"time_elapsed":1864425,"internal_node_id":"0.0-5.0-32.0"},{"group":"dicyclic group of order 12","fractal_assignment":["../images/ylw_pnk.png","../images/org_blu.png","../images/wht_red.png","../images/pnk_blu.png","../images/gry_blk.png","../images/cyn_red.png","../images/red_prp.png","../images/grn_red.png","../images/grn_prp.png","../images/ylw_slt.png","../images/grn_blu.png","../images/blu_wht.png"],"mutagen_generator_assignment":[1,0],"goal":5,"start":1,"action_noise":0.15,"location_history":"[1,2,6,11,3,0,1,2,3,7,8,0,4,8,0,4,9,1,2,6,11,3,7,11,4,9,6,10,7,11,4,8,5]","action_history":"[0,1,0,1,0,1,1,0,1,1,1,1,1,1,1,0,1,0,1,0,1,0,1,0,1,0,1,0,1,0,1,0]","mutagen_history":"[1,0,1,0,1,0,0,1,0,0,0,0,0,0,0,1,0,1,0,1,0,1,0,1,0,1,0,1,0,1,0,1]","location_rts":"[449,377,562,453,390,388,340,404,528,416,272,321,465,615,506,1030,1520,415,360,683,384,391,505,680,423,543,292,635,463,454,533,425]","trial_type":"fractal-mutation","trial_index":72,"time_elapsed":1921854,"internal_node_id":"0.0-5.0-33.0"},{"group":"dicyclic group of order 12","fractal_assignment":["../images/ylw_pnk.png","../images/org_blu.png","../images/wht_red.png","../images/pnk_blu.png","../images/gry_blk.png","../images/cyn_red.png","../images/red_prp.png","../images/grn_red.png","../images/grn_prp.png","../images/ylw_slt.png","../images/grn_blu.png","../images/blu_wht.png"],"mutagen_generator_assignment":[1,0],"goal":9,"start":5,"action_noise":0.15,"location_history":"[5,9]","action_history":"[1]","mutagen_history":"[0]","location_rts":"[1887]","trial_type":"fractal-mutation","trial_index":73,"time_elapsed":1928383,"internal_node_id":"0.0-5.0-34.0"},{"view_history":"[{\"page_index\":0,\"viewing_time\":15714}]","rt":15715,"trial_type":"instructions","trial_index":74,"time_elapsed":1945098,"internal_node_id":"0.0-6.0"},{"rt":20657,"responses":"{\"Q0\":\"Interesting. Trying to detect patterns.\"}","trial_type":"survey-text","trial_index":75,"time_elapsed":1966774,"internal_node_id":"0.0-7.0"}]