[{"view_history":"[{\"page_index\":0,\"viewing_time\":5523},{\"page_index\":1,\"viewing_time\":10788},{\"page_index\":2,\"viewing_time\":20384},{\"page_index\":3,\"viewing_time\":8640}]","rt":45336,"trial_type":"instructions","trial_index":0,"time_elapsed":45338,"internal_node_id":"0.0-0.0"},{"view_history":"[{\"page_index\":0,\"viewing_time\":2287},{\"page_index\":1,\"viewing_time\":39400}]","rt":41688,"trial_type":"instructions","trial_index":1,"time_elapsed":88026,"internal_node_id":"0.0-1.0"},{"group":"dihedral group of order 12","room_assignment":["green","grey","pink","brown","purple","cyan","red","yellow","olive","ivory","orange","blue"],"door_color_assignment":["black","white"],"door_generator_assignment":[1,0],"goal":4,"start":0,"action_noise":0.15,"location_history":"[0,1,7,1,7,1,7,6,11,10,9,8,2,3,4]","action_history":"[0,1,1,1,0,0,0,0,0,0,0,0,0,0]","door_history":"[1,0,0,0,1,1,1,1,1,1,1,1,1,1]","location_rts":"[2723,2962,2287,1619,1182,2564,1114,1474,927,1280,844,9673,978,582]","trial_type":"two-door-navigation","trial_index":2,"time_elapsed":136108,"internal_node_id":"0.0-2.0-0.0"},{"group":"dihedral group of order 12","room_assignment":["green","grey","pink","brown","purple","cyan","red","yellow","olive","ivory","orange","blue"],"door_color_assignment":["black","white"],"door_generator_assignment":[1,0],"goal":9,"start":4,"action_noise":0.15,"location_history":"[4,5,0,1,2,3,4,5,0,1,7,1,7,6,11,10,9]","action_history":"[0,0,0,0,0,0,0,0,0,1,1,1,0,0,1,0]","door_history":"[1,1,1,1,1,1,1,1,1,0,0,0,1,1,0,1]","location_rts":"[3565,1409,803,931,680,756,755,604,649,1545,902,745,803,965,1023,1048]","trial_type":"two-door-navigation","trial_index":3,"time_elapsed":172973,"internal_node_id":"0.0-2.0-1.0"},{"group":"dihedral group of order 12","room_assignment":["green","grey","pink","brown","purple","cyan","red","yellow","olive","ivory","orange","blue"],"door_color_assignment":["black","white"],"door_generator_assignment":[1,0],"goal":10,"start":9,"action_noise":0.15,"location_history":"[9,8,2,8,2,3,4,5,0,1,7,1,2,3,4,5,0,6,11,10]","action_history":"[0,1,1,1,0,0,0,0,0,1,1,1,0,0,0,0,0,0,0]","door_history":"[1,0,0,0,1,1,1,1,1,0,0,0,1,1,1,1,1,1,1]","location_rts":"[2130,1094,942,696,873,1851,620,675,826,1157,1089,1076,941,1095,1834,1523,678,716,820]","trial_type":"two-door-navigation","trial_index":4,"time_elapsed":216358,"internal_node_id":"0.0-2.0-2.0"},{"group":"dihedral group of order 12","room_assignment":["green","grey","pink","brown","purple","cyan","red","yellow","olive","ivory","orange","blue"],"door_color_assignment":["black","white"],"door_generator_assignment":[1,0],"goal":2,"start":10,"action_noise":0.15,"location_history":"[10,9,3,9,3,9,8,7,1,2]","action_history":"[0,1,1,1,1,0,0,1,0]","door_history":"[1,0,0,0,0,1,1,0,1]","location_rts":"[1679,856,677,731,581,605,818,2010,384]","trial_type":"two-door-navigation","trial_index":5,"time_elapsed":237367,"internal_node_id":"0.0-2.0-3.0"},{"group":"dihedral group of order 12","room_assignment":["green","grey","pink","brown","purple","cyan","red","yellow","olive","ivory","orange","blue"],"door_color_assignment":["black","white"],"door_generator_assignment":[1,0],"goal":5,"start":2,"action_noise":0.15,"location_history":"[2,8,7,1,7,6,11,10,9,3,4,5]","action_history":"[1,0,0,1,0,0,0,0,1,0,0]","door_history":"[0,1,1,0,1,1,1,1,0,1,1]","location_rts":"[4137,768,662,1272,1176,1138,771,690,1329,1808,695]","trial_type":"two-door-navigation","trial_index":6,"time_elapsed":266468,"internal_node_id":"0.0-2.0-4.0"},{"group":"dihedral group of order 12","room_assignment":["green","grey","pink","brown","purple","cyan","red","yellow","olive","ivory","orange","blue"],"door_color_assignment":["black","white"],"door_generator_assignment":[1,0],"goal":11,"start":5,"action_noise":0.15,"location_history":"[5,11]","action_history":"[1]","door_history":"[0]","location_rts":"[2529]","trial_type":"two-door-navigation","trial_index":7,"time_elapsed":273505,"internal_node_id":"0.0-2.0-5.0"},{"group":"dihedral group of order 12","room_assignment":["green","grey","pink","brown","purple","cyan","red","yellow","olive","ivory","orange","blue"],"door_color_assignment":["black","white"],"door_generator_assignment":[1,0],"goal":6,"start":11,"action_noise":0.15,"location_history":"[11,5,0,1,7,6]","action_history":"[1,0,0,1,0]","door_history":"[0,1,1,0,1]","location_rts":"[2081,974,552,911,911]","trial_type":"two-door-navigation","trial_index":8,"time_elapsed":287505,"internal_node_id":"0.0-2.0-6.0"},{"group":"dihedral group of order 12","room_assignment":["green","grey","pink","brown","purple","cyan","red","yellow","olive","ivory","orange","blue"],"door_color_assignment":["black","white"],"door_generator_assignment":[1,0],"goal":3,"start":6,"action_noise":0.15,"location_history":"[6,0,1,7,6,0,1,7,1,2,3]","action_history":"[0,0,1,0,0,0,1,0,0,0]","door_history":"[1,1,0,1,1,1,0,1,1,1]","location_rts":"[2134,880,1574,1032,1045,746,1504,1003,670,696]","trial_type":"two-door-navigation","trial_index":9,"time_elapsed":312402,"internal_node_id":"0.0-2.0-7.0"},{"group":"dihedral group of order 12","room_assignment":["green","grey","pink","brown","purple","cyan","red","yellow","olive","ivory","orange","blue"],"door_color_assignment":["black","white"],"door_generator_assignment":[1,0],"goal":8,"start":3,"action_noise":0.15,"location_history":"[3,4,5,11,5,0,6,11,10,4,5,0,1,2,3,4,10,9,3,4,5,0,1,2,3,4,10,9,3,9,3,4,5,11,5,0,1,2,3,4,10,4,5,11,10,4,5,0,1,7,1,7,6,0,6,11,10,9,8]","action_history":"[0,1,1,1,0,0,0,0,1,0,0,0,0,0,0,0,0,1,0,0,0,0,0,0,0,0,0,1,1,1,0,0,0,0,0,0,0,0,0,1,0,0,0,0,1,0,0,0,0,0,1,1,1,1,0,0,0,1]","door_history":"[1,0,0,0,1,1,1,1,0,1,1,1,1,1,1,1,1,0,1,1,1,1,1,1,1,1,1,0,0,0,1,1,1,1,1,1,1,1,1,0,1,1,1,1,0,1,1,1,1,1,0,0,0,0,1,1,1,0]","location_rts":"[1327,999,536,488,591,862,801,779,1272,691,645,617,614,492,615,566,688,1253,988,706,585,1152,911,592,486,677,933,2648,717,507,306,1134,405,1951,855,1207,406,470,263,1323,1340,471,1349,504,1200,560,261,207,511,465,1038,997,637,838,1022,746,882,1215]","trial_type":"two-door-navigation","trial_index":10,"time_elapsed":422194,"internal_node_id":"0.0-2.0-8.0"},{"group":"dihedral group of order 12","room_assignment":["green","grey","pink","brown","purple","cyan","red","yellow","olive","ivory","orange","blue"],"door_color_assignment":["black","white"],"door_generator_assignment":[1,0],"goal":1,"start":8,"action_noise":0.15,"location_history":"[8,2,8,2,3,9,3,4,10,9,8,7,1]","action_history":"[1,1,1,0,1,1,1,1,0,0,0,0]","door_history":"[0,0,0,1,0,0,0,0,1,1,1,1]","location_rts":"[1775,2221,533,559,1075,983,487,958,519,1157,980,703]","trial_type":"two-door-navigation","trial_index":11,"time_elapsed":449830,"internal_node_id":"0.0-2.0-9.0"},{"group":"dihedral group of order 12","room_assignment":["green","grey","pink","brown","purple","cyan","red","yellow","olive","ivory","orange","blue"],"door_color_assignment":["black","white"],"door_generator_assignment":[1,0],"goal":7,"start":1,"action_noise":0.15,"location_history":"[1,2,3,9,3,9,8,7]","action_history":"[0,0,1,1,1,0,0]","door_history":"[1,1,0,0,0,1,1]","location_rts":"[1296,1035,296,465,457,872,548]","trial_type":"two-door-navigation","trial_index":12,"time_elapsed":465396,"internal_node_id":"0.0-2.0-10.0"},{"group":"dihedral group of order 12","room_assignment":["green","grey","pink","brown","purple","cyan","red","yellow","olive","ivory","orange","blue"],"door_color_assignment":["black","white"],"door_generator_assignment":[1,0],"goal":5,"start":7,"action_noise":0.15,"location_history":"[7,1,2,3,9,8,7,6,11,5]","action_history":"[0,1,1,1,0,0,0,0,0]","door_history":"[1,0,0,0,1,1,1,1,1]","location_rts":"[1428,983,654,411,952,605,447,461,455]","trial_type":"two-door-navigation","trial_index":13,"time_elapsed":484410,"internal_node_id":"0.0-2.0-11.0"},{"group":"dihedral group of order 12","room_assignment":["green","grey","pink","brown","purple","cyan","red","yellow","olive","ivory","orange","blue"],"door_color_assignment":["black","white"],"door_generator_assignment":[1,0],"goal":8,"start":5,"action_noise":0.15,"location_history":"[5,0,6,0,1,2,3,9,8]","action_history":"[0,1,1,0,0,0,0,0]","door_history":"[1,0,0,1,1,1,1,1]","location_rts":"[1910,527,417,1055,894,476,567,468]","trial_type":"two-door-navigation","trial_index":14,"time_elapsed":502307,"internal_node_id":"0.0-2.0-12.0"},{"group":"dihedral group of order 12","room_assignment":["green","grey","pink","brown","purple","cyan","red","yellow","olive","ivory","orange","blue"],"door_color_assignment":["black","white"],"door_generator_assignment":[1,0],"goal":11,"start":8,"action_noise":0.15,"location_history":"[8,2,8,2,3,4,5,0,1,7,1,2,3,4,5,0,1,2,3,4,10,4,5,0,1,2,3,4,10,9,3,4,5,11]","action_history":"[0,1,1,0,0,0,0,0,0,1,0,0,0,0,0,0,0,0,0,1,1,0,0,0,0,0,0,1,0,0,0,0,1]","door_history":"[1,0,0,1,1,1,1,1,1,0,1,1,1,1,1,1,1,1,1,0,0,1,1,1,1,1,1,0,1,1,1,1,0]","location_rts":"[1343,870,524,629,736,540,677,433,432,757,707,472,709,591,646,531,508,694,546,1019,865,951,644,592,735,540,480,835,774,630,702,543,960]","trial_type":"two-door-navigation","trial_index":15,"time_elapsed":561718,"internal_node_id":"0.0-2.0-13.0"},{"group":"dihedral group of order 12","room_assignment":["green","grey","pink","brown","purple","cyan","red","yellow","olive","ivory","orange","blue"],"door_color_assignment":["black","white"],"door_generator_assignment":[1,0],"goal":6,"start":11,"action_noise":0.15,"location_history":"[11,10,4,5,11,5,11,5,11,10,4,5,0,1,2,3,9,8,2,3,4,10,9,8,7,6]","action_history":"[0,1,0,0,1,1,1,1,0,0,0,0,0,0,0,1,0,1,0,0,0,0,0,0,0]","door_history":"[1,0,1,1,0,0,0,0,1,1,1,1,1,1,1,0,1,0,1,1,1,1,1,1,1]","location_rts":"[1001,717,642,1445,1727,7609,445,386,439,387,310,220,275,267,760,1174,496,975,278,439,350,433,1605,264,231]","trial_type":"two-door-navigation","trial_index":16,"time_elapsed":613389,"internal_node_id":"0.0-2.0-14.0"},{"group":"dihedral group of order 12","room_assignment":["green","grey","pink","brown","purple","cyan","red","yellow","olive","ivory","orange","blue"],"door_color_assignment":["black","white"],"door_generator_assignment":[1,0],"goal":7,"start":6,"action_noise":0.15,"location_history":"[6,0,1,2,8,7]","action_history":"[0,1,0,0,0]","door_history":"[1,0,1,1,1]","location_rts":"[763,773,624,444,378]","trial_type":"two-door-navigation","trial_index":17,"time_elapsed":624923,"internal_node_id":"0.0-2.0-15.0"},{"group":"dihedral group of order 12","room_assignment":["green","grey","pink","brown","purple","cyan","red","yellow","olive","ivory","orange","blue"],"door_color_assignment":["black","white"],"door_generator_assignment":[1,0],"goal":10,"start":7,"action_noise":0.15,"location_history":"[7,1,7,6,11,10]","action_history":"[1,0,0,0,0]","door_history":"[0,1,1,1,1]","location_rts":"[1501,917,503,798,438]","trial_type":"two-door-navigation","trial_index":18,"time_elapsed":637674,"internal_node_id":"0.0-2.0-16.0"},{"group":"dihedral group of order 12","room_assignment":["green","grey","pink","brown","purple","cyan","red","yellow","olive","ivory","orange","blue"],"door_color_assignment":["black","white"],"door_generator_assignment":[1,0],"goal":0,"start":10,"action_noise":0.15,"location_history":"[10,9,3,9,8,7,1,2,3,4,5,11,5,0]","action_history":"[0,1,1,0,0,0,0,0,0,0,0,0,0]","door_history":"[1,0,0,1,1,1,1,1,1,1,1,1,1]","location_rts":"[1118,1144,540,1043,1345,374,277,337,350,267,853,851,564]","trial_type":"two-door-navigation","trial_index":19,"time_elapsed":663374,"internal_node_id":"0.0-2.0-17.0"},{"group":"dihedral group of order 12","room_assignment":["green","grey","pink","brown","purple","cyan","red","yellow","olive","ivory","orange","blue"],"door_color_assignment":["black","white"],"door_generator_assignment":[1,0],"goal":9,"start":0,"action_noise":0.15,"location_history":"[0,1,2,3,4,5,0,6,11,10,9]","action_history":"[1,0,0,0,0,0,0,1,0,0]","door_history":"[0,1,1,1,1,1,1,0,1,1]","location_rts":"[1395,989,538,491,375,291,670,1162,1279,572]","trial_type":"two-door-navigation","trial_index":20,"time_elapsed":684852,"internal_node_id":"0.0-2.0-18.0"},{"group":"dihedral group of order 12","room_assignment":["green","grey","pink","brown","purple","cyan","red","yellow","olive","ivory","orange","blue"],"door_color_assignment":["black","white"],"door_generator_assignment":[1,0],"goal":4,"start":9,"action_noise":0.15,"location_history":"[9,3,4]","action_history":"[1,0]","door_history":"[0,1]","location_rts":"[2019,399]","trial_type":"two-door-navigation","trial_index":21,"time_elapsed":692818,"internal_node_id":"0.0-2.0-19.0"},{"group":"dihedral group of order 12","room_assignment":["green","grey","pink","brown","purple","cyan","red","yellow","olive","ivory","orange","blue"],"door_color_assignment":["black","white"],"door_generator_assignment":[1,0],"goal":2,"start":4,"action_noise":0.15,"location_history":"[4,5,11,5,0,6,11,10,4,5,0,6,11,10,4,5,0,1,2]","action_history":"[0,1,0,0,0,0,0,1,0,0,0,0,0,0,0,0,0,0]","door_history":"[1,0,1,1,1,1,1,0,1,1,1,1,1,1,1,1,1,1]","location_rts":"[2121,553,885,419,335,312,422,937,920,437,238,275,297,315,274,344,449,327]","trial_type":"two-door-navigation","trial_index":22,"time_elapsed":724350,"internal_node_id":"0.0-2.0-20.0"},{"group":"dihedral group of order 12","room_assignment":["green","grey","pink","brown","purple","cyan","red","yellow","olive","ivory","orange","blue"],"door_color_assignment":["black","white"],"door_generator_assignment":[1,0],"goal":1,"start":2,"action_noise":0.15,"location_history":"[2,8,7,1]","action_history":"[1,0,0]","door_history":"[0,1,1]","location_rts":"[1593,320,722]","trial_type":"two-door-navigation","trial_index":23,"time_elapsed":733551,"internal_node_id":"0.0-2.0-21.0"},{"group":"dihedral group of order 12","room_assignment":["green","grey","pink","brown","purple","cyan","red","yellow","olive","ivory","orange","blue"],"door_color_assignment":["black","white"],"door_generator_assignment":[1,0],"goal":3,"start":1,"action_noise":0.15,"location_history":"[1,2,3]","action_history":"[0,0]","door_history":"[1,1]","location_rts":"[1016,656]","trial_type":"two-door-navigation","trial_index":24,"time_elapsed":740742,"internal_node_id":"0.0-2.0-22.0"},{"group":"dihedral group of order 12","room_assignment":["green","grey","pink","brown","purple","cyan","red","yellow","olive","ivory","orange","blue"],"door_color_assignment":["black","white"],"door_generator_assignment":[1,0],"goal":7,"start":3,"action_noise":0.15,"location_history":"[3,4,10,4,5,0,6,11,10,4,10,9,8,7]","action_history":"[0,1,1,0,0,0,0,0,0,0,0,0,0]","door_history":"[1,0,0,1,1,1,1,1,1,1,1,1,1]","location_rts":"[1053,257,764,262,522,381,399,963,476,121,282,406,367]","trial_type":"two-door-navigation","trial_index":25,"time_elapsed":763598,"internal_node_id":"0.0-2.0-23.0"},{"group":"dihedral group of order 12","room_assignment":["green","grey","pink","brown","purple","cyan","red","yellow","olive","ivory","orange","blue"],"door_color_assignment":["black","white"],"door_generator_assignment":[1,0],"goal":6,"start":7,"action_noise":0.15,"location_history":"[7,1,2,3,4,5,11,5,0,1,2,3,4,5,11,10,9,3,4,10,9,8,7,1,2,3,4,5,0,1,2,8,7,6]","action_history":"[1,0,0,0,0,0,1,0,0,0,0,0,0,0,0,0,0,0,0,0,0,0,1,0,0,0,0,0,0,0,0,0,0]","door_history":"[0,1,1,1,1,1,0,1,1,1,1,1,1,1,1,1,1,1,1,1,1,1,0,1,1,1,1,1,1,1,1,1,1]","location_rts":"[1737,428,340,320,335,430,1154,420,441,607,608,287,622,699,549,567,617,237,271,173,336,383,755,1061,421,343,493,327,331,338,361,319,493]","trial_type":"two-door-navigation","trial_index":26,"time_elapsed":817254,"internal_node_id":"0.0-2.0-24.0"},{"group":"dihedral group of order 12","room_assignment":["green","grey","pink","brown","purple","cyan","red","yellow","olive","ivory","orange","blue"],"door_color_assignment":["black","white"],"door_generator_assignment":[1,0],"goal":2,"start":6,"action_noise":0.15,"location_history":"[6,11,10,4,10,9,8,7,6,0,1,2]","action_history":"[1,0,1,1,0,0,0,0,0,0,0]","door_history":"[0,1,0,0,1,1,1,1,1,1,1]","location_rts":"[3290,595,543,1196,32243,356,254,342,259,297,1169]","trial_type":"two-door-navigation","trial_index":27,"time_elapsed":872465,"internal_node_id":"0.0-2.0-25.0"},{"group":"dihedral group of order 12","room_assignment":["green","grey","pink","brown","purple","cyan","red","yellow","olive","ivory","orange","blue"],"door_color_assignment":["black","white"],"door_generator_assignment":[1,0],"goal":8,"start":2,"action_noise":0.15,"location_history":"[2,8]","action_history":"[1]","door_history":"[0]","location_rts":"[2448]","trial_type":"two-door-navigation","trial_index":28,"time_elapsed":879438,"internal_node_id":"0.0-2.0-26.0"},{"group":"dihedral group of order 12","room_assignment":["green","grey","pink","brown","purple","cyan","red","yellow","olive","ivory","orange","blue"],"door_color_assignment":["black","white"],"door_generator_assignment":[1,0],"goal":0,"start":8,"action_noise":0.15,"location_history":"[8,7,6,0]","action_history":"[0,0,1]","door_history":"[1,1,0]","location_rts":"[1554,567,773]","trial_type":"two-door-navigation","trial_index":29,"time_elapsed":888868,"internal_node_id":"0.0-2.0-27.0"},{"group":"dihedral group of order 12","room_assignment":["green","grey","pink","brown","purple","cyan","red","yellow","olive","ivory","orange","blue"],"door_color_assignment":["black","white"],"door_generator_assignment":[1,0],"goal":3,"start":0,"action_noise":0.15,"location_history":"[0,1,2,3]","action_history":"[0,0,0]","door_history":"[1,1,1]","location_rts":"[1002,1061,1414]","trial_type":"two-door-navigation","trial_index":30,"time_elapsed":898881,"internal_node_id":"0.0-2.0-28.0"},{"group":"dihedral group of order 12","room_assignment":["green","grey","pink","brown","purple","cyan","red","yellow","olive","ivory","orange","blue"],"door_color_assignment":["black","white"],"door_generator_assignment":[1,0],"goal":4,"start":3,"action_noise":0.15,"location_history":"[3,4]","action_history":"[1]","door_history":"[0]","location_rts":"[1612]","trial_type":"two-door-navigation","trial_index":31,"time_elapsed":905007,"internal_node_id":"0.0-2.0-29.0"},{"group":"dihedral group of order 12","room_assignment":["green","grey","pink","brown","purple","cyan","red","yellow","olive","ivory","orange","blue"],"door_color_assignment":["black","white"],"door_generator_assignment":[1,0],"goal":10,"start":4,"action_noise":0.15,"location_history":"[4,5,11,10]","action_history":"[1,1,0]","door_history":"[0,0,1]","location_rts":"[891,405,1062]","trial_type":"two-door-navigation","trial_index":32,"time_elapsed":913907,"internal_node_id":"0.0-2.0-30.0"},{"group":"dihedral group of order 12","room_assignment":["green","grey","pink","brown","purple","cyan","red","yellow","olive","ivory","orange","blue"],"door_color_assignment":["black","white"],"door_generator_assignment":[1,0],"goal":11,"start":10,"action_noise":0.15,"location_history":"[10,9,3,4,5,0,1,7,6,11]","action_history":"[1,1,0,0,0,0,0,0,0]","door_history":"[0,0,1,1,1,1,1,1,1]","location_rts":"[1421,1064,451,522,290,264,256,429,264]","trial_type":"two-door-navigation","trial_index":33,"time_elapsed":931479,"internal_node_id":"0.0-2.0-31.0"},{"group":"dihedral group of order 12","room_assignment":["green","grey","pink","brown","purple","cyan","red","yellow","olive","ivory","orange","blue"],"door_color_assignment":["black","white"],"door_generator_assignment":[1,0],"goal":1,"start":11,"action_noise":0.15,"location_history":"[11,10,9,8,2,8,7,1]","action_history":"[0,0,0,1,1,0,0]","door_history":"[1,1,1,0,0,1,1]","location_rts":"[3686,480,548,1494,537,695,947]","trial_type":"two-door-navigation","trial_index":34,"time_elapsed":950458,"internal_node_id":"0.0-2.0-32.0"},{"group":"dihedral group of order 12","room_assignment":["green","grey","pink","brown","purple","cyan","red","yellow","olive","ivory","orange","blue"],"door_color_assignment":["black","white"],"door_generator_assignment":[1,0],"goal":5,"start":1,"action_noise":0.15,"location_history":"[1,2,3,4,10,9,3,4,10,9,8,7,6,11,10,9,8,7,1,2,3,4,5]","action_history":"[0,1,0,1,0,1,0,1,0,1,0,0,0,0,0,0,1,0,1,0,0,0]","door_history":"[1,0,1,0,1,0,1,0,1,0,1,1,1,1,1,1,0,1,0,1,1,1]","location_rts":"[956,969,1345,746,538,1038,693,663,359,538,521,472,289,345,316,284,452,439,785,295,335,303]","trial_type":"two-door-navigation","trial_index":35,"time_elapsed":988968,"internal_node_id":"0.0-2.0-33.0"},{"group":"dihedral group of order 12","room_assignment":["green","grey","pink","brown","purple","cyan","red","yellow","olive","ivory","orange","blue"],"door_color_assignment":["black","white"],"door_generator_assignment":[1,0],"goal":9,"start":5,"action_noise":0.15,"location_history":"[5,0,1,7,1,2,3,4,10,4,5,0,1,2,3,4,5,11,10,9]","action_history":"[0,0,0,0,0,0,0,1,0,0,0,0,0,0,0,0,0,0,0]","door_history":"[1,1,1,1,1,1,1,0,1,1,1,1,1,1,1,1,1,1,1]","location_rts":"[653,272,238,254,234,911,1259,90291,1410,228,277,24,13564,245,436,263,263,2528,15521]","trial_type":"two-door-navigation","trial_index":36,"time_elapsed":1140569,"internal_node_id":"0.0-2.0-34.0"},{"view_history":"[{\"page_index\":0,\"viewing_time\":19776}]","rt":19777,"trial_type":"instructions","trial_index":37,"time_elapsed":1161346,"internal_node_id":"0.0-3.0"},{"view_history":"[{\"page_index\":0,\"viewing_time\":3157},{\"page_index\":1,\"viewing_time\":34682}]","rt":37839,"trial_type":"instructions","trial_index":38,"time_elapsed":1200186,"internal_node_id":"0.0-4.0"},{"group":"dihedral group of order 12","fractal_assignment":["../images/blu_wht.png","../images/grn_blu.png","../images/wht_red.png","../images/pnk_blu.png","../images/ylw_slt.png","../images/cyn_red.png","../images/org_blu.png","../images/grn_red.png","../images/grn_prp.png","../images/gry_blk.png","../images/red_prp.png","../images/ylw_pnk.png"],"mutagen_generator_assignment":[1,0],"goal":4,"start":0,"action_noise":0.15,"location_history":"[0,6,11,5,11,5,11,5,0,1,2,3,9,8,2,3,4]","action_history":"[1,0,1,1,1,1,1,0,0,0,0,1,0,1,0,0]","mutagen_history":"[0,1,0,0,0,0,0,1,1,1,1,0,1,0,1,1]","location_rts":"[10873,38,130,169,172,105,964,1426,776,1230,804,843,1408,67,238,355]","trial_type":"fractal-mutation","trial_index":39,"time_elapsed":1241819,"internal_node_id":"0.0-5.0-0.0"},{"group":"dihedral group of order 12","fractal_assignment":["../images/blu_wht.png","../images/grn_blu.png","../images/wht_red.png","../images/pnk_blu.png","../images/ylw_slt.png","../images/cyn_red.png","../images/org_blu.png","../images/grn_red.png","../images/grn_prp.png","../images/gry_blk.png","../images/red_prp.png","../images/ylw_pnk.png"],"mutagen_generator_assignment":[1,0],"goal":9,"start":4,"action_noise":0.15,"location_history":"[4,10,9]","action_history":"[1,0]","mutagen_history":"[0,1]","location_rts":"[2983,316]","trial_type":"fractal-mutation","trial_index":40,"time_elapsed":1250927,"internal_node_id":"0.0-5.0-1.0"},{"group":"dihedral group of order 12","fractal_assignment":["../images/blu_wht.png","../images/grn_blu.png","../images/wht_red.png","../images/pnk_blu.png","../images/ylw_slt.png","../images/cyn_red.png","../images/org_blu.png","../images/grn_red.png","../images/grn_prp.png","../images/gry_blk.png","../images/red_prp.png","../images/ylw_pnk.png"],"mutagen_generator_assignment":[1,0],"goal":10,"start":9,"action_noise":0.15,"location_history":"[9,3,9,8,2,8,2,3,9,8,2,3,4,10]","action_history":"[1,0,0,1,1,0,0,1,0,1,0,0,1]","mutagen_history":"[0,1,1,0,0,1,1,0,1,0,1,1,0]","location_rts":"[1743,1424,633,506,516,500,1160,678,169,88,1340,576,1265]","trial_type":"fractal-mutation","trial_index":41,"time_elapsed":1280379,"internal_node_id":"0.0-5.0-2.0"},{"group":"dihedral group of order 12","fractal_assignment":["../images/blu_wht.png","../images/grn_blu.png","../images/wht_red.png","../images/pnk_blu.png","../images/ylw_slt.png","../images/cyn_red.png","../images/org_blu.png","../images/grn_red.png","../images/grn_prp.png","../images/gry_blk.png","../images/red_prp.png","../images/ylw_pnk.png"],"mutagen_generator_assignment":[1,0],"goal":2,"start":10,"action_noise":0.15,"location_history":"[10,9,8,2]","action_history":"[0,1,1]","mutagen_history":"[1,0,0]","location_rts":"[1013,1872,1082]","trial_type":"fractal-mutation","trial_index":42,"time_elapsed":1291313,"internal_node_id":"0.0-5.0-3.0"},{"group":"dihedral group of order 12","fractal_assignment":["../images/blu_wht.png","../images/grn_blu.png","../images/wht_red.png","../images/pnk_blu.png","../images/ylw_slt.png","../images/cyn_red.png","../images/org_blu.png","../images/grn_red.png","../images/grn_prp.png","../images/gry_blk.png","../images/red_prp.png","../images/ylw_pnk.png"],"mutagen_generator_assignment":[1,0],"goal":5,"start":2,"action_noise":0.15,"location_history":"[2,3,4,10,9,3,9,8,7,6,0,1,7,6,0,1,2,3,9,8,7,1,7,1,7,1,2,3,4,10,9,3,9,3,9,3,4,5]","action_history":"[0,0,1,1,1,1,0,1,0,1,0,1,1,1,0,0,1,1,0,0,0,0,1,1,1,0,0,1,0,1,1,1,1,1,1,0,0]","mutagen_history":"[1,1,0,0,0,0,1,0,1,0,1,0,0,0,1,1,0,0,1,1,1,1,0,0,0,1,1,0,1,0,0,0,0,0,0,1,1]","location_rts":"[1074,1942,1296,1721,1021,1167,218,1166,809,1413,940,1879,923,810,1147,1135,1035,976,264,478,578,1056,338,584,584,503,1913,439,129,0,502,290,186,572,432,603,668]","trial_type":"fractal-mutation","trial_index":43,"time_elapsed":1368456,"internal_node_id":"0.0-5.0-4.0"},{"group":"dihedral group of order 12","fractal_assignment":["../images/blu_wht.png","../images/grn_blu.png","../images/wht_red.png","../images/pnk_blu.png","../images/ylw_slt.png","../images/cyn_red.png","../images/org_blu.png","../images/grn_red.png","../images/grn_prp.png","../images/gry_blk.png","../images/red_prp.png","../images/ylw_pnk.png"],"mutagen_generator_assignment":[1,0],"goal":11,"start":5,"action_noise":0.15,"location_history":"[5,0,1,2,3,4,5,0,6,0,1,2,3,9,8,2,3,9,8,2,3,4,5,0,1,7,6,11]","action_history":"[0,0,0,0,0,0,0,0,1,0,0,0,1,0,1,0,1,0,1,0,0,0,0,0,1,0,0]","mutagen_history":"[1,1,1,1,1,1,1,1,0,1,1,1,0,1,0,1,0,1,0,1,1,1,1,1,0,1,1]","location_rts":"[875,1556,24,440,800,103,348,132,10869,765,403,382,580,809,288,146,341,522,408,519,565,450,442,523,495,1105,474]","trial_type":"fractal-mutation","trial_index":44,"time_elapsed":1428186,"internal_node_id":"0.0-5.0-5.0"},{"group":"dihedral group of order 12","fractal_assignment":["../images/blu_wht.png","../images/grn_blu.png","../images/wht_red.png","../images/pnk_blu.png","../images/ylw_slt.png","../images/cyn_red.png","../images/org_blu.png","../images/grn_red.png","../images/grn_prp.png","../images/gry_blk.png","../images/red_prp.png","../images/ylw_pnk.png"],"mutagen_generator_assignment":[1,0],"goal":6,"start":11,"action_noise":0.15,"location_history":"[11,5,11,5,0,1,7,1,7,6]","action_history":"[1,0,0,0,0,1,0,1,0]","mutagen_history":"[0,1,1,1,1,0,1,0,1]","location_rts":"[33559,352,284,419,17,73,560,275,1042]","trial_type":"fractal-mutation","trial_index":45,"time_elapsed":1478964,"internal_node_id":"0.0-5.0-6.0"},{"group":"dihedral group of order 12","fractal_assignment":["../images/blu_wht.png","../images/grn_blu.png","../images/wht_red.png","../images/pnk_blu.png","../images/ylw_slt.png","../images/cyn_red.png","../images/org_blu.png","../images/grn_red.png","../images/grn_prp.png","../images/gry_blk.png","../images/red_prp.png","../images/ylw_pnk.png"],"mutagen_generator_assignment":[1,0],"goal":3,"start":6,"action_noise":0.15,"location_history":"[6,0,1,2,3]","action_history":"[0,1,0,0]","mutagen_history":"[1,0,1,1]","location_rts":"[1645,171,202,56]","trial_type":"fractal-mutation","trial_index":46,"time_elapsed":1489215,"internal_node_id":"0.0-5.0-7.0"},{"group":"dihedral group of order 12","fractal_assignment":["../images/blu_wht.png","../images/grn_blu.png","../images/wht_red.png","../images/pnk_blu.png","../images/ylw_slt.png","../images/cyn_red.png","../images/org_blu.png","../images/grn_red.png","../images/grn_prp.png","../images/gry_blk.png","../images/red_prp.png","../images/ylw_pnk.png"],"mutagen_generator_assignment":[1,0],"goal":8,"start":3,"action_noise":0.15,"location_history":"[3,4,10,4,5,11,5,11,5,0,1,2,8]","action_history":"[0,1,1,1,1,1,0,1,0,0,0,1]","mutagen_history":"[1,0,0,0,0,0,1,0,1,1,1,0]","location_rts":"[849,873,1345,0,95,836,43740,1858,480,210,592,172]","trial_type":"fractal-mutation","trial_index":47,"time_elapsed":1557931,"internal_node_id":"0.0-5.0-8.0"},{"group":"dihedral group of order 12","fractal_assignment":["../images/blu_wht.png","../images/grn_blu.png","../images/wht_red.png","../images/pnk_blu.png","../images/ylw_slt.png","../images/cyn_red.png","../images/org_blu.png","../images/grn_red.png","../images/grn_prp.png","../images/gry_blk.png","../images/red_prp.png","../images/ylw_pnk.png"],"mutagen_generator_assignment":[1,0],"goal":1,"start":8,"action_noise":0.15,"location_history":"[8,2,3,9,8,2,8,7,1]","action_history":"[0,0,1,0,1,0,0,1]","mutagen_history":"[1,1,0,1,0,1,1,0]","location_rts":"[548,577,977,582,776,714,448,868]","trial_type":"fractal-mutation","trial_index":48,"time_elapsed":1576711,"internal_node_id":"0.0-5.0-9.0"},{"group":"dihedral group of order 12","fractal_assignment":["../images/blu_wht.png","../images/grn_blu.png","../images/wht_red.png","../images/pnk_blu.png","../images/ylw_slt.png","../images/cyn_red.png","../images/org_blu.png","../images/grn_red.png","../images/grn_prp.png","../images/gry_blk.png","../images/red_prp.png","../images/ylw_pnk.png"],"mutagen_generator_assignment":[1,0],"goal":7,"start":1,"action_noise":0.15,"location_history":"[1,2,8,7]","action_history":"[0,1,0]","mutagen_history":"[1,0,1]","location_rts":"[731,1307,1367]","trial_type":"fractal-mutation","trial_index":49,"time_elapsed":1587152,"internal_node_id":"0.0-5.0-10.0"},{"group":"dihedral group of order 12","fractal_assignment":["../images/blu_wht.png","../images/grn_blu.png","../images/wht_red.png","../images/pnk_blu.png","../images/ylw_slt.png","../images/cyn_red.png","../images/org_blu.png","../images/grn_red.png","../images/grn_prp.png","../images/gry_blk.png","../images/red_prp.png","../images/ylw_pnk.png"],"mutagen_generator_assignment":[1,0],"goal":5,"start":7,"action_noise":0.15,"location_history":"[7,6,0,6,11,5]","action_history":"[0,1,1,0,1]","mutagen_history":"[1,0,0,1,0]","location_rts":"[751,329,315,29,77]","trial_type":"fractal-mutation","trial_index":50,"time_elapsed":1598286,"internal_node_id":"0.0-5.0-11.0"},{"group":"dihedral group of order 12","fractal_assignment":["../images/blu_wht.png","../images/grn_blu.png","../images/wht_red.png","../images/pnk_blu.png","../images/ylw_slt.png","../images/cyn_red.png","../images/org_blu.png","../images/grn_red.png","../images/grn_prp.png","../images/gry_blk.png","../images/red_prp.png","../images/ylw_pnk.png"],"mutagen_generator_assignment":[1,0],"goal":8,"start":5,"action_noise":0.15,"location_history":"[5,0,1,7,6,11,10,9,3,9,3,4,5,11,5,11,10,4,10,4,5,0,1,7,1,7,6,0,6,0,1,7,6,11,5,11,5,0,6,0,6,11,5,0,1,2,8]","action_history":"[0,0,1,0,0,0,0,1,1,1,0,0,1,1,1,0,1,1,1,0,1,0,1,1,1,0,1,1,1,0,1,0,0,1,0,1,0,0,1,0,0,1,0,0,0,0]","mutagen_history":"[1,1,0,1,1,1,1,0,0,0,1,1,0,0,0,1,0,0,0,1,0,1,0,0,0,1,0,0,0,1,0,1,1,0,1,0,1,1,0,1,1,0,1,1,1,1]","location_rts":"[691,146,235,178,3,363,220,372,774,411,26,338,133,239,1364,399,351,216,268,74,285,453,588,437,555,492,507,452,357,331,703,667,608,536,534,497,722,517,710,478,384,334,537,534,464,62]","trial_type":"fractal-mutation","trial_index":51,"time_elapsed":1674242,"internal_node_id":"0.0-5.0-12.0"},{"group":"dihedral group of order 12","fractal_assignment":["../images/blu_wht.png","../images/grn_blu.png","../images/wht_red.png","../images/pnk_blu.png","../images/ylw_slt.png","../images/cyn_red.png","../images/org_blu.png","../images/grn_red.png","../images/grn_prp.png","../images/gry_blk.png","../images/red_prp.png","../images/ylw_pnk.png"],"mutagen_generator_assignment":[1,0],"goal":11,"start":8,"action_noise":0.15,"location_history":"[8,7,6,0,1,7,6,0,6,0,1,7,1,2,8,2,3,4,10,4,10,4,10,4,5,0,6,11]","action_history":"[0,0,1,1,1,0,1,0,1,1,1,1,0,1,1,0,0,1,1,1,1,1,1,1,1,1,0]","mutagen_history":"[1,1,0,0,0,1,0,1,0,0,0,0,1,0,0,1,1,0,0,0,0,0,0,0,0,0,1]","location_rts":"[3119,489,468,837,448,715,355,211,734,780,916,2517,549,47,468,82,983,585,865,452,653,89,66,214,625,636,1720]","trial_type":"fractal-mutation","trial_index":52,"time_elapsed":1728696,"internal_node_id":"0.0-5.0-13.0"},{"group":"dihedral group of order 12","fractal_assignment":["../images/blu_wht.png","../images/grn_blu.png","../images/wht_red.png","../images/pnk_blu.png","../images/ylw_slt.png","../images/cyn_red.png","../images/org_blu.png","../images/grn_red.png","../images/grn_prp.png","../images/gry_blk.png","../images/red_prp.png","../images/ylw_pnk.png"],"mutagen_generator_assignment":[1,0],"goal":6,"start":11,"action_noise":0.15,"location_history":"[11,5,0,6]","action_history":"[1,0,1]","mutagen_history":"[0,1,0]","location_rts":"[1240,1066,547]","trial_type":"fractal-mutation","trial_index":53,"time_elapsed":1738466,"internal_node_id":"0.0-5.0-14.0"},{"group":"dihedral group of order 12","fractal_assignment":["../images/blu_wht.png","../images/grn_blu.png","../images/wht_red.png","../images/pnk_blu.png","../images/ylw_slt.png","../images/cyn_red.png","../images/org_blu.png","../images/grn_red.png","../images/grn_prp.png","../images/gry_blk.png","../images/red_prp.png","../images/ylw_pnk.png"],"mutagen_generator_assignment":[1,0],"goal":7,"start":6,"action_noise":0.15,"location_history":"[6,0,1,2,8,7]","action_history":"[0,0,0,1,0]","mutagen_history":"[1,1,1,0,1]","location_rts":"[366,521,602,339,168]","trial_type":"fractal-mutation","trial_index":54,"time_elapsed":1749897,"internal_node_id":"0.0-5.0-15.0"},{"group":"dihedral group of order 12","fractal_assignment":["../images/blu_wht.png","../images/grn_blu.png","../images/wht_red.png","../images/pnk_blu.png","../images/ylw_slt.png","../images/cyn_red.png","../images/org_blu.png","../images/grn_red.png","../images/grn_prp.png","../images/gry_blk.png","../images/red_prp.png","../images/ylw_pnk.png"],"mutagen_generator_assignment":[1,0],"goal":10,"start":7,"action_noise":0.15,"location_history":"[7,6,0,6,0,1,7,1,2,8,7,6,0,1,2,8,7,1,7,6,0,6,11,5,11,10]","action_history":"[0,1,1,1,1,1,1,1,1,0,0,1,0,0,1,0,1,0,0,1,1,0,1,0,0]","mutagen_history":"[1,0,0,0,0,0,0,0,0,1,1,0,1,1,0,1,0,1,1,0,0,1,0,1,1]","location_rts":"[1066,159,588,611,267,69,680,711,363,100,161,13252,179,237,654,675,1000,183,18,22,653,1173,970,806,557]","trial_type":"fractal-mutation","trial_index":55,"time_elapsed":1816015,"internal_node_id":"0.0-5.0-16.0"},{"group":"dihedral group of order 12","fractal_assignment":["../images/blu_wht.png","../images/grn_blu.png","../images/wht_red.png","../images/pnk_blu.png","../images/ylw_slt.png","../images/cyn_red.png","../images/org_blu.png","../images/grn_red.png","../images/grn_prp.png","../images/gry_blk.png","../images/red_prp.png","../images/ylw_pnk.png"],"mutagen_generator_assignment":[1,0],"goal":0,"start":10,"action_noise":0.15,"location_history":"[10,9,3,4,5,0]","action_history":"[0,1,0,0,0]","mutagen_history":"[1,0,1,1,1]","location_rts":"[500,118,224,77,112]","trial_type":"fractal-mutation","trial_index":56,"time_elapsed":1829100,"internal_node_id":"0.0-5.0-17.0"},{"group":"dihedral group of order 12","fractal_assignment":["../images/blu_wht.png","../images/grn_blu.png","../images/wht_red.png","../images/pnk_blu.png","../images/ylw_slt.png","../images/cyn_red.png","../images/org_blu.png","../images/grn_red.png","../images/grn_prp.png","../images/gry_blk.png","../images/red_prp.png","../images/ylw_pnk.png"],"mutagen_generator_assignment":[1,0],"goal":9,"start":0,"action_noise":0.15,"location_history":"[0,1,2,3,4,10,4,10,9]","action_history":"[0,1,0,0,0,1,0,1]","mutagen_history":"[1,0,1,1,1,0,1,0]","location_rts":"[632,447,234,118,460,416,240,101]","trial_type":"fractal-mutation","trial_index":57,"time_elapsed":1849308,"internal_node_id":"0.0-5.0-18.0"},{"group":"dihedral group of order 12","fractal_assignment":["../images/blu_wht.png","../images/grn_blu.png","../images/wht_red.png","../images/pnk_blu.png","../images/ylw_slt.png","../images/cyn_red.png","../images/org_blu.png","../images/grn_red.png","../images/grn_prp.png","../images/gry_blk.png","../images/red_prp.png","../images/ylw_pnk.png"],"mutagen_generator_assignment":[1,0],"goal":4,"start":9,"action_noise":0.15,"location_history":"[9,8,7,1,2,3,4]","action_history":"[0,0,1,0,0,0]","mutagen_history":"[1,1,0,1,1,1]","location_rts":"[796,122,524,636,445,450]","trial_type":"fractal-mutation","trial_index":58,"time_elapsed":1864681,"internal_node_id":"0.0-5.0-19.0"},{"group":"dihedral group of order 12","fractal_assignment":["../images/blu_wht.png","../images/grn_blu.png","../images/wht_red.png","../images/pnk_blu.png","../images/ylw_slt.png","../images/cyn_red.png","../images/org_blu.png","../images/grn_red.png","../images/grn_prp.png","../images/gry_blk.png","../images/red_prp.png","../images/ylw_pnk.png"],"mutagen_generator_assignment":[1,0],"goal":2,"start":4,"action_noise":0.15,"location_history":"[4,5,0,6,0,6,11,10,9,3,4,10,4,10,9,3,9,3,9,3,4,5,11,5,11,5,0,6,11,10,9,8,7,1,7,1,2]","action_history":"[0,0,0,1,1,0,0,0,1,1,1,0,1,0,1,1,1,1,1,0,0,1,1,1,1,0,1,0,0,0,0,0,1,1,0,0]","mutagen_history":"[1,1,1,0,0,1,1,1,0,0,0,1,0,1,0,0,0,0,0,1,1,0,0,0,0,1,0,1,1,1,1,1,0,0,1,1]","location_rts":"[727,829,844,35,846,1470,1047,856,132,631,815,999,1003,666,553,535,230,19,75,157,91,147,16,719,60,849,671,981,888,610,641,79,172,179,28,30]","trial_type":"fractal-mutation","trial_index":59,"time_elapsed":1951803,"internal_node_id":"0.0-5.0-20.0"},{"group":"dihedral group of order 12","fractal_assignment":["../images/blu_wht.png","../images/grn_blu.png","../images/wht_red.png","../images/pnk_blu.png","../images/ylw_slt.png","../images/cyn_red.png","../images/org_blu.png","../images/grn_red.png","../images/grn_prp.png","../images/gry_blk.png","../images/red_prp.png","../images/ylw_pnk.png"],"mutagen_generator_assignment":[1,0],"goal":1,"start":2,"action_noise":0.15,"location_history":"[2,3,4,10,4,5,0,6,0,6,0,6,11,10,4,10,4,10,9,8,2,8,7,6,0,6,11,10,4,5,11,5,11,10,4,5,11,10,9,8,2,8,2,3,4,5,0,1]","action_history":"[0,0,1,1,0,1,1,1,1,1,1,0,0,1,1,1,0,0,0,1,1,0,0,0,1,0,0,1,0,1,1,1,0,1,0,1,0,0,1,1,0,1,0,0,0,0,0]","mutagen_history":"[1,1,0,0,1,0,0,0,0,0,0,1,1,0,0,0,1,1,1,0,0,1,1,1,0,1,1,0,1,0,0,0,1,0,1,0,1,1,0,0,1,0,1,1,1,1,1]","location_rts":"[787,708,120,454,827,1066,382,86,467,141,503,375,100,301,686,783,489,125,69,819,1065,780,902,502,447,406,350,874,621,377,113,20,481,76,75,33713,94,105,2,142,47,235,151,324,190,179,276]","trial_type":"fractal-mutation","trial_index":60,"time_elapsed":2085042,"internal_node_id":"0.0-5.0-21.0"},{"group":"dihedral group of order 12","fractal_assignment":["../images/blu_wht.png","../images/grn_blu.png","../images/wht_red.png","../images/pnk_blu.png","../images/ylw_slt.png","../images/cyn_red.png","../images/org_blu.png","../images/grn_red.png","../images/grn_prp.png","../images/gry_blk.png","../images/red_prp.png","../images/ylw_pnk.png"],"mutagen_generator_assignment":[1,0],"goal":3,"start":1,"action_noise":0.15,"location_history":"[1,2,3]","action_history":"[0,0]","mutagen_history":"[1,1]","location_rts":"[958,113]","trial_type":"fractal-mutation","trial_index":61,"time_elapsed":2093213,"internal_node_id":"0.0-5.0-22.0"},{"group":"dihedral group of order 12","fractal_assignment":["../images/blu_wht.png","../images/grn_blu.png","../images/wht_red.png","../images/pnk_blu.png","../images/ylw_slt.png","../images/cyn_red.png","../images/org_blu.png","../images/grn_red.png","../images/grn_prp.png","../images/gry_blk.png","../images/red_prp.png","../images/ylw_pnk.png"],"mutagen_generator_assignment":[1,0],"goal":7,"start":3,"action_noise":0.15,"location_history":"[3,9,8,7]","action_history":"[0,0,0]","mutagen_history":"[1,1,1]","location_rts":"[963,761,568]","trial_type":"fractal-mutation","trial_index":62,"time_elapsed":2103731,"internal_node_id":"0.0-5.0-23.0"},{"group":"dihedral group of order 12","fractal_assignment":["../images/blu_wht.png","../images/grn_blu.png","../images/wht_red.png","../images/pnk_blu.png","../images/ylw_slt.png","../images/cyn_red.png","../images/org_blu.png","../images/grn_red.png","../images/grn_prp.png","../images/gry_blk.png","../images/red_prp.png","../images/ylw_pnk.png"],"mutagen_generator_assignment":[1,0],"goal":6,"start":7,"action_noise":0.15,"location_history":"[7,1,2,8,2,3,4,5,0,1,7,1,7,1,7,1,7,1,7,6]","action_history":"[1,0,1,1,1,0,0,1,1,1,1,1,1,0,1,1,1,1,0]","mutagen_history":"[0,1,0,0,0,1,1,0,0,0,0,0,0,1,0,0,0,0,1]","location_rts":"[855,1582,14675,26,3,98,315,24,933,7842,119,1408,132,4,105,2,5489,64,14]","trial_type":"fractal-mutation","trial_index":63,"time_elapsed":2169743,"internal_node_id":"0.0-5.0-24.0"},{"group":"dihedral group of order 12","fractal_assignment":["../images/blu_wht.png","../images/grn_blu.png","../images/wht_red.png","../images/pnk_blu.png","../images/ylw_slt.png","../images/cyn_red.png","../images/org_blu.png","../images/grn_red.png","../images/grn_prp.png","../images/gry_blk.png","../images/red_prp.png","../images/ylw_pnk.png"],"mutagen_generator_assignment":[1,0],"goal":2,"start":6,"action_noise":0.15,"location_history":"[6,0,1,2]","action_history":"[1,0,0]","mutagen_history":"[0,1,1]","location_rts":"[1808,558,201]","trial_type":"fractal-mutation","trial_index":64,"time_elapsed":2180639,"internal_node_id":"0.0-5.0-25.0"},{"group":"dihedral group of order 12","fractal_assignment":["../images/blu_wht.png","../images/grn_blu.png","../images/wht_red.png","../images/pnk_blu.png","../images/ylw_slt.png","../images/cyn_red.png","../images/org_blu.png","../images/grn_red.png","../images/grn_prp.png","../images/gry_blk.png","../images/red_prp.png","../images/ylw_pnk.png"],"mutagen_generator_assignment":[1,0],"goal":8,"start":2,"action_noise":0.15,"location_history":"[2,8]","action_history":"[1]","mutagen_history":"[0]","location_rts":"[83942]","trial_type":"fractal-mutation","trial_index":65,"time_elapsed":2269574,"internal_node_id":"0.0-5.0-26.0"},{"group":"dihedral group of order 12","fractal_assignment":["../images/blu_wht.png","../images/grn_blu.png","../images/wht_red.png","../images/pnk_blu.png","../images/ylw_slt.png","../images/cyn_red.png","../images/org_blu.png","../images/grn_red.png","../images/grn_prp.png","../images/gry_blk.png","../images/red_prp.png","../images/ylw_pnk.png"],"mutagen_generator_assignment":[1,0],"goal":0,"start":8,"action_noise":0.15,"location_history":"[8,2,3,9,8,7,6,0]","action_history":"[1,0,1,0,0,0,1]","mutagen_history":"[0,1,0,1,1,1,0]","location_rts":"[796,101,1,10,102,1,97]","trial_type":"fractal-mutation","trial_index":66,"time_elapsed":2285836,"internal_node_id":"0.0-5.0-27.0"},{"group":"dihedral group of order 12","fractal_assignment":["../images/blu_wht.png","../images/grn_blu.png","../images/wht_red.png","../images/pnk_blu.png","../images/ylw_slt.png","../images/cyn_red.png","../images/org_blu.png","../images/grn_red.png","../images/grn_prp.png","../images/gry_blk.png","../images/red_prp.png","../images/ylw_pnk.png"],"mutagen_generator_assignment":[1,0],"goal":3,"start":0,"action_noise":0.15,"location_history":"[0,6,11,5,11,5,11,10,4,5,11,10,9,3]","action_history":"[1,1,1,1,1,1,0,1,0,1,0,0,1]","mutagen_history":"[0,0,0,0,0,0,1,0,1,0,1,1,0]","location_rts":"[520,513,885,242,676,681,784,552,773,208,52,931,332]","trial_type":"fractal-mutation","trial_index":67,"time_elapsed":2317801,"internal_node_id":"0.0-5.0-28.0"},{"group":"dihedral group of order 12","fractal_assignment":["../images/blu_wht.png","../images/grn_blu.png","../images/wht_red.png","../images/pnk_blu.png","../images/ylw_slt.png","../images/cyn_red.png","../images/org_blu.png","../images/grn_red.png","../images/grn_prp.png","../images/gry_blk.png","../images/red_prp.png","../images/ylw_pnk.png"],"mutagen_generator_assignment":[1,0],"goal":4,"start":3,"action_noise":0.15,"location_history":"[3,9,3,9,8,2,8,2,8,7,6,11,10,9,8,7,6,0,6,11,10,4]","action_history":"[0,1,0,1,0,1,1,1,0,0,0,0,0,0,0,0,1,1,0,0,1]","mutagen_history":"[1,0,1,0,1,0,0,0,1,1,1,1,1,1,1,1,0,0,1,1,0]","location_rts":"[103740,87,439,138,122,85,51,386,15,300,84,150,32,65,107,98,404,693,518,4,544]","trial_type":"fractal-mutation","trial_index":68,"time_elapsed":2464678,"internal_node_id":"0.0-5.0-29.0"},{"group":"dihedral group of order 12","fractal_assignment":["../images/blu_wht.png","../images/grn_blu.png","../images/wht_red.png","../images/pnk_blu.png","../images/ylw_slt.png","../images/cyn_red.png","../images/org_blu.png","../images/grn_red.png","../images/grn_prp.png","../images/gry_blk.png","../images/red_prp.png","../images/ylw_pnk.png"],"mutagen_generator_assignment":[1,0],"goal":10,"start":4,"action_noise":0.15,"location_history":"[4,5,0,1,7,6,11,5,11,5,11,10]","action_history":"[0,0,1,1,0,1,1,1,0,1,0]","mutagen_history":"[1,1,0,0,1,0,0,0,1,0,1]","location_rts":"[96481,538,473,83,103,286,814,713,610,979,753]","trial_type":"fractal-mutation","trial_index":69,"time_elapsed":2589152,"internal_node_id":"0.0-5.0-30.0"},{"group":"dihedral group of order 12","fractal_assignment":["../images/blu_wht.png","../images/grn_blu.png","../images/wht_red.png","../images/pnk_blu.png","../images/ylw_slt.png","../images/cyn_red.png","../images/org_blu.png","../images/grn_red.png","../images/grn_prp.png","../images/gry_blk.png","../images/red_prp.png","../images/ylw_pnk.png"],"mutagen_generator_assignment":[1,0],"goal":11,"start":10,"action_noise":0.15,"location_history":"[10,9,3,9,8,7,1,7,6,0,1,2,3,4,5,11]","action_history":"[1,1,1,0,0,1,1,1,0,0,1,0,1,0,1]","mutagen_history":"[0,0,0,1,1,0,0,0,1,1,0,1,0,1,0]","location_rts":"[764,834,881,659,734,208,693,791,1039,1286,736,1139,714,163,604]","trial_type":"fractal-mutation","trial_index":70,"time_elapsed":2628171,"internal_node_id":"0.0-5.0-31.0"},{"group":"dihedral group of order 12","fractal_assignment":["../images/blu_wht.png","../images/grn_blu.png","../images/wht_red.png","../images/pnk_blu.png","../images/ylw_slt.png","../images/cyn_red.png","../images/org_blu.png","../images/grn_red.png","../images/grn_prp.png","../images/gry_blk.png","../images/red_prp.png","../images/ylw_pnk.png"],"mutagen_generator_assignment":[1,0],"goal":1,"start":11,"action_noise":0.15,"location_history":"[11,10,9,3,9,8,2,3,9,8,7,6,0,1]","action_history":"[0,0,1,1,0,1,0,1,1,0,0,1,0]","mutagen_history":"[1,1,0,0,1,0,1,0,0,1,1,0,1]","location_rts":"[36900,329,703,1142,791,109,611,914,573,1513,845,1324,581]","trial_type":"fractal-mutation","trial_index":71,"time_elapsed":2698912,"internal_node_id":"0.0-5.0-32.0"},{"group":"dihedral group of order 12","fractal_assignment":["../images/blu_wht.png","../images/grn_blu.png","../images/wht_red.png","../images/pnk_blu.png","../images/ylw_slt.png","../images/cyn_red.png","../images/org_blu.png","../images/grn_red.png","../images/grn_prp.png","../images/gry_blk.png","../images/red_prp.png","../images/ylw_pnk.png"],"mutagen_generator_assignment":[1,0],"goal":5,"start":1,"action_noise":0.15,"location_history":"[1,2,3,4,5]","action_history":"[0,0,0,0]","mutagen_history":"[1,1,1,1]","location_rts":"[1709,153,45,39]","trial_type":"fractal-mutation","trial_index":72,"time_elapsed":2710842,"internal_node_id":"0.0-5.0-33.0"},{"group":"dihedral group of order 12","fractal_assignment":["../images/blu_wht.png","../images/grn_blu.png","../images/wht_red.png","../images/pnk_blu.png","../images/ylw_slt.png","../images/cyn_red.png","../images/org_blu.png","../images/grn_red.png","../images/grn_prp.png","../images/gry_blk.png","../images/red_prp.png","../images/ylw_pnk.png"],"mutagen_generator_assignment":[1,0],"goal":9,"start":5,"action_noise":0.15,"location_history":"[5,11,10,4,10,9]","action_history":"[1,1,1,1,0]","mutagen_history":"[0,0,0,0,1]","location_rts":"[2953,142,35,39,771]","trial_type":"fractal-mutation","trial_index":73,"time_elapsed":2725835,"internal_node_id":"0.0-5.0-34.0"},{"view_history":"[{\"page_index\":0,\"viewing_time\":44964}]","rt":44965,"trial_type":"instructions","trial_index":74,"time_elapsed":2771810,"internal_node_id":"0.0-6.0"},{"rt":12478,"responses":"{\"Q0\":\"great survey but it kept lagging.\"}","trial_type":"survey-text","trial_index":75,"time_elapsed":2785295,"internal_node_id":"0.0-7.0"}]