[{"view_history":"[{\"page_index\":0,\"viewing_time\":15154},{\"page_index\":1,\"viewing_time\":16666},{\"page_index\":2,\"viewing_time\":29507},{\"page_index\":3,\"viewing_time\":3121}]","rt":64449,"trial_type":"instructions","trial_index":0,"time_elapsed":64450,"internal_node_id":"0.0-0.0"},{"view_history":"[{\"page_index\":0,\"viewing_time\":2055},{\"page_index\":1,\"viewing_time\":17498}]","rt":19554,"trial_type":"instructions","trial_index":1,"time_elapsed":85006,"internal_node_id":"0.0-1.0"},{"group":"dihedral group of order 12","room_assignment":["ivory","red","green","purple","grey","brown","pink","cyan","orange","olive","blue","yellow"],"door_color_assignment":["white","black"],"door_generator_assignment":[0,1],"goal":4,"start":0,"action_noise":0.15,"location_history":"[0,6,11,5,0,6,11,10,9,8,2,8,7,1,7,1,7,6,11,10,4]","action_history":"[1,1,0,0,1,0,0,0,0,1,1,1,1,1,1,1,1,0,0,1]","door_history":"[1,1,0,0,1,0,0,0,0,1,1,1,1,1,1,1,1,0,0,1]","location_rts":"[3424,1701,926,791,939,915,500,502,452,1039,349,359,301,389,323,314,299,520,347,645]","trial_type":"two-door-navigation","trial_index":2,"time_elapsed":123915,"internal_node_id":"0.0-2.0-0.0"},{"group":"dihedral group of order 12","room_assignment":["ivory","red","green","purple","grey","brown","pink","cyan","orange","olive","blue","yellow"],"door_color_assignment":["white","black"],"door_generator_assignment":[0,1],"goal":9,"start":4,"action_noise":0.15,"location_history":"[4,5,11,5,11,10,9]","action_history":"[0,1,0,0,0,0]","door_history":"[0,1,0,0,0,0]","location_rts":"[1914,667,757,404,296,402]","trial_type":"two-door-navigation","trial_index":3,"time_elapsed":137977,"internal_node_id":"0.0-2.0-1.0"},{"group":"dihedral group of order 12","room_assignment":["ivory","red","green","purple","grey","brown","pink","cyan","orange","olive","blue","yellow"],"door_color_assignment":["white","black"],"door_generator_assignment":[0,1],"goal":10,"start":9,"action_noise":0.15,"location_history":"[9,3,4,5,11,5,11,10]","action_history":"[1,0,0,1,1,1,0]","door_history":"[1,0,0,1,1,1,0]","location_rts":"[1486,645,386,722,452,887,1029]","trial_type":"two-door-navigation","trial_index":4,"time_elapsed":154224,"internal_node_id":"0.0-2.0-2.0"},{"group":"dihedral group of order 12","room_assignment":["ivory","red","green","purple","grey","brown","pink","cyan","orange","olive","blue","yellow"],"door_color_assignment":["white","black"],"door_generator_assignment":[0,1],"goal":2,"start":10,"action_noise":0.15,"location_history":"[10,4,5,0,1,2]","action_history":"[1,0,0,0,0]","door_history":"[1,0,0,0,0]","location_rts":"[1815,813,347,393,297]","trial_type":"two-door-navigation","trial_index":5,"time_elapsed":166485,"internal_node_id":"0.0-2.0-3.0"},{"group":"dihedral group of order 12","room_assignment":["ivory","red","green","purple","grey","brown","pink","cyan","orange","olive","blue","yellow"],"door_color_assignment":["white","black"],"door_generator_assignment":[0,1],"goal":5,"start":2,"action_noise":0.15,"location_history":"[2,3,9,8,2,8,2,3,9,3,4,5]","action_history":"[1,0,0,0,1,1,1,1,1,0,0]","door_history":"[1,0,0,0,1,1,1,1,1,0,0]","location_rts":"[1090,661,356,445,814,885,956,371,325,754,325]","trial_type":"two-door-navigation","trial_index":6,"time_elapsed":188161,"internal_node_id":"0.0-2.0-4.0"},{"group":"dihedral group of order 12","room_assignment":["ivory","red","green","purple","grey","brown","pink","cyan","orange","olive","blue","yellow"],"door_color_assignment":["white","black"],"door_generator_assignment":[0,1],"goal":11,"start":5,"action_noise":0.15,"location_history":"[5,0,6,11]","action_history":"[0,1,1]","door_history":"[0,1,1]","location_rts":"[1448,405,352]","trial_type":"two-door-navigation","trial_index":7,"time_elapsed":196918,"internal_node_id":"0.0-2.0-5.0"},{"group":"dihedral group of order 12","room_assignment":["ivory","red","green","purple","grey","brown","pink","cyan","orange","olive","blue","yellow"],"door_color_assignment":["white","black"],"door_generator_assignment":[0,1],"goal":6,"start":11,"action_noise":0.15,"location_history":"[11,10,4,10,4,5,0,1,2,3,4,5,11,10,9,3,9,3,9,8,7,1,2,3,9,8,7,1,7,1,7,1,7,1,2,3,9,8,2,3,9,8,2,8,2,8,2,8,2,3,4,10,4,10,4,5,0,6]","action_history":"[1,1,1,1,1,0,0,0,0,0,1,1,0,1,1,1,1,0,0,0,0,0,0,0,0,0,0,1,1,1,1,1,1,0,0,1,0,1,0,1,0,1,1,1,1,1,1,0,0,0,1,1,1,1,0,0,1]","door_history":"[1,1,1,1,1,0,0,0,0,0,1,1,0,1,1,1,1,0,0,0,0,0,0,0,0,0,0,1,1,1,1,1,1,0,0,1,0,1,0,1,0,1,1,1,1,1,1,0,0,0,1,1,1,1,0,0,1]","location_rts":"[2285,505,431,483,466,407,348,364,428,430,620,464,579,592,388,374,330,532,294,338,335,415,323,351,300,275,480,736,324,450,330,233,284,351,581,547,313,315,122,300,363,294,363,144,47,210,225,234,247,193,144,427,270,461,244,348,217]","trial_type":"two-door-navigation","trial_index":8,"time_elapsed":280939,"internal_node_id":"0.0-2.0-6.0"},{"group":"dihedral group of order 12","room_assignment":["ivory","red","green","purple","grey","brown","pink","cyan","orange","olive","blue","yellow"],"door_color_assignment":["white","black"],"door_generator_assignment":[0,1],"goal":3,"start":6,"action_noise":0.15,"location_history":"[6,0,1,7,6,11,10,4,5,0,6,11,10,4,10,4,10,4,10,4,10,9,8,2,3]","action_history":"[1,0,0,0,0,0,0,0,0,0,0,1,1,1,1,1,1,1,1,1,0,0,0,0]","door_history":"[1,0,0,0,0,0,0,0,0,0,0,1,1,1,1,1,1,1,1,1,0,0,0,0]","location_rts":"[1553,466,225,205,224,109,259,222,213,211,122,214,283,284,198,31,248,775,182,416,611,311,212,419]","trial_type":"two-door-navigation","trial_index":9,"time_elapsed":316846,"internal_node_id":"0.0-2.0-7.0"},{"group":"dihedral group of order 12","room_assignment":["ivory","red","green","purple","grey","brown","pink","cyan","orange","olive","blue","yellow"],"door_color_assignment":["white","black"],"door_generator_assignment":[0,1],"goal":8,"start":3,"action_noise":0.15,"location_history":"[3,4,5,11,5,0,6,0,6,0,6,11,5,11,10,9,8]","action_history":"[0,1,1,1,0,0,1,1,1,1,1,1,0,0,0,0]","door_history":"[0,1,1,1,0,0,1,1,1,1,1,1,0,0,0,0]","location_rts":"[581,136,322,808,398,425,457,366,150,630,414,44,491,319,417,334]","trial_type":"two-door-navigation","trial_index":10,"time_elapsed":342934,"internal_node_id":"0.0-2.0-8.0"},{"group":"dihedral group of order 12","room_assignment":["ivory","red","green","purple","grey","brown","pink","cyan","orange","olive","blue","yellow"],"door_color_assignment":["white","black"],"door_generator_assignment":[0,1],"goal":1,"start":8,"action_noise":0.15,"location_history":"[8,2,8,2,3,4,5,11,10,4,10,9,3,9,3,9,3,4,5,0,6,11,10,4,10,9,8,2,3,4,10,9,3,4,10,4,10,9,8,2,8,2,3,9,3,4,5,11,10,4,10,9,3,9,3,9,3,4,5,11,5,11,5,0,1]","action_history":"[1,1,0,0,0,0,1,1,0,1,1,1,1,1,1,1,0,0,0,1,0,0,1,1,0,0,0,0,0,1,0,1,0,1,0,1,1,1,1,1,0,0,1,1,0,0,1,1,0,1,1,1,1,1,1,1,0,0,1,0,1,1,0,0]","door_history":"[1,1,0,0,0,0,1,1,0,1,1,1,1,1,1,1,0,0,0,1,0,0,1,1,0,0,0,0,0,1,0,1,0,1,0,1,1,1,1,1,0,0,1,1,0,0,1,1,0,1,1,1,1,1,1,1,0,0,1,0,1,1,0,0]","location_rts":"[2408,535,819,305,273,418,1051,496,415,779,368,335,248,261,276,289,658,287,245,361,566,352,474,414,277,311,279,208,261,317,236,310,184,258,256,258,264,336,236,381,353,479,335,501,361,390,412,207,431,112,263,287,248,213,184,279,68,270,221,305,337,324,478,263]","trial_type":"two-door-navigation","trial_index":11,"time_elapsed":435898,"internal_node_id":"0.0-2.0-9.0"},{"group":"dihedral group of order 12","room_assignment":["ivory","red","green","purple","grey","brown","pink","cyan","orange","olive","blue","yellow"],"door_color_assignment":["white","black"],"door_generator_assignment":[0,1],"goal":7,"start":1,"action_noise":0.15,"location_history":"[1,7]","action_history":"[0]","door_history":"[0]","location_rts":"[942]","trial_type":"two-door-navigation","trial_index":12,"time_elapsed":441364,"internal_node_id":"0.0-2.0-10.0"},{"group":"dihedral group of order 12","room_assignment":["ivory","red","green","purple","grey","brown","pink","cyan","orange","olive","blue","yellow"],"door_color_assignment":["white","black"],"door_generator_assignment":[0,1],"goal":5,"start":7,"action_noise":0.15,"location_history":"[7,1,2,8,7,6,0,6,11,5]","action_history":"[1,0,0,0,0,1,1,1,1]","door_history":"[1,0,0,0,0,1,1,1,1]","location_rts":"[758,361,364,580,377,388,207,149,170]","trial_type":"two-door-navigation","trial_index":13,"time_elapsed":457382,"internal_node_id":"0.0-2.0-11.0"},{"group":"dihedral group of order 12","room_assignment":["ivory","red","green","purple","grey","brown","pink","cyan","orange","olive","blue","yellow"],"door_color_assignment":["white","black"],"door_generator_assignment":[0,1],"goal":8,"start":5,"action_noise":0.15,"location_history":"[5,0,1,2,8]","action_history":"[1,0,0,1]","door_history":"[1,0,0,1]","location_rts":"[855,503,378,379]","trial_type":"two-door-navigation","trial_index":14,"time_elapsed":467067,"internal_node_id":"0.0-2.0-12.0"},{"group":"dihedral group of order 12","room_assignment":["ivory","red","green","purple","grey","brown","pink","cyan","orange","olive","blue","yellow"],"door_color_assignment":["white","black"],"door_generator_assignment":[0,1],"goal":11,"start":8,"action_noise":0.15,"location_history":"[8,2,8,2,8,2,3,4,10,4,10,4,5,11]","action_history":"[1,0,1,1,1,0,0,1,1,1,1,1,0]","door_history":"[1,0,1,1,1,0,0,1,1,1,1,1,0]","location_rts":"[697,298,369,301,261,362,582,262,255,261,155,249,249]","trial_type":"two-door-navigation","trial_index":15,"time_elapsed":488103,"internal_node_id":"0.0-2.0-13.0"},{"group":"dihedral group of order 12","room_assignment":["ivory","red","green","purple","grey","brown","pink","cyan","orange","olive","blue","yellow"],"door_color_assignment":["white","black"],"door_generator_assignment":[0,1],"goal":6,"start":11,"action_noise":0.15,"location_history":"[11,10,4,10,9,8,7,1,7,1,2,3,4,10,4,10,9,3,4,5,0,6]","action_history":"[0,1,1,0,0,0,1,1,1,0,0,0,1,0,0,0,1,0,0,1,0]","door_history":"[0,1,1,0,0,0,1,1,1,0,0,0,1,0,0,0,1,0,0,1,0]","location_rts":"[416,276,187,314,270,271,352,544,376,252,300,300,308,403,234,338,426,273,275,513,361]","trial_type":"two-door-navigation","trial_index":16,"time_elapsed":519972,"internal_node_id":"0.0-2.0-14.0"},{"group":"dihedral group of order 12","room_assignment":["ivory","red","green","purple","grey","brown","pink","cyan","orange","olive","blue","yellow"],"door_color_assignment":["white","black"],"door_generator_assignment":[0,1],"goal":7,"start":6,"action_noise":0.15,"location_history":"[6,11,10,9,3,4,10,9,8,2,8,2,8,7]","action_history":"[0,1,0,0,0,0,1,1,1,1,1,1,0]","door_history":"[0,1,0,0,0,0,1,1,1,1,1,1,0]","location_rts":"[405,427,548,290,355,260,389,265,181,55,52,43,3]","trial_type":"two-door-navigation","trial_index":17,"time_elapsed":539990,"internal_node_id":"0.0-2.0-15.0"},{"group":"dihedral group of order 12","room_assignment":["ivory","red","green","purple","grey","brown","pink","cyan","orange","olive","blue","yellow"],"door_color_assignment":["white","black"],"door_generator_assignment":[0,1],"goal":10,"start":7,"action_noise":0.15,"location_history":"[7,6,0,6,11,10]","action_history":"[0,1,1,0,0]","door_history":"[0,1,1,0,0]","location_rts":"[645,69,198,290,199]","trial_type":"two-door-navigation","trial_index":18,"time_elapsed":549973,"internal_node_id":"0.0-2.0-16.0"},{"group":"dihedral group of order 12","room_assignment":["ivory","red","green","purple","grey","brown","pink","cyan","orange","olive","blue","yellow"],"door_color_assignment":["white","black"],"door_generator_assignment":[0,1],"goal":0,"start":10,"action_noise":0.15,"location_history":"[10,4,10,4,5,11,10,9,8,7,1,2,3,4,5,0]","action_history":"[0,1,1,1,1,0,0,1,0,1,1,0,0,0,0]","door_history":"[0,1,1,1,1,0,0,1,0,1,1,0,0,0,0]","location_rts":"[663,263,298,288,312,309,263,480,241,271,287,106,187,198,243]","trial_type":"two-door-navigation","trial_index":19,"time_elapsed":573152,"internal_node_id":"0.0-2.0-17.0"},{"group":"dihedral group of order 12","room_assignment":["ivory","red","green","purple","grey","brown","pink","cyan","orange","olive","blue","yellow"],"door_color_assignment":["white","black"],"door_generator_assignment":[0,1],"goal":9,"start":0,"action_noise":0.15,"location_history":"[0,1,7,1,7,6,0,1,7,1,7,1,2,8,2,8,2,3,4,10,4,10,9]","action_history":"[0,1,1,0,0,1,0,1,1,1,1,0,1,1,1,0,0,0,1,1,1,0]","door_history":"[0,1,1,0,0,1,0,1,1,1,1,0,1,1,1,0,0,0,1,1,1,0]","location_rts":"[590,68,248,706,170,101,159,169,10,41,119,135,263,226,248,1006,261,129,746,335,246,303]","trial_type":"two-door-navigation","trial_index":20,"time_elapsed":605336,"internal_node_id":"0.0-2.0-18.0"},{"group":"dihedral group of order 12","room_assignment":["ivory","red","green","purple","grey","brown","pink","cyan","orange","olive","blue","yellow"],"door_color_assignment":["white","black"],"door_generator_assignment":[0,1],"goal":4,"start":9,"action_noise":0.15,"location_history":"[9,8,2,3,9,8,7,6,11,10,9,3,9,3,4]","action_history":"[0,1,1,1,1,0,0,0,0,0,1,1,1,1]","door_history":"[0,1,1,1,1,0,0,0,0,0,1,1,1,1]","location_rts":"[354,337,350,283,284,479,210,134,291,229,419,325,368,274]","trial_type":"two-door-navigation","trial_index":21,"time_elapsed":627437,"internal_node_id":"0.0-2.0-19.0"},{"group":"dihedral group of order 12","room_assignment":["ivory","red","green","purple","grey","brown","pink","cyan","orange","olive","blue","yellow"],"door_color_assignment":["white","black"],"door_generator_assignment":[0,1],"goal":2,"start":4,"action_noise":0.15,"location_history":"[4,10,9,8,7,1,2]","action_history":"[1,0,0,1,1,0]","door_history":"[1,0,0,1,1,0]","location_rts":"[401,300,1187,402,159,275]","trial_type":"two-door-navigation","trial_index":22,"time_elapsed":639761,"internal_node_id":"0.0-2.0-20.0"},{"group":"dihedral group of order 12","room_assignment":["ivory","red","green","purple","grey","brown","pink","cyan","orange","olive","blue","yellow"],"door_color_assignment":["white","black"],"door_generator_assignment":[0,1],"goal":1,"start":2,"action_noise":0.15,"location_history":"[2,3,4,10,9,3,9,8,7,1]","action_history":"[1,0,1,0,1,1,0,0,0]","door_history":"[1,0,1,0,1,1,0,0,0]","location_rts":"[315,353,477,137,184,234,470,232,132]","trial_type":"two-door-navigation","trial_index":23,"time_elapsed":654951,"internal_node_id":"0.0-2.0-21.0"},{"group":"dihedral group of order 12","room_assignment":["ivory","red","green","purple","grey","brown","pink","cyan","orange","olive","blue","yellow"],"door_color_assignment":["white","black"],"door_generator_assignment":[0,1],"goal":3,"start":1,"action_noise":0.15,"location_history":"[1,2,8,7,1,7,1,7,6,0,1,2,8,2,8,7,1,2,8,7,6,11,10,9,8,7,1,7,1,2,3]","action_history":"[0,1,0,1,1,1,0,0,1,1,0,1,1,1,0,0,0,1,0,0,0,0,0,0,1,1,1,1,0,0]","door_history":"[0,1,0,1,1,1,0,0,1,1,0,1,1,1,0,0,0,1,0,0,0,0,0,0,1,1,1,1,0,0]","location_rts":"[983,27,721,263,106,210,297,865,270,286,315,221,264,211,199,217,428,503,327,256,137,57,56,116,749,86,410,57,455,18]","trial_type":"two-door-navigation","trial_index":24,"time_elapsed":698105,"internal_node_id":"0.0-2.0-22.0"},{"group":"dihedral group of order 12","room_assignment":["ivory","red","green","purple","grey","brown","pink","cyan","orange","olive","blue","yellow"],"door_color_assignment":["white","black"],"door_generator_assignment":[0,1],"goal":7,"start":3,"action_noise":0.15,"location_history":"[3,9,3,4,5,0,6,0,1,7]","action_history":"[1,1,0,0,0,1,0,0,1]","door_history":"[1,1,0,0,0,1,0,0,1]","location_rts":"[2114,265,132,81,199,257,324,451,170]","trial_type":"two-door-navigation","trial_index":25,"time_elapsed":714765,"internal_node_id":"0.0-2.0-23.0"},{"group":"dihedral group of order 12","room_assignment":["ivory","red","green","purple","grey","brown","pink","cyan","orange","olive","blue","yellow"],"door_color_assignment":["white","black"],"door_generator_assignment":[0,1],"goal":6,"start":7,"action_noise":0.15,"location_history":"[7,1,7,6]","action_history":"[1,0,0]","door_history":"[1,0,0]","location_rts":"[596,221,99]","trial_type":"two-door-navigation","trial_index":26,"time_elapsed":722233,"internal_node_id":"0.0-2.0-24.0"},{"group":"dihedral group of order 12","room_assignment":["ivory","red","green","purple","grey","brown","pink","cyan","orange","olive","blue","yellow"],"door_color_assignment":["white","black"],"door_generator_assignment":[0,1],"goal":2,"start":6,"action_noise":0.15,"location_history":"[6,11,10,4,10,4,5,11,5,11,5,0,1,2]","action_history":"[0,1,0,1,1,0,0,1,1,1,0,1,1]","door_history":"[0,1,0,1,1,0,0,1,1,1,0,1,1]","location_rts":"[403,327,23,150,163,243,176,146,224,492,21,534,246]","trial_type":"two-door-navigation","trial_index":27,"time_elapsed":742094,"internal_node_id":"0.0-2.0-25.0"},{"group":"dihedral group of order 12","room_assignment":["ivory","red","green","purple","grey","brown","pink","cyan","orange","olive","blue","yellow"],"door_color_assignment":["white","black"],"door_generator_assignment":[0,1],"goal":8,"start":2,"action_noise":0.15,"location_history":"[2,3,9,3,4,5,11,5,11,10,4,5,11,10,9,8]","action_history":"[0,1,1,0,0,1,1,0,0,1,0,1,0,1,0]","door_history":"[0,1,1,0,0,1,1,0,0,1,0,1,0,1,0]","location_rts":"[607,220,385,352,66,224,189,210,110,661,133,408,242,132,210]","trial_type":"two-door-navigation","trial_index":28,"time_elapsed":764996,"internal_node_id":"0.0-2.0-26.0"},{"group":"dihedral group of order 12","room_assignment":["ivory","red","green","purple","grey","brown","pink","cyan","orange","olive","blue","yellow"],"door_color_assignment":["white","black"],"door_generator_assignment":[0,1],"goal":0,"start":8,"action_noise":0.15,"location_history":"[8,2,3,9,8,2,3,9,8,2,3,9,8,7,6,11,5,11,5,11,10,9,8,7,1,7,1,7,6,0]","action_history":"[1,0,1,0,1,0,1,0,1,0,1,0,0,0,0,1,1,1,0,0,0,0,0,1,1,1,0,0,1]","door_history":"[1,0,1,0,1,0,1,0,1,0,1,0,0,0,0,1,1,1,0,0,0,0,0,1,1,1,0,0,1]","location_rts":"[491,36,33,481,147,39,2,441,7,54,18,78,369,107,225,202,834,80,909,440,159,199,146,118,265,53,271,18,238]","trial_type":"two-door-navigation","trial_index":29,"time_elapsed":804479,"internal_node_id":"0.0-2.0-27.0"},{"group":"dihedral group of order 12","room_assignment":["ivory","red","green","purple","grey","brown","pink","cyan","orange","olive","blue","yellow"],"door_color_assignment":["white","black"],"door_generator_assignment":[0,1],"goal":3,"start":0,"action_noise":0.15,"location_history":"[0,6,11,10,4,5,11,5,11,10,9,3]","action_history":"[1,0,0,1,0,1,0,1,0,0,1]","door_history":"[1,0,0,1,0,1,0,1,0,0,1]","location_rts":"[579,4,321,195,521,56,368,123,390,105,223]","trial_type":"two-door-navigation","trial_index":30,"time_elapsed":822067,"internal_node_id":"0.0-2.0-28.0"},{"group":"dihedral group of order 12","room_assignment":["ivory","red","green","purple","grey","brown","pink","cyan","orange","olive","blue","yellow"],"door_color_assignment":["white","black"],"door_generator_assignment":[0,1],"goal":4,"start":3,"action_noise":0.15,"location_history":"[3,4]","action_history":"[0]","door_history":"[0]","location_rts":"[577]","trial_type":"two-door-navigation","trial_index":31,"time_elapsed":827164,"internal_node_id":"0.0-2.0-29.0"},{"group":"dihedral group of order 12","room_assignment":["ivory","red","green","purple","grey","brown","pink","cyan","orange","olive","blue","yellow"],"door_color_assignment":["white","black"],"door_generator_assignment":[0,1],"goal":10,"start":4,"action_noise":0.15,"location_history":"[4,5,0,6,11,10]","action_history":"[0,0,1,0,0]","door_history":"[0,0,1,0,0]","location_rts":"[313,303,244,286,169]","trial_type":"two-door-navigation","trial_index":32,"time_elapsed":837077,"internal_node_id":"0.0-2.0-30.0"},{"group":"dihedral group of order 12","room_assignment":["ivory","red","green","purple","grey","brown","pink","cyan","orange","olive","blue","yellow"],"door_color_assignment":["white","black"],"door_generator_assignment":[0,1],"goal":11,"start":10,"action_noise":0.15,"location_history":"[10,9,3,4,5,11]","action_history":"[0,1,1,0,1]","door_history":"[0,1,1,0,1]","location_rts":"[323,345,263,263,275]","trial_type":"two-door-navigation","trial_index":33,"time_elapsed":847142,"internal_node_id":"0.0-2.0-31.0"},{"group":"dihedral group of order 12","room_assignment":["ivory","red","green","purple","grey","brown","pink","cyan","orange","olive","blue","yellow"],"door_color_assignment":["white","black"],"door_generator_assignment":[0,1],"goal":1,"start":11,"action_noise":0.15,"location_history":"[11,5,11,5,0,6,0,1]","action_history":"[0,1,1,0,1,1,0]","door_history":"[0,1,1,0,1,1,0]","location_rts":"[360,199,286,267,291,128,228]","trial_type":"two-door-navigation","trial_index":34,"time_elapsed":859521,"internal_node_id":"0.0-2.0-32.0"},{"group":"dihedral group of order 12","room_assignment":["ivory","red","green","purple","grey","brown","pink","cyan","orange","olive","blue","yellow"],"door_color_assignment":["white","black"],"door_generator_assignment":[0,1],"goal":5,"start":1,"action_noise":0.15,"location_history":"[1,2,8,2,3,9,3,4,5]","action_history":"[0,1,1,0,1,1,0,1]","door_history":"[0,1,1,0,1,1,0,1]","location_rts":"[362,531,126,138,198,158,149,109]","trial_type":"two-door-navigation","trial_index":35,"time_elapsed":872937,"internal_node_id":"0.0-2.0-33.0"},{"group":"dihedral group of order 12","room_assignment":["ivory","red","green","purple","grey","brown","pink","cyan","orange","olive","blue","yellow"],"door_color_assignment":["white","black"],"door_generator_assignment":[0,1],"goal":9,"start":5,"action_noise":0.15,"location_history":"[5,0,6,0,1,7,6,11,5,11,10,4,10,9]","action_history":"[0,1,1,0,1,1,0,1,1,0,1,1,0]","door_history":"[0,1,1,0,1,1,0,1,1,0,1,1,0]","location_rts":"[374,474,133,733,302,155,213,97,252,330,108,249,172]","trial_type":"two-door-navigation","trial_index":36,"time_elapsed":893254,"internal_node_id":"0.0-2.0-34.0"},{"view_history":"[{\"page_index\":0,\"viewing_time\":2681}]","rt":2681,"trial_type":"instructions","trial_index":37,"time_elapsed":896935,"internal_node_id":"0.0-3.0"},{"view_history":"[{\"page_index\":0,\"viewing_time\":2402},{\"page_index\":1,\"viewing_time\":41461}]","rt":43863,"trial_type":"instructions","trial_index":38,"time_elapsed":941799,"internal_node_id":"0.0-4.0"},{"group":"dicyclic group of order 12","fractal_assignment":["../images/grn_blu.png","../images/org_blu.png","../images/pnk_blu.png","../images/ylw_slt.png","../images/blu_wht.png","../images/gry_blk.png","../images/cyn_red.png","../images/grn_prp.png","../images/red_prp.png","../images/grn_red.png","../images/wht_red.png","../images/ylw_pnk.png"],"mutagen_generator_assignment":[1,0],"goal":4,"start":0,"action_noise":0.15,"location_history":"[0,4]","action_history":"[1]","mutagen_history":"[0]","location_rts":"[46833]","trial_type":"fractal-mutation","trial_index":39,"time_elapsed":993160,"internal_node_id":"0.0-5.0-0.0"},{"group":"dicyclic group of order 12","fractal_assignment":["../images/grn_blu.png","../images/org_blu.png","../images/pnk_blu.png","../images/ylw_slt.png","../images/blu_wht.png","../images/gry_blk.png","../images/cyn_red.png","../images/grn_prp.png","../images/red_prp.png","../images/grn_red.png","../images/wht_red.png","../images/ylw_pnk.png"],"mutagen_generator_assignment":[1,0],"goal":9,"start":4,"action_noise":0.15,"location_history":"[4,8,5,9]","action_history":"[0,0,1]","mutagen_history":"[1,1,0]","location_rts":"[486,1325,552]","trial_type":"fractal-mutation","trial_index":40,"time_elapsed":1002320,"internal_node_id":"0.0-5.0-1.0"},{"group":"dicyclic group of order 12","fractal_assignment":["../images/grn_blu.png","../images/org_blu.png","../images/pnk_blu.png","../images/ylw_slt.png","../images/blu_wht.png","../images/gry_blk.png","../images/cyn_red.png","../images/grn_prp.png","../images/red_prp.png","../images/grn_red.png","../images/wht_red.png","../images/ylw_pnk.png"],"mutagen_generator_assignment":[1,0],"goal":10,"start":9,"action_noise":0.15,"location_history":"[9,6,11,3,0,1,5,9,6,11,4,9,6,11,4,9,1,2,6,10]","action_history":"[0,0,1,0,0,1,1,0,0,0,1,0,0,0,0,1,0,0,1]","mutagen_history":"[1,1,0,1,1,0,0,1,1,1,0,1,1,1,1,0,1,1,0]","location_rts":"[911,237,544,500,191,788,434,1188,85,49,460,96,49,200,47,314,394,124,504]","trial_type":"fractal-mutation","trial_index":41,"time_elapsed":1033724,"internal_node_id":"0.0-5.0-2.0"},{"group":"dicyclic group of order 12","fractal_assignment":["../images/grn_blu.png","../images/org_blu.png","../images/pnk_blu.png","../images/ylw_slt.png","../images/blu_wht.png","../images/gry_blk.png","../images/cyn_red.png","../images/grn_prp.png","../images/red_prp.png","../images/grn_red.png","../images/wht_red.png","../images/ylw_pnk.png"],"mutagen_generator_assignment":[1,0],"goal":2,"start":10,"action_noise":0.15,"location_history":"[10,7,11,3,0,4,8,0,1,5,10,7,11,3,0,1,2]","action_history":"[0,1,0,0,1,1,1,1,1,0,0,1,1,1,0,0]","mutagen_history":"[1,0,1,1,0,0,0,0,0,1,1,0,0,0,1,1]","location_rts":"[372,758,502,163,891,93,34,909,80,1245,523,161,102,1162,712,432]","trial_type":"fractal-mutation","trial_index":42,"time_elapsed":1062698,"internal_node_id":"0.0-5.0-3.0"},{"group":"dicyclic group of order 12","fractal_assignment":["../images/grn_blu.png","../images/org_blu.png","../images/pnk_blu.png","../images/ylw_slt.png","../images/blu_wht.png","../images/gry_blk.png","../images/cyn_red.png","../images/grn_prp.png","../images/red_prp.png","../images/grn_red.png","../images/wht_red.png","../images/ylw_pnk.png"],"mutagen_generator_assignment":[1,0],"goal":5,"start":2,"action_noise":0.15,"location_history":"[2,3,7,8,0,1,2,6,11,3,7,8,0,4,8,5]","action_history":"[0,1,1,0,0,0,1,0,0,1,0,1,1,1,0]","mutagen_history":"[1,0,0,1,1,1,0,1,1,0,1,0,0,0,1]","location_rts":"[312,577,801,157,348,409,194,340,170,1322,682,656,217,383,1253]","trial_type":"fractal-mutation","trial_index":43,"time_elapsed":1090287,"internal_node_id":"0.0-5.0-4.0"},{"group":"dicyclic group of order 12","fractal_assignment":["../images/grn_blu.png","../images/org_blu.png","../images/pnk_blu.png","../images/ylw_slt.png","../images/blu_wht.png","../images/gry_blk.png","../images/cyn_red.png","../images/grn_prp.png","../images/red_prp.png","../images/grn_red.png","../images/wht_red.png","../images/ylw_pnk.png"],"mutagen_generator_assignment":[1,0],"goal":11,"start":5,"action_noise":0.15,"location_history":"[5,9,6,11]","action_history":"[1,0,1]","mutagen_history":"[0,1,0]","location_rts":"[737,157,807]","trial_type":"fractal-mutation","trial_index":44,"time_elapsed":1098674,"internal_node_id":"0.0-5.0-5.0"},{"group":"dicyclic group of order 12","fractal_assignment":["../images/grn_blu.png","../images/org_blu.png","../images/pnk_blu.png","../images/ylw_slt.png","../images/blu_wht.png","../images/gry_blk.png","../images/cyn_red.png","../images/grn_prp.png","../images/red_prp.png","../images/grn_red.png","../images/wht_red.png","../images/ylw_pnk.png"],"mutagen_generator_assignment":[1,0],"goal":6,"start":11,"action_noise":0.15,"location_history":"[11,4,8,0,1,2,6]","action_history":"[0,1,1,0,0,1]","mutagen_history":"[1,0,0,1,1,0]","location_rts":"[4924,504,261,0,328,921]","trial_type":"fractal-mutation","trial_index":45,"time_elapsed":1115598,"internal_node_id":"0.0-5.0-6.0"},{"group":"dicyclic group of order 12","fractal_assignment":["../images/grn_blu.png","../images/org_blu.png","../images/pnk_blu.png","../images/ylw_slt.png","../images/blu_wht.png","../images/gry_blk.png","../images/cyn_red.png","../images/grn_prp.png","../images/red_prp.png","../images/grn_red.png","../images/wht_red.png","../images/ylw_pnk.png"],"mutagen_generator_assignment":[1,0],"goal":3,"start":6,"action_noise":0.15,"location_history":"[6,10,7,8,5,9,1,5,10,7,11,4,8,5,10,7,8,5,10,2,6,10,2,3]","action_history":"[1,0,0,0,1,1,1,0,0,0,1,1,0,0,0,1,0,0,1,1,1,1,0]","mutagen_history":"[0,1,1,1,0,0,0,1,1,1,0,0,1,1,1,0,1,1,0,0,0,0,1]","location_rts":"[352,30,224,1217,1212,372,1366,862,1200,567,204,227,69,380,309,228,23,257,337,619,400,393,261]","trial_type":"fractal-mutation","trial_index":46,"time_elapsed":1155048,"internal_node_id":"0.0-5.0-7.0"},{"group":"dicyclic group of order 12","fractal_assignment":["../images/grn_blu.png","../images/org_blu.png","../images/pnk_blu.png","../images/ylw_slt.png","../images/blu_wht.png","../images/gry_blk.png","../images/cyn_red.png","../images/grn_prp.png","../images/red_prp.png","../images/grn_red.png","../images/wht_red.png","../images/ylw_pnk.png"],"mutagen_generator_assignment":[1,0],"goal":8,"start":3,"action_noise":0.15,"location_history":"[3,0,4,8]","action_history":"[0,1,1]","mutagen_history":"[1,0,0]","location_rts":"[164,923,142]","trial_type":"fractal-mutation","trial_index":47,"time_elapsed":1162999,"internal_node_id":"0.0-5.0-8.0"},{"group":"dicyclic group of order 12","fractal_assignment":["../images/grn_blu.png","../images/org_blu.png","../images/pnk_blu.png","../images/ylw_slt.png","../images/blu_wht.png","../images/gry_blk.png","../images/cyn_red.png","../images/grn_prp.png","../images/red_prp.png","../images/grn_red.png","../images/wht_red.png","../images/ylw_pnk.png"],"mutagen_generator_assignment":[1,0],"goal":1,"start":8,"action_noise":0.15,"location_history":"[8,5,10,7,11,4,9,6,11,4,8,5,10,7,11,4,8,5,9,6,11,3,7,11,4,9,6,11,4,9,1]","action_history":"[0,0,0,1,0,0,1,0,0,1,0,0,1,1,0,0,0,1,0,0,1,1,1,0,0,0,0,0,1,1]","mutagen_history":"[1,1,1,0,1,1,0,1,1,0,1,1,0,0,1,1,1,0,1,1,0,0,0,1,1,1,1,1,0,0]","location_rts":"[182,633,468,223,1091,179,1398,344,280,306,281,355,343,471,476,429,589,477,704,490,389,365,18,907,462,559,548,350,447,330]","trial_type":"fractal-mutation","trial_index":48,"time_elapsed":1213178,"internal_node_id":"0.0-5.0-9.0"},{"group":"dicyclic group of order 12","fractal_assignment":["../images/grn_blu.png","../images/org_blu.png","../images/pnk_blu.png","../images/ylw_slt.png","../images/blu_wht.png","../images/gry_blk.png","../images/cyn_red.png","../images/grn_prp.png","../images/red_prp.png","../images/grn_red.png","../images/wht_red.png","../images/ylw_pnk.png"],"mutagen_generator_assignment":[1,0],"goal":7,"start":1,"action_noise":0.15,"location_history":"[1,2,6,11,4,9,1,5,10,2,3,0,4,9,6,10,2,3,0,4,8,0,1,5,9,6,11,4,8,0,4,8,5,9,6,10,2,3,7]","action_history":"[0,1,0,0,0,1,1,0,1,1,0,1,0,0,1,1,0,0,1,1,1,1,1,1,0,0,0,0,1,1,1,0,0,0,1,1,1,1]","mutagen_history":"[1,0,1,1,1,0,0,1,0,0,1,0,1,1,0,0,1,1,0,0,0,0,0,0,1,1,1,1,0,0,0,1,1,1,0,0,0,0]","location_rts":"[434,333,239,32,602,39,303,261,454,407,249,521,62,251,1108,506,503,646,1463,376,281,415,206,357,1155,399,1335,455,806,494,18,1339,365,522,712,470,411,310]","trial_type":"fractal-mutation","trial_index":49,"time_elapsed":1276603,"internal_node_id":"0.0-5.0-10.0"},{"group":"dicyclic group of order 12","fractal_assignment":["../images/grn_blu.png","../images/org_blu.png","../images/pnk_blu.png","../images/ylw_slt.png","../images/blu_wht.png","../images/gry_blk.png","../images/cyn_red.png","../images/grn_prp.png","../images/red_prp.png","../images/grn_red.png","../images/wht_red.png","../images/ylw_pnk.png"],"mutagen_generator_assignment":[1,0],"goal":5,"start":7,"action_noise":0.15,"location_history":"[7,11,4,8,0,4,9,6,11,4,8,0,1,2,6,10,7,11,4,9,6,11,4,9,1,5]","action_history":"[1,0,1,1,1,0,0,0,0,1,1,0,0,1,1,0,1,1,0,0,0,0,0,1,1]","mutagen_history":"[0,1,0,0,0,1,1,1,1,0,0,1,1,0,0,1,0,0,1,1,1,1,1,0,0]","location_rts":"[22,886,1153,448,392,283,507,230,514,633,0,308,221,57,252,312,356,265,250,231,193,128,182,111,208]","trial_type":"fractal-mutation","trial_index":50,"time_elapsed":1315278,"internal_node_id":"0.0-5.0-11.0"},{"group":"dicyclic group of order 12","fractal_assignment":["../images/grn_blu.png","../images/org_blu.png","../images/pnk_blu.png","../images/ylw_slt.png","../images/blu_wht.png","../images/gry_blk.png","../images/cyn_red.png","../images/grn_prp.png","../images/red_prp.png","../images/grn_red.png","../images/wht_red.png","../images/ylw_pnk.png"],"mutagen_generator_assignment":[1,0],"goal":8,"start":5,"action_noise":0.15,"location_history":"[5,9,6,10,7,11,3,0,4,9,6,11,4,9,6,11,3,0,4,8]","action_history":"[0,0,1,1,1,1,0,1,1,0,0,0,0,0,0,1,0,1,1]","mutagen_history":"[1,1,0,0,0,0,1,0,0,1,1,1,1,1,1,0,1,0,0]","location_rts":"[245,493,229,183,254,678,354,338,368,294,174,257,372,283,412,1039,977,379,356]","trial_type":"fractal-mutation","trial_index":51,"time_elapsed":1347007,"internal_node_id":"0.0-5.0-12.0"},{"group":"dicyclic group of order 12","fractal_assignment":["../images/grn_blu.png","../images/org_blu.png","../images/pnk_blu.png","../images/ylw_slt.png","../images/blu_wht.png","../images/gry_blk.png","../images/cyn_red.png","../images/grn_prp.png","../images/red_prp.png","../images/grn_red.png","../images/wht_red.png","../images/ylw_pnk.png"],"mutagen_generator_assignment":[1,0],"goal":11,"start":8,"action_noise":0.15,"location_history":"[8,0,1,2,6,10,7,11]","action_history":"[1,0,0,1,1,0,1]","mutagen_history":"[0,1,1,0,0,1,0]","location_rts":"[83,836,914,810,557,1080,429]","trial_type":"fractal-mutation","trial_index":52,"time_elapsed":1362744,"internal_node_id":"0.0-5.0-13.0"},{"group":"dicyclic group of order 12","fractal_assignment":["../images/grn_blu.png","../images/org_blu.png","../images/pnk_blu.png","../images/ylw_slt.png","../images/blu_wht.png","../images/gry_blk.png","../images/cyn_red.png","../images/grn_prp.png","../images/red_prp.png","../images/grn_red.png","../images/wht_red.png","../images/ylw_pnk.png"],"mutagen_generator_assignment":[1,0],"goal":6,"start":11,"action_noise":0.15,"location_history":"[11,4,8,5,10,7,11,3,0,1,2,3,0,4,8,0,1,5,9,1,2,6]","action_history":"[1,1,0,0,0,1,1,1,0,0,0,0,1,1,1,0,0,1,1,0,1]","mutagen_history":"[0,0,1,1,1,0,0,0,1,1,1,1,0,0,0,1,1,0,0,1,0]","location_rts":"[614,475,247,72,407,457,483,514,260,110,649,631,1579,460,530,1149,709,143,710,1058,1025]","trial_type":"fractal-mutation","trial_index":53,"time_elapsed":1401153,"internal_node_id":"0.0-5.0-14.0"},{"group":"dicyclic group of order 12","fractal_assignment":["../images/grn_blu.png","../images/org_blu.png","../images/pnk_blu.png","../images/ylw_slt.png","../images/blu_wht.png","../images/gry_blk.png","../images/cyn_red.png","../images/grn_prp.png","../images/red_prp.png","../images/grn_red.png","../images/wht_red.png","../images/ylw_pnk.png"],"mutagen_generator_assignment":[1,0],"goal":7,"start":6,"action_noise":0.15,"location_history":"[6,10,2,6,11,3,7]","action_history":"[1,1,0,0,1,1]","mutagen_history":"[0,0,1,1,0,0]","location_rts":"[509,2155,318,1326,594,758]","trial_type":"fractal-mutation","trial_index":54,"time_elapsed":1416684,"internal_node_id":"0.0-5.0-15.0"},{"group":"dicyclic group of order 12","fractal_assignment":["../images/grn_blu.png","../images/org_blu.png","../images/pnk_blu.png","../images/ylw_slt.png","../images/blu_wht.png","../images/gry_blk.png","../images/cyn_red.png","../images/grn_prp.png","../images/red_prp.png","../images/grn_red.png","../images/wht_red.png","../images/ylw_pnk.png"],"mutagen_generator_assignment":[1,0],"goal":10,"start":7,"action_noise":0.15,"location_history":"[7,8,5,10]","action_history":"[0,0,0]","mutagen_history":"[1,1,1]","location_rts":"[705,70,137]","trial_type":"fractal-mutation","trial_index":55,"time_elapsed":1424403,"internal_node_id":"0.0-5.0-16.0"},{"group":"dicyclic group of order 12","fractal_assignment":["../images/grn_blu.png","../images/org_blu.png","../images/pnk_blu.png","../images/ylw_slt.png","../images/blu_wht.png","../images/gry_blk.png","../images/cyn_red.png","../images/grn_prp.png","../images/red_prp.png","../images/grn_red.png","../images/wht_red.png","../images/ylw_pnk.png"],"mutagen_generator_assignment":[1,0],"goal":0,"start":10,"action_noise":0.15,"location_history":"[10,2,6,10,2,6,10,7,8,0]","action_history":"[1,0,0,1,1,1,0,0,1]","mutagen_history":"[0,1,1,0,0,0,1,1,0]","location_rts":"[479,4,647,399,342,597,975,295,423]","trial_type":"fractal-mutation","trial_index":56,"time_elapsed":1441728,"internal_node_id":"0.0-5.0-17.0"},{"group":"dicyclic group of order 12","fractal_assignment":["../images/grn_blu.png","../images/org_blu.png","../images/pnk_blu.png","../images/ylw_slt.png","../images/blu_wht.png","../images/gry_blk.png","../images/cyn_red.png","../images/grn_prp.png","../images/red_prp.png","../images/grn_red.png","../images/wht_red.png","../images/ylw_pnk.png"],"mutagen_generator_assignment":[1,0],"goal":9,"start":0,"action_noise":0.15,"location_history":"[0,4,9]","action_history":"[1,0]","mutagen_history":"[0,1]","location_rts":"[500,247]","trial_type":"fractal-mutation","trial_index":57,"time_elapsed":1448103,"internal_node_id":"0.0-5.0-18.0"},{"group":"dicyclic group of order 12","fractal_assignment":["../images/grn_blu.png","../images/org_blu.png","../images/pnk_blu.png","../images/ylw_slt.png","../images/blu_wht.png","../images/gry_blk.png","../images/cyn_red.png","../images/grn_prp.png","../images/red_prp.png","../images/grn_red.png","../images/wht_red.png","../images/ylw_pnk.png"],"mutagen_generator_assignment":[1,0],"goal":4,"start":9,"action_noise":0.15,"location_history":"[9,1,2,6,10,2,6,10,7,8,5,10,2,6,11,4]","action_history":"[1,1,1,1,1,1,1,0,0,0,0,1,1,0,0]","mutagen_history":"[0,0,0,0,0,0,0,1,1,1,1,0,0,1,1]","location_rts":"[210,302,1719,1259,166,18,365,1131,411,993,611,842,368,1064,453]","trial_type":"fractal-mutation","trial_index":58,"time_elapsed":1477421,"internal_node_id":"0.0-5.0-19.0"},{"group":"dicyclic group of order 12","fractal_assignment":["../images/grn_blu.png","../images/org_blu.png","../images/pnk_blu.png","../images/ylw_slt.png","../images/blu_wht.png","../images/gry_blk.png","../images/cyn_red.png","../images/grn_prp.png","../images/red_prp.png","../images/grn_red.png","../images/wht_red.png","../images/ylw_pnk.png"],"mutagen_generator_assignment":[1,0],"goal":2,"start":4,"action_noise":0.15,"location_history":"[4,8,0,4,9,1,2]","action_history":"[0,1,0,0,1,1]","mutagen_history":"[1,0,1,1,0,0]","location_rts":"[354,2090,1130,191,1380,189]","trial_type":"fractal-mutation","trial_index":59,"time_elapsed":1492745,"internal_node_id":"0.0-5.0-20.0"},{"group":"dicyclic group of order 12","fractal_assignment":["../images/grn_blu.png","../images/org_blu.png","../images/pnk_blu.png","../images/ylw_slt.png","../images/blu_wht.png","../images/gry_blk.png","../images/cyn_red.png","../images/grn_prp.png","../images/red_prp.png","../images/grn_red.png","../images/wht_red.png","../images/ylw_pnk.png"],"mutagen_generator_assignment":[1,0],"goal":1,"start":2,"action_noise":0.15,"location_history":"[2,6,10,2,6,10,7,8,5,9,1]","action_history":"[1,1,1,1,0,0,0,0,1,1]","mutagen_history":"[0,0,0,0,1,1,1,1,0,0]","location_rts":"[5448,2400,6814,942,2647,616,997,2939,1279,809]","trial_type":"fractal-mutation","trial_index":60,"time_elapsed":1531760,"internal_node_id":"0.0-5.0-21.0"},{"group":"dicyclic group of order 12","fractal_assignment":["../images/grn_blu.png","../images/org_blu.png","../images/pnk_blu.png","../images/ylw_slt.png","../images/blu_wht.png","../images/gry_blk.png","../images/cyn_red.png","../images/grn_prp.png","../images/red_prp.png","../images/grn_red.png","../images/wht_red.png","../images/ylw_pnk.png"],"mutagen_generator_assignment":[1,0],"goal":3,"start":1,"action_noise":0.15,"location_history":"[1,2,3]","action_history":"[0,0]","mutagen_history":"[1,1]","location_rts":"[6,117]","trial_type":"fractal-mutation","trial_index":61,"time_elapsed":1537592,"internal_node_id":"0.0-5.0-22.0"},{"group":"dicyclic group of order 12","fractal_assignment":["../images/grn_blu.png","../images/org_blu.png","../images/pnk_blu.png","../images/ylw_slt.png","../images/blu_wht.png","../images/gry_blk.png","../images/cyn_red.png","../images/grn_prp.png","../images/red_prp.png","../images/grn_red.png","../images/wht_red.png","../images/ylw_pnk.png"],"mutagen_generator_assignment":[1,0],"goal":7,"start":3,"action_noise":0.15,"location_history":"[3,7]","action_history":"[1]","mutagen_history":"[0]","location_rts":"[390]","trial_type":"fractal-mutation","trial_index":62,"time_elapsed":1542510,"internal_node_id":"0.0-5.0-23.0"},{"group":"dicyclic group of order 12","fractal_assignment":["../images/grn_blu.png","../images/org_blu.png","../images/pnk_blu.png","../images/ylw_slt.png","../images/blu_wht.png","../images/gry_blk.png","../images/cyn_red.png","../images/grn_prp.png","../images/red_prp.png","../images/grn_red.png","../images/wht_red.png","../images/ylw_pnk.png"],"mutagen_generator_assignment":[1,0],"goal":6,"start":7,"action_noise":0.15,"location_history":"[7,8,5,10,2,6]","action_history":"[0,0,0,1,1]","mutagen_history":"[1,1,1,0,0]","location_rts":"[540,1070,465,283,326]","trial_type":"fractal-mutation","trial_index":63,"time_elapsed":1554118,"internal_node_id":"0.0-5.0-24.0"},{"group":"dicyclic group of order 12","fractal_assignment":["../images/grn_blu.png","../images/org_blu.png","../images/pnk_blu.png","../images/ylw_slt.png","../images/blu_wht.png","../images/gry_blk.png","../images/cyn_red.png","../images/grn_prp.png","../images/red_prp.png","../images/grn_red.png","../images/wht_red.png","../images/ylw_pnk.png"],"mutagen_generator_assignment":[1,0],"goal":2,"start":6,"action_noise":0.15,"location_history":"[6,11,3,7,8,5,9,6,10,2]","action_history":"[0,1,1,0,0,0,1,1,1]","mutagen_history":"[1,0,0,1,1,1,0,0,0]","location_rts":"[380,807,306,931,359,297,251,259,327]","trial_type":"fractal-mutation","trial_index":64,"time_elapsed":1571260,"internal_node_id":"0.0-5.0-25.0"},{"group":"dicyclic group of order 12","fractal_assignment":["../images/grn_blu.png","../images/org_blu.png","../images/pnk_blu.png","../images/ylw_slt.png","../images/blu_wht.png","../images/gry_blk.png","../images/cyn_red.png","../images/grn_prp.png","../images/red_prp.png","../images/grn_red.png","../images/wht_red.png","../images/ylw_pnk.png"],"mutagen_generator_assignment":[1,0],"goal":8,"start":2,"action_noise":0.15,"location_history":"[2,6,10,7,8]","action_history":"[0,1,0,0]","mutagen_history":"[1,0,1,1]","location_rts":"[356,1866,929,368]","trial_type":"fractal-mutation","trial_index":65,"time_elapsed":1582632,"internal_node_id":"0.0-5.0-26.0"},{"group":"dicyclic group of order 12","fractal_assignment":["../images/grn_blu.png","../images/org_blu.png","../images/pnk_blu.png","../images/ylw_slt.png","../images/blu_wht.png","../images/gry_blk.png","../images/cyn_red.png","../images/grn_prp.png","../images/red_prp.png","../images/grn_red.png","../images/wht_red.png","../images/ylw_pnk.png"],"mutagen_generator_assignment":[1,0],"goal":0,"start":8,"action_noise":0.15,"location_history":"[8,0]","action_history":"[1]","mutagen_history":"[0]","location_rts":"[314]","trial_type":"fractal-mutation","trial_index":66,"time_elapsed":1587473,"internal_node_id":"0.0-5.0-27.0"},{"group":"dicyclic group of order 12","fractal_assignment":["../images/grn_blu.png","../images/org_blu.png","../images/pnk_blu.png","../images/ylw_slt.png","../images/blu_wht.png","../images/gry_blk.png","../images/cyn_red.png","../images/grn_prp.png","../images/red_prp.png","../images/grn_red.png","../images/wht_red.png","../images/ylw_pnk.png"],"mutagen_generator_assignment":[1,0],"goal":3,"start":0,"action_noise":0.15,"location_history":"[0,1,5,9,6,11,4,9,6,10,2,3]","action_history":"[0,0,1,0,0,1,1,0,1,1,0]","mutagen_history":"[1,1,0,1,1,0,0,1,0,0,1]","location_rts":"[257,216,415,189,243,172,299,246,292,159,425]","trial_type":"fractal-mutation","trial_index":67,"time_elapsed":1605819,"internal_node_id":"0.0-5.0-28.0"},{"group":"dicyclic group of order 12","fractal_assignment":["../images/grn_blu.png","../images/org_blu.png","../images/pnk_blu.png","../images/ylw_slt.png","../images/blu_wht.png","../images/gry_blk.png","../images/cyn_red.png","../images/grn_prp.png","../images/red_prp.png","../images/grn_red.png","../images/wht_red.png","../images/ylw_pnk.png"],"mutagen_generator_assignment":[1,0],"goal":4,"start":3,"action_noise":0.15,"location_history":"[3,7,8,0,4]","action_history":"[1,0,0,1]","mutagen_history":"[0,1,1,0]","location_rts":"[7163,3556,1868,259]","trial_type":"fractal-mutation","trial_index":68,"time_elapsed":1626458,"internal_node_id":"0.0-5.0-29.0"},{"group":"dicyclic group of order 12","fractal_assignment":["../images/grn_blu.png","../images/org_blu.png","../images/pnk_blu.png","../images/ylw_slt.png","../images/blu_wht.png","../images/gry_blk.png","../images/cyn_red.png","../images/grn_prp.png","../images/red_prp.png","../images/grn_red.png","../images/wht_red.png","../images/ylw_pnk.png"],"mutagen_generator_assignment":[1,0],"goal":10,"start":4,"action_noise":0.15,"location_history":"[4,9,1,5,9,6,10]","action_history":"[0,1,1,1,0,1]","mutagen_history":"[1,0,0,0,1,0]","location_rts":"[333,191,327,234,394,295]","trial_type":"fractal-mutation","trial_index":69,"time_elapsed":1638189,"internal_node_id":"0.0-5.0-30.0"},{"group":"dicyclic group of order 12","fractal_assignment":["../images/grn_blu.png","../images/org_blu.png","../images/pnk_blu.png","../images/ylw_slt.png","../images/blu_wht.png","../images/gry_blk.png","../images/cyn_red.png","../images/grn_prp.png","../images/red_prp.png","../images/grn_red.png","../images/wht_red.png","../images/ylw_pnk.png"],"mutagen_generator_assignment":[1,0],"goal":11,"start":10,"action_noise":0.15,"location_history":"[10,2,3,0,4,9,1,2,3,7,11]","action_history":"[1,0,0,1,0,1,0,0,1,0]","mutagen_history":"[0,1,1,0,1,0,1,1,0,1]","location_rts":"[431,353,304,441,283,463,336,274,248,260]","trial_type":"fractal-mutation","trial_index":70,"time_elapsed":1655923,"internal_node_id":"0.0-5.0-31.0"},{"group":"dicyclic group of order 12","fractal_assignment":["../images/grn_blu.png","../images/org_blu.png","../images/pnk_blu.png","../images/ylw_slt.png","../images/blu_wht.png","../images/gry_blk.png","../images/cyn_red.png","../images/grn_prp.png","../images/red_prp.png","../images/grn_red.png","../images/wht_red.png","../images/ylw_pnk.png"],"mutagen_generator_assignment":[1,0],"goal":1,"start":11,"action_noise":0.15,"location_history":"[11,4,8,0,4,9,1]","action_history":"[0,1,1,0,0,1]","mutagen_history":"[1,0,0,1,1,0]","location_rts":"[283,300,129,286,240,296]","trial_type":"fractal-mutation","trial_index":71,"time_elapsed":1667463,"internal_node_id":"0.0-5.0-32.0"},{"group":"dicyclic group of order 12","fractal_assignment":["../images/grn_blu.png","../images/org_blu.png","../images/pnk_blu.png","../images/ylw_slt.png","../images/blu_wht.png","../images/gry_blk.png","../images/cyn_red.png","../images/grn_prp.png","../images/red_prp.png","../images/grn_red.png","../images/wht_red.png","../images/ylw_pnk.png"],"mutagen_generator_assignment":[1,0],"goal":5,"start":1,"action_noise":0.15,"location_history":"[1,5]","action_history":"[1]","mutagen_history":"[0]","location_rts":"[410]","trial_type":"fractal-mutation","trial_index":72,"time_elapsed":1672398,"internal_node_id":"0.0-5.0-33.0"},{"group":"dicyclic group of order 12","fractal_assignment":["../images/grn_blu.png","../images/org_blu.png","../images/pnk_blu.png","../images/ylw_slt.png","../images/blu_wht.png","../images/gry_blk.png","../images/cyn_red.png","../images/grn_prp.png","../images/red_prp.png","../images/grn_red.png","../images/wht_red.png","../images/ylw_pnk.png"],"mutagen_generator_assignment":[1,0],"goal":9,"start":5,"action_noise":0.15,"location_history":"[5,10,7,11,4,9]","action_history":"[0,0,1,0,0]","mutagen_history":"[1,1,0,1,1]","location_rts":"[313,510,1065,1143,370]","trial_type":"fractal-mutation","trial_index":73,"time_elapsed":1684762,"internal_node_id":"0.0-5.0-34.0"},{"view_history":"[{\"page_index\":0,\"viewing_time\":8618}]","rt":8619,"trial_type":"instructions","trial_index":74,"time_elapsed":1694381,"internal_node_id":"0.0-6.0"},{"rt":5918,"responses":"{\"Q0\":\"thanks\"}","trial_type":"survey-text","trial_index":75,"time_elapsed":1701302,"internal_node_id":"0.0-7.0"}]