[{"view_history":"[{\"page_index\":0,\"viewing_time\":20767},{\"page_index\":1,\"viewing_time\":8854},{\"page_index\":2,\"viewing_time\":2520},{\"page_index\":3,\"viewing_time\":2680}]","rt":34821,"trial_type":"instructions","trial_index":0,"time_elapsed":34823,"internal_node_id":"0.0-0.0"},{"view_history":"[{\"page_index\":0,\"viewing_time\":2183},{\"page_index\":1,\"viewing_time\":181381}]","rt":183565,"trial_type":"instructions","trial_index":1,"time_elapsed":219388,"internal_node_id":"0.0-1.0"},{"group":"dicyclic group of order 12","room_assignment":["ivory","grey","green","olive","purple","pink","orange","red","cyan","yellow","brown","blue"],"door_color_assignment":["black","white"],"door_generator_assignment":[0,1],"goal":4,"start":0,"action_noise":0.15,"location_history":"[0,4]","action_history":"[1]","door_history":"[1]","location_rts":"[10316]","trial_type":"two-door-navigation","trial_index":2,"time_elapsed":234230,"internal_node_id":"0.0-2.0-0.0"},{"group":"dicyclic group of order 12","room_assignment":["ivory","grey","green","olive","purple","pink","orange","red","cyan","yellow","brown","blue"],"door_color_assignment":["black","white"],"door_generator_assignment":[0,1],"goal":9,"start":4,"action_noise":0.15,"location_history":"[4,8,0,1,2,3,0,4,9]","action_history":"[1,1,0,0,0,0,1,0]","door_history":"[1,1,0,0,0,0,1,0]","location_rts":"[3251,5187,9092,5843,5387,5419,8508,3554]","trial_type":"two-door-navigation","trial_index":3,"time_elapsed":292139,"internal_node_id":"0.0-2.0-1.0"},{"group":"dicyclic group of order 12","room_assignment":["ivory","grey","green","olive","purple","pink","orange","red","cyan","yellow","brown","blue"],"door_color_assignment":["black","white"],"door_generator_assignment":[0,1],"goal":10,"start":9,"action_noise":0.15,"location_history":"[9,6,11,4,9,1,5,9,1,5,9,6,11,3,7,11,3,7,8,5,10]","action_history":"[0,0,0,0,1,1,1,1,1,1,1,0,1,1,1,1,1,0,0,0]","door_history":"[0,0,0,0,1,1,1,1,1,1,1,0,1,1,1,1,1,0,0,0]","location_rts":"[7012,8450,6763,8522,2948,5244,4427,5476,10643,457,2619,4203,3122,6235,10797,5483,8939,2522,6971,5394]","trial_type":"two-door-navigation","trial_index":4,"time_elapsed":432283,"internal_node_id":"0.0-2.0-2.0"},{"group":"dicyclic group of order 12","room_assignment":["ivory","grey","green","olive","purple","pink","orange","red","cyan","yellow","brown","blue"],"door_color_assignment":["black","white"],"door_generator_assignment":[0,1],"goal":2,"start":10,"action_noise":0.15,"location_history":"[10,7,11,4,9,1,5,10,7,11,3,7,11,3,0,1,2]","action_history":"[0,1,0,0,0,0,0,0,1,1,1,1,1,0,0,0]","door_history":"[0,1,0,0,0,0,0,0,1,1,1,1,1,0,0,0]","location_rts":"[4412,8987,6234,8730,8002,6187,12211,4770,12355,3675,4163,908,643,6434,3243,379]","trial_type":"two-door-navigation","trial_index":5,"time_elapsed":543453,"internal_node_id":"0.0-2.0-3.0"},{"group":"dicyclic group of order 12","room_assignment":["ivory","grey","green","olive","purple","pink","orange","red","cyan","yellow","brown","blue"],"door_color_assignment":["black","white"],"door_generator_assignment":[0,1],"goal":5,"start":2,"action_noise":0.15,"location_history":"[2,3,7,11,4,9,6,11,4,9,1,2,3,7,11,4,8,5]","action_history":"[1,1,1,0,0,0,0,0,0,0,0,0,0,1,1,1,0]","door_history":"[1,1,1,0,0,0,0,0,0,0,0,0,0,1,1,1,0]","location_rts":"[7260,658,1371,11827,1210,348,371,16842,3059,659,411,1634,1115,2866,507,1387,7787]","trial_type":"two-door-navigation","trial_index":6,"time_elapsed":623625,"internal_node_id":"0.0-2.0-4.0"},{"group":"dicyclic group of order 12","room_assignment":["ivory","grey","green","olive","purple","pink","orange","red","cyan","yellow","brown","blue"],"door_color_assignment":["black","white"],"door_generator_assignment":[0,1],"goal":11,"start":5,"action_noise":0.15,"location_history":"[5,9,6,11]","action_history":"[1,1,1]","door_history":"[1,1,1]","location_rts":"[15938,2874,6892]","trial_type":"two-door-navigation","trial_index":7,"time_elapsed":655895,"internal_node_id":"0.0-2.0-5.0"},{"group":"dicyclic group of order 12","room_assignment":["ivory","grey","green","olive","purple","pink","orange","red","cyan","yellow","brown","blue"],"door_color_assignment":["black","white"],"door_generator_assignment":[0,1],"goal":6,"start":11,"action_noise":0.15,"location_history":"[11,4,8,0,4,9,6]","action_history":"[0,1,1,1,0,0]","door_history":"[0,1,1,1,0,0]","location_rts":"[1923,23218,5211,4363,2250,1011]","trial_type":"two-door-navigation","trial_index":8,"time_elapsed":703499,"internal_node_id":"0.0-2.0-6.0"},{"group":"dicyclic group of order 12","room_assignment":["ivory","grey","green","olive","purple","pink","orange","red","cyan","yellow","brown","blue"],"door_color_assignment":["black","white"],"door_generator_assignment":[0,1],"goal":3,"start":6,"action_noise":0.15,"location_history":"[6,11,3]","action_history":"[0,1]","door_history":"[0,1]","location_rts":"[7515,852]","trial_type":"two-door-navigation","trial_index":9,"time_elapsed":717410,"internal_node_id":"0.0-2.0-7.0"},{"group":"dicyclic group of order 12","room_assignment":["ivory","grey","green","olive","purple","pink","orange","red","cyan","yellow","brown","blue"],"door_color_assignment":["black","white"],"door_generator_assignment":[0,1],"goal":8,"start":3,"action_noise":0.15,"location_history":"[3,7,8]","action_history":"[1,0]","door_history":"[1,0]","location_rts":"[5108,627]","trial_type":"two-door-navigation","trial_index":10,"time_elapsed":728691,"internal_node_id":"0.0-2.0-8.0"},{"group":"dicyclic group of order 12","room_assignment":["ivory","grey","green","olive","purple","pink","orange","red","cyan","yellow","brown","blue"],"door_color_assignment":["black","white"],"door_generator_assignment":[0,1],"goal":1,"start":8,"action_noise":0.15,"location_history":"[8,5,9,6,11,4,9,6,11,3,7,11,3,0,4,9,6,11,3,0,1]","action_history":"[0,0,0,0,0,0,0,0,1,1,1,0,0,0,0,0,0,1,0,1]","door_history":"[0,0,0,0,0,0,0,0,1,1,1,0,0,0,0,0,0,1,0,1]","location_rts":"[11699,898,458,930,563,3283,2395,12186,539,3515,5900,1314,1307,747,635,2883,604,1058,914,1179]","trial_type":"two-door-navigation","trial_index":11,"time_elapsed":805622,"internal_node_id":"0.0-2.0-9.0"},{"group":"dicyclic group of order 12","room_assignment":["ivory","grey","green","olive","purple","pink","orange","red","cyan","yellow","brown","blue"],"door_color_assignment":["black","white"],"door_generator_assignment":[0,1],"goal":7,"start":1,"action_noise":0.15,"location_history":"[1,2,6,10,2,6,10,7]","action_history":"[1,1,1,1,1,1,1]","door_history":"[1,1,1,1,1,1,1]","location_rts":"[13228,9026,4714,8467,995,418,3818]","trial_type":"two-door-navigation","trial_index":12,"time_elapsed":856938,"internal_node_id":"0.0-2.0-10.0"},{"group":"dicyclic group of order 12","room_assignment":["ivory","grey","green","olive","purple","pink","orange","red","cyan","yellow","brown","blue"],"door_color_assignment":["black","white"],"door_generator_assignment":[0,1],"goal":5,"start":7,"action_noise":0.15,"location_history":"[7,8,5]","action_history":"[0,0]","door_history":"[0,0]","location_rts":"[11349,1706]","trial_type":"two-door-navigation","trial_index":13,"time_elapsed":875538,"internal_node_id":"0.0-2.0-11.0"},{"group":"dicyclic group of order 12","room_assignment":["ivory","grey","green","olive","purple","pink","orange","red","cyan","yellow","brown","blue"],"door_color_assignment":["black","white"],"door_generator_assignment":[0,1],"goal":8,"start":5,"action_noise":0.15,"location_history":"[5,9,1,5,9,1,5,10,7,8]","action_history":"[1,1,1,1,1,1,0,0,0]","door_history":"[1,1,1,1,1,1,0,0,0]","location_rts":"[18099,5187,4388,1123,5531,523,915,1515,771]","trial_type":"two-door-navigation","trial_index":14,"time_elapsed":927229,"internal_node_id":"0.0-2.0-12.0"},{"group":"dicyclic group of order 12","room_assignment":["ivory","grey","green","olive","purple","pink","orange","red","cyan","yellow","brown","blue"],"door_color_assignment":["black","white"],"door_generator_assignment":[0,1],"goal":11,"start":8,"action_noise":0.15,"location_history":"[8,5,9,6,11]","action_history":"[0,1,1,1]","door_history":"[0,1,1,1]","location_rts":"[30966,9299,3267,539]","trial_type":"two-door-navigation","trial_index":15,"time_elapsed":979884,"internal_node_id":"0.0-2.0-13.0"},{"group":"dicyclic group of order 12","room_assignment":["ivory","grey","green","olive","purple","pink","orange","red","cyan","yellow","brown","blue"],"door_color_assignment":["black","white"],"door_generator_assignment":[0,1],"goal":6,"start":11,"action_noise":0.15,"location_history":"[11,3,7,11,4,8,0,4,9,6]","action_history":"[1,1,1,0,1,1,1,0,0]","door_history":"[1,1,1,0,1,1,1,0,0]","location_rts":"[26467,8586,4155,1947,1070,738,411,1188,466]","trial_type":"two-door-navigation","trial_index":16,"time_elapsed":1037599,"internal_node_id":"0.0-2.0-14.0"},{"group":"dicyclic group of order 12","room_assignment":["ivory","grey","green","olive","purple","pink","orange","red","cyan","yellow","brown","blue"],"door_color_assignment":["black","white"],"door_generator_assignment":[0,1],"goal":7,"start":6,"action_noise":0.15,"location_history":"[6,10,7]","action_history":"[0,0]","door_history":"[0,0]","location_rts":"[9590,8842]","trial_type":"two-door-navigation","trial_index":17,"time_elapsed":1061575,"internal_node_id":"0.0-2.0-15.0"},{"group":"dicyclic group of order 12","room_assignment":["ivory","grey","green","olive","purple","pink","orange","red","cyan","yellow","brown","blue"],"door_color_assignment":["black","white"],"door_generator_assignment":[0,1],"goal":10,"start":7,"action_noise":0.15,"location_history":"[7,8,5,10]","action_history":"[0,0,0]","door_history":"[0,0,0]","location_rts":"[11571,588,419]","trial_type":"two-door-navigation","trial_index":18,"time_elapsed":1080718,"internal_node_id":"0.0-2.0-16.0"},{"group":"dicyclic group of order 12","room_assignment":["ivory","grey","green","olive","purple","pink","orange","red","cyan","yellow","brown","blue"],"door_color_assignment":["black","white"],"door_generator_assignment":[0,1],"goal":0,"start":10,"action_noise":0.15,"location_history":"[10,2,6,11,4,8,0]","action_history":"[1,0,0,0,1,1]","door_history":"[1,0,0,0,1,1]","location_rts":"[16155,11387,604,523,371,7410]","trial_type":"two-door-navigation","trial_index":19,"time_elapsed":1126797,"internal_node_id":"0.0-2.0-17.0"},{"group":"dicyclic group of order 12","room_assignment":["ivory","grey","green","olive","purple","pink","orange","red","cyan","yellow","brown","blue"],"door_color_assignment":["black","white"],"door_generator_assignment":[0,1],"goal":9,"start":0,"action_noise":0.15,"location_history":"[0,1,2,3,7,11,3,7,11,4,9]","action_history":"[1,1,0,1,1,1,1,1,0,0]","door_history":"[1,1,0,1,1,1,1,1,0,0]","location_rts":"[5338,9566,7915,1100,5412,1019,419,7779,3562,331]","trial_type":"two-door-navigation","trial_index":20,"time_elapsed":1182945,"internal_node_id":"0.0-2.0-18.0"},{"group":"dicyclic group of order 12","room_assignment":["ivory","grey","green","olive","purple","pink","orange","red","cyan","yellow","brown","blue"],"door_color_assignment":["black","white"],"door_generator_assignment":[0,1],"goal":4,"start":9,"action_noise":0.15,"location_history":"[9,6,11,4]","action_history":"[0,0,0]","door_history":"[0,0,0]","location_rts":"[12179,458,435]","trial_type":"two-door-navigation","trial_index":21,"time_elapsed":1202584,"internal_node_id":"0.0-2.0-19.0"},{"group":"dicyclic group of order 12","room_assignment":["ivory","grey","green","olive","purple","pink","orange","red","cyan","yellow","brown","blue"],"door_color_assignment":["black","white"],"door_generator_assignment":[0,1],"goal":2,"start":4,"action_noise":0.15,"location_history":"[4,8,0,4,8,5,10,7,8,5,9,1,5,9,6,11,4,9,1,5,9,1,2]","action_history":"[1,1,0,0,0,1,0,0,0,1,1,1,1,0,0,0,0,0,1,1,1,0]","door_history":"[1,1,0,0,0,1,0,0,0,1,1,1,1,0,0,0,0,0,1,1,1,0]","location_rts":"[17091,9891,1067,611,675,3467,1604,466,515,875,963,475,867,795,9530,5667,1771,939,1282,619,667,539]","trial_type":"two-door-navigation","trial_index":22,"time_elapsed":1288923,"internal_node_id":"0.0-2.0-20.0"},{"group":"dicyclic group of order 12","room_assignment":["ivory","grey","green","olive","purple","pink","orange","red","cyan","yellow","brown","blue"],"door_color_assignment":["black","white"],"door_generator_assignment":[0,1],"goal":1,"start":2,"action_noise":0.15,"location_history":"[2,6,10,2,6,11,3,0,1]","action_history":"[1,1,1,0,0,1,1,0]","door_history":"[1,1,1,0,0,1,1,0]","location_rts":"[2436,635,523,523,1372,669,875,2883]","trial_type":"two-door-navigation","trial_index":23,"time_elapsed":1310506,"internal_node_id":"0.0-2.0-21.0"},{"group":"dicyclic group of order 12","room_assignment":["ivory","grey","green","olive","purple","pink","orange","red","cyan","yellow","brown","blue"],"door_color_assignment":["black","white"],"door_generator_assignment":[0,1],"goal":3,"start":1,"action_noise":0.15,"location_history":"[1,2,3]","action_history":"[0,0]","door_history":"[0,0]","location_rts":"[3500,402]","trial_type":"two-door-navigation","trial_index":24,"time_elapsed":1319953,"internal_node_id":"0.0-2.0-22.0"},{"group":"dicyclic group of order 12","room_assignment":["ivory","grey","green","olive","purple","pink","orange","red","cyan","yellow","brown","blue"],"door_color_assignment":["black","white"],"door_generator_assignment":[0,1],"goal":7,"start":3,"action_noise":0.15,"location_history":"[3,7]","action_history":"[1]","door_history":"[1]","location_rts":"[5444]","trial_type":"two-door-navigation","trial_index":25,"time_elapsed":1329921,"internal_node_id":"0.0-2.0-23.0"},{"group":"dicyclic group of order 12","room_assignment":["ivory","grey","green","olive","purple","pink","orange","red","cyan","yellow","brown","blue"],"door_color_assignment":["black","white"],"door_generator_assignment":[0,1],"goal":6,"start":7,"action_noise":0.15,"location_history":"[7,11,4,9,6]","action_history":"[1,0,0,0]","door_history":"[1,0,0,0]","location_rts":"[11283,804,2579,506]","trial_type":"two-door-navigation","trial_index":26,"time_elapsed":1352679,"internal_node_id":"0.0-2.0-24.0"},{"group":"dicyclic group of order 12","room_assignment":["ivory","grey","green","olive","purple","pink","orange","red","cyan","yellow","brown","blue"],"door_color_assignment":["black","white"],"door_generator_assignment":[0,1],"goal":2,"start":6,"action_noise":0.15,"location_history":"[6,11,3,7,8,5,10,7,11,4,8,5,10,7,8,5,9,1,2]","action_history":"[1,1,1,0,0,0,0,0,0,0,1,0,0,0,0,1,1,0]","door_history":"[1,1,1,0,0,0,0,0,0,0,1,0,0,0,0,1,1,0]","location_rts":"[5508,755,15641,779,6202,8579,475,899,834,428,939,980,418,427,923,1316,579,2924]","trial_type":"two-door-navigation","trial_index":27,"time_elapsed":1423164,"internal_node_id":"0.0-2.0-25.0"},{"group":"dicyclic group of order 12","room_assignment":["ivory","grey","green","olive","purple","pink","orange","red","cyan","yellow","brown","blue"],"door_color_assignment":["black","white"],"door_generator_assignment":[0,1],"goal":8,"start":2,"action_noise":0.15,"location_history":"[2,6,11,3,0,4,9,1,2,6,10,2,6,11,4,8]","action_history":"[1,0,0,0,1,1,0,0,1,1,1,1,0,0,0]","door_history":"[1,0,0,0,1,1,0,0,1,1,1,1,0,0,0]","location_rts":"[4675,12274,16387,834,4939,387,9067,7434,915,410,403,7404,859,603,411]","trial_type":"two-door-navigation","trial_index":28,"time_elapsed":1508983,"internal_node_id":"0.0-2.0-26.0"},{"group":"dicyclic group of order 12","room_assignment":["ivory","grey","green","olive","purple","pink","orange","red","cyan","yellow","brown","blue"],"door_color_assignment":["black","white"],"door_generator_assignment":[0,1],"goal":0,"start":8,"action_noise":0.15,"location_history":"[8,0]","action_history":"[1]","door_history":"[1]","location_rts":"[3507]","trial_type":"two-door-navigation","trial_index":29,"time_elapsed":1517014,"internal_node_id":"0.0-2.0-27.0"},{"group":"dicyclic group of order 12","room_assignment":["ivory","grey","green","olive","purple","pink","orange","red","cyan","yellow","brown","blue"],"door_color_assignment":["black","white"],"door_generator_assignment":[0,1],"goal":3,"start":0,"action_noise":0.15,"location_history":"[0,1,5,10,7,8,5,10,7,11,3]","action_history":"[0,0,0,0,1,0,0,0,1,1]","door_history":"[0,0,0,0,1,0,0,0,1,1]","location_rts":"[3116,1075,1035,3731,1275,1019,6411,363,612,2251]","trial_type":"two-door-navigation","trial_index":30,"time_elapsed":1551612,"internal_node_id":"0.0-2.0-28.0"},{"group":"dicyclic group of order 12","room_assignment":["ivory","grey","green","olive","purple","pink","orange","red","cyan","yellow","brown","blue"],"door_color_assignment":["black","white"],"door_generator_assignment":[0,1],"goal":4,"start":3,"action_noise":0.15,"location_history":"[3,7,11,4]","action_history":"[1,1,0]","door_history":"[1,1,0]","location_rts":"[7844,363,1051]","trial_type":"two-door-navigation","trial_index":31,"time_elapsed":1567434,"internal_node_id":"0.0-2.0-29.0"},{"group":"dicyclic group of order 12","room_assignment":["ivory","grey","green","olive","purple","pink","orange","red","cyan","yellow","brown","blue"],"door_color_assignment":["black","white"],"door_generator_assignment":[0,1],"goal":10,"start":4,"action_noise":0.15,"location_history":"[4,9,6,11,4,9,1,2,3,0,1,5,10]","action_history":"[1,1,1,0,0,1,0,0,0,1,1,0]","door_history":"[1,1,1,0,0,1,0,0,0,1,1,0]","location_rts":"[16476,7348,7515,924,795,515,555,387,595,12091,579,683]","trial_type":"two-door-navigation","trial_index":32,"time_elapsed":1631648,"internal_node_id":"0.0-2.0-30.0"},{"group":"dicyclic group of order 12","room_assignment":["ivory","grey","green","olive","purple","pink","orange","red","cyan","yellow","brown","blue"],"door_color_assignment":["black","white"],"door_generator_assignment":[0,1],"goal":11,"start":10,"action_noise":0.15,"location_history":"[10,2,3,0,4,9,6,11]","action_history":"[1,0,0,1,0,0,0]","door_history":"[1,0,0,1,0,0,0]","location_rts":"[6491,9427,402,6419,1435,307,386]","trial_type":"two-door-navigation","trial_index":33,"time_elapsed":1667166,"internal_node_id":"0.0-2.0-31.0"},{"group":"dicyclic group of order 12","room_assignment":["ivory","grey","green","olive","purple","pink","orange","red","cyan","yellow","brown","blue"],"door_color_assignment":["black","white"],"door_generator_assignment":[0,1],"goal":1,"start":11,"action_noise":0.15,"location_history":"[11,4,9,6,10,2,6,11,4,9,1]","action_history":"[0,0,0,0,1,0,0,0,1,1]","door_history":"[0,0,0,0,1,0,0,0,1,1]","location_rts":"[17275,371,347,1459,1267,396,523,91,804,10763]","trial_type":"two-door-navigation","trial_index":34,"time_elapsed":1714171,"internal_node_id":"0.0-2.0-32.0"},{"group":"dicyclic group of order 12","room_assignment":["ivory","grey","green","olive","purple","pink","orange","red","cyan","yellow","brown","blue"],"door_color_assignment":["black","white"],"door_generator_assignment":[0,1],"goal":5,"start":1,"action_noise":0.15,"location_history":"[1,5]","action_history":"[1]","door_history":"[1]","location_rts":"[33354]","trial_type":"two-door-navigation","trial_index":35,"time_elapsed":1752049,"internal_node_id":"0.0-2.0-33.0"},{"group":"dicyclic group of order 12","room_assignment":["ivory","grey","green","olive","purple","pink","orange","red","cyan","yellow","brown","blue"],"door_color_assignment":["black","white"],"door_generator_assignment":[0,1],"goal":9,"start":5,"action_noise":0.15,"location_history":"[5,9]","action_history":"[1]","door_history":"[1]","location_rts":"[15075]","trial_type":"two-door-navigation","trial_index":36,"time_elapsed":1771648,"internal_node_id":"0.0-2.0-34.0"},{"view_history":"[{\"page_index\":0,\"viewing_time\":2836}]","rt":2836,"trial_type":"instructions","trial_index":37,"time_elapsed":1775485,"internal_node_id":"0.0-3.0"},{"view_history":"[{\"page_index\":0,\"viewing_time\":2894},{\"page_index\":1,\"viewing_time\":8015}]","rt":10910,"trial_type":"instructions","trial_index":38,"time_elapsed":1787396,"internal_node_id":"0.0-4.0"},{"group":"dicyclic group of order 12","fractal_assignment":["../images/ylw_slt.png","../images/grn_prp.png","../images/gry_blk.png","../images/pnk_blu.png","../images/wht_red.png","../images/cyn_red.png","../images/grn_red.png","../images/ylw_pnk.png","../images/org_blu.png","../images/grn_blu.png","../images/red_prp.png","../images/blu_wht.png"],"mutagen_generator_assignment":[0,1],"goal":4,"start":0,"action_noise":0.15,"location_history":"[0,1,5,10,7,11,4]","action_history":"[0,0,1,1,1,1]","mutagen_history":"[0,0,1,1,1,1]","location_rts":"[7606,6424,2546,1025,1375,815]","trial_type":"fractal-mutation","trial_index":39,"time_elapsed":1817089,"internal_node_id":"0.0-5.0-0.0"},{"group":"dicyclic group of order 12","fractal_assignment":["../images/ylw_slt.png","../images/grn_prp.png","../images/gry_blk.png","../images/pnk_blu.png","../images/wht_red.png","../images/cyn_red.png","../images/grn_red.png","../images/ylw_pnk.png","../images/org_blu.png","../images/grn_blu.png","../images/red_prp.png","../images/blu_wht.png"],"mutagen_generator_assignment":[0,1],"goal":9,"start":4,"action_noise":0.15,"location_history":"[4,9]","action_history":"[0]","mutagen_history":"[0]","location_rts":"[3024]","trial_type":"fractal-mutation","trial_index":40,"time_elapsed":1824637,"internal_node_id":"0.0-5.0-1.0"},{"group":"dicyclic group of order 12","fractal_assignment":["../images/ylw_slt.png","../images/grn_prp.png","../images/gry_blk.png","../images/pnk_blu.png","../images/wht_red.png","../images/cyn_red.png","../images/grn_red.png","../images/ylw_pnk.png","../images/org_blu.png","../images/grn_blu.png","../images/red_prp.png","../images/blu_wht.png"],"mutagen_generator_assignment":[0,1],"goal":10,"start":9,"action_noise":0.15,"location_history":"[9,6,10]","action_history":"[1,1]","mutagen_history":"[1,1]","location_rts":"[1500,753]","trial_type":"fractal-mutation","trial_index":41,"time_elapsed":1832563,"internal_node_id":"0.0-5.0-2.0"},{"group":"dicyclic group of order 12","fractal_assignment":["../images/ylw_slt.png","../images/grn_prp.png","../images/gry_blk.png","../images/pnk_blu.png","../images/wht_red.png","../images/cyn_red.png","../images/grn_red.png","../images/ylw_pnk.png","../images/org_blu.png","../images/grn_blu.png","../images/red_prp.png","../images/blu_wht.png"],"mutagen_generator_assignment":[0,1],"goal":2,"start":10,"action_noise":0.15,"location_history":"[10,2]","action_history":"[1]","mutagen_history":"[1]","location_rts":"[2597]","trial_type":"fractal-mutation","trial_index":42,"time_elapsed":1839751,"internal_node_id":"0.0-5.0-3.0"},{"group":"dicyclic group of order 12","fractal_assignment":["../images/ylw_slt.png","../images/grn_prp.png","../images/gry_blk.png","../images/pnk_blu.png","../images/wht_red.png","../images/cyn_red.png","../images/grn_red.png","../images/ylw_pnk.png","../images/org_blu.png","../images/grn_blu.png","../images/red_prp.png","../images/blu_wht.png"],"mutagen_generator_assignment":[0,1],"goal":5,"start":2,"action_noise":0.15,"location_history":"[2,3,0,1,5]","action_history":"[0,0,0,1]","mutagen_history":"[0,0,0,1]","location_rts":"[2312,1258,738,1184]","trial_type":"fractal-mutation","trial_index":43,"time_elapsed":1852897,"internal_node_id":"0.0-5.0-4.0"},{"group":"dicyclic group of order 12","fractal_assignment":["../images/ylw_slt.png","../images/grn_prp.png","../images/gry_blk.png","../images/pnk_blu.png","../images/wht_red.png","../images/cyn_red.png","../images/grn_red.png","../images/ylw_pnk.png","../images/org_blu.png","../images/grn_blu.png","../images/red_prp.png","../images/blu_wht.png"],"mutagen_generator_assignment":[0,1],"goal":11,"start":5,"action_noise":0.15,"location_history":"[5,10,2,6,10,7,8,0,1,5,10,7,8,0,4,8,0,1,5,10,7,8,5,9,1,5,10,7,11]","action_history":"[1,1,1,1,0,0,1,0,1,1,0,0,1,1,1,1,0,1,0,0,0,1,1,1,1,0,1,1]","mutagen_history":"[1,1,1,1,0,0,1,0,1,1,0,0,1,1,1,1,0,1,0,0,0,1,1,1,1,0,1,1]","location_rts":"[2262,565,644,610,644,489,1034,554,473,729,565,539,626,700,794,924,1068,1367,1178,602,602,323,820,793,667,1299,1330,804]","trial_type":"fractal-mutation","trial_index":44,"time_elapsed":1909390,"internal_node_id":"0.0-5.0-5.0"},{"group":"dicyclic group of order 12","fractal_assignment":["../images/ylw_slt.png","../images/grn_prp.png","../images/gry_blk.png","../images/pnk_blu.png","../images/wht_red.png","../images/cyn_red.png","../images/grn_red.png","../images/ylw_pnk.png","../images/org_blu.png","../images/grn_blu.png","../images/red_prp.png","../images/blu_wht.png"],"mutagen_generator_assignment":[0,1],"goal":6,"start":11,"action_noise":0.15,"location_history":"[11,4,8,5,9,1,5,9,6]","action_history":"[0,0,0,1,1,1,1,0]","mutagen_history":"[0,0,0,1,1,1,1,0]","location_rts":"[2086,506,722,962,835,795,781,836]","trial_type":"fractal-mutation","trial_index":45,"time_elapsed":1928862,"internal_node_id":"0.0-5.0-6.0"},{"group":"dicyclic group of order 12","fractal_assignment":["../images/ylw_slt.png","../images/grn_prp.png","../images/gry_blk.png","../images/pnk_blu.png","../images/wht_red.png","../images/cyn_red.png","../images/grn_red.png","../images/ylw_pnk.png","../images/org_blu.png","../images/grn_blu.png","../images/red_prp.png","../images/blu_wht.png"],"mutagen_generator_assignment":[0,1],"goal":3,"start":6,"action_noise":0.15,"location_history":"[6,10,2,6,10,2,3]","action_history":"[1,1,1,1,1,0]","mutagen_history":"[1,1,1,1,1,0]","location_rts":"[2380,659,1034,1242,557,797]","trial_type":"fractal-mutation","trial_index":46,"time_elapsed":1945501,"internal_node_id":"0.0-5.0-7.0"},{"group":"dicyclic group of order 12","fractal_assignment":["../images/ylw_slt.png","../images/grn_prp.png","../images/gry_blk.png","../images/pnk_blu.png","../images/wht_red.png","../images/cyn_red.png","../images/grn_red.png","../images/ylw_pnk.png","../images/org_blu.png","../images/grn_blu.png","../images/red_prp.png","../images/blu_wht.png"],"mutagen_generator_assignment":[0,1],"goal":8,"start":3,"action_noise":0.15,"location_history":"[3,7,11,4,9,6,10,2,3,0,4,8]","action_history":"[1,1,0,0,0,1,1,0,0,1,0]","mutagen_history":"[1,1,0,0,0,1,1,0,0,1,0]","location_rts":"[2165,730,1074,1192,601,680,1148,898,1103,667,2218]","trial_type":"fractal-mutation","trial_index":47,"time_elapsed":1973187,"internal_node_id":"0.0-5.0-8.0"},{"group":"dicyclic group of order 12","fractal_assignment":["../images/ylw_slt.png","../images/grn_prp.png","../images/gry_blk.png","../images/pnk_blu.png","../images/wht_red.png","../images/cyn_red.png","../images/grn_red.png","../images/ylw_pnk.png","../images/org_blu.png","../images/grn_blu.png","../images/red_prp.png","../images/blu_wht.png"],"mutagen_generator_assignment":[0,1],"goal":1,"start":8,"action_noise":0.15,"location_history":"[8,5,10,7,8,0,4,9,1]","action_history":"[0,0,0,0,1,0,0,1]","mutagen_history":"[0,0,0,0,1,0,0,1]","location_rts":"[1645,986,563,1307,682,924,901,1040]","trial_type":"fractal-mutation","trial_index":48,"time_elapsed":1993082,"internal_node_id":"0.0-5.0-9.0"},{"group":"dicyclic group of order 12","fractal_assignment":["../images/ylw_slt.png","../images/grn_prp.png","../images/gry_blk.png","../images/pnk_blu.png","../images/wht_red.png","../images/cyn_red.png","../images/grn_red.png","../images/ylw_pnk.png","../images/org_blu.png","../images/grn_blu.png","../images/red_prp.png","../images/blu_wht.png"],"mutagen_generator_assignment":[0,1],"goal":7,"start":1,"action_noise":0.15,"location_history":"[1,5,9,6,10,2,6,10,7]","action_history":"[1,1,0,1,1,1,1,0]","mutagen_history":"[1,1,0,1,1,1,1,0]","location_rts":"[7053,929,900,1080,642,1945,956,1028]","trial_type":"fractal-mutation","trial_index":49,"time_elapsed":2019721,"internal_node_id":"0.0-5.0-10.0"},{"group":"dicyclic group of order 12","fractal_assignment":["../images/ylw_slt.png","../images/grn_prp.png","../images/gry_blk.png","../images/pnk_blu.png","../images/wht_red.png","../images/cyn_red.png","../images/grn_red.png","../images/ylw_pnk.png","../images/org_blu.png","../images/grn_blu.png","../images/red_prp.png","../images/blu_wht.png"],"mutagen_generator_assignment":[0,1],"goal":5,"start":7,"action_noise":0.15,"location_history":"[7,8,0,4,8,5]","action_history":"[0,1,1,1,1]","mutagen_history":"[0,1,1,1,1]","location_rts":"[2292,970,593,570,1605]","trial_type":"fractal-mutation","trial_index":50,"time_elapsed":2034615,"internal_node_id":"0.0-5.0-11.0"},{"group":"dicyclic group of order 12","fractal_assignment":["../images/ylw_slt.png","../images/grn_prp.png","../images/gry_blk.png","../images/pnk_blu.png","../images/wht_red.png","../images/cyn_red.png","../images/grn_red.png","../images/ylw_pnk.png","../images/org_blu.png","../images/grn_blu.png","../images/red_prp.png","../images/blu_wht.png"],"mutagen_generator_assignment":[0,1],"goal":8,"start":5,"action_noise":0.15,"location_history":"[5,9,6,11,4,8]","action_history":"[1,0,0,0,0]","mutagen_history":"[1,0,0,0,0]","location_rts":"[4038,690,680,808,611]","trial_type":"fractal-mutation","trial_index":51,"time_elapsed":2050216,"internal_node_id":"0.0-5.0-12.0"},{"group":"dicyclic group of order 12","fractal_assignment":["../images/ylw_slt.png","../images/grn_prp.png","../images/gry_blk.png","../images/pnk_blu.png","../images/wht_red.png","../images/cyn_red.png","../images/grn_red.png","../images/ylw_pnk.png","../images/org_blu.png","../images/grn_blu.png","../images/red_prp.png","../images/blu_wht.png"],"mutagen_generator_assignment":[0,1],"goal":11,"start":8,"action_noise":0.15,"location_history":"[8,0,1,5,10,2,6,10,2,3,0,1,5,9,1,5,10,2,6,10,7,11]","action_history":"[1,1,1,1,1,1,1,1,0,1,0,1,1,1,1,0,0,0,1,0,1]","mutagen_history":"[1,1,1,1,1,1,1,1,0,1,0,1,1,1,1,0,0,0,1,0,1]","location_rts":"[4220,1314,865,922,1114,1203,833,445,1308,803,682,497,738,683,996,796,746,931,842,580,4890]","trial_type":"fractal-mutation","trial_index":52,"time_elapsed":2101675,"internal_node_id":"0.0-5.0-13.0"},{"group":"dicyclic group of order 12","fractal_assignment":["../images/ylw_slt.png","../images/grn_prp.png","../images/gry_blk.png","../images/pnk_blu.png","../images/wht_red.png","../images/cyn_red.png","../images/grn_red.png","../images/ylw_pnk.png","../images/org_blu.png","../images/grn_blu.png","../images/red_prp.png","../images/blu_wht.png"],"mutagen_generator_assignment":[0,1],"goal":6,"start":11,"action_noise":0.15,"location_history":"[11,4,9,6]","action_history":"[1,0,0]","mutagen_history":"[1,0,0]","location_rts":"[1542,922,497]","trial_type":"fractal-mutation","trial_index":53,"time_elapsed":2111316,"internal_node_id":"0.0-5.0-14.0"},{"group":"dicyclic group of order 12","fractal_assignment":["../images/ylw_slt.png","../images/grn_prp.png","../images/gry_blk.png","../images/pnk_blu.png","../images/wht_red.png","../images/cyn_red.png","../images/grn_red.png","../images/ylw_pnk.png","../images/org_blu.png","../images/grn_blu.png","../images/red_prp.png","../images/blu_wht.png"],"mutagen_generator_assignment":[0,1],"goal":7,"start":6,"action_noise":0.15,"location_history":"[6,10,7]","action_history":"[1,0]","mutagen_history":"[1,0]","location_rts":"[3100,532]","trial_type":"fractal-mutation","trial_index":54,"time_elapsed":2120580,"internal_node_id":"0.0-5.0-15.0"},{"group":"dicyclic group of order 12","fractal_assignment":["../images/ylw_slt.png","../images/grn_prp.png","../images/gry_blk.png","../images/pnk_blu.png","../images/wht_red.png","../images/cyn_red.png","../images/grn_red.png","../images/ylw_pnk.png","../images/org_blu.png","../images/grn_blu.png","../images/red_prp.png","../images/blu_wht.png"],"mutagen_generator_assignment":[0,1],"goal":10,"start":7,"action_noise":0.15,"location_history":"[7,11,3,7,8,0,4,8,5,9,1,5,9,6,10]","action_history":"[1,1,1,0,1,1,1,0,1,1,1,0,0,1]","mutagen_history":"[1,1,1,0,1,1,1,0,1,1,1,0,0,1]","location_rts":"[2891,925,674,1363,969,633,458,764,698,474,483,612,604,730]","trial_type":"fractal-mutation","trial_index":55,"time_elapsed":2151393,"internal_node_id":"0.0-5.0-16.0"},{"group":"dicyclic group of order 12","fractal_assignment":["../images/ylw_slt.png","../images/grn_prp.png","../images/gry_blk.png","../images/pnk_blu.png","../images/wht_red.png","../images/cyn_red.png","../images/grn_red.png","../images/ylw_pnk.png","../images/org_blu.png","../images/grn_blu.png","../images/red_prp.png","../images/blu_wht.png"],"mutagen_generator_assignment":[0,1],"goal":0,"start":10,"action_noise":0.15,"location_history":"[10,2,3,0]","action_history":"[1,0,0]","mutagen_history":"[1,0,0]","location_rts":"[16620,482,857]","trial_type":"fractal-mutation","trial_index":56,"time_elapsed":2176032,"internal_node_id":"0.0-5.0-17.0"},{"group":"dicyclic group of order 12","fractal_assignment":["../images/ylw_slt.png","../images/grn_prp.png","../images/gry_blk.png","../images/pnk_blu.png","../images/wht_red.png","../images/cyn_red.png","../images/grn_red.png","../images/ylw_pnk.png","../images/org_blu.png","../images/grn_blu.png","../images/red_prp.png","../images/blu_wht.png"],"mutagen_generator_assignment":[0,1],"goal":9,"start":0,"action_noise":0.15,"location_history":"[0,4,8,0,1,2,6,11,3,7,11,4,9]","action_history":"[0,1,1,1,0,1,0,1,1,1,1,1]","mutagen_history":"[0,1,1,1,0,1,0,1,1,1,1,1]","location_rts":"[2453,538,441,643,882,513,1186,832,691,643,484,682]","trial_type":"fractal-mutation","trial_index":57,"time_elapsed":2202406,"internal_node_id":"0.0-5.0-18.0"},{"group":"dicyclic group of order 12","fractal_assignment":["../images/ylw_slt.png","../images/grn_prp.png","../images/gry_blk.png","../images/pnk_blu.png","../images/wht_red.png","../images/cyn_red.png","../images/grn_red.png","../images/ylw_pnk.png","../images/org_blu.png","../images/grn_blu.png","../images/red_prp.png","../images/blu_wht.png"],"mutagen_generator_assignment":[0,1],"goal":4,"start":9,"action_noise":0.15,"location_history":"[9,6,10,2,6,11,4]","action_history":"[1,1,1,1,0,0]","mutagen_history":"[1,1,1,1,0,0]","location_rts":"[1397,475,588,475,724,683]","trial_type":"fractal-mutation","trial_index":58,"time_elapsed":2216678,"internal_node_id":"0.0-5.0-19.0"},{"group":"dicyclic group of order 12","fractal_assignment":["../images/ylw_slt.png","../images/grn_prp.png","../images/gry_blk.png","../images/pnk_blu.png","../images/wht_red.png","../images/cyn_red.png","../images/grn_red.png","../images/ylw_pnk.png","../images/org_blu.png","../images/grn_blu.png","../images/red_prp.png","../images/blu_wht.png"],"mutagen_generator_assignment":[0,1],"goal":2,"start":4,"action_noise":0.15,"location_history":"[4,9,6,10,7,11,4,8,0,4,8,5,10,7,8,5,9,1,5,10,2]","action_history":"[1,1,1,0,1,0,1,1,1,1,1,0,0,0,0,1,1,1,1,0]","mutagen_history":"[1,1,1,0,1,0,1,1,1,1,1,0,0,0,0,1,1,1,1,0]","location_rts":"[1700,650,1340,604,504,2012,794,418,1082,684,627,1443,642,482,771,493,394,490,549,1170]","trial_type":"fractal-mutation","trial_index":59,"time_elapsed":2258451,"internal_node_id":"0.0-5.0-20.0"},{"group":"dicyclic group of order 12","fractal_assignment":["../images/ylw_slt.png","../images/grn_prp.png","../images/gry_blk.png","../images/pnk_blu.png","../images/wht_red.png","../images/cyn_red.png","../images/grn_red.png","../images/ylw_pnk.png","../images/org_blu.png","../images/grn_blu.png","../images/red_prp.png","../images/blu_wht.png"],"mutagen_generator_assignment":[0,1],"goal":1,"start":2,"action_noise":0.15,"location_history":"[2,3,0,4,8,0,4,9,6,10,2,6,11,4,9,6,10,7,11,3,7,8,0,4,8,0,1]","action_history":"[0,0,0,1,1,1,1,0,1,1,1,0,0,0,0,0,0,1,1,1,0,1,1,1,0,0]","mutagen_history":"[0,0,0,1,1,1,1,0,1,1,1,0,0,0,0,0,0,1,1,1,0,1,1,1,0,0]","location_rts":"[1325,619,811,579,603,852,596,1123,731,610,723,812,931,411,810,612,883,579,693,780,333,346,331,339,388,451]","trial_type":"fractal-mutation","trial_index":60,"time_elapsed":2306833,"internal_node_id":"0.0-5.0-21.0"},{"group":"dicyclic group of order 12","fractal_assignment":["../images/ylw_slt.png","../images/grn_prp.png","../images/gry_blk.png","../images/pnk_blu.png","../images/wht_red.png","../images/cyn_red.png","../images/grn_red.png","../images/ylw_pnk.png","../images/org_blu.png","../images/grn_blu.png","../images/red_prp.png","../images/blu_wht.png"],"mutagen_generator_assignment":[0,1],"goal":3,"start":1,"action_noise":0.15,"location_history":"[1,2,6,11,4,9,1,5,9,1,2,3]","action_history":"[0,1,0,0,1,1,1,1,1,0,0]","mutagen_history":"[0,1,0,0,1,1,1,1,1,0,0]","location_rts":"[2476,642,820,545,705,714,941,931,8372,2949,523]","trial_type":"fractal-mutation","trial_index":61,"time_elapsed":2341663,"internal_node_id":"0.0-5.0-22.0"},{"group":"dicyclic group of order 12","fractal_assignment":["../images/ylw_slt.png","../images/grn_prp.png","../images/gry_blk.png","../images/pnk_blu.png","../images/wht_red.png","../images/cyn_red.png","../images/grn_red.png","../images/ylw_pnk.png","../images/org_blu.png","../images/grn_blu.png","../images/red_prp.png","../images/blu_wht.png"],"mutagen_generator_assignment":[0,1],"goal":7,"start":3,"action_noise":0.15,"location_history":"[3,0,4,8,0,4,8,5,9,1,5,9,6,10,2,3,7]","action_history":"[0,1,1,1,1,0,0,1,1,1,1,0,0,1,0,1]","mutagen_history":"[0,1,1,1,1,0,0,1,1,1,1,0,0,1,0,1]","location_rts":"[3379,762,570,979,932,716,940,809,546,882,1298,636,2650,513,691,1178]","trial_type":"fractal-mutation","trial_index":62,"time_elapsed":2379747,"internal_node_id":"0.0-5.0-23.0"},{"group":"dicyclic group of order 12","fractal_assignment":["../images/ylw_slt.png","../images/grn_prp.png","../images/gry_blk.png","../images/pnk_blu.png","../images/wht_red.png","../images/cyn_red.png","../images/grn_red.png","../images/ylw_pnk.png","../images/org_blu.png","../images/grn_blu.png","../images/red_prp.png","../images/blu_wht.png"],"mutagen_generator_assignment":[0,1],"goal":6,"start":7,"action_noise":0.15,"location_history":"[7,11,3,7,11,4,8,0,4,9,1,5,9,1,5,9,6]","action_history":"[1,1,1,1,0,1,1,0,0,1,1,1,0,1,1,0]","mutagen_history":"[1,1,1,1,0,1,1,0,0,1,1,1,0,1,1,0]","location_rts":"[4685,1203,756,612,500,872,595,1243,499,922,723,1147,1180,531,516,948]","trial_type":"fractal-mutation","trial_index":63,"time_elapsed":2417339,"internal_node_id":"0.0-5.0-24.0"},{"group":"dicyclic group of order 12","fractal_assignment":["../images/ylw_slt.png","../images/grn_prp.png","../images/gry_blk.png","../images/pnk_blu.png","../images/wht_red.png","../images/cyn_red.png","../images/grn_red.png","../images/ylw_pnk.png","../images/org_blu.png","../images/grn_blu.png","../images/red_prp.png","../images/blu_wht.png"],"mutagen_generator_assignment":[0,1],"goal":2,"start":6,"action_noise":0.15,"location_history":"[6,11,4,8,0,1,5,9,1,2]","action_history":"[0,0,1,1,0,1,1,1,0]","mutagen_history":"[0,0,1,1,0,1,1,1,0]","location_rts":"[10332,762,642,427,371,321,171,251,515]","trial_type":"fractal-mutation","trial_index":64,"time_elapsed":2444193,"internal_node_id":"0.0-5.0-25.0"},{"group":"dicyclic group of order 12","fractal_assignment":["../images/ylw_slt.png","../images/grn_prp.png","../images/gry_blk.png","../images/pnk_blu.png","../images/wht_red.png","../images/cyn_red.png","../images/grn_red.png","../images/ylw_pnk.png","../images/org_blu.png","../images/grn_blu.png","../images/red_prp.png","../images/blu_wht.png"],"mutagen_generator_assignment":[0,1],"goal":8,"start":2,"action_noise":0.15,"location_history":"[2,3,7,11,4,9,6,10,7,8]","action_history":"[0,1,1,0,0,0,1,0,0]","mutagen_history":"[0,1,1,0,0,0,1,0,0]","location_rts":"[2204,450,580,523,392,468,600,1764,829]","trial_type":"fractal-mutation","trial_index":65,"time_elapsed":2465009,"internal_node_id":"0.0-5.0-26.0"},{"group":"dicyclic group of order 12","fractal_assignment":["../images/ylw_slt.png","../images/grn_prp.png","../images/gry_blk.png","../images/pnk_blu.png","../images/wht_red.png","../images/cyn_red.png","../images/grn_red.png","../images/ylw_pnk.png","../images/org_blu.png","../images/grn_blu.png","../images/red_prp.png","../images/blu_wht.png"],"mutagen_generator_assignment":[0,1],"goal":0,"start":8,"action_noise":0.15,"location_history":"[8,5,10,7,11,3,0]","action_history":"[0,0,0,1,1,1]","mutagen_history":"[0,0,0,1,1,1]","location_rts":"[1507,1226,1099,1171,643,682]","trial_type":"fractal-mutation","trial_index":66,"time_elapsed":2481158,"internal_node_id":"0.0-5.0-27.0"},{"group":"dicyclic group of order 12","fractal_assignment":["../images/ylw_slt.png","../images/grn_prp.png","../images/gry_blk.png","../images/pnk_blu.png","../images/wht_red.png","../images/cyn_red.png","../images/grn_red.png","../images/ylw_pnk.png","../images/org_blu.png","../images/grn_blu.png","../images/red_prp.png","../images/blu_wht.png"],"mutagen_generator_assignment":[0,1],"goal":3,"start":0,"action_noise":0.15,"location_history":"[0,1,5,9,6,10,7,11,4,9,1,5,9,1,5,9,6,10,7,11,4,9,6,11,3]","action_history":"[0,1,1,1,0,0,1,0,1,1,1,0,1,1,1,0,1,1,1,0,0,0,0,1]","mutagen_history":"[0,1,1,1,0,0,1,0,1,1,1,0,1,1,1,0,1,1,1,0,0,0,0,1]","location_rts":"[1710,690,529,507,651,978,2105,1043,761,563,546,322,435,771,652,868,809,690,923,251,578,571,804,564]","trial_type":"fractal-mutation","trial_index":67,"time_elapsed":2528603,"internal_node_id":"0.0-5.0-28.0"},{"group":"dicyclic group of order 12","fractal_assignment":["../images/ylw_slt.png","../images/grn_prp.png","../images/gry_blk.png","../images/pnk_blu.png","../images/wht_red.png","../images/cyn_red.png","../images/grn_red.png","../images/ylw_pnk.png","../images/org_blu.png","../images/grn_blu.png","../images/red_prp.png","../images/blu_wht.png"],"mutagen_generator_assignment":[0,1],"goal":4,"start":3,"action_noise":0.15,"location_history":"[3,7,8,5,9,6,11,4]","action_history":"[1,0,0,1,1,0,0]","mutagen_history":"[1,0,0,1,1,0,0]","location_rts":"[2765,740,1195,579,570,436,539]","trial_type":"fractal-mutation","trial_index":68,"time_elapsed":2546363,"internal_node_id":"0.0-5.0-29.0"},{"group":"dicyclic group of order 12","fractal_assignment":["../images/ylw_slt.png","../images/grn_prp.png","../images/gry_blk.png","../images/pnk_blu.png","../images/wht_red.png","../images/cyn_red.png","../images/grn_red.png","../images/ylw_pnk.png","../images/org_blu.png","../images/grn_blu.png","../images/red_prp.png","../images/blu_wht.png"],"mutagen_generator_assignment":[0,1],"goal":10,"start":4,"action_noise":0.15,"location_history":"[4,8,5,9,6,10]","action_history":"[1,1,1,1,1]","mutagen_history":"[1,1,1,1,1]","location_rts":"[1372,660,604,636,643]","trial_type":"fractal-mutation","trial_index":69,"time_elapsed":2559203,"internal_node_id":"0.0-5.0-30.0"},{"group":"dicyclic group of order 12","fractal_assignment":["../images/ylw_slt.png","../images/grn_prp.png","../images/gry_blk.png","../images/pnk_blu.png","../images/wht_red.png","../images/cyn_red.png","../images/grn_red.png","../images/ylw_pnk.png","../images/org_blu.png","../images/grn_blu.png","../images/red_prp.png","../images/blu_wht.png"],"mutagen_generator_assignment":[0,1],"goal":11,"start":10,"action_noise":0.15,"location_history":"[10,2,6,10,2,3,7,11]","action_history":"[1,1,1,1,0,1,1]","mutagen_history":"[1,1,1,1,0,1,1]","location_rts":"[1924,4107,683,443,900,682,539]","trial_type":"fractal-mutation","trial_index":70,"time_elapsed":2579536,"internal_node_id":"0.0-5.0-31.0"},{"group":"dicyclic group of order 12","fractal_assignment":["../images/ylw_slt.png","../images/grn_prp.png","../images/gry_blk.png","../images/pnk_blu.png","../images/wht_red.png","../images/cyn_red.png","../images/grn_red.png","../images/ylw_pnk.png","../images/org_blu.png","../images/grn_blu.png","../images/red_prp.png","../images/blu_wht.png"],"mutagen_generator_assignment":[0,1],"goal":1,"start":11,"action_noise":0.15,"location_history":"[11,3,0,1]","action_history":"[1,0,0]","mutagen_history":"[1,0,0]","location_rts":"[1254,869,529]","trial_type":"fractal-mutation","trial_index":71,"time_elapsed":2588866,"internal_node_id":"0.0-5.0-32.0"},{"group":"dicyclic group of order 12","fractal_assignment":["../images/ylw_slt.png","../images/grn_prp.png","../images/gry_blk.png","../images/pnk_blu.png","../images/wht_red.png","../images/cyn_red.png","../images/grn_red.png","../images/ylw_pnk.png","../images/org_blu.png","../images/grn_blu.png","../images/red_prp.png","../images/blu_wht.png"],"mutagen_generator_assignment":[0,1],"goal":5,"start":1,"action_noise":0.15,"location_history":"[1,2,3,0,4,9,6,10,7,11,4,9,6,11,4,8,5]","action_history":"[0,0,1,1,1,0,1,1,1,1,0,1,0,0,0,0]","mutagen_history":"[0,0,1,1,1,0,1,1,1,1,0,1,0,0,0,0]","location_rts":"[2996,1521,611,469,435,691,330,489,457,451,434,562,739,1003,394,586]","trial_type":"fractal-mutation","trial_index":72,"time_elapsed":2621536,"internal_node_id":"0.0-5.0-33.0"},{"group":"dicyclic group of order 12","fractal_assignment":["../images/ylw_slt.png","../images/grn_prp.png","../images/gry_blk.png","../images/pnk_blu.png","../images/wht_red.png","../images/cyn_red.png","../images/grn_red.png","../images/ylw_pnk.png","../images/org_blu.png","../images/grn_blu.png","../images/red_prp.png","../images/blu_wht.png"],"mutagen_generator_assignment":[0,1],"goal":9,"start":5,"action_noise":0.15,"location_history":"[5,9]","action_history":"[1]","mutagen_history":"[1]","location_rts":"[4545]","trial_type":"fractal-mutation","trial_index":73,"time_elapsed":2630668,"internal_node_id":"0.0-5.0-34.0"},{"view_history":"[{\"page_index\":0,\"viewing_time\":16782}]","rt":16782,"trial_type":"instructions","trial_index":74,"time_elapsed":2648451,"internal_node_id":"0.0-6.0"},{"rt":32036,"responses":"{\"Q0\":\"It was difficult to identify a pattern and to learn over time.\"}","trial_type":"survey-text","trial_index":75,"time_elapsed":2681491,"internal_node_id":"0.0-7.0"}]