[{"view_history":"[{\"page_index\":0,\"viewing_time\":16937},{\"page_index\":1,\"viewing_time\":19712},{\"page_index\":2,\"viewing_time\":20608},{\"page_index\":3,\"viewing_time\":5295}]","rt":62553,"trial_type":"instructions","trial_index":0,"time_elapsed":62556,"internal_node_id":"0.0-0.0"},{"view_history":"[{\"page_index\":0,\"viewing_time\":5428},{\"page_index\":1,\"viewing_time\":21166}]","rt":26596,"trial_type":"instructions","trial_index":1,"time_elapsed":90152,"internal_node_id":"0.0-1.0"},{"group":"dihedral group of order 12","room_assignment":["brown","grey","yellow","olive","green","cyan","ivory","orange","red","pink","blue","purple"],"door_color_assignment":["white","black"],"door_generator_assignment":[1,0],"goal":4,"start":0,"action_noise":0.15,"location_history":"[0,1,7,1,7,6,11,5,0,1,2,8,7,1,7,6,0,1,7,1,7,6,11,5,0,1,2,8,2,3,9,3,9,8,7,6,0,6,11,5,11,10,4]","action_history":"[0,0,1,1,0,0,0,0,0,1,1,1,1,1,0,1,0,1,1,0,0,0,1,1,0,0,1,1,0,0,1,1,0,0,0,1,1,0,1,1,0,0]","door_history":"[1,1,0,0,1,1,1,1,1,0,0,0,0,0,1,0,1,0,0,1,1,1,0,0,1,1,0,0,1,1,0,0,1,1,1,0,0,1,0,0,1,1]","location_rts":"[3742,2865,2169,2125,1164,1612,1502,1555,1051,1126,1010,791,1207,2219,542,1872,758,942,1750,788,962,3136,909,1797,1140,707,1636,1223,1071,4348,837,1326,1188,650,705,848,670,987,1037,1214,866,868]","trial_type":"two-door-navigation","trial_index":2,"time_elapsed":202135,"internal_node_id":"0.0-2.0-0.0"},{"group":"dihedral group of order 12","room_assignment":["brown","grey","yellow","olive","green","cyan","ivory","orange","red","pink","blue","purple"],"door_color_assignment":["white","black"],"door_generator_assignment":[1,0],"goal":9,"start":4,"action_noise":0.15,"location_history":"[4,10,9]","action_history":"[1,0]","door_history":"[0,1]","location_rts":"[4093,1806]","trial_type":"two-door-navigation","trial_index":3,"time_elapsed":214004,"internal_node_id":"0.0-2.0-1.0"},{"group":"dihedral group of order 12","room_assignment":["brown","grey","yellow","olive","green","cyan","ivory","orange","red","pink","blue","purple"],"door_color_assignment":["white","black"],"door_generator_assignment":[1,0],"goal":10,"start":9,"action_noise":0.15,"location_history":"[9,3,4,5,11,5,0,6,11,10]","action_history":"[1,0,0,1,1,0,0,0,0]","door_history":"[0,1,1,0,0,1,1,1,1]","location_rts":"[3049,1329,858,2329,575,783,553,1472,1083]","trial_type":"two-door-navigation","trial_index":4,"time_elapsed":239967,"internal_node_id":"0.0-2.0-2.0"},{"group":"dihedral group of order 12","room_assignment":["brown","grey","yellow","olive","green","cyan","ivory","orange","red","pink","blue","purple"],"door_color_assignment":["white","black"],"door_generator_assignment":[1,0],"goal":2,"start":10,"action_noise":0.15,"location_history":"[10,4,5,11,10,9,3,4,5,11,5,11,10,4,10,9,3,9,8,2]","action_history":"[1,1,1,0,0,0,0,0,0,1,1,0,1,1,0,1,0,0,1]","door_history":"[0,0,0,1,1,1,1,1,1,0,0,1,0,0,1,0,1,1,0]","location_rts":"[19381,796,3648,693,772,944,7175,757,974,786,547,867,1091,713,836,6418,1398,726,1001]","trial_type":"two-door-navigation","trial_index":5,"time_elapsed":316668,"internal_node_id":"0.0-2.0-3.0"},{"group":"dihedral group of order 12","room_assignment":["brown","grey","yellow","olive","green","cyan","ivory","orange","red","pink","blue","purple"],"door_color_assignment":["white","black"],"door_generator_assignment":[1,0],"goal":5,"start":2,"action_noise":0.15,"location_history":"[2,3,9,8,2,8,7,1,7,6,11,10,4,10,9,3,4,10,4,10,9,8,7,6,0,6,0,1,7,6,11,5]","action_history":"[1,0,0,1,1,0,1,1,0,0,0,1,1,0,0,0,1,1,1,0,0,0,0,1,1,1,0,1,0,0,1]","door_history":"[0,1,1,0,0,1,0,0,1,1,1,0,0,1,1,1,0,0,0,1,1,1,1,0,0,0,1,0,1,1,0]","location_rts":"[14020,1345,1977,890,812,1057,1036,800,1022,713,710,957,1291,1587,725,2139,1166,768,1596,999,715,2265,888,1147,926,1690,492,1700,782,958,645]","trial_type":"two-door-navigation","trial_index":6,"time_elapsed":403608,"internal_node_id":"0.0-2.0-4.0"},{"group":"dihedral group of order 12","room_assignment":["brown","grey","yellow","olive","green","cyan","ivory","orange","red","pink","blue","purple"],"door_color_assignment":["white","black"],"door_generator_assignment":[1,0],"goal":11,"start":5,"action_noise":0.15,"location_history":"[5,11]","action_history":"[1]","door_history":"[0]","location_rts":"[2003]","trial_type":"two-door-navigation","trial_index":7,"time_elapsed":410267,"internal_node_id":"0.0-2.0-5.0"},{"group":"dihedral group of order 12","room_assignment":["brown","grey","yellow","olive","green","cyan","ivory","orange","red","pink","blue","purple"],"door_color_assignment":["white","black"],"door_generator_assignment":[1,0],"goal":6,"start":11,"action_noise":0.15,"location_history":"[11,10,9,8,2,3,9,8,2,8,7,1,2,8,7,6]","action_history":"[0,0,1,1,0,1,0,1,1,0,0,0,1,1,0]","door_history":"[1,1,0,0,1,0,1,0,0,1,1,1,0,0,1]","location_rts":"[2947,1089,953,547,851,411,965,769,515,694,604,510,792,584,1057]","trial_type":"two-door-navigation","trial_index":8,"time_elapsed":444387,"internal_node_id":"0.0-2.0-6.0"},{"group":"dihedral group of order 12","room_assignment":["brown","grey","yellow","olive","green","cyan","ivory","orange","red","pink","blue","purple"],"door_color_assignment":["white","black"],"door_generator_assignment":[1,0],"goal":3,"start":6,"action_noise":0.15,"location_history":"[6,11,10,4,10,9,8,2,8,7,1,2,8,7,1,7,6,0,1,2,8,7,1,7,6,0,1,2,3]","action_history":"[0,0,1,1,0,0,1,1,0,1,0,1,0,1,1,0,0,0,0,1,0,1,1,1,1,0,0,0]","door_history":"[1,1,0,0,1,1,0,0,1,0,1,0,1,0,0,1,1,1,1,0,1,0,0,0,0,1,1,1]","location_rts":"[3169,1217,744,2088,1010,1023,798,1043,783,645,900,712,797,688,668,1005,1356,1028,756,951,992,1347,976,684,869,1082,815,696]","trial_type":"two-door-navigation","trial_index":9,"time_elapsed":511259,"internal_node_id":"0.0-2.0-7.0"},{"group":"dihedral group of order 12","room_assignment":["brown","grey","yellow","olive","green","cyan","ivory","orange","red","pink","blue","purple"],"door_color_assignment":["white","black"],"door_generator_assignment":[1,0],"goal":8,"start":3,"action_noise":0.15,"location_history":"[3,9,8]","action_history":"[0,0]","door_history":"[1,1]","location_rts":"[3801,890]","trial_type":"two-door-navigation","trial_index":10,"time_elapsed":522028,"internal_node_id":"0.0-2.0-8.0"},{"group":"dihedral group of order 12","room_assignment":["brown","grey","yellow","olive","green","cyan","ivory","orange","red","pink","blue","purple"],"door_color_assignment":["white","black"],"door_generator_assignment":[1,0],"goal":1,"start":8,"action_noise":0.15,"location_history":"[8,2,8,7,1]","action_history":"[1,1,0,0]","door_history":"[0,0,1,1]","location_rts":"[2601,627,826,858]","trial_type":"two-door-navigation","trial_index":11,"time_elapsed":534958,"internal_node_id":"0.0-2.0-9.0"},{"group":"dihedral group of order 12","room_assignment":["brown","grey","yellow","olive","green","cyan","ivory","orange","red","pink","blue","purple"],"door_color_assignment":["white","black"],"door_generator_assignment":[1,0],"goal":7,"start":1,"action_noise":0.15,"location_history":"[1,7]","action_history":"[1]","door_history":"[0]","location_rts":"[2869]","trial_type":"two-door-navigation","trial_index":12,"time_elapsed":542952,"internal_node_id":"0.0-2.0-10.0"},{"group":"dihedral group of order 12","room_assignment":["brown","grey","yellow","olive","green","cyan","ivory","orange","red","pink","blue","purple"],"door_color_assignment":["white","black"],"door_generator_assignment":[1,0],"goal":5,"start":7,"action_noise":0.15,"location_history":"[7,6,0,1,7,6,0,6,11,5]","action_history":"[0,1,0,1,0,1,1,0,0]","door_history":"[1,0,1,0,1,0,0,1,1]","location_rts":"[6633,857,944,755,849,749,685,1057,1695]","trial_type":"two-door-navigation","trial_index":13,"time_elapsed":572877,"internal_node_id":"0.0-2.0-11.0"},{"group":"dihedral group of order 12","room_assignment":["brown","grey","yellow","olive","green","cyan","ivory","orange","red","pink","blue","purple"],"door_color_assignment":["white","black"],"door_generator_assignment":[1,0],"goal":8,"start":5,"action_noise":0.15,"location_history":"[5,11,10,4,10,9,3,4,5,11,10,9,3,9,3,9,8]","action_history":"[1,1,1,1,0,1,0,0,1,0,0,1,1,1,0,0]","door_history":"[0,0,0,0,1,0,1,1,0,1,1,0,0,0,1,1]","location_rts":"[2149,877,749,630,1125,1088,920,1198,605,733,648,798,712,568,535,671]","trial_type":"two-door-navigation","trial_index":14,"time_elapsed":610561,"internal_node_id":"0.0-2.0-12.0"},{"group":"dihedral group of order 12","room_assignment":["brown","grey","yellow","olive","green","cyan","ivory","orange","red","pink","blue","purple"],"door_color_assignment":["white","black"],"door_generator_assignment":[1,0],"goal":11,"start":8,"action_noise":0.15,"location_history":"[8,2,3,4,5,11]","action_history":"[0,0,0,0,1]","door_history":"[1,1,1,1,0]","location_rts":"[5924,582,719,1116,720]","trial_type":"two-door-navigation","trial_index":15,"time_elapsed":630688,"internal_node_id":"0.0-2.0-13.0"},{"group":"dihedral group of order 12","room_assignment":["brown","grey","yellow","olive","green","cyan","ivory","orange","red","pink","blue","purple"],"door_color_assignment":["white","black"],"door_generator_assignment":[1,0],"goal":6,"start":11,"action_noise":0.15,"location_history":"[11,10,9,3,4,5,0,6]","action_history":"[1,0,1,0,1,0,1]","door_history":"[0,1,0,1,0,1,0]","location_rts":"[2065,775,792,780,709,668,699]","trial_type":"two-door-navigation","trial_index":16,"time_elapsed":650004,"internal_node_id":"0.0-2.0-14.0"},{"group":"dihedral group of order 12","room_assignment":["brown","grey","yellow","olive","green","cyan","ivory","orange","red","pink","blue","purple"],"door_color_assignment":["white","black"],"door_generator_assignment":[1,0],"goal":7,"start":6,"action_noise":0.15,"location_history":"[6,11,10,9,3,9,8,7]","action_history":"[0,0,0,1,1,0,0]","door_history":"[1,1,1,0,0,1,1]","location_rts":"[2211,607,612,1174,476,674,772]","trial_type":"two-door-navigation","trial_index":17,"time_elapsed":668885,"internal_node_id":"0.0-2.0-15.0"},{"group":"dihedral group of order 12","room_assignment":["brown","grey","yellow","olive","green","cyan","ivory","orange","red","pink","blue","purple"],"door_color_assignment":["white","black"],"door_generator_assignment":[1,0],"goal":10,"start":7,"action_noise":0.15,"location_history":"[7,6,11,10]","action_history":"[0,0,0]","door_history":"[1,1,1]","location_rts":"[1452,598,765]","trial_type":"two-door-navigation","trial_index":18,"time_elapsed":679379,"internal_node_id":"0.0-2.0-16.0"},{"group":"dihedral group of order 12","room_assignment":["brown","grey","yellow","olive","green","cyan","ivory","orange","red","pink","blue","purple"],"door_color_assignment":["white","black"],"door_generator_assignment":[1,0],"goal":0,"start":10,"action_noise":0.15,"location_history":"[10,9,3,4,5,11,5,11,10,4,10,9,8,2,8,7,6,11,5,11,10,9,3,4,5,0]","action_history":"[1,1,0,0,1,1,1,0,0,1,0,0,0,1,0,0,0,1,1,0,0,1,0,1,0]","door_history":"[0,0,1,1,0,0,0,1,1,0,1,1,1,0,1,1,1,0,0,1,1,0,1,0,1]","location_rts":"[1875,525,1121,861,982,633,674,781,705,781,918,1042,1211,700,826,350,711,771,547,712,579,600,1268,974,683]","trial_type":"two-door-navigation","trial_index":19,"time_elapsed":735396,"internal_node_id":"0.0-2.0-17.0"},{"group":"dihedral group of order 12","room_assignment":["brown","grey","yellow","olive","green","cyan","ivory","orange","red","pink","blue","purple"],"door_color_assignment":["white","black"],"door_generator_assignment":[1,0],"goal":9,"start":0,"action_noise":0.15,"location_history":"[0,6,0,1,2,8,2,3,9]","action_history":"[1,1,1,0,0,1,0,0]","door_history":"[0,0,0,1,1,0,1,1]","location_rts":"[1940,446,480,504,384,560,926,416]","trial_type":"two-door-navigation","trial_index":20,"time_elapsed":753947,"internal_node_id":"0.0-2.0-18.0"},{"group":"dihedral group of order 12","room_assignment":["brown","grey","yellow","olive","green","cyan","ivory","orange","red","pink","blue","purple"],"door_color_assignment":["white","black"],"door_generator_assignment":[1,0],"goal":4,"start":9,"action_noise":0.15,"location_history":"[9,8,7,6,11,10,9,3,4]","action_history":"[0,0,0,0,0,0,0,0]","door_history":"[1,1,1,1,1,1,1,1]","location_rts":"[1340,472,690,550,674,446,451,763]","trial_type":"two-door-navigation","trial_index":21,"time_elapsed":772553,"internal_node_id":"0.0-2.0-19.0"},{"group":"dihedral group of order 12","room_assignment":["brown","grey","yellow","olive","green","cyan","ivory","orange","red","pink","blue","purple"],"door_color_assignment":["white","black"],"door_generator_assignment":[1,0],"goal":2,"start":4,"action_noise":0.15,"location_history":"[4,5,11,5,0,1,7,1,7,6,0,6,11,5,11,10,9,3,4,5,0,1,7,1,7,6,11,10,9,8,7,1,2]","action_history":"[0,1,1,0,0,1,1,1,0,1,1,0,1,1,0,0,1,0,0,0,0,1,0,1,1,0,0,0,0,0,0,0]","door_history":"[1,0,0,1,1,0,0,0,1,0,0,1,0,0,1,1,0,1,1,1,1,0,1,0,0,1,1,1,1,1,1,1]","location_rts":"[1340,1030,593,880,432,669,574,672,979,659,579,924,1104,694,713,666,703,637,439,516,661,1057,1320,643,624,883,467,414,512,429,461,439]","trial_type":"two-door-navigation","trial_index":22,"time_elapsed":835478,"internal_node_id":"0.0-2.0-20.0"},{"group":"dihedral group of order 12","room_assignment":["brown","grey","yellow","olive","green","cyan","ivory","orange","red","pink","blue","purple"],"door_color_assignment":["white","black"],"door_generator_assignment":[1,0],"goal":1,"start":2,"action_noise":0.15,"location_history":"[2,8,7,1]","action_history":"[1,0,0]","door_history":"[0,1,1]","location_rts":"[1569,690,617]","trial_type":"two-door-navigation","trial_index":23,"time_elapsed":845347,"internal_node_id":"0.0-2.0-21.0"},{"group":"dihedral group of order 12","room_assignment":["brown","grey","yellow","olive","green","cyan","ivory","orange","red","pink","blue","purple"],"door_color_assignment":["white","black"],"door_generator_assignment":[1,0],"goal":3,"start":1,"action_noise":0.15,"location_history":"[1,2,3]","action_history":"[0,0]","door_history":"[1,1]","location_rts":"[1523,589]","trial_type":"two-door-navigation","trial_index":24,"time_elapsed":853318,"internal_node_id":"0.0-2.0-22.0"},{"group":"dihedral group of order 12","room_assignment":["brown","grey","yellow","olive","green","cyan","ivory","orange","red","pink","blue","purple"],"door_color_assignment":["white","black"],"door_generator_assignment":[1,0],"goal":7,"start":3,"action_noise":0.15,"location_history":"[3,4,5,11,10,9,8,7]","action_history":"[0,0,1,0,0,0,0]","door_history":"[1,1,0,1,1,1,1]","location_rts":"[1586,864,961,820,363,486,1097]","trial_type":"two-door-navigation","trial_index":25,"time_elapsed":870742,"internal_node_id":"0.0-2.0-23.0"},{"group":"dihedral group of order 12","room_assignment":["brown","grey","yellow","olive","green","cyan","ivory","orange","red","pink","blue","purple"],"door_color_assignment":["white","black"],"door_generator_assignment":[1,0],"goal":6,"start":7,"action_noise":0.15,"location_history":"[7,1,7,1,2,8,2,3,9,8,2,8,7,6]","action_history":"[1,1,0,0,1,1,0,0,0,1,1,0,0]","door_history":"[0,0,1,1,0,0,1,1,1,0,0,1,1]","location_rts":"[1591,519,835,710,754,842,882,588,542,722,1131,671,584]","trial_type":"two-door-navigation","trial_index":26,"time_elapsed":900641,"internal_node_id":"0.0-2.0-24.0"},{"group":"dihedral group of order 12","room_assignment":["brown","grey","yellow","olive","green","cyan","ivory","orange","red","pink","blue","purple"],"door_color_assignment":["white","black"],"door_generator_assignment":[1,0],"goal":2,"start":6,"action_noise":0.15,"location_history":"[6,0,6,11,10,4,10,4,5,11,10,4,5,0,6,0,1,2]","action_history":"[1,1,1,0,1,1,1,0,1,0,1,0,0,1,1,0,0]","door_history":"[0,0,0,1,0,0,0,1,0,1,0,1,1,0,0,1,1]","location_rts":"[10137,889,1067,869,871,608,670,694,1209,1165,706,685,482,704,931,642,746]","trial_type":"two-door-navigation","trial_index":27,"time_elapsed":946105,"internal_node_id":"0.0-2.0-25.0"},{"group":"dihedral group of order 12","room_assignment":["brown","grey","yellow","olive","green","cyan","ivory","orange","red","pink","blue","purple"],"door_color_assignment":["white","black"],"door_generator_assignment":[1,0],"goal":8,"start":2,"action_noise":0.15,"location_history":"[2,3,4,5,0,1,2,8]","action_history":"[0,0,0,0,0,0,1]","door_history":"[1,1,1,1,1,1,0]","location_rts":"[1433,452,498,529,453,468,862]","trial_type":"two-door-navigation","trial_index":28,"time_elapsed":963015,"internal_node_id":"0.0-2.0-26.0"},{"group":"dihedral group of order 12","room_assignment":["brown","grey","yellow","olive","green","cyan","ivory","orange","red","pink","blue","purple"],"door_color_assignment":["white","black"],"door_generator_assignment":[1,0],"goal":0,"start":8,"action_noise":0.15,"location_history":"[8,7,6,0]","action_history":"[0,0,1]","door_history":"[1,1,0]","location_rts":"[1935,957,756]","trial_type":"two-door-navigation","trial_index":29,"time_elapsed":973497,"internal_node_id":"0.0-2.0-27.0"},{"group":"dihedral group of order 12","room_assignment":["brown","grey","yellow","olive","green","cyan","ivory","orange","red","pink","blue","purple"],"door_color_assignment":["white","black"],"door_generator_assignment":[1,0],"goal":3,"start":0,"action_noise":0.15,"location_history":"[0,6,0,1,2,3]","action_history":"[1,0,0,0,0]","door_history":"[0,1,1,1,1]","location_rts":"[1247,1096,447,478,447]","trial_type":"two-door-navigation","trial_index":30,"time_elapsed":986378,"internal_node_id":"0.0-2.0-28.0"},{"group":"dihedral group of order 12","room_assignment":["brown","grey","yellow","olive","green","cyan","ivory","orange","red","pink","blue","purple"],"door_color_assignment":["white","black"],"door_generator_assignment":[1,0],"goal":4,"start":3,"action_noise":0.15,"location_history":"[3,4]","action_history":"[0]","door_history":"[1]","location_rts":"[1544]","trial_type":"two-door-navigation","trial_index":31,"time_elapsed":992531,"internal_node_id":"0.0-2.0-29.0"},{"group":"dihedral group of order 12","room_assignment":["brown","grey","yellow","olive","green","cyan","ivory","orange","red","pink","blue","purple"],"door_color_assignment":["white","black"],"door_generator_assignment":[1,0],"goal":10,"start":4,"action_noise":0.15,"location_history":"[4,5,0,1,2,3,4,5,11,10]","action_history":"[0,0,0,0,0,0,0,0,0]","door_history":"[1,1,1,1,1,1,1,1,1]","location_rts":"[1175,493,429,405,402,404,1074,784,1242]","trial_type":"two-door-navigation","trial_index":32,"time_elapsed":1012957,"internal_node_id":"0.0-2.0-30.0"},{"group":"dihedral group of order 12","room_assignment":["brown","grey","yellow","olive","green","cyan","ivory","orange","red","pink","blue","purple"],"door_color_assignment":["white","black"],"door_generator_assignment":[1,0],"goal":11,"start":10,"action_noise":0.15,"location_history":"[10,4,5,0,1,2,8,7,6,11]","action_history":"[1,0,0,0,0,0,0,0,0]","door_history":"[0,1,1,1,1,1,1,1,1]","location_rts":"[1686,741,655,529,455,390,503,500,500]","trial_type":"two-door-navigation","trial_index":33,"time_elapsed":1033019,"internal_node_id":"0.0-2.0-31.0"},{"group":"dihedral group of order 12","room_assignment":["brown","grey","yellow","olive","green","cyan","ivory","orange","red","pink","blue","purple"],"door_color_assignment":["white","black"],"door_generator_assignment":[1,0],"goal":1,"start":11,"action_noise":0.15,"location_history":"[11,5,11,10,4,5,11,10,4,10,4,5,0,1]","action_history":"[1,1,0,1,1,0,0,0,1,0,0,0,0]","door_history":"[0,0,1,0,0,1,1,1,0,1,1,1,1]","location_rts":"[1355,593,759,592,691,874,839,794,1062,1154,541,682,480]","trial_type":"two-door-navigation","trial_index":34,"time_elapsed":1061556,"internal_node_id":"0.0-2.0-32.0"},{"group":"dihedral group of order 12","room_assignment":["brown","grey","yellow","olive","green","cyan","ivory","orange","red","pink","blue","purple"],"door_color_assignment":["white","black"],"door_generator_assignment":[1,0],"goal":5,"start":1,"action_noise":0.15,"location_history":"[1,7,1,7,6,0,6,0,6,11,10,9,3,4,10,9,8,2,3,9,3,9,8,7,6,0,6,11,10,4,5]","action_history":"[1,1,1,0,0,1,1,1,0,0,0,1,0,1,0,1,1,0,0,1,1,0,0,0,0,1,0,0,1,1]","door_history":"[0,0,0,1,1,0,0,0,1,1,1,0,1,0,1,0,0,1,1,0,0,1,1,1,1,0,1,1,0,0]","location_rts":"[1898,489,464,559,568,851,553,578,878,494,724,724,682,647,695,610,546,638,508,658,328,1266,499,561,571,1151,776,342,715,861]","trial_type":"two-door-navigation","trial_index":35,"time_elapsed":1119746,"internal_node_id":"0.0-2.0-33.0"},{"group":"dihedral group of order 12","room_assignment":["brown","grey","yellow","olive","green","cyan","ivory","orange","red","pink","blue","purple"],"door_color_assignment":["white","black"],"door_generator_assignment":[1,0],"goal":9,"start":5,"action_noise":0.15,"location_history":"[5,11,5,0,1,7,6,0,6,0,6,11,10,4,10,9]","action_history":"[1,1,0,0,1,0,1,1,1,0,0,0,1,1,0]","door_history":"[0,0,1,1,0,1,0,0,0,1,1,1,0,0,1]","location_rts":"[1422,1677,687,532,1015,686,690,554,413,402,619,442,985,475,624]","trial_type":"two-door-navigation","trial_index":36,"time_elapsed":1151855,"internal_node_id":"0.0-2.0-34.0"},{"view_history":"[{\"page_index\":0,\"viewing_time\":2609}]","rt":2610,"trial_type":"instructions","trial_index":37,"time_elapsed":1155465,"internal_node_id":"0.0-3.0"},{"view_history":"[{\"page_index\":0,\"viewing_time\":2657},{\"page_index\":1,\"viewing_time\":51780}]","rt":54438,"trial_type":"instructions","trial_index":38,"time_elapsed":1210969,"internal_node_id":"0.0-4.0"},{"group":"dihedral group of order 12","fractal_assignment":["../images/grn_red.png","../images/wht_red.png","../images/ylw_slt.png","../images/ylw_pnk.png","../images/cyn_red.png","../images/blu_wht.png","../images/grn_prp.png","../images/grn_blu.png","../images/gry_blk.png","../images/red_prp.png","../images/pnk_blu.png","../images/org_blu.png"],"mutagen_generator_assignment":[0,1],"goal":4,"start":0,"action_noise":0.15,"location_history":"[0,1,7,1,7,6,0,1,7,6,0,6,0,1,2,3,4]","action_history":"[0,1,1,1,0,1,0,0,1,1,1,1,0,0,0,0]","mutagen_history":"[0,1,1,1,0,1,0,0,1,1,1,1,0,0,0,0]","location_rts":"[6746,2382,1756,1159,1644,1277,2270,728,901,1720,981,839,1993,877,1345,942]","trial_type":"fractal-mutation","trial_index":39,"time_elapsed":1273121,"internal_node_id":"0.0-5.0-0.0"},{"group":"dihedral group of order 12","fractal_assignment":["../images/grn_red.png","../images/wht_red.png","../images/ylw_slt.png","../images/ylw_pnk.png","../images/cyn_red.png","../images/blu_wht.png","../images/grn_prp.png","../images/grn_blu.png","../images/gry_blk.png","../images/red_prp.png","../images/pnk_blu.png","../images/org_blu.png"],"mutagen_generator_assignment":[0,1],"goal":9,"start":4,"action_noise":0.15,"location_history":"[4,10,9]","action_history":"[1,1]","mutagen_history":"[1,1]","location_rts":"[2209,1249]","trial_type":"fractal-mutation","trial_index":40,"time_elapsed":1284272,"internal_node_id":"0.0-5.0-1.0"},{"group":"dihedral group of order 12","fractal_assignment":["../images/grn_red.png","../images/wht_red.png","../images/ylw_slt.png","../images/ylw_pnk.png","../images/cyn_red.png","../images/blu_wht.png","../images/grn_prp.png","../images/grn_blu.png","../images/gry_blk.png","../images/red_prp.png","../images/pnk_blu.png","../images/org_blu.png"],"mutagen_generator_assignment":[0,1],"goal":10,"start":9,"action_noise":0.15,"location_history":"[9,3,9,3,9,8,7,1,2,8,7,1,2,3,9,3,4,5,11,5,0,1,2,3,9,8,7,6,0,6,11,10]","action_history":"[1,1,1,1,0,0,0,0,1,0,1,0,0,1,1,0,0,0,1,0,0,0,1,1,1,0,0,1,1,0,0]","mutagen_history":"[1,1,1,1,0,0,0,0,1,0,1,0,0,1,1,0,0,0,1,0,0,0,1,1,1,0,0,1,1,0,0]","location_rts":"[2223,613,1426,663,401,1062,681,875,547,719,991,584,927,722,1415,742,938,596,776,672,598,776,586,652,641,610,609,831,891,1349,809]","trial_type":"fractal-mutation","trial_index":41,"time_elapsed":1371362,"internal_node_id":"0.0-5.0-2.0"},{"group":"dihedral group of order 12","fractal_assignment":["../images/grn_red.png","../images/wht_red.png","../images/ylw_slt.png","../images/ylw_pnk.png","../images/cyn_red.png","../images/blu_wht.png","../images/grn_prp.png","../images/grn_blu.png","../images/gry_blk.png","../images/red_prp.png","../images/pnk_blu.png","../images/org_blu.png"],"mutagen_generator_assignment":[0,1],"goal":2,"start":10,"action_noise":0.15,"location_history":"[10,4,10,4,5,11,5,0,6,0,6,11,10,4,5,0,6,11,10,9,8,2]","action_history":"[1,1,1,0,1,1,0,1,0,1,1,0,1,0,0,0,0,0,0,0,1]","mutagen_history":"[1,1,1,0,1,1,0,1,0,1,1,0,1,0,0,0,0,0,0,0,1]","location_rts":"[1720,555,902,497,797,536,519,526,936,953,611,833,595,669,849,193,631,536,628,715,1025]","trial_type":"fractal-mutation","trial_index":42,"time_elapsed":1427635,"internal_node_id":"0.0-5.0-3.0"},{"group":"dihedral group of order 12","fractal_assignment":["../images/grn_red.png","../images/wht_red.png","../images/ylw_slt.png","../images/ylw_pnk.png","../images/cyn_red.png","../images/blu_wht.png","../images/grn_prp.png","../images/grn_blu.png","../images/gry_blk.png","../images/red_prp.png","../images/pnk_blu.png","../images/org_blu.png"],"mutagen_generator_assignment":[0,1],"goal":5,"start":2,"action_noise":0.15,"location_history":"[2,8,7,1,7,6,0,6,11,10,9,3,4,5]","action_history":"[1,1,1,1,0,1,1,0,0,0,1,0,0]","mutagen_history":"[1,1,1,1,0,1,1,0,0,0,1,0,0]","location_rts":"[2391,1381,707,650,678,712,682,757,4515,728,462,581,783]","trial_type":"fractal-mutation","trial_index":43,"time_elapsed":1474014,"internal_node_id":"0.0-5.0-4.0"},{"group":"dihedral group of order 12","fractal_assignment":["../images/grn_red.png","../images/wht_red.png","../images/ylw_slt.png","../images/ylw_pnk.png","../images/cyn_red.png","../images/blu_wht.png","../images/grn_prp.png","../images/grn_blu.png","../images/gry_blk.png","../images/red_prp.png","../images/pnk_blu.png","../images/org_blu.png"],"mutagen_generator_assignment":[0,1],"goal":11,"start":5,"action_noise":0.15,"location_history":"[5,11]","action_history":"[1]","mutagen_history":"[1]","location_rts":"[1814]","trial_type":"fractal-mutation","trial_index":44,"time_elapsed":1481204,"internal_node_id":"0.0-5.0-5.0"},{"group":"dihedral group of order 12","fractal_assignment":["../images/grn_red.png","../images/wht_red.png","../images/ylw_slt.png","../images/ylw_pnk.png","../images/cyn_red.png","../images/blu_wht.png","../images/grn_prp.png","../images/grn_blu.png","../images/gry_blk.png","../images/red_prp.png","../images/pnk_blu.png","../images/org_blu.png"],"mutagen_generator_assignment":[0,1],"goal":6,"start":11,"action_noise":0.15,"location_history":"[11,10,9,3,4,5,0,6]","action_history":"[0,0,1,0,1,0,1]","mutagen_history":"[0,0,1,0,1,0,1]","location_rts":"[2276,612,562,636,510,552,722]","trial_type":"fractal-mutation","trial_index":45,"time_elapsed":1503661,"internal_node_id":"0.0-5.0-6.0"},{"group":"dihedral group of order 12","fractal_assignment":["../images/grn_red.png","../images/wht_red.png","../images/ylw_slt.png","../images/ylw_pnk.png","../images/cyn_red.png","../images/blu_wht.png","../images/grn_prp.png","../images/grn_blu.png","../images/gry_blk.png","../images/red_prp.png","../images/pnk_blu.png","../images/org_blu.png"],"mutagen_generator_assignment":[0,1],"goal":3,"start":6,"action_noise":0.15,"location_history":"[6,11,10,9,3]","action_history":"[0,0,0,1]","mutagen_history":"[0,0,0,1]","location_rts":"[1980,472,494,610]","trial_type":"fractal-mutation","trial_index":46,"time_elapsed":1519292,"internal_node_id":"0.0-5.0-7.0"},{"group":"dihedral group of order 12","fractal_assignment":["../images/grn_red.png","../images/wht_red.png","../images/ylw_slt.png","../images/ylw_pnk.png","../images/cyn_red.png","../images/blu_wht.png","../images/grn_prp.png","../images/grn_blu.png","../images/gry_blk.png","../images/red_prp.png","../images/pnk_blu.png","../images/org_blu.png"],"mutagen_generator_assignment":[0,1],"goal":8,"start":3,"action_noise":0.15,"location_history":"[3,9,3,4,10,4,5,0,6,11,10,9,3,9,3,4,5,11,5,11,5,11,10,9,8]","action_history":"[1,1,0,1,0,0,0,1,0,0,0,1,1,1,0,1,1,0,1,1,1,0,0,0]","mutagen_history":"[1,1,0,1,0,0,0,1,0,0,0,1,1,1,0,1,1,0,1,1,1,0,0,0]","location_rts":"[1245,427,641,560,616,737,618,519,608,565,611,509,484,1216,648,4701,1261,765,956,462,886,641,617,635]","trial_type":"fractal-mutation","trial_index":47,"time_elapsed":1588424,"internal_node_id":"0.0-5.0-8.0"},{"group":"dihedral group of order 12","fractal_assignment":["../images/grn_red.png","../images/wht_red.png","../images/ylw_slt.png","../images/ylw_pnk.png","../images/cyn_red.png","../images/blu_wht.png","../images/grn_prp.png","../images/grn_blu.png","../images/gry_blk.png","../images/red_prp.png","../images/pnk_blu.png","../images/org_blu.png"],"mutagen_generator_assignment":[0,1],"goal":1,"start":8,"action_noise":0.15,"location_history":"[8,2,3,9,8,2,3,4,10,9,3,9,3,4,10,9,8,7,1]","action_history":"[1,0,1,1,0,0,0,0,0,1,1,1,0,0,0,0,0,1]","mutagen_history":"[1,0,1,1,0,0,0,0,0,1,1,1,0,0,0,0,0,1]","location_rts":"[3443,1751,1009,726,826,698,779,493,572,831,553,556,571,4414,2831,643,909,676]","trial_type":"fractal-mutation","trial_index":48,"time_elapsed":1648093,"internal_node_id":"0.0-5.0-9.0"},{"group":"dihedral group of order 12","fractal_assignment":["../images/grn_red.png","../images/wht_red.png","../images/ylw_slt.png","../images/ylw_pnk.png","../images/cyn_red.png","../images/blu_wht.png","../images/grn_prp.png","../images/grn_blu.png","../images/gry_blk.png","../images/red_prp.png","../images/pnk_blu.png","../images/org_blu.png"],"mutagen_generator_assignment":[0,1],"goal":7,"start":1,"action_noise":0.15,"location_history":"[1,2,3,9,8,7]","action_history":"[0,0,0,0,0]","mutagen_history":"[0,0,0,0,0]","location_rts":"[2424,935,1049,512,542]","trial_type":"fractal-mutation","trial_index":49,"time_elapsed":1667097,"internal_node_id":"0.0-5.0-10.0"},{"group":"dihedral group of order 12","fractal_assignment":["../images/grn_red.png","../images/wht_red.png","../images/ylw_slt.png","../images/ylw_pnk.png","../images/cyn_red.png","../images/blu_wht.png","../images/grn_prp.png","../images/grn_blu.png","../images/gry_blk.png","../images/red_prp.png","../images/pnk_blu.png","../images/org_blu.png"],"mutagen_generator_assignment":[0,1],"goal":5,"start":7,"action_noise":0.15,"location_history":"[7,1,7,6,0,1,2,3,4,5]","action_history":"[1,1,0,1,1,0,0,0,1]","mutagen_history":"[1,1,0,1,1,0,0,0,1]","location_rts":"[1571,612,556,797,582,514,574,413,646]","trial_type":"fractal-mutation","trial_index":50,"time_elapsed":1693778,"internal_node_id":"0.0-5.0-11.0"},{"group":"dihedral group of order 12","fractal_assignment":["../images/grn_red.png","../images/wht_red.png","../images/ylw_slt.png","../images/ylw_pnk.png","../images/cyn_red.png","../images/blu_wht.png","../images/grn_prp.png","../images/grn_blu.png","../images/gry_blk.png","../images/red_prp.png","../images/pnk_blu.png","../images/org_blu.png"],"mutagen_generator_assignment":[0,1],"goal":8,"start":5,"action_noise":0.15,"location_history":"[5,0,1,2,8]","action_history":"[0,0,0,1]","mutagen_history":"[0,0,0,1]","location_rts":"[2877,585,463,574]","trial_type":"fractal-mutation","trial_index":51,"time_elapsed":1708353,"internal_node_id":"0.0-5.0-12.0"},{"group":"dihedral group of order 12","fractal_assignment":["../images/grn_red.png","../images/wht_red.png","../images/ylw_slt.png","../images/ylw_pnk.png","../images/cyn_red.png","../images/blu_wht.png","../images/grn_prp.png","../images/grn_blu.png","../images/gry_blk.png","../images/red_prp.png","../images/pnk_blu.png","../images/org_blu.png"],"mutagen_generator_assignment":[0,1],"goal":11,"start":8,"action_noise":0.15,"location_history":"[8,2,3,4,5,11]","action_history":"[0,0,0,0,1]","mutagen_history":"[0,0,0,0,1]","location_rts":"[2132,776,632,683,858]","trial_type":"fractal-mutation","trial_index":52,"time_elapsed":1726453,"internal_node_id":"0.0-5.0-13.0"},{"group":"dihedral group of order 12","fractal_assignment":["../images/grn_red.png","../images/wht_red.png","../images/ylw_slt.png","../images/ylw_pnk.png","../images/cyn_red.png","../images/blu_wht.png","../images/grn_prp.png","../images/grn_blu.png","../images/gry_blk.png","../images/red_prp.png","../images/pnk_blu.png","../images/org_blu.png"],"mutagen_generator_assignment":[0,1],"goal":6,"start":11,"action_noise":0.15,"location_history":"[11,10,4,5,0,6]","action_history":"[0,0,0,0,1]","mutagen_history":"[0,0,0,0,1]","location_rts":"[1422,567,300,496,1252]","trial_type":"fractal-mutation","trial_index":53,"time_elapsed":1743453,"internal_node_id":"0.0-5.0-14.0"},{"group":"dihedral group of order 12","fractal_assignment":["../images/grn_red.png","../images/wht_red.png","../images/ylw_slt.png","../images/ylw_pnk.png","../images/cyn_red.png","../images/blu_wht.png","../images/grn_prp.png","../images/grn_blu.png","../images/gry_blk.png","../images/red_prp.png","../images/pnk_blu.png","../images/org_blu.png"],"mutagen_generator_assignment":[0,1],"goal":7,"start":6,"action_noise":0.15,"location_history":"[6,11,10,9,8,7]","action_history":"[0,0,0,0,1]","mutagen_history":"[0,0,0,0,1]","location_rts":"[1257,977,449,679,1018]","trial_type":"fractal-mutation","trial_index":54,"time_elapsed":1759386,"internal_node_id":"0.0-5.0-15.0"},{"group":"dihedral group of order 12","fractal_assignment":["../images/grn_red.png","../images/wht_red.png","../images/ylw_slt.png","../images/ylw_pnk.png","../images/cyn_red.png","../images/blu_wht.png","../images/grn_prp.png","../images/grn_blu.png","../images/gry_blk.png","../images/red_prp.png","../images/pnk_blu.png","../images/org_blu.png"],"mutagen_generator_assignment":[0,1],"goal":10,"start":7,"action_noise":0.15,"location_history":"[7,6,11,10]","action_history":"[0,0,0]","mutagen_history":"[0,0,0]","location_rts":"[666,593,525]","trial_type":"fractal-mutation","trial_index":55,"time_elapsed":1769605,"internal_node_id":"0.0-5.0-16.0"},{"group":"dihedral group of order 12","fractal_assignment":["../images/grn_red.png","../images/wht_red.png","../images/ylw_slt.png","../images/ylw_pnk.png","../images/cyn_red.png","../images/blu_wht.png","../images/grn_prp.png","../images/grn_blu.png","../images/gry_blk.png","../images/red_prp.png","../images/pnk_blu.png","../images/org_blu.png"],"mutagen_generator_assignment":[0,1],"goal":0,"start":10,"action_noise":0.15,"location_history":"[10,9,3,9,8,2,8,7,1,2,3,4,5,11,5,0]","action_history":"[0,1,1,0,1,1,0,1,0,0,0,0,0,1,0]","mutagen_history":"[0,1,1,0,1,1,0,1,0,0,0,0,0,1,0]","location_rts":"[1863,1043,1066,495,1095,1084,977,1122,630,544,1270,490,514,898,559]","trial_type":"fractal-mutation","trial_index":56,"time_elapsed":1813922,"internal_node_id":"0.0-5.0-17.0"},{"group":"dihedral group of order 12","fractal_assignment":["../images/grn_red.png","../images/wht_red.png","../images/ylw_slt.png","../images/ylw_pnk.png","../images/cyn_red.png","../images/blu_wht.png","../images/grn_prp.png","../images/grn_blu.png","../images/gry_blk.png","../images/red_prp.png","../images/pnk_blu.png","../images/org_blu.png"],"mutagen_generator_assignment":[0,1],"goal":9,"start":0,"action_noise":0.15,"location_history":"[0,1,2,3,9]","action_history":"[0,0,0,1]","mutagen_history":"[0,0,0,1]","location_rts":"[1413,425,448,1374]","trial_type":"fractal-mutation","trial_index":57,"time_elapsed":1828133,"internal_node_id":"0.0-5.0-18.0"},{"group":"dihedral group of order 12","fractal_assignment":["../images/grn_red.png","../images/wht_red.png","../images/ylw_slt.png","../images/ylw_pnk.png","../images/cyn_red.png","../images/blu_wht.png","../images/grn_prp.png","../images/grn_blu.png","../images/gry_blk.png","../images/red_prp.png","../images/pnk_blu.png","../images/org_blu.png"],"mutagen_generator_assignment":[0,1],"goal":4,"start":9,"action_noise":0.15,"location_history":"[9,8,2,3,4]","action_history":"[0,1,0,0]","mutagen_history":"[0,1,0,0]","location_rts":"[957,972,660,547]","trial_type":"fractal-mutation","trial_index":58,"time_elapsed":1842154,"internal_node_id":"0.0-5.0-19.0"},{"group":"dihedral group of order 12","fractal_assignment":["../images/grn_red.png","../images/wht_red.png","../images/ylw_slt.png","../images/ylw_pnk.png","../images/cyn_red.png","../images/blu_wht.png","../images/grn_prp.png","../images/grn_blu.png","../images/gry_blk.png","../images/red_prp.png","../images/pnk_blu.png","../images/org_blu.png"],"mutagen_generator_assignment":[0,1],"goal":2,"start":4,"action_noise":0.15,"location_history":"[4,5,0,6,11,10,4,5,0,6,11,10,9,3,4,5,11,5,11,10,4,10,4,5,11,5,11,10,4,10,9,3,9,3,9,3,4,5,0,6,0,6,0,6,11,10,4,10,9,8,2]","action_history":"[0,0,1,0,0,1,0,0,1,0,0,0,0,0,0,1,1,1,0,1,0,0,0,1,0,0,0,1,1,1,1,1,1,1,1,0,0,0,1,1,1,1,1,0,0,1,1,0,0,1]","mutagen_history":"[0,0,1,0,0,1,0,0,1,0,0,0,0,0,0,1,1,1,0,1,0,0,0,1,0,0,0,1,1,1,1,1,1,1,1,0,0,0,1,1,1,1,1,0,0,1,1,0,0,1]","location_rts":"[1043,1173,2200,443,466,1090,461,467,1224,508,350,395,402,445,657,2113,1115,844,828,532,1488,695,532,911,539,468,567,892,814,319,507,451,503,386,514,337,1350,598,947,1031,510,493,390,266,705,888,393,961,447,1114]","trial_type":"fractal-mutation","trial_index":59,"time_elapsed":1973980,"internal_node_id":"0.0-5.0-20.0"},{"group":"dihedral group of order 12","fractal_assignment":["../images/grn_red.png","../images/wht_red.png","../images/ylw_slt.png","../images/ylw_pnk.png","../images/cyn_red.png","../images/blu_wht.png","../images/grn_prp.png","../images/grn_blu.png","../images/gry_blk.png","../images/red_prp.png","../images/pnk_blu.png","../images/org_blu.png"],"mutagen_generator_assignment":[0,1],"goal":1,"start":2,"action_noise":0.15,"location_history":"[2,3,9,8,7,6,0,1]","action_history":"[0,1,1,0,0,0,0]","mutagen_history":"[0,1,1,0,0,0,0]","location_rts":"[2484,1093,1100,496,449,580,430]","trial_type":"fractal-mutation","trial_index":60,"time_elapsed":1996135,"internal_node_id":"0.0-5.0-21.0"},{"group":"dihedral group of order 12","fractal_assignment":["../images/grn_red.png","../images/wht_red.png","../images/ylw_slt.png","../images/ylw_pnk.png","../images/cyn_red.png","../images/blu_wht.png","../images/grn_prp.png","../images/grn_blu.png","../images/gry_blk.png","../images/red_prp.png","../images/pnk_blu.png","../images/org_blu.png"],"mutagen_generator_assignment":[0,1],"goal":3,"start":1,"action_noise":0.15,"location_history":"[1,7,1,2,3]","action_history":"[1,1,0,0]","mutagen_history":"[1,1,0,0]","location_rts":"[1749,1018,592,953]","trial_type":"fractal-mutation","trial_index":61,"time_elapsed":2012398,"internal_node_id":"0.0-5.0-22.0"},{"group":"dihedral group of order 12","fractal_assignment":["../images/grn_red.png","../images/wht_red.png","../images/ylw_slt.png","../images/ylw_pnk.png","../images/cyn_red.png","../images/blu_wht.png","../images/grn_prp.png","../images/grn_blu.png","../images/gry_blk.png","../images/red_prp.png","../images/pnk_blu.png","../images/org_blu.png"],"mutagen_generator_assignment":[0,1],"goal":7,"start":3,"action_noise":0.15,"location_history":"[3,4,5,0,6,11,10,4,10,9,3,9,8,2,3,9,8,7]","action_history":"[0,0,0,1,0,0,1,0,0,1,1,0,1,0,1,0,0]","mutagen_history":"[0,0,0,1,0,0,1,0,0,1,1,0,1,0,1,0,0]","location_rts":"[1875,470,411,1050,754,542,948,480,551,1135,1082,409,1243,1222,1038,1380,539]","trial_type":"fractal-mutation","trial_index":62,"time_elapsed":2060842,"internal_node_id":"0.0-5.0-23.0"},{"group":"dihedral group of order 12","fractal_assignment":["../images/grn_red.png","../images/wht_red.png","../images/ylw_slt.png","../images/ylw_pnk.png","../images/cyn_red.png","../images/blu_wht.png","../images/grn_prp.png","../images/grn_blu.png","../images/gry_blk.png","../images/red_prp.png","../images/pnk_blu.png","../images/org_blu.png"],"mutagen_generator_assignment":[0,1],"goal":6,"start":7,"action_noise":0.15,"location_history":"[7,1,7,6]","action_history":"[0,1,0]","mutagen_history":"[0,1,0]","location_rts":"[2154,960,716]","trial_type":"fractal-mutation","trial_index":63,"time_elapsed":2073597,"internal_node_id":"0.0-5.0-24.0"},{"group":"dihedral group of order 12","fractal_assignment":["../images/grn_red.png","../images/wht_red.png","../images/ylw_slt.png","../images/ylw_pnk.png","../images/cyn_red.png","../images/blu_wht.png","../images/grn_prp.png","../images/grn_blu.png","../images/gry_blk.png","../images/red_prp.png","../images/pnk_blu.png","../images/org_blu.png"],"mutagen_generator_assignment":[0,1],"goal":2,"start":6,"action_noise":0.15,"location_history":"[6,11,10,9,8,2]","action_history":"[0,0,0,0,0]","mutagen_history":"[0,0,0,0,0]","location_rts":"[1518,414,399,392,482]","trial_type":"fractal-mutation","trial_index":64,"time_elapsed":2088909,"internal_node_id":"0.0-5.0-25.0"},{"group":"dihedral group of order 12","fractal_assignment":["../images/grn_red.png","../images/wht_red.png","../images/ylw_slt.png","../images/ylw_pnk.png","../images/cyn_red.png","../images/blu_wht.png","../images/grn_prp.png","../images/grn_blu.png","../images/gry_blk.png","../images/red_prp.png","../images/pnk_blu.png","../images/org_blu.png"],"mutagen_generator_assignment":[0,1],"goal":8,"start":2,"action_noise":0.15,"location_history":"[2,3,4,5,11,10,9,8]","action_history":"[0,0,0,0,0,0,0]","mutagen_history":"[0,0,0,0,0,0,0]","location_rts":"[1008,430,435,407,542,515,475]","trial_type":"fractal-mutation","trial_index":65,"time_elapsed":2107812,"internal_node_id":"0.0-5.0-26.0"},{"group":"dihedral group of order 12","fractal_assignment":["../images/grn_red.png","../images/wht_red.png","../images/ylw_slt.png","../images/ylw_pnk.png","../images/cyn_red.png","../images/blu_wht.png","../images/grn_prp.png","../images/grn_blu.png","../images/gry_blk.png","../images/red_prp.png","../images/pnk_blu.png","../images/org_blu.png"],"mutagen_generator_assignment":[0,1],"goal":0,"start":8,"action_noise":0.15,"location_history":"[8,2,3,9,8,2,3,4,5,0]","action_history":"[1,0,1,0,1,0,0,0,0]","mutagen_history":"[1,0,1,0,1,0,0,0,0]","location_rts":"[1871,725,1050,533,1070,537,704,451,557]","trial_type":"fractal-mutation","trial_index":66,"time_elapsed":2135806,"internal_node_id":"0.0-5.0-27.0"},{"group":"dihedral group of order 12","fractal_assignment":["../images/grn_red.png","../images/wht_red.png","../images/ylw_slt.png","../images/ylw_pnk.png","../images/cyn_red.png","../images/blu_wht.png","../images/grn_prp.png","../images/grn_blu.png","../images/gry_blk.png","../images/red_prp.png","../images/pnk_blu.png","../images/org_blu.png"],"mutagen_generator_assignment":[0,1],"goal":3,"start":0,"action_noise":0.15,"location_history":"[0,1,7,6,11,10,9,8,7,6,0,1,7,6,11,10,9,8,7,6,0,1,2,8,2,8,2,8,7,1,7,1,2,3]","action_history":"[0,0,0,0,1,0,1,1,0,0,0,1,0,0,0,0,0,0,0,1,0,0,1,1,1,1,1,0,1,1,0,0,0]","mutagen_history":"[0,0,0,0,1,0,1,1,0,0,0,1,0,0,0,0,0,0,0,1,0,0,1,1,1,1,1,0,1,1,0,0,0]","location_rts":"[1687,390,424,367,1396,533,1109,1263,515,419,616,1190,416,393,339,98,519,811,457,1084,1272,1523,1010,727,473,419,340,315,1077,660,1192,558,498]","trial_type":"fractal-mutation","trial_index":67,"time_elapsed":2221702,"internal_node_id":"0.0-5.0-28.0"},{"group":"dihedral group of order 12","fractal_assignment":["../images/grn_red.png","../images/wht_red.png","../images/ylw_slt.png","../images/ylw_pnk.png","../images/cyn_red.png","../images/blu_wht.png","../images/grn_prp.png","../images/grn_blu.png","../images/gry_blk.png","../images/red_prp.png","../images/pnk_blu.png","../images/org_blu.png"],"mutagen_generator_assignment":[0,1],"goal":4,"start":3,"action_noise":0.15,"location_history":"[3,4]","action_history":"[0]","mutagen_history":"[0]","location_rts":"[1907]","trial_type":"fractal-mutation","trial_index":68,"time_elapsed":2228598,"internal_node_id":"0.0-5.0-29.0"},{"group":"dihedral group of order 12","fractal_assignment":["../images/grn_red.png","../images/wht_red.png","../images/ylw_slt.png","../images/ylw_pnk.png","../images/cyn_red.png","../images/blu_wht.png","../images/grn_prp.png","../images/grn_blu.png","../images/gry_blk.png","../images/red_prp.png","../images/pnk_blu.png","../images/org_blu.png"],"mutagen_generator_assignment":[0,1],"goal":10,"start":4,"action_noise":0.15,"location_history":"[4,5,11,5,11,10]","action_history":"[0,1,1,1,0]","mutagen_history":"[0,1,1,1,0]","location_rts":"[1694,917,961,463,437]","trial_type":"fractal-mutation","trial_index":69,"time_elapsed":2246142,"internal_node_id":"0.0-5.0-30.0"},{"group":"dihedral group of order 12","fractal_assignment":["../images/grn_red.png","../images/wht_red.png","../images/ylw_slt.png","../images/ylw_pnk.png","../images/cyn_red.png","../images/blu_wht.png","../images/grn_prp.png","../images/grn_blu.png","../images/gry_blk.png","../images/red_prp.png","../images/pnk_blu.png","../images/org_blu.png"],"mutagen_generator_assignment":[0,1],"goal":11,"start":10,"action_noise":0.15,"location_history":"[10,4,10,9,8,7,6,0,1,2,3,9,3,4,5,0,1,7,6,0,1,2,3,9,8,7,1,2,3,4,5,11]","action_history":"[1,1,0,0,0,0,1,0,0,0,1,1,0,0,0,0,1,0,1,0,0,0,1,0,0,1,1,0,0,0,1]","mutagen_history":"[1,1,0,0,0,0,1,0,0,0,1,1,0,0,0,0,1,0,1,0,0,0,1,0,0,1,1,0,0,0,1]","location_rts":"[2413,1124,542,588,563,477,725,563,467,447,804,713,529,439,678,516,469,645,525,431,486,456,774,638,653,1153,902,598,623,526,1147]","trial_type":"fractal-mutation","trial_index":70,"time_elapsed":2327460,"internal_node_id":"0.0-5.0-31.0"},{"group":"dihedral group of order 12","fractal_assignment":["../images/grn_red.png","../images/wht_red.png","../images/ylw_slt.png","../images/ylw_pnk.png","../images/cyn_red.png","../images/blu_wht.png","../images/grn_prp.png","../images/grn_blu.png","../images/gry_blk.png","../images/red_prp.png","../images/pnk_blu.png","../images/org_blu.png"],"mutagen_generator_assignment":[0,1],"goal":1,"start":11,"action_noise":0.15,"location_history":"[11,10,4,10,9,8,2,3,4,5,11,10,9,3,4,5,0,1]","action_history":"[0,1,0,0,1,1,0,0,0,1,1,0,1,0,0,0,0]","mutagen_history":"[0,1,0,0,1,1,0,0,0,1,1,0,1,0,0,0,0]","location_rts":"[1488,515,426,669,610,427,899,660,751,542,1015,789,767,479,461,400,373]","trial_type":"fractal-mutation","trial_index":71,"time_elapsed":2378218,"internal_node_id":"0.0-5.0-32.0"},{"group":"dihedral group of order 12","fractal_assignment":["../images/grn_red.png","../images/wht_red.png","../images/ylw_slt.png","../images/ylw_pnk.png","../images/cyn_red.png","../images/blu_wht.png","../images/grn_prp.png","../images/grn_blu.png","../images/gry_blk.png","../images/red_prp.png","../images/pnk_blu.png","../images/org_blu.png"],"mutagen_generator_assignment":[0,1],"goal":5,"start":1,"action_noise":0.15,"location_history":"[1,2,3,4,10,4,10,9,8,2,3,4,5]","action_history":"[0,0,0,1,1,0,0,0,1,0,0,0]","mutagen_history":"[0,0,0,1,1,0,0,0,1,0,0,0]","location_rts":"[1006,412,354,657,570,508,547,466,803,515,464,509]","trial_type":"fractal-mutation","trial_index":72,"time_elapsed":2408024,"internal_node_id":"0.0-5.0-33.0"},{"group":"dihedral group of order 12","fractal_assignment":["../images/grn_red.png","../images/wht_red.png","../images/ylw_slt.png","../images/ylw_pnk.png","../images/cyn_red.png","../images/blu_wht.png","../images/grn_prp.png","../images/grn_blu.png","../images/gry_blk.png","../images/red_prp.png","../images/pnk_blu.png","../images/org_blu.png"],"mutagen_generator_assignment":[0,1],"goal":9,"start":5,"action_noise":0.15,"location_history":"[5,11,10,4,10,9]","action_history":"[1,0,0,1,1]","mutagen_history":"[1,0,0,1,1]","location_rts":"[1582,794,644,691,481]","trial_type":"fractal-mutation","trial_index":73,"time_elapsed":2424697,"internal_node_id":"0.0-5.0-34.0"},{"view_history":"[{\"page_index\":0,\"viewing_time\":83444}]","rt":83445,"trial_type":"instructions","trial_index":74,"time_elapsed":2509142,"internal_node_id":"0.0-6.0"},{"rt":24208,"responses":"{\"Q0\":\"This was fun! Thank you for letting me be a part of your study :)\"}","trial_type":"survey-text","trial_index":75,"time_elapsed":2534359,"internal_node_id":"0.0-7.0"}]