[{"view_history":"[{\"page_index\":0,\"viewing_time\":245694},{\"page_index\":1,\"viewing_time\":9581},{\"page_index\":2,\"viewing_time\":10239},{\"page_index\":3,\"viewing_time\":29186}]","rt":294701,"trial_type":"instructions","trial_index":0,"time_elapsed":294702,"internal_node_id":"0.0-0.0"},{"view_history":"[{\"page_index\":0,\"viewing_time\":6190},{\"page_index\":1,\"viewing_time\":40343}]","rt":46534,"trial_type":"instructions","trial_index":1,"time_elapsed":342237,"internal_node_id":"0.0-1.0"},{"group":"dihedral group of order 12","room_assignment":["purple","blue","orange","yellow","grey","ivory","cyan","olive","brown","green","pink","red"],"door_color_assignment":["black","white"],"door_generator_assignment":[0,1],"goal":4,"start":0,"action_noise":0.15,"location_history":"[0,1,2,3,4]","action_history":"[0,0,0,0]","door_history":"[0,0,0,0]","location_rts":"[2185,2586,1521,1819]","trial_type":"two-door-navigation","trial_index":2,"time_elapsed":357903,"internal_node_id":"0.0-2.0-0.0"},{"group":"dihedral group of order 12","room_assignment":["purple","blue","orange","yellow","grey","ivory","cyan","olive","brown","green","pink","red"],"door_color_assignment":["black","white"],"door_generator_assignment":[0,1],"goal":9,"start":4,"action_noise":0.15,"location_history":"[4,10,4,10,4,10,4,10,4,5,0,1,2,3,4,5,11,10,4,5,0,6,11,10,9]","action_history":"[1,1,1,1,1,1,1,1,0,0,0,0,0,0,0,1,0,1,0,0,1,1,1,0]","door_history":"[1,1,1,1,1,1,1,1,0,0,0,0,0,0,0,1,0,1,0,0,1,1,1,0]","location_rts":"[3632,732,1005,521,1559,342,393,332,317,874,1047,613,450,755,882,344,1341,867,723,2019,271,1185,1189,916]","trial_type":"two-door-navigation","trial_index":3,"time_elapsed":408016,"internal_node_id":"0.0-2.0-1.0"},{"group":"dihedral group of order 12","room_assignment":["purple","blue","orange","yellow","grey","ivory","cyan","olive","brown","green","pink","red"],"door_color_assignment":["black","white"],"door_generator_assignment":[0,1],"goal":10,"start":9,"action_noise":0.15,"location_history":"[9,3,4,10]","action_history":"[0,0,1]","door_history":"[0,0,1]","location_rts":"[56278,7673,8692]","trial_type":"two-door-navigation","trial_index":4,"time_elapsed":487202,"internal_node_id":"0.0-2.0-2.0"},{"group":"dihedral group of order 12","room_assignment":["purple","blue","orange","yellow","grey","ivory","cyan","olive","brown","green","pink","red"],"door_color_assignment":["black","white"],"door_generator_assignment":[0,1],"goal":2,"start":10,"action_noise":0.15,"location_history":"[10,9,3,9,8,7,6,11,10,4,5,0,1,2]","action_history":"[0,1,1,0,0,0,0,0,0,0,0,0,0]","door_history":"[0,1,1,0,0,0,0,0,0,0,0,0,0]","location_rts":"[16008,9287,14562,6679,5996,7198,5080,6423,10350,2432,8917,6913,5031]","trial_type":"two-door-navigation","trial_index":5,"time_elapsed":608773,"internal_node_id":"0.0-2.0-3.0"},{"group":"dihedral group of order 12","room_assignment":["purple","blue","orange","yellow","grey","ivory","cyan","olive","brown","green","pink","red"],"door_color_assignment":["black","white"],"door_generator_assignment":[0,1],"goal":5,"start":2,"action_noise":0.15,"location_history":"[2,8,7,6,0,6,11,10,4,5]","action_history":"[0,1,0,1,1,0,0,0,0]","door_history":"[0,1,0,1,1,0,0,0,0]","location_rts":"[3369,17917,10437,16059,5006,8300,297,3630,1045]","trial_type":"two-door-navigation","trial_index":6,"time_elapsed":687426,"internal_node_id":"0.0-2.0-4.0"},{"group":"dihedral group of order 12","room_assignment":["purple","blue","orange","yellow","grey","ivory","cyan","olive","brown","green","pink","red"],"door_color_assignment":["black","white"],"door_generator_assignment":[0,1],"goal":11,"start":5,"action_noise":0.15,"location_history":"[5,0,6,11]","action_history":"[1,1,0]","door_history":"[1,1,0]","location_rts":"[3983,5878,1345]","trial_type":"two-door-navigation","trial_index":7,"time_elapsed":705178,"internal_node_id":"0.0-2.0-5.0"},{"group":"dihedral group of order 12","room_assignment":["purple","blue","orange","yellow","grey","ivory","cyan","olive","brown","green","pink","red"],"door_color_assignment":["black","white"],"door_generator_assignment":[0,1],"goal":6,"start":11,"action_noise":0.15,"location_history":"[11,5,11,5,0,6]","action_history":"[1,1,1,0,1]","door_history":"[1,1,1,0,1]","location_rts":"[2747,10594,7270,2400,664]","trial_type":"two-door-navigation","trial_index":8,"time_elapsed":737401,"internal_node_id":"0.0-2.0-6.0"},{"group":"dihedral group of order 12","room_assignment":["purple","blue","orange","yellow","grey","ivory","cyan","olive","brown","green","pink","red"],"door_color_assignment":["black","white"],"door_generator_assignment":[0,1],"goal":3,"start":6,"action_noise":0.15,"location_history":"[6,0,6,0,1,7,1,2,8,2,8,2,8,7,1,2,3]","action_history":"[1,1,1,0,1,1,0,1,1,1,1,1,0,1,0,1]","door_history":"[1,1,1,0,1,1,0,1,1,1,1,1,0,1,0,1]","location_rts":"[7804,2455,507,328,5392,9755,6476,2437,3917,1584,722,829,693,5831,5272,636]","trial_type":"two-door-navigation","trial_index":9,"time_elapsed":811717,"internal_node_id":"0.0-2.0-7.0"},{"group":"dihedral group of order 12","room_assignment":["purple","blue","orange","yellow","grey","ivory","cyan","olive","brown","green","pink","red"],"door_color_assignment":["black","white"],"door_generator_assignment":[0,1],"goal":8,"start":3,"action_noise":0.15,"location_history":"[3,4,5,0,1,2,8]","action_history":"[0,0,0,1,0,0]","door_history":"[0,0,0,1,0,0]","location_rts":"[5584,5409,1665,3120,782,2013]","trial_type":"two-door-navigation","trial_index":10,"time_elapsed":839856,"internal_node_id":"0.0-2.0-8.0"},{"group":"dihedral group of order 12","room_assignment":["purple","blue","orange","yellow","grey","ivory","cyan","olive","brown","green","pink","red"],"door_color_assignment":["black","white"],"door_generator_assignment":[0,1],"goal":1,"start":8,"action_noise":0.15,"location_history":"[8,2,3,4,5,0,6,0,1]","action_history":"[1,0,0,0,0,1,1,0]","door_history":"[1,0,0,0,0,1,1,0]","location_rts":"[6622,2734,5791,1462,1596,3694,5557,478]","trial_type":"two-door-navigation","trial_index":11,"time_elapsed":879359,"internal_node_id":"0.0-2.0-9.0"},{"group":"dihedral group of order 12","room_assignment":["purple","blue","orange","yellow","grey","ivory","cyan","olive","brown","green","pink","red"],"door_color_assignment":["black","white"],"door_generator_assignment":[0,1],"goal":7,"start":1,"action_noise":0.15,"location_history":"[1,2,3,9,8,2,3,9,3,9,3,4,5,0,1,7]","action_history":"[0,0,1,0,1,0,1,1,0,0,0,0,0,0,1]","door_history":"[0,0,1,0,1,0,1,1,0,0,0,0,0,0,1]","location_rts":"[4592,5248,2678,2566,2184,2504,240,811,357,560,665,397,749,883,2133]","trial_type":"two-door-navigation","trial_index":12,"time_elapsed":924582,"internal_node_id":"0.0-2.0-10.0"},{"group":"dihedral group of order 12","room_assignment":["purple","blue","orange","yellow","grey","ivory","cyan","olive","brown","green","pink","red"],"door_color_assignment":["black","white"],"door_generator_assignment":[0,1],"goal":5,"start":7,"action_noise":0.15,"location_history":"[7,1,7,1,7,1,2,8,7,6,11,5]","action_history":"[1,1,1,1,0,0,1,0,0,0,1]","door_history":"[1,1,1,1,0,0,1,0,0,0,1]","location_rts":"[3422,348,711,123,235,1259,5037,158,422,2188,276]","trial_type":"two-door-navigation","trial_index":13,"time_elapsed":953381,"internal_node_id":"0.0-2.0-11.0"},{"group":"dihedral group of order 12","room_assignment":["purple","blue","orange","yellow","grey","ivory","cyan","olive","brown","green","pink","red"],"door_color_assignment":["black","white"],"door_generator_assignment":[0,1],"goal":8,"start":5,"action_noise":0.15,"location_history":"[5,0,6,11,10,4,5,11,10,9,3,9,8]","action_history":"[0,1,0,0,1,0,0,0,0,0,1,0]","door_history":"[0,1,0,0,1,0,0,0,0,0,1,0]","location_rts":"[5644,2539,813,1041,3859,4372,2955,4237,3586,1443,2714,848]","trial_type":"two-door-navigation","trial_index":14,"time_elapsed":1003060,"internal_node_id":"0.0-2.0-12.0"},{"group":"dihedral group of order 12","room_assignment":["purple","blue","orange","yellow","grey","ivory","cyan","olive","brown","green","pink","red"],"door_color_assignment":["black","white"],"door_generator_assignment":[0,1],"goal":11,"start":8,"action_noise":0.15,"location_history":"[8,7,1,7,1,2,3,4,5,0,6,11]","action_history":"[1,1,1,0,0,0,0,0,0,0,0]","door_history":"[1,1,1,0,0,0,0,0,0,0,0]","location_rts":"[6580,3260,3581,1070,1595,2657,1128,1028,720,550,14368]","trial_type":"two-door-navigation","trial_index":15,"time_elapsed":1054197,"internal_node_id":"0.0-2.0-13.0"},{"group":"dihedral group of order 12","room_assignment":["purple","blue","orange","yellow","grey","ivory","cyan","olive","brown","green","pink","red"],"door_color_assignment":["black","white"],"door_generator_assignment":[0,1],"goal":6,"start":11,"action_noise":0.15,"location_history":"[11,10,9,8,7,1,7,6]","action_history":"[0,0,0,0,1,1,0]","door_history":"[0,0,0,0,1,1,0]","location_rts":"[6251,1187,6728,398,1633,4139,1074]","trial_type":"two-door-navigation","trial_index":16,"time_elapsed":1086171,"internal_node_id":"0.0-2.0-14.0"},{"group":"dihedral group of order 12","room_assignment":["purple","blue","orange","yellow","grey","ivory","cyan","olive","brown","green","pink","red"],"door_color_assignment":["black","white"],"door_generator_assignment":[0,1],"goal":7,"start":6,"action_noise":0.15,"location_history":"[6,0,1,7]","action_history":"[1,0,1]","door_history":"[1,0,1]","location_rts":"[103149,1255,413]","trial_type":"two-door-navigation","trial_index":17,"time_elapsed":1197525,"internal_node_id":"0.0-2.0-15.0"},{"group":"dihedral group of order 12","room_assignment":["purple","blue","orange","yellow","grey","ivory","cyan","olive","brown","green","pink","red"],"door_color_assignment":["black","white"],"door_generator_assignment":[0,1],"goal":10,"start":7,"action_noise":0.15,"location_history":"[7,1,2,3,9,8,7,6,0,1,7,6,11,10]","action_history":"[1,0,0,1,1,0,0,0,0,0,0,0,0]","door_history":"[1,0,0,1,1,0,0,0,0,0,0,0,0]","location_rts":"[2061,743,802,453,2419,3591,1337,3352,188,1337,41,214,107]","trial_type":"two-door-navigation","trial_index":18,"time_elapsed":1230800,"internal_node_id":"0.0-2.0-16.0"},{"group":"dihedral group of order 12","room_assignment":["purple","blue","orange","yellow","grey","ivory","cyan","olive","brown","green","pink","red"],"door_color_assignment":["black","white"],"door_generator_assignment":[0,1],"goal":0,"start":10,"action_noise":0.15,"location_history":"[10,4,5,0]","action_history":"[1,0,0]","door_history":"[1,0,0]","location_rts":"[3980,1435,537]","trial_type":"two-door-navigation","trial_index":19,"time_elapsed":1243289,"internal_node_id":"0.0-2.0-17.0"},{"group":"dihedral group of order 12","room_assignment":["purple","blue","orange","yellow","grey","ivory","cyan","olive","brown","green","pink","red"],"door_color_assignment":["black","white"],"door_generator_assignment":[0,1],"goal":9,"start":0,"action_noise":0.15,"location_history":"[0,1,7,6,0,6,0,1,2,3,4,10,9]","action_history":"[0,1,0,1,1,1,0,0,0,1,1,0]","door_history":"[0,1,0,1,1,1,0,0,0,1,1,0]","location_rts":"[6016,296,10456,212,2847,382,658,1442,686,2967,2591,3981]","trial_type":"two-door-navigation","trial_index":20,"time_elapsed":1291423,"internal_node_id":"0.0-2.0-18.0"},{"group":"dihedral group of order 12","room_assignment":["purple","blue","orange","yellow","grey","ivory","cyan","olive","brown","green","pink","red"],"door_color_assignment":["black","white"],"door_generator_assignment":[0,1],"goal":4,"start":9,"action_noise":0.15,"location_history":"[9,3,9,3,4]","action_history":"[1,1,1,1]","door_history":"[1,1,1,1]","location_rts":"[3231,241,231,506]","trial_type":"two-door-navigation","trial_index":21,"time_elapsed":1303154,"internal_node_id":"0.0-2.0-19.0"},{"group":"dihedral group of order 12","room_assignment":["purple","blue","orange","yellow","grey","ivory","cyan","olive","brown","green","pink","red"],"door_color_assignment":["black","white"],"door_generator_assignment":[0,1],"goal":2,"start":4,"action_noise":0.15,"location_history":"[4,5,0,1,2]","action_history":"[0,0,0,0]","door_history":"[0,0,0,0]","location_rts":"[89250,2753,276,934]","trial_type":"two-door-navigation","trial_index":22,"time_elapsed":1403906,"internal_node_id":"0.0-2.0-20.0"},{"group":"dihedral group of order 12","room_assignment":["purple","blue","orange","yellow","grey","ivory","cyan","olive","brown","green","pink","red"],"door_color_assignment":["black","white"],"door_generator_assignment":[0,1],"goal":1,"start":2,"action_noise":0.15,"location_history":"[2,3,9,3,9,3,9,3,9,8,2,3,9,3,9,8,2,8,7,1]","action_history":"[1,1,1,1,1,0,0,0,0,0,0,1,1,1,0,1,1,0,1]","door_history":"[1,1,1,1,1,0,0,0,0,0,0,1,1,1,0,1,1,0,1]","location_rts":"[3741,592,1708,439,370,4729,251,1181,587,2621,2142,3145,2445,606,942,4780,2363,855,3235]","trial_type":"two-door-navigation","trial_index":23,"time_elapsed":1463323,"internal_node_id":"0.0-2.0-21.0"},{"group":"dihedral group of order 12","room_assignment":["purple","blue","orange","yellow","grey","ivory","cyan","olive","brown","green","pink","red"],"door_color_assignment":["black","white"],"door_generator_assignment":[0,1],"goal":3,"start":1,"action_noise":0.15,"location_history":"[1,2,8,7,1,7,1,2,8,7,6,0,1,2,8,7,1,2,3]","action_history":"[0,1,1,1,1,1,0,1,0,0,1,1,0,1,0,0,0,0]","door_history":"[0,1,1,1,1,1,0,1,0,0,1,1,0,1,0,0,0,0]","location_rts":"[3360,2344,2264,395,1139,942,1046,344,2254,892,923,2252,1197,2183,4368,524,1631,1910]","trial_type":"two-door-navigation","trial_index":24,"time_elapsed":1514975,"internal_node_id":"0.0-2.0-22.0"},{"group":"dihedral group of order 12","room_assignment":["purple","blue","orange","yellow","grey","ivory","cyan","olive","brown","green","pink","red"],"door_color_assignment":["black","white"],"door_generator_assignment":[0,1],"goal":7,"start":3,"action_noise":0.15,"location_history":"[3,9,8,7]","action_history":"[1,1,0]","door_history":"[1,1,0]","location_rts":"[30441,2673,518]","trial_type":"two-door-navigation","trial_index":25,"time_elapsed":1555136,"internal_node_id":"0.0-2.0-23.0"},{"group":"dihedral group of order 12","room_assignment":["purple","blue","orange","yellow","grey","ivory","cyan","olive","brown","green","pink","red"],"door_color_assignment":["black","white"],"door_generator_assignment":[0,1],"goal":6,"start":7,"action_noise":0.15,"location_history":"[7,6]","action_history":"[0]","door_history":"[0]","location_rts":"[5788]","trial_type":"two-door-navigation","trial_index":26,"time_elapsed":1565435,"internal_node_id":"0.0-2.0-24.0"},{"group":"dihedral group of order 12","room_assignment":["purple","blue","orange","yellow","grey","ivory","cyan","olive","brown","green","pink","red"],"door_color_assignment":["black","white"],"door_generator_assignment":[0,1],"goal":2,"start":6,"action_noise":0.15,"location_history":"[6,0,1,2]","action_history":"[1,0,0]","door_history":"[1,0,0]","location_rts":"[5484,3191,2389]","trial_type":"two-door-navigation","trial_index":27,"time_elapsed":1583027,"internal_node_id":"0.0-2.0-25.0"},{"group":"dihedral group of order 12","room_assignment":["purple","blue","orange","yellow","grey","ivory","cyan","olive","brown","green","pink","red"],"door_color_assignment":["black","white"],"door_generator_assignment":[0,1],"goal":8,"start":2,"action_noise":0.15,"location_history":"[2,8]","action_history":"[1]","door_history":"[1]","location_rts":"[2304]","trial_type":"two-door-navigation","trial_index":28,"time_elapsed":1589839,"internal_node_id":"0.0-2.0-26.0"},{"group":"dihedral group of order 12","room_assignment":["purple","blue","orange","yellow","grey","ivory","cyan","olive","brown","green","pink","red"],"door_color_assignment":["black","white"],"door_generator_assignment":[0,1],"goal":0,"start":8,"action_noise":0.15,"location_history":"[8,2,3,4,10,4,5,11,5,0]","action_history":"[1,0,0,1,0,0,0,1,0]","door_history":"[1,0,0,1,0,0,0,1,0]","location_rts":"[10061,4686,2609,2022,312,1228,134,2634,410]","trial_type":"two-door-navigation","trial_index":29,"time_elapsed":1626505,"internal_node_id":"0.0-2.0-27.0"},{"group":"dihedral group of order 12","room_assignment":["purple","blue","orange","yellow","grey","ivory","cyan","olive","brown","green","pink","red"],"door_color_assignment":["black","white"],"door_generator_assignment":[0,1],"goal":3,"start":0,"action_noise":0.15,"location_history":"[0,1,2,3]","action_history":"[0,0,0]","door_history":"[0,0,0]","location_rts":"[4871,3902,556]","trial_type":"two-door-navigation","trial_index":30,"time_elapsed":1642366,"internal_node_id":"0.0-2.0-28.0"},{"group":"dihedral group of order 12","room_assignment":["purple","blue","orange","yellow","grey","ivory","cyan","olive","brown","green","pink","red"],"door_color_assignment":["black","white"],"door_generator_assignment":[0,1],"goal":4,"start":3,"action_noise":0.15,"location_history":"[3,4]","action_history":"[0]","door_history":"[0]","location_rts":"[5547]","trial_type":"two-door-navigation","trial_index":31,"time_elapsed":1652428,"internal_node_id":"0.0-2.0-29.0"},{"group":"dihedral group of order 12","room_assignment":["purple","blue","orange","yellow","grey","ivory","cyan","olive","brown","green","pink","red"],"door_color_assignment":["black","white"],"door_generator_assignment":[0,1],"goal":10,"start":4,"action_noise":0.15,"location_history":"[4,10]","action_history":"[1]","door_history":"[1]","location_rts":"[2040]","trial_type":"two-door-navigation","trial_index":32,"time_elapsed":1658978,"internal_node_id":"0.0-2.0-30.0"},{"group":"dihedral group of order 12","room_assignment":["purple","blue","orange","yellow","grey","ivory","cyan","olive","brown","green","pink","red"],"door_color_assignment":["black","white"],"door_generator_assignment":[0,1],"goal":11,"start":10,"action_noise":0.15,"location_history":"[10,4,5,11]","action_history":"[1,0,1]","door_history":"[1,0,1]","location_rts":"[4547,1331,209]","trial_type":"two-door-navigation","trial_index":33,"time_elapsed":1671609,"internal_node_id":"0.0-2.0-31.0"},{"group":"dihedral group of order 12","room_assignment":["purple","blue","orange","yellow","grey","ivory","cyan","olive","brown","green","pink","red"],"door_color_assignment":["black","white"],"door_generator_assignment":[0,1],"goal":1,"start":11,"action_noise":0.15,"location_history":"[11,5,0,1]","action_history":"[1,0,0]","door_history":"[1,0,0]","location_rts":"[11138,2769,477]","trial_type":"two-door-navigation","trial_index":34,"time_elapsed":1692529,"internal_node_id":"0.0-2.0-32.0"},{"group":"dihedral group of order 12","room_assignment":["purple","blue","orange","yellow","grey","ivory","cyan","olive","brown","green","pink","red"],"door_color_assignment":["black","white"],"door_generator_assignment":[0,1],"goal":5,"start":1,"action_noise":0.15,"location_history":"[1,2,3,4,5]","action_history":"[1,0,0,0]","door_history":"[1,0,0,0]","location_rts":"[21230,2015,668,1120]","trial_type":"two-door-navigation","trial_index":35,"time_elapsed":1725098,"internal_node_id":"0.0-2.0-33.0"},{"group":"dihedral group of order 12","room_assignment":["purple","blue","orange","yellow","grey","ivory","cyan","olive","brown","green","pink","red"],"door_color_assignment":["black","white"],"door_generator_assignment":[0,1],"goal":9,"start":5,"action_noise":0.15,"location_history":"[5,0,6,0,1,7,6,0,6,11,10,9]","action_history":"[1,1,1,0,1,0,0,1,0,0,0]","door_history":"[1,1,1,0,1,0,0,1,0,0,0]","location_rts":"[4441,1615,2235,1736,707,1750,4957,3157,2203,4124,3713]","trial_type":"two-door-navigation","trial_index":36,"time_elapsed":1770348,"internal_node_id":"0.0-2.0-34.0"},{"view_history":"[{\"page_index\":0,\"viewing_time\":403496}]","rt":403497,"trial_type":"instructions","trial_index":37,"time_elapsed":2174846,"internal_node_id":"0.0-3.0"},{"view_history":"[{\"page_index\":0,\"viewing_time\":14070},{\"page_index\":1,\"viewing_time\":21458}]","rt":35528,"trial_type":"instructions","trial_index":38,"time_elapsed":2211374,"internal_node_id":"0.0-4.0"},{"group":"dihedral group of order 12","fractal_assignment":["../images/grn_red.png","../images/grn_blu.png","../images/cyn_red.png","../images/gry_blk.png","../images/wht_red.png","../images/blu_wht.png","../images/red_prp.png","../images/org_blu.png","../images/ylw_slt.png","../images/grn_prp.png","../images/pnk_blu.png","../images/ylw_pnk.png"],"mutagen_generator_assignment":[1,0],"goal":4,"start":0,"action_noise":0.15,"location_history":"[0,6,0,1,2,3,9,8,7,6,11,5,0,6,0,6,11,5,11,5,11,5,11,10,9,3,4]","action_history":"[1,1,0,0,0,1,0,0,0,1,1,0,0,0,1,1,1,1,1,1,1,1,0,0,0,0]","mutagen_history":"[0,0,1,1,1,0,1,1,1,0,0,1,1,1,0,0,0,0,0,0,0,0,1,1,1,1]","location_rts":"[25047,2244,1151,648,864,889,815,603,764,750,798,697,761,775,880,768,785,633,1092,779,827,3994,414,473,559,304]","trial_type":"fractal-mutation","trial_index":39,"time_elapsed":2293863,"internal_node_id":"0.0-5.0-0.0"},{"group":"dihedral group of order 12","fractal_assignment":["../images/grn_red.png","../images/grn_blu.png","../images/cyn_red.png","../images/gry_blk.png","../images/wht_red.png","../images/blu_wht.png","../images/red_prp.png","../images/org_blu.png","../images/ylw_slt.png","../images/grn_prp.png","../images/pnk_blu.png","../images/ylw_pnk.png"],"mutagen_generator_assignment":[1,0],"goal":9,"start":4,"action_noise":0.15,"location_history":"[4,5,11,5,0,1,2,3,4,10,4,5,0,6,0,1,2,3,4,10,4,10,9]","action_history":"[0,0,0,0,0,0,0,0,1,0,0,0,1,1,0,1,0,1,1,1,1,1]","mutagen_history":"[1,1,1,1,1,1,1,1,0,1,1,1,0,0,1,0,1,0,0,0,0,0]","location_rts":"[1630,363,375,511,556,458,476,459,727,511,773,607,467,450,492,693,619,826,728,862,906,520]","trial_type":"fractal-mutation","trial_index":40,"time_elapsed":2337673,"internal_node_id":"0.0-5.0-1.0"},{"group":"dihedral group of order 12","fractal_assignment":["../images/grn_red.png","../images/grn_blu.png","../images/cyn_red.png","../images/gry_blk.png","../images/wht_red.png","../images/blu_wht.png","../images/red_prp.png","../images/org_blu.png","../images/ylw_slt.png","../images/grn_prp.png","../images/pnk_blu.png","../images/ylw_pnk.png"],"mutagen_generator_assignment":[1,0],"goal":10,"start":9,"action_noise":0.15,"location_history":"[9,3,9,3,4,10]","action_history":"[1,1,1,0,1]","mutagen_history":"[0,0,0,1,0]","location_rts":"[2202,513,1073,344,478]","trial_type":"fractal-mutation","trial_index":41,"time_elapsed":2351215,"internal_node_id":"0.0-5.0-2.0"},{"group":"dihedral group of order 12","fractal_assignment":["../images/grn_red.png","../images/grn_blu.png","../images/cyn_red.png","../images/gry_blk.png","../images/wht_red.png","../images/blu_wht.png","../images/red_prp.png","../images/org_blu.png","../images/ylw_slt.png","../images/grn_prp.png","../images/pnk_blu.png","../images/ylw_pnk.png"],"mutagen_generator_assignment":[1,0],"goal":2,"start":10,"action_noise":0.15,"location_history":"[10,4,10,4,5,0,1,2]","action_history":"[1,1,1,0,0,0,0]","mutagen_history":"[0,0,0,1,1,1,1]","location_rts":"[1505,405,679,59,238,449,347]","trial_type":"fractal-mutation","trial_index":42,"time_elapsed":2366347,"internal_node_id":"0.0-5.0-3.0"},{"group":"dihedral group of order 12","fractal_assignment":["../images/grn_red.png","../images/grn_blu.png","../images/cyn_red.png","../images/gry_blk.png","../images/wht_red.png","../images/blu_wht.png","../images/red_prp.png","../images/org_blu.png","../images/ylw_slt.png","../images/grn_prp.png","../images/pnk_blu.png","../images/ylw_pnk.png"],"mutagen_generator_assignment":[1,0],"goal":5,"start":2,"action_noise":0.15,"location_history":"[2,3,4,5]","action_history":"[0,0,0]","mutagen_history":"[1,1,1]","location_rts":"[1756,546,500]","trial_type":"fractal-mutation","trial_index":43,"time_elapsed":2376333,"internal_node_id":"0.0-5.0-4.0"},{"group":"dihedral group of order 12","fractal_assignment":["../images/grn_red.png","../images/grn_blu.png","../images/cyn_red.png","../images/gry_blk.png","../images/wht_red.png","../images/blu_wht.png","../images/red_prp.png","../images/org_blu.png","../images/ylw_slt.png","../images/grn_prp.png","../images/pnk_blu.png","../images/ylw_pnk.png"],"mutagen_generator_assignment":[1,0],"goal":11,"start":5,"action_noise":0.15,"location_history":"[5,11]","action_history":"[1]","mutagen_history":"[0]","location_rts":"[1063]","trial_type":"fractal-mutation","trial_index":44,"time_elapsed":2381925,"internal_node_id":"0.0-5.0-5.0"},{"group":"dihedral group of order 12","fractal_assignment":["../images/grn_red.png","../images/grn_blu.png","../images/cyn_red.png","../images/gry_blk.png","../images/wht_red.png","../images/blu_wht.png","../images/red_prp.png","../images/org_blu.png","../images/ylw_slt.png","../images/grn_prp.png","../images/pnk_blu.png","../images/ylw_pnk.png"],"mutagen_generator_assignment":[1,0],"goal":6,"start":11,"action_noise":0.15,"location_history":"[11,10,4,10,4,10,9,3,9,3,9,8,7,1,7,1,7,6]","action_history":"[1,1,1,1,0,0,0,1,1,1,1,0,1,1,1,1,0]","mutagen_history":"[0,0,0,0,1,1,1,0,0,0,0,1,0,0,0,0,1]","location_rts":"[1502,419,502,516,196,834,992,584,434,449,522,241,697,461,918,622,123]","trial_type":"fractal-mutation","trial_index":45,"time_elapsed":2414779,"internal_node_id":"0.0-5.0-6.0"},{"group":"dihedral group of order 12","fractal_assignment":["../images/grn_red.png","../images/grn_blu.png","../images/cyn_red.png","../images/gry_blk.png","../images/wht_red.png","../images/blu_wht.png","../images/red_prp.png","../images/org_blu.png","../images/ylw_slt.png","../images/grn_prp.png","../images/pnk_blu.png","../images/ylw_pnk.png"],"mutagen_generator_assignment":[1,0],"goal":3,"start":6,"action_noise":0.15,"location_history":"[6,0,1,2,3]","action_history":"[1,0,0,0]","mutagen_history":"[0,1,1,1]","location_rts":"[331,461,440,421]","trial_type":"fractal-mutation","trial_index":46,"time_elapsed":2424685,"internal_node_id":"0.0-5.0-7.0"},{"group":"dihedral group of order 12","fractal_assignment":["../images/grn_red.png","../images/grn_blu.png","../images/cyn_red.png","../images/gry_blk.png","../images/wht_red.png","../images/blu_wht.png","../images/red_prp.png","../images/org_blu.png","../images/ylw_slt.png","../images/grn_prp.png","../images/pnk_blu.png","../images/ylw_pnk.png"],"mutagen_generator_assignment":[1,0],"goal":8,"start":3,"action_noise":0.15,"location_history":"[3,9,3,9,8]","action_history":"[1,1,1,0]","mutagen_history":"[0,0,0,1]","location_rts":"[1416,351,264,5]","trial_type":"fractal-mutation","trial_index":47,"time_elapsed":2434528,"internal_node_id":"0.0-5.0-8.0"},{"group":"dihedral group of order 12","fractal_assignment":["../images/grn_red.png","../images/grn_blu.png","../images/cyn_red.png","../images/gry_blk.png","../images/wht_red.png","../images/blu_wht.png","../images/red_prp.png","../images/org_blu.png","../images/ylw_slt.png","../images/grn_prp.png","../images/pnk_blu.png","../images/ylw_pnk.png"],"mutagen_generator_assignment":[1,0],"goal":1,"start":8,"action_noise":0.15,"location_history":"[8,7,1]","action_history":"[0,0]","mutagen_history":"[1,1]","location_rts":"[1253,568]","trial_type":"fractal-mutation","trial_index":48,"time_elapsed":2442301,"internal_node_id":"0.0-5.0-9.0"},{"group":"dihedral group of order 12","fractal_assignment":["../images/grn_red.png","../images/grn_blu.png","../images/cyn_red.png","../images/gry_blk.png","../images/wht_red.png","../images/blu_wht.png","../images/red_prp.png","../images/org_blu.png","../images/ylw_slt.png","../images/grn_prp.png","../images/pnk_blu.png","../images/ylw_pnk.png"],"mutagen_generator_assignment":[1,0],"goal":7,"start":1,"action_noise":0.15,"location_history":"[1,7]","action_history":"[1]","mutagen_history":"[0]","location_rts":"[3415]","trial_type":"fractal-mutation","trial_index":49,"time_elapsed":2450237,"internal_node_id":"0.0-5.0-10.0"},{"group":"dihedral group of order 12","fractal_assignment":["../images/grn_red.png","../images/grn_blu.png","../images/cyn_red.png","../images/gry_blk.png","../images/wht_red.png","../images/blu_wht.png","../images/red_prp.png","../images/org_blu.png","../images/ylw_slt.png","../images/grn_prp.png","../images/pnk_blu.png","../images/ylw_pnk.png"],"mutagen_generator_assignment":[1,0],"goal":5,"start":7,"action_noise":0.15,"location_history":"[7,1,7,6,11,10,9,8,7,6,11,10,9,8,2,3,4,5]","action_history":"[0,0,0,0,0,0,0,0,0,0,0,1,0,1,0,0,0]","mutagen_history":"[1,1,1,1,1,1,1,1,1,1,1,0,1,0,1,1,1]","location_rts":"[1337,430,426,655,404,805,424,551,501,532,522,833,246,391,463,474,448]","trial_type":"fractal-mutation","trial_index":50,"time_elapsed":2483056,"internal_node_id":"0.0-5.0-11.0"},{"group":"dihedral group of order 12","fractal_assignment":["../images/grn_red.png","../images/grn_blu.png","../images/cyn_red.png","../images/gry_blk.png","../images/wht_red.png","../images/blu_wht.png","../images/red_prp.png","../images/org_blu.png","../images/ylw_slt.png","../images/grn_prp.png","../images/pnk_blu.png","../images/ylw_pnk.png"],"mutagen_generator_assignment":[1,0],"goal":8,"start":5,"action_noise":0.15,"location_history":"[5,11,10,9,3,4,5,11,10,4,5,11,10,9,3,4,10,9,8]","action_history":"[1,1,0,0,0,0,1,0,1,0,1,0,0,1,0,1,0,0]","mutagen_history":"[0,0,1,1,1,1,0,1,0,1,0,1,1,0,1,0,1,1]","location_rts":"[1940,640,601,702,523,470,808,609,597,269,365,380,546,909,655,386,334,343]","trial_type":"fractal-mutation","trial_index":51,"time_elapsed":2518134,"internal_node_id":"0.0-5.0-12.0"},{"group":"dihedral group of order 12","fractal_assignment":["../images/grn_red.png","../images/grn_blu.png","../images/cyn_red.png","../images/gry_blk.png","../images/wht_red.png","../images/blu_wht.png","../images/red_prp.png","../images/org_blu.png","../images/ylw_slt.png","../images/grn_prp.png","../images/pnk_blu.png","../images/ylw_pnk.png"],"mutagen_generator_assignment":[1,0],"goal":11,"start":8,"action_noise":0.15,"location_history":"[8,2,3,4,10,4,5,0,1,7,1,7,6,11]","action_history":"[1,1,1,1,1,0,1,0,1,1,1,0,1]","mutagen_history":"[0,0,0,0,0,1,0,1,0,0,0,1,0]","location_rts":"[2143,699,467,960,895,363,1127,577,725,1365,543,542,856]","trial_type":"fractal-mutation","trial_index":52,"time_elapsed":2546918,"internal_node_id":"0.0-5.0-13.0"},{"group":"dihedral group of order 12","fractal_assignment":["../images/grn_red.png","../images/grn_blu.png","../images/cyn_red.png","../images/gry_blk.png","../images/wht_red.png","../images/blu_wht.png","../images/red_prp.png","../images/org_blu.png","../images/ylw_slt.png","../images/grn_prp.png","../images/pnk_blu.png","../images/ylw_pnk.png"],"mutagen_generator_assignment":[1,0],"goal":6,"start":11,"action_noise":0.15,"location_history":"[11,5,11,10,4,5,11,5,11,10,9,3,9,8,2,3,9,8,2,3,4,5,0,6]","action_history":"[1,1,0,1,0,1,1,1,0,0,1,1,0,1,0,1,0,1,0,0,0,0,1]","mutagen_history":"[0,0,1,0,1,0,0,0,1,1,0,0,1,0,1,0,1,0,1,1,1,1,0]","location_rts":"[1279,528,671,468,268,470,394,444,439,858,735,1104,914,1389,719,728,715,821,1239,966,1005,1225,766]","trial_type":"fractal-mutation","trial_index":53,"time_elapsed":2594442,"internal_node_id":"0.0-5.0-14.0"},{"group":"dihedral group of order 12","fractal_assignment":["../images/grn_red.png","../images/grn_blu.png","../images/cyn_red.png","../images/gry_blk.png","../images/wht_red.png","../images/blu_wht.png","../images/red_prp.png","../images/org_blu.png","../images/ylw_slt.png","../images/grn_prp.png","../images/pnk_blu.png","../images/ylw_pnk.png"],"mutagen_generator_assignment":[1,0],"goal":7,"start":6,"action_noise":0.15,"location_history":"[6,11,5,0,6,11,5,0,6,0,1,7]","action_history":"[0,1,0,1,0,1,0,1,1,0,1]","mutagen_history":"[1,0,1,0,1,0,1,0,0,1,0]","location_rts":"[1417,693,498,475,1081,490,899,1160,941,610,890]","trial_type":"fractal-mutation","trial_index":54,"time_elapsed":2619738,"internal_node_id":"0.0-5.0-15.0"},{"group":"dihedral group of order 12","fractal_assignment":["../images/grn_red.png","../images/grn_blu.png","../images/cyn_red.png","../images/gry_blk.png","../images/wht_red.png","../images/blu_wht.png","../images/red_prp.png","../images/org_blu.png","../images/ylw_slt.png","../images/grn_prp.png","../images/pnk_blu.png","../images/ylw_pnk.png"],"mutagen_generator_assignment":[1,0],"goal":10,"start":7,"action_noise":0.15,"location_history":"[7,6,0,6,0,1,2,8,2,8,7,1,2,3,4,10]","action_history":"[0,0,1,1,0,0,1,1,0,0,0,0,0,0,1]","mutagen_history":"[1,1,0,0,1,1,0,0,1,1,1,1,1,1,0]","location_rts":"[1867,1013,767,872,278,1040,719,1027,625,694,1392,966,776,1566,668]","trial_type":"fractal-mutation","trial_index":55,"time_elapsed":2654808,"internal_node_id":"0.0-5.0-16.0"},{"group":"dihedral group of order 12","fractal_assignment":["../images/grn_red.png","../images/grn_blu.png","../images/cyn_red.png","../images/gry_blk.png","../images/wht_red.png","../images/blu_wht.png","../images/red_prp.png","../images/org_blu.png","../images/ylw_slt.png","../images/grn_prp.png","../images/pnk_blu.png","../images/ylw_pnk.png"],"mutagen_generator_assignment":[1,0],"goal":0,"start":10,"action_noise":0.15,"location_history":"[10,9,3,9,3,4,5,0]","action_history":"[0,0,1,1,0,0,0]","mutagen_history":"[1,1,0,0,1,1,1]","location_rts":"[1390,1309,1377,356,293,933,913]","trial_type":"fractal-mutation","trial_index":56,"time_elapsed":2673018,"internal_node_id":"0.0-5.0-17.0"},{"group":"dihedral group of order 12","fractal_assignment":["../images/grn_red.png","../images/grn_blu.png","../images/cyn_red.png","../images/gry_blk.png","../images/wht_red.png","../images/blu_wht.png","../images/red_prp.png","../images/org_blu.png","../images/ylw_slt.png","../images/grn_prp.png","../images/pnk_blu.png","../images/ylw_pnk.png"],"mutagen_generator_assignment":[1,0],"goal":9,"start":0,"action_noise":0.15,"location_history":"[0,6,0,6,11,10,4,5,0,6,11,5,11,10,9]","action_history":"[0,1,0,0,1,0,0,0,0,1,1,1,0,0]","mutagen_history":"[1,0,1,1,0,1,1,1,1,0,0,0,1,1]","location_rts":"[2316,864,629,294,1057,603,1133,905,1793,692,852,582,822,1089]","trial_type":"fractal-mutation","trial_index":57,"time_elapsed":2706345,"internal_node_id":"0.0-5.0-18.0"},{"group":"dihedral group of order 12","fractal_assignment":["../images/grn_red.png","../images/grn_blu.png","../images/cyn_red.png","../images/gry_blk.png","../images/wht_red.png","../images/blu_wht.png","../images/red_prp.png","../images/org_blu.png","../images/ylw_slt.png","../images/grn_prp.png","../images/pnk_blu.png","../images/ylw_pnk.png"],"mutagen_generator_assignment":[1,0],"goal":4,"start":9,"action_noise":0.15,"location_history":"[9,8,7,6,11,10,9,8,2,3,9,3,4]","action_history":"[0,0,0,0,0,0,0,1,0,1,1,0]","mutagen_history":"[1,1,1,1,1,1,1,0,1,0,0,1]","location_rts":"[1483,780,1215,926,854,691,1059,1097,515,701,493,213]","trial_type":"fractal-mutation","trial_index":58,"time_elapsed":2733875,"internal_node_id":"0.0-5.0-19.0"},{"group":"dihedral group of order 12","fractal_assignment":["../images/grn_red.png","../images/grn_blu.png","../images/cyn_red.png","../images/gry_blk.png","../images/wht_red.png","../images/blu_wht.png","../images/red_prp.png","../images/org_blu.png","../images/ylw_slt.png","../images/grn_prp.png","../images/pnk_blu.png","../images/ylw_pnk.png"],"mutagen_generator_assignment":[1,0],"goal":2,"start":4,"action_noise":0.15,"location_history":"[4,5,11,10,9,8,7,6,11,10,9,8,7,1,7,1,2]","action_history":"[0,0,0,0,0,0,0,0,0,0,0,0,1,1,0,0]","mutagen_history":"[1,1,1,1,1,1,1,1,1,1,1,1,0,0,1,1]","location_rts":"[1442,630,587,616,932,831,799,984,808,1042,1751,825,931,564,495,593]","trial_type":"fractal-mutation","trial_index":59,"time_elapsed":2769937,"internal_node_id":"0.0-5.0-20.0"},{"group":"dihedral group of order 12","fractal_assignment":["../images/grn_red.png","../images/grn_blu.png","../images/cyn_red.png","../images/gry_blk.png","../images/wht_red.png","../images/blu_wht.png","../images/red_prp.png","../images/org_blu.png","../images/ylw_slt.png","../images/grn_prp.png","../images/pnk_blu.png","../images/ylw_pnk.png"],"mutagen_generator_assignment":[1,0],"goal":1,"start":2,"action_noise":0.15,"location_history":"[2,3,4,5,0,6,0,6,0,6,11,5,0,1]","action_history":"[0,0,0,0,0,1,1,0,0,0,0,0,0]","mutagen_history":"[1,1,1,1,1,0,0,1,1,1,1,1,1]","location_rts":"[2004,589,583,667,1042,1681,709,552,727,691,844,1225,738]","trial_type":"fractal-mutation","trial_index":60,"time_elapsed":2800595,"internal_node_id":"0.0-5.0-21.0"},{"group":"dihedral group of order 12","fractal_assignment":["../images/grn_red.png","../images/grn_blu.png","../images/cyn_red.png","../images/gry_blk.png","../images/wht_red.png","../images/blu_wht.png","../images/red_prp.png","../images/org_blu.png","../images/ylw_slt.png","../images/grn_prp.png","../images/pnk_blu.png","../images/ylw_pnk.png"],"mutagen_generator_assignment":[1,0],"goal":3,"start":1,"action_noise":0.15,"location_history":"[1,2,3]","action_history":"[0,0]","mutagen_history":"[1,1]","location_rts":"[1504,648]","trial_type":"fractal-mutation","trial_index":61,"time_elapsed":2808586,"internal_node_id":"0.0-5.0-22.0"},{"group":"dihedral group of order 12","fractal_assignment":["../images/grn_red.png","../images/grn_blu.png","../images/cyn_red.png","../images/gry_blk.png","../images/wht_red.png","../images/blu_wht.png","../images/red_prp.png","../images/org_blu.png","../images/ylw_slt.png","../images/grn_prp.png","../images/pnk_blu.png","../images/ylw_pnk.png"],"mutagen_generator_assignment":[1,0],"goal":7,"start":3,"action_noise":0.15,"location_history":"[3,4,10,9,8,7]","action_history":"[0,0,0,0,0]","mutagen_history":"[1,1,1,1,1]","location_rts":"[1116,778,647,821,1439]","trial_type":"fractal-mutation","trial_index":62,"time_elapsed":2822827,"internal_node_id":"0.0-5.0-23.0"},{"group":"dihedral group of order 12","fractal_assignment":["../images/grn_red.png","../images/grn_blu.png","../images/cyn_red.png","../images/gry_blk.png","../images/wht_red.png","../images/blu_wht.png","../images/red_prp.png","../images/org_blu.png","../images/ylw_slt.png","../images/grn_prp.png","../images/pnk_blu.png","../images/ylw_pnk.png"],"mutagen_generator_assignment":[1,0],"goal":6,"start":7,"action_noise":0.15,"location_history":"[7,6]","action_history":"[0]","mutagen_history":"[1]","location_rts":"[1694]","trial_type":"fractal-mutation","trial_index":63,"time_elapsed":2829221,"internal_node_id":"0.0-5.0-24.0"},{"group":"dihedral group of order 12","fractal_assignment":["../images/grn_red.png","../images/grn_blu.png","../images/cyn_red.png","../images/gry_blk.png","../images/wht_red.png","../images/blu_wht.png","../images/red_prp.png","../images/org_blu.png","../images/ylw_slt.png","../images/grn_prp.png","../images/pnk_blu.png","../images/ylw_pnk.png"],"mutagen_generator_assignment":[1,0],"goal":2,"start":6,"action_noise":0.15,"location_history":"[6,11,10,9,8,7,6,0,1,2]","action_history":"[0,0,0,0,0,0,0,0,0]","mutagen_history":"[1,1,1,1,1,1,1,1,1]","location_rts":"[1119,970,760,1428,1092,2486,870,1047,1929]","trial_type":"fractal-mutation","trial_index":64,"time_elapsed":2855121,"internal_node_id":"0.0-5.0-25.0"},{"group":"dihedral group of order 12","fractal_assignment":["../images/grn_red.png","../images/grn_blu.png","../images/cyn_red.png","../images/gry_blk.png","../images/wht_red.png","../images/blu_wht.png","../images/red_prp.png","../images/org_blu.png","../images/ylw_slt.png","../images/grn_prp.png","../images/pnk_blu.png","../images/ylw_pnk.png"],"mutagen_generator_assignment":[1,0],"goal":8,"start":2,"action_noise":0.15,"location_history":"[2,8]","action_history":"[1]","mutagen_history":"[0]","location_rts":"[14017]","trial_type":"fractal-mutation","trial_index":65,"time_elapsed":2873651,"internal_node_id":"0.0-5.0-26.0"},{"group":"dihedral group of order 12","fractal_assignment":["../images/grn_red.png","../images/grn_blu.png","../images/cyn_red.png","../images/gry_blk.png","../images/wht_red.png","../images/blu_wht.png","../images/red_prp.png","../images/org_blu.png","../images/ylw_slt.png","../images/grn_prp.png","../images/pnk_blu.png","../images/ylw_pnk.png"],"mutagen_generator_assignment":[1,0],"goal":0,"start":8,"action_noise":0.15,"location_history":"[8,2,8,2,3,4,5,0]","action_history":"[0,1,1,0,0,1,1]","mutagen_history":"[1,0,0,1,1,0,0]","location_rts":"[8128,1085,729,405,969,1115,2793]","trial_type":"fractal-mutation","trial_index":66,"time_elapsed":2900297,"internal_node_id":"0.0-5.0-27.0"},{"group":"dihedral group of order 12","fractal_assignment":["../images/grn_red.png","../images/grn_blu.png","../images/cyn_red.png","../images/gry_blk.png","../images/wht_red.png","../images/blu_wht.png","../images/red_prp.png","../images/org_blu.png","../images/ylw_slt.png","../images/grn_prp.png","../images/pnk_blu.png","../images/ylw_pnk.png"],"mutagen_generator_assignment":[1,0],"goal":3,"start":0,"action_noise":0.15,"location_history":"[0,1,7,6,11,10,9,3]","action_history":"[0,0,0,0,0,0,0]","mutagen_history":"[1,1,1,1,1,1,1]","location_rts":"[1660,820,818,785,841,3719,896]","trial_type":"fractal-mutation","trial_index":67,"time_elapsed":2921562,"internal_node_id":"0.0-5.0-28.0"},{"group":"dihedral group of order 12","fractal_assignment":["../images/grn_red.png","../images/grn_blu.png","../images/cyn_red.png","../images/gry_blk.png","../images/wht_red.png","../images/blu_wht.png","../images/red_prp.png","../images/org_blu.png","../images/ylw_slt.png","../images/grn_prp.png","../images/pnk_blu.png","../images/ylw_pnk.png"],"mutagen_generator_assignment":[1,0],"goal":4,"start":3,"action_noise":0.15,"location_history":"[3,4]","action_history":"[1]","mutagen_history":"[0]","location_rts":"[5467]","trial_type":"fractal-mutation","trial_index":68,"time_elapsed":2931536,"internal_node_id":"0.0-5.0-29.0"},{"group":"dihedral group of order 12","fractal_assignment":["../images/grn_red.png","../images/grn_blu.png","../images/cyn_red.png","../images/gry_blk.png","../images/wht_red.png","../images/blu_wht.png","../images/red_prp.png","../images/org_blu.png","../images/ylw_slt.png","../images/grn_prp.png","../images/pnk_blu.png","../images/ylw_pnk.png"],"mutagen_generator_assignment":[1,0],"goal":10,"start":4,"action_noise":0.15,"location_history":"[4,5,0,1,7,6,11,10]","action_history":"[0,0,0,0,0,0,0]","mutagen_history":"[1,1,1,1,1,1,1]","location_rts":"[1237,603,741,819,581,18840,2024]","trial_type":"fractal-mutation","trial_index":69,"time_elapsed":2968105,"internal_node_id":"0.0-5.0-30.0"},{"group":"dihedral group of order 12","fractal_assignment":["../images/grn_red.png","../images/grn_blu.png","../images/cyn_red.png","../images/gry_blk.png","../images/wht_red.png","../images/blu_wht.png","../images/red_prp.png","../images/org_blu.png","../images/ylw_slt.png","../images/grn_prp.png","../images/pnk_blu.png","../images/ylw_pnk.png"],"mutagen_generator_assignment":[1,0],"goal":11,"start":10,"action_noise":0.15,"location_history":"[10,4,5,0,1,2,3,4,5,0,1,2,8,2,3,4,5,0,1,7,1,7,1,7,1,2,3,4,5,0,1,2,8,2,8,7,1,7,6,0,1,2,8,7,1,2,8,2,8,7,1,2,3,4,10,4,10,9,3,4,10,9,8,2,3,4,5,0,1,2,3,9,3,9,3,9,8,7,6,11]","action_history":"[1,0,0,0,0,0,0,0,0,0,0,1,1,0,0,0,0,0,1,1,1,1,1,1,0,0,0,0,0,0,0,1,1,1,0,0,1,0,1,0,1,1,0,1,1,1,1,1,0,1,0,0,1,0,0,0,0,1,1,1,0,0,0,0,0,1,0,0,0,0,1,1,1,1,1,0,0,0,0]","mutagen_history":"[0,1,1,1,1,1,1,1,1,1,1,0,0,1,1,1,1,1,0,0,0,0,0,0,1,1,1,1,1,1,1,0,0,0,1,1,0,1,0,1,0,0,1,0,0,0,0,0,1,0,1,1,0,1,1,1,1,0,0,0,1,1,1,1,1,0,1,1,1,1,0,0,0,0,0,1,1,1,1]","location_rts":"[1885,1649,782,706,744,634,639,1270,550,597,674,1319,609,636,451,593,573,626,1829,528,713,603,1616,967,1178,755,503,712,563,702,786,797,466,1036,1174,1237,584,445,611,363,599,209,412,569,1691,469,326,278,103,483,303,490,709,332,657,585,550,1110,497,577,290,438,399,534,633,594,352,1032,829,726,801,1061,369,531,446,411,453,888,764]","trial_type":"fractal-mutation","trial_index":70,"time_elapsed":3117290,"internal_node_id":"0.0-5.0-31.0"},{"group":"dihedral group of order 12","fractal_assignment":["../images/grn_red.png","../images/grn_blu.png","../images/cyn_red.png","../images/gry_blk.png","../images/wht_red.png","../images/blu_wht.png","../images/red_prp.png","../images/org_blu.png","../images/ylw_slt.png","../images/grn_prp.png","../images/pnk_blu.png","../images/ylw_pnk.png"],"mutagen_generator_assignment":[1,0],"goal":1,"start":11,"action_noise":0.15,"location_history":"[11,10,9,8,7,6,11,10,4,10,9,8,7,1]","action_history":"[0,0,0,0,0,0,0,0,0,0,0,0,1]","mutagen_history":"[1,1,1,1,1,1,1,1,1,1,1,1,0]","location_rts":"[1435,158,112,318,121,276,168,297,302,262,324,386,1558]","trial_type":"fractal-mutation","trial_index":71,"time_elapsed":3141696,"internal_node_id":"0.0-5.0-32.0"},{"group":"dihedral group of order 12","fractal_assignment":["../images/grn_red.png","../images/grn_blu.png","../images/cyn_red.png","../images/gry_blk.png","../images/wht_red.png","../images/blu_wht.png","../images/red_prp.png","../images/org_blu.png","../images/ylw_slt.png","../images/grn_prp.png","../images/pnk_blu.png","../images/ylw_pnk.png"],"mutagen_generator_assignment":[1,0],"goal":5,"start":1,"action_noise":0.15,"location_history":"[1,2,3,4,5]","action_history":"[0,0,0,0]","mutagen_history":"[1,1,1,1]","location_rts":"[2246,360,644,1162]","trial_type":"fractal-mutation","trial_index":72,"time_elapsed":3154318,"internal_node_id":"0.0-5.0-33.0"},{"group":"dihedral group of order 12","fractal_assignment":["../images/grn_red.png","../images/grn_blu.png","../images/cyn_red.png","../images/gry_blk.png","../images/wht_red.png","../images/blu_wht.png","../images/red_prp.png","../images/org_blu.png","../images/ylw_slt.png","../images/grn_prp.png","../images/pnk_blu.png","../images/ylw_pnk.png"],"mutagen_generator_assignment":[1,0],"goal":9,"start":5,"action_noise":0.15,"location_history":"[5,11,10,9]","action_history":"[0,0,0]","mutagen_history":"[1,1,1]","location_rts":"[2277,244,183]","trial_type":"fractal-mutation","trial_index":73,"time_elapsed":3164073,"internal_node_id":"0.0-5.0-34.0"},{"view_history":"[{\"page_index\":0,\"viewing_time\":5412}]","rt":5413,"trial_type":"instructions","trial_index":74,"time_elapsed":3170486,"internal_node_id":"0.0-6.0"},{"rt":2765,"responses":"{\"Q0\":\"\"}","trial_type":"survey-text","trial_index":75,"time_elapsed":3174258,"internal_node_id":"0.0-7.0"}]