[{"view_history":"[{\"page_index\":0,\"viewing_time\":4619},{\"page_index\":1,\"viewing_time\":12252},{\"page_index\":2,\"viewing_time\":79503},{\"page_index\":3,\"viewing_time\":4913}]","rt":101288,"trial_type":"instructions","trial_index":0,"time_elapsed":101288,"internal_node_id":"0.0-0.0"},{"view_history":"[{\"page_index\":0,\"viewing_time\":1911},{\"page_index\":1,\"viewing_time\":30845}]","rt":32756,"trial_type":"instructions","trial_index":1,"time_elapsed":135046,"internal_node_id":"0.0-1.0"},{"group":"dihedral group of order 12","room_assignment":["blue","green","brown","yellow","cyan","orange","purple","ivory","pink","red","olive","grey"],"door_color_assignment":["black","white"],"door_generator_assignment":[0,1],"goal":4,"start":0,"action_noise":0.15,"location_history":"[0,1,2,3,4]","action_history":"[0,0,0,0]","door_history":"[0,0,0,0]","location_rts":"[2407,2347,3929,555]","trial_type":"two-door-navigation","trial_index":2,"time_elapsed":151907,"internal_node_id":"0.0-2.0-0.0"},{"group":"dihedral group of order 12","room_assignment":["blue","green","brown","yellow","cyan","orange","purple","ivory","pink","red","olive","grey"],"door_color_assignment":["black","white"],"door_generator_assignment":[0,1],"goal":9,"start":4,"action_noise":0.15,"location_history":"[4,5,11,5,11,10,9]","action_history":"[1,1,1,1,0,0]","door_history":"[1,1,1,1,0,0]","location_rts":"[5808,392,305,263,531,307]","trial_type":"two-door-navigation","trial_index":3,"time_elapsed":169157,"internal_node_id":"0.0-2.0-1.0"},{"group":"dihedral group of order 12","room_assignment":["blue","green","brown","yellow","cyan","orange","purple","ivory","pink","red","olive","grey"],"door_color_assignment":["black","white"],"door_generator_assignment":[0,1],"goal":10,"start":9,"action_noise":0.15,"location_history":"[9,8,2,8,2,8,7,6,11,10]","action_history":"[0,0,1,1,1,0,0,0,0]","door_history":"[0,0,1,1,1,0,0,0,0]","location_rts":"[1239,321,507,369,574,668,506,423,512]","trial_type":"two-door-navigation","trial_index":4,"time_elapsed":187000,"internal_node_id":"0.0-2.0-2.0"},{"group":"dihedral group of order 12","room_assignment":["blue","green","brown","yellow","cyan","orange","purple","ivory","pink","red","olive","grey"],"door_color_assignment":["black","white"],"door_generator_assignment":[0,1],"goal":2,"start":10,"action_noise":0.15,"location_history":"[10,9,8,2]","action_history":"[0,0,0]","door_history":"[0,0,0]","location_rts":"[1201,503,537]","trial_type":"two-door-navigation","trial_index":5,"time_elapsed":195814,"internal_node_id":"0.0-2.0-3.0"},{"group":"dihedral group of order 12","room_assignment":["blue","green","brown","yellow","cyan","orange","purple","ivory","pink","red","olive","grey"],"door_color_assignment":["black","white"],"door_generator_assignment":[0,1],"goal":5,"start":2,"action_noise":0.15,"location_history":"[2,3,9,3,4,5]","action_history":"[0,0,0,0,0]","door_history":"[0,0,0,0,0]","location_rts":"[941,389,314,779,861]","trial_type":"two-door-navigation","trial_index":6,"time_elapsed":207717,"internal_node_id":"0.0-2.0-4.0"},{"group":"dihedral group of order 12","room_assignment":["blue","green","brown","yellow","cyan","orange","purple","ivory","pink","red","olive","grey"],"door_color_assignment":["black","white"],"door_generator_assignment":[0,1],"goal":11,"start":5,"action_noise":0.15,"location_history":"[5,0,6,0,1,2,3,9,8,7,6,0,6,0,6,11]","action_history":"[0,0,0,0,0,0,0,0,0,0,0,1,1,1,1]","door_history":"[0,0,0,0,0,0,0,0,0,0,0,1,1,1,1]","location_rts":"[2079,513,267,296,445,588,377,950,926,1279,838,471,399,310,285]","trial_type":"two-door-navigation","trial_index":7,"time_elapsed":236604,"internal_node_id":"0.0-2.0-5.0"},{"group":"dihedral group of order 12","room_assignment":["blue","green","brown","yellow","cyan","orange","purple","ivory","pink","red","olive","grey"],"door_color_assignment":["black","white"],"door_generator_assignment":[0,1],"goal":6,"start":11,"action_noise":0.15,"location_history":"[11,5,0,6]","action_history":"[1,1,1]","door_history":"[1,1,1]","location_rts":"[79539,456,488]","trial_type":"two-door-navigation","trial_index":8,"time_elapsed":323648,"internal_node_id":"0.0-2.0-6.0"},{"group":"dihedral group of order 12","room_assignment":["blue","green","brown","yellow","cyan","orange","purple","ivory","pink","red","olive","grey"],"door_color_assignment":["black","white"],"door_generator_assignment":[0,1],"goal":3,"start":6,"action_noise":0.15,"location_history":"[6,0,1,2,3]","action_history":"[0,0,0,0]","door_history":"[0,0,0,0]","location_rts":"[2456,2414,1745,1059]","trial_type":"two-door-navigation","trial_index":9,"time_elapsed":338921,"internal_node_id":"0.0-2.0-7.0"},{"group":"dihedral group of order 12","room_assignment":["blue","green","brown","yellow","cyan","orange","purple","ivory","pink","red","olive","grey"],"door_color_assignment":["black","white"],"door_generator_assignment":[0,1],"goal":8,"start":3,"action_noise":0.15,"location_history":"[3,4,5,0,1,2,3,4,5,0,1,7,1,7,1,7,1,7,6,11,5,11,10,4,5,0,1,2,3,4,5,11,5,0,6,0,6,11,10,9,8]","action_history":"[0,0,0,0,0,0,0,0,0,0,1,1,1,1,1,1,1,1,1,0,0,0,0,0,0,0,0,0,0,0,0,0,0,0,0,0,0,0,0,0]","door_history":"[0,0,0,0,0,0,0,0,0,0,1,1,1,1,1,1,1,1,1,0,0,0,0,0,0,0,0,0,0,0,0,0,0,0,0,0,0,0,0,0]","location_rts":"[1981,306,281,589,317,361,339,312,586,931,338,807,526,387,567,947,397,331,838,366,280,428,212,330,223,315,111,305,283,311,137,412,289,95,493,340,289,233,239,551]","trial_type":"two-door-navigation","trial_index":10,"time_elapsed":400733,"internal_node_id":"0.0-2.0-8.0"},{"group":"dihedral group of order 12","room_assignment":["blue","green","brown","yellow","cyan","orange","purple","ivory","pink","red","olive","grey"],"door_color_assignment":["black","white"],"door_generator_assignment":[0,1],"goal":1,"start":8,"action_noise":0.15,"location_history":"[8,7,6,11,10,9,8,7,6,11,10,9,8,7,6,11,10,9,8,2,8,2,8,2,8,2,8,2,8,2,8,7,6,11,10,9,8,7,6,11,10,9,8,7,6,11,5,0,1]","action_history":"[0,0,0,0,0,0,0,0,0,0,0,0,0,0,0,0,0,0,1,1,1,1,1,1,1,1,1,1,1,1,0,0,0,0,0,0,0,0,0,0,0,0,0,0,0,0,0,0]","door_history":"[0,0,0,0,0,0,0,0,0,0,0,0,0,0,0,0,0,0,1,1,1,1,1,1,1,1,1,1,1,1,0,0,0,0,0,0,0,0,0,0,0,0,0,0,0,0,0,0]","location_rts":"[10354,1466,390,199,305,332,31,101,337,53,45,332,52,497,805,634,626,522,398,178,224,205,189,213,216,201,432,122,171,96,194,304,44,320,123,128,49,120,164,459,152,189,71,38,541,609,484,498]","trial_type":"two-door-navigation","trial_index":11,"time_elapsed":477576,"internal_node_id":"0.0-2.0-9.0"},{"group":"dihedral group of order 12","room_assignment":["blue","green","brown","yellow","cyan","orange","purple","ivory","pink","red","olive","grey"],"door_color_assignment":["black","white"],"door_generator_assignment":[0,1],"goal":7,"start":1,"action_noise":0.15,"location_history":"[1,7]","action_history":"[1]","door_history":"[1]","location_rts":"[11623]","trial_type":"two-door-navigation","trial_index":12,"time_elapsed":493725,"internal_node_id":"0.0-2.0-10.0"},{"group":"dihedral group of order 12","room_assignment":["blue","green","brown","yellow","cyan","orange","purple","ivory","pink","red","olive","grey"],"door_color_assignment":["black","white"],"door_generator_assignment":[0,1],"goal":5,"start":7,"action_noise":0.15,"location_history":"[7,1,7,6,11,5]","action_history":"[0,0,0,0,0]","door_history":"[0,0,0,0,0]","location_rts":"[1596,231,309,244,220]","trial_type":"two-door-navigation","trial_index":13,"time_elapsed":504951,"internal_node_id":"0.0-2.0-11.0"},{"group":"dihedral group of order 12","room_assignment":["blue","green","brown","yellow","cyan","orange","purple","ivory","pink","red","olive","grey"],"door_color_assignment":["black","white"],"door_generator_assignment":[0,1],"goal":8,"start":5,"action_noise":0.15,"location_history":"[5,11,5,0,6,11,5,11,5,0,6,11,10,9,8]","action_history":"[1,1,1,1,1,1,1,1,1,1,0,0,0,0]","door_history":"[1,1,1,1,1,1,1,1,1,1,0,0,0,0]","location_rts":"[1594,351,211,237,219,177,155,317,243,126,296,138,347,315]","trial_type":"two-door-navigation","trial_index":14,"time_elapsed":527518,"internal_node_id":"0.0-2.0-12.0"},{"group":"dihedral group of order 12","room_assignment":["blue","green","brown","yellow","cyan","orange","purple","ivory","pink","red","olive","grey"],"door_color_assignment":["black","white"],"door_generator_assignment":[0,1],"goal":11,"start":8,"action_noise":0.15,"location_history":"[8,7,6,11]","action_history":"[0,0,0]","door_history":"[0,0,0]","location_rts":"[2161,168,38]","trial_type":"two-door-navigation","trial_index":15,"time_elapsed":536455,"internal_node_id":"0.0-2.0-13.0"},{"group":"dihedral group of order 12","room_assignment":["blue","green","brown","yellow","cyan","orange","purple","ivory","pink","red","olive","grey"],"door_color_assignment":["black","white"],"door_generator_assignment":[0,1],"goal":6,"start":11,"action_noise":0.15,"location_history":"[11,10,4,5,0,6]","action_history":"[0,0,0,0,0]","door_history":"[0,0,0,0,0]","location_rts":"[1069,266,326,75,215]","trial_type":"two-door-navigation","trial_index":16,"time_elapsed":547024,"internal_node_id":"0.0-2.0-14.0"},{"group":"dihedral group of order 12","room_assignment":["blue","green","brown","yellow","cyan","orange","purple","ivory","pink","red","olive","grey"],"door_color_assignment":["black","white"],"door_generator_assignment":[0,1],"goal":7,"start":6,"action_noise":0.15,"location_history":"[6,0,6,0,6,0,1,2,3,4,5,0,1,2,3,4,5,0,1,2,3,4,10,9,3,4,10,9,8,7]","action_history":"[1,1,1,1,0,0,0,0,0,0,0,0,0,0,0,0,0,0,0,0,0,0,0,0,0,0,0,0,0]","door_history":"[1,1,1,1,0,0,0,0,0,0,0,0,0,0,0,0,0,0,0,0,0,0,0,0,0,0,0,0,0]","location_rts":"[1379,433,245,319,371,278,234,258,306,351,294,371,253,219,87,184,364,273,28,263,365,222,347,429,314,70,85,1,154]","trial_type":"two-door-navigation","trial_index":17,"time_elapsed":588696,"internal_node_id":"0.0-2.0-15.0"},{"group":"dihedral group of order 12","room_assignment":["blue","green","brown","yellow","cyan","orange","purple","ivory","pink","red","olive","grey"],"door_color_assignment":["black","white"],"door_generator_assignment":[0,1],"goal":10,"start":7,"action_noise":0.15,"location_history":"[7,1,2,8,7,6,11,10]","action_history":"[0,0,0,0,0,0,0]","door_history":"[0,0,0,0,0,0,0]","location_rts":"[11420,279,249,628,209,254,372]","trial_type":"two-door-navigation","trial_index":18,"time_elapsed":612775,"internal_node_id":"0.0-2.0-16.0"},{"group":"dihedral group of order 12","room_assignment":["blue","green","brown","yellow","cyan","orange","purple","ivory","pink","red","olive","grey"],"door_color_assignment":["black","white"],"door_generator_assignment":[0,1],"goal":0,"start":10,"action_noise":0.15,"location_history":"[10,9,3,4,5,0]","action_history":"[0,0,0,0,0]","door_history":"[0,0,0,0,0]","location_rts":"[1013,63,198,78,230]","trial_type":"two-door-navigation","trial_index":19,"time_elapsed":622979,"internal_node_id":"0.0-2.0-17.0"},{"group":"dihedral group of order 12","room_assignment":["blue","green","brown","yellow","cyan","orange","purple","ivory","pink","red","olive","grey"],"door_color_assignment":["black","white"],"door_generator_assignment":[0,1],"goal":9,"start":0,"action_noise":0.15,"location_history":"[0,1,2,3,9]","action_history":"[0,0,0,0]","door_history":"[0,0,0,0]","location_rts":"[1037,352,154,346]","trial_type":"two-door-navigation","trial_index":20,"time_elapsed":632464,"internal_node_id":"0.0-2.0-18.0"},{"group":"dihedral group of order 12","room_assignment":["blue","green","brown","yellow","cyan","orange","purple","ivory","pink","red","olive","grey"],"door_color_assignment":["black","white"],"door_generator_assignment":[0,1],"goal":4,"start":9,"action_noise":0.15,"location_history":"[9,8,7,6,11,10,9,8,7,6,11,10,9,8,7,6,11,10,9,8,7,1,7,6,0,6,0,6,0,6,0,1,2,3,4]","action_history":"[0,0,0,0,0,0,0,0,0,0,0,0,0,0,0,0,0,0,0,0,0,1,1,1,1,1,1,1,1,0,0,0,0,0]","door_history":"[0,0,0,0,0,0,0,0,0,0,0,0,0,0,0,0,0,0,0,0,0,1,1,1,1,1,1,1,1,0,0,0,0,0]","location_rts":"[105,476,111,309,134,134,250,344,236,363,336,346,320,259,249,325,85,377,80,72,141,82,237,223,192,298,383,86,199,227,249,407,1945,338]","trial_type":"two-door-navigation","trial_index":21,"time_elapsed":680669,"internal_node_id":"0.0-2.0-19.0"},{"group":"dihedral group of order 12","room_assignment":["blue","green","brown","yellow","cyan","orange","purple","ivory","pink","red","olive","grey"],"door_color_assignment":["black","white"],"door_generator_assignment":[0,1],"goal":2,"start":4,"action_noise":0.15,"location_history":"[4,5,0,1,2]","action_history":"[0,0,0,0]","door_history":"[0,0,0,0]","location_rts":"[1603,106,207,112]","trial_type":"two-door-navigation","trial_index":22,"time_elapsed":690295,"internal_node_id":"0.0-2.0-20.0"},{"group":"dihedral group of order 12","room_assignment":["blue","green","brown","yellow","cyan","orange","purple","ivory","pink","red","olive","grey"],"door_color_assignment":["black","white"],"door_generator_assignment":[0,1],"goal":1,"start":2,"action_noise":0.15,"location_history":"[2,3,4,5,0,1]","action_history":"[0,0,0,0,0]","door_history":"[0,0,0,0,0]","location_rts":"[644,40,220,242,275]","trial_type":"two-door-navigation","trial_index":23,"time_elapsed":700336,"internal_node_id":"0.0-2.0-21.0"},{"group":"dihedral group of order 12","room_assignment":["blue","green","brown","yellow","cyan","orange","purple","ivory","pink","red","olive","grey"],"door_color_assignment":["black","white"],"door_generator_assignment":[0,1],"goal":3,"start":1,"action_noise":0.15,"location_history":"[1,2,3]","action_history":"[0,0]","door_history":"[0,0]","location_rts":"[1381,288]","trial_type":"two-door-navigation","trial_index":24,"time_elapsed":707558,"internal_node_id":"0.0-2.0-22.0"},{"group":"dihedral group of order 12","room_assignment":["blue","green","brown","yellow","cyan","orange","purple","ivory","pink","red","olive","grey"],"door_color_assignment":["black","white"],"door_generator_assignment":[0,1],"goal":7,"start":3,"action_noise":0.15,"location_history":"[3,4,5,0,1,2,3,4,5,0,1,2,3,4,5,0,1,2,3,4,10,4,5,11,5,11,5,0,6,0,6,0,1,2,3,9,8,2,3,4,5,0,1,2,3,4,10,9,8,7]","action_history":"[0,0,0,0,0,0,0,0,0,0,0,0,0,0,0,0,0,0,0,1,1,1,1,1,1,1,1,1,1,1,1,0,0,0,0,0,0,0,0,0,0,0,0,0,0,0,0,0,0]","door_history":"[0,0,0,0,0,0,0,0,0,0,0,0,0,0,0,0,0,0,0,1,1,1,1,1,1,1,1,1,1,1,1,0,0,0,0,0,0,0,0,0,0,0,0,0,0,0,0,0,0]","location_rts":"[1273,215,183,2316,90,139,319,58,4788,5110,371,351,311,349,315,295,301,279,516,336,179,248,321,307,253,382,258,224,227,282,236,311,72,149,72,201,73,260,190,136,245,109,437,224,353,266,75,131,183]","trial_type":"two-door-navigation","trial_index":25,"time_elapsed":785491,"internal_node_id":"0.0-2.0-23.0"},{"group":"dihedral group of order 12","room_assignment":["blue","green","brown","yellow","cyan","orange","purple","ivory","pink","red","olive","grey"],"door_color_assignment":["black","white"],"door_generator_assignment":[0,1],"goal":6,"start":7,"action_noise":0.15,"location_history":"[7,1,7,1,7,1,2,3,4,5,0,1,2,3,9,8,7,6]","action_history":"[1,1,1,1,0,0,0,0,0,0,0,0,0,0,0,0,0]","door_history":"[1,1,1,1,0,0,0,0,0,0,0,0,0,0,0,0,0]","location_rts":"[1414,307,319,296,379,525,336,46,134,184,103,251,127,534,345,288,245]","trial_type":"two-door-navigation","trial_index":26,"time_elapsed":812222,"internal_node_id":"0.0-2.0-24.0"},{"group":"dihedral group of order 12","room_assignment":["blue","green","brown","yellow","cyan","orange","purple","ivory","pink","red","olive","grey"],"door_color_assignment":["black","white"],"door_generator_assignment":[0,1],"goal":2,"start":6,"action_noise":0.15,"location_history":"[6,0,1,2]","action_history":"[0,0,0]","door_history":"[0,0,0]","location_rts":"[1768,183,191]","trial_type":"two-door-navigation","trial_index":27,"time_elapsed":820932,"internal_node_id":"0.0-2.0-25.0"},{"group":"dihedral group of order 12","room_assignment":["blue","green","brown","yellow","cyan","orange","purple","ivory","pink","red","olive","grey"],"door_color_assignment":["black","white"],"door_generator_assignment":[0,1],"goal":8,"start":2,"action_noise":0.15,"location_history":"[2,3,4,5,0,1,2,3,4,10,4,10,9,8]","action_history":"[0,0,0,0,0,0,0,0,0,0,0,0,0]","door_history":"[0,0,0,0,0,0,0,0,0,0,0,0,0]","location_rts":"[956,441,41,171,7,11,26,62,28,387,54,319,319]","trial_type":"two-door-navigation","trial_index":28,"time_elapsed":840563,"internal_node_id":"0.0-2.0-26.0"},{"group":"dihedral group of order 12","room_assignment":["blue","green","brown","yellow","cyan","orange","purple","ivory","pink","red","olive","grey"],"door_color_assignment":["black","white"],"door_generator_assignment":[0,1],"goal":0,"start":8,"action_noise":0.15,"location_history":"[8,7,6,11,5,0]","action_history":"[0,0,0,0,0]","door_history":"[0,0,0,0,0]","location_rts":"[785,522,432,6,186]","trial_type":"two-door-navigation","trial_index":29,"time_elapsed":851126,"internal_node_id":"0.0-2.0-27.0"},{"group":"dihedral group of order 12","room_assignment":["blue","green","brown","yellow","cyan","orange","purple","ivory","pink","red","olive","grey"],"door_color_assignment":["black","white"],"door_generator_assignment":[0,1],"goal":3,"start":0,"action_noise":0.15,"location_history":"[0,1,2,3]","action_history":"[0,0,0]","door_history":"[0,0,0]","location_rts":"[981,412,217]","trial_type":"two-door-navigation","trial_index":30,"time_elapsed":859312,"internal_node_id":"0.0-2.0-28.0"},{"group":"dihedral group of order 12","room_assignment":["blue","green","brown","yellow","cyan","orange","purple","ivory","pink","red","olive","grey"],"door_color_assignment":["black","white"],"door_generator_assignment":[0,1],"goal":4,"start":3,"action_noise":0.15,"location_history":"[3,9,8,7,6,0,1,2,3,4]","action_history":"[0,0,0,0,0,0,0,0,0]","door_history":"[0,0,0,0,0,0,0,0,0]","location_rts":"[894,581,258,353,369,218,28,213,201]","trial_type":"two-door-navigation","trial_index":31,"time_elapsed":875141,"internal_node_id":"0.0-2.0-29.0"},{"group":"dihedral group of order 12","room_assignment":["blue","green","brown","yellow","cyan","orange","purple","ivory","pink","red","olive","grey"],"door_color_assignment":["black","white"],"door_generator_assignment":[0,1],"goal":10,"start":4,"action_noise":0.15,"location_history":"[4,5,0,1,2,8,7,6,11,10]","action_history":"[0,0,0,0,0,0,0,0,0]","door_history":"[0,0,0,0,0,0,0,0,0]","location_rts":"[1655,163,203,103,28,53,1010,2005,1420]","trial_type":"two-door-navigation","trial_index":32,"time_elapsed":894493,"internal_node_id":"0.0-2.0-30.0"},{"group":"dihedral group of order 12","room_assignment":["blue","green","brown","yellow","cyan","orange","purple","ivory","pink","red","olive","grey"],"door_color_assignment":["black","white"],"door_generator_assignment":[0,1],"goal":11,"start":10,"action_noise":0.15,"location_history":"[10,9,8,7,6,0,1,2,3,4,5,11]","action_history":"[0,0,0,0,0,0,0,0,0,0,1]","door_history":"[0,0,0,0,0,0,0,0,0,0,1]","location_rts":"[2776,643,384,627,614,361,409,390,195,42,207]","trial_type":"two-door-navigation","trial_index":33,"time_elapsed":915883,"internal_node_id":"0.0-2.0-31.0"},{"group":"dihedral group of order 12","room_assignment":["blue","green","brown","yellow","cyan","orange","purple","ivory","pink","red","olive","grey"],"door_color_assignment":["black","white"],"door_generator_assignment":[0,1],"goal":1,"start":11,"action_noise":0.15,"location_history":"[11,10,4,5,0,6,11,10,9,3,4,5,11,10,4,10,4,10,9,8,7,6,11,10,9,8,7,1]","action_history":"[0,1,0,0,1,0,0,0,1,0,0,0,0,1,1,1,1,0,0,0,0,0,0,0,0,0,0]","door_history":"[0,1,0,0,1,0,0,0,1,0,0,0,0,1,1,1,1,0,0,0,0,0,0,0,0,0,0]","location_rts":"[1133,408,357,301,287,315,494,644,311,398,390,273,418,654,161,426,393,313,343,440,446,332,380,638,330,30,345]","trial_type":"two-door-navigation","trial_index":34,"time_elapsed":957982,"internal_node_id":"0.0-2.0-32.0"},{"group":"dihedral group of order 12","room_assignment":["blue","green","brown","yellow","cyan","orange","purple","ivory","pink","red","olive","grey"],"door_color_assignment":["black","white"],"door_generator_assignment":[0,1],"goal":5,"start":1,"action_noise":0.15,"location_history":"[1,2,8,7,6,11,10,9,8,7,6,11,10,9,8,2,8,2,8,2,8,2,8,7,6,11,10,9,8,7,6,11,10,9,8,7,6,11,5]","action_history":"[0,0,0,0,0,0,0,0,0,0,0,0,0,0,1,0,1,1,1,1,1,1,0,0,0,0,0,0,0,0,0,0,0,0,0,0,0,0]","door_history":"[0,0,0,0,0,0,0,0,0,0,0,0,0,0,1,0,1,1,1,1,1,1,0,0,0,0,0,0,0,0,0,0,0,0,0,0,0,0]","location_rts":"[1358,336,23,57,289,205,351,317,314,127,87,94,77,52,37,332,505,431,268,312,332,260,391,298,162,20,27,42,235,194,306,220,92,317,168,373,223,212]","trial_type":"two-door-navigation","trial_index":35,"time_elapsed":1009805,"internal_node_id":"0.0-2.0-33.0"},{"group":"dihedral group of order 12","room_assignment":["blue","green","brown","yellow","cyan","orange","purple","ivory","pink","red","olive","grey"],"door_color_assignment":["black","white"],"door_generator_assignment":[0,1],"goal":9,"start":5,"action_noise":0.15,"location_history":"[5,0,6,11,10,9]","action_history":"[0,0,0,0,0]","door_history":"[0,0,0,0,0]","location_rts":"[1285,323,63,173,362]","trial_type":"two-door-navigation","trial_index":36,"time_elapsed":1020621,"internal_node_id":"0.0-2.0-34.0"},{"view_history":"[{\"page_index\":0,\"viewing_time\":2757}]","rt":2757,"trial_type":"instructions","trial_index":37,"time_elapsed":1024380,"internal_node_id":"0.0-3.0"},{"view_history":"[{\"page_index\":0,\"viewing_time\":3404},{\"page_index\":1,\"viewing_time\":25597}]","rt":29002,"trial_type":"instructions","trial_index":38,"time_elapsed":1054383,"internal_node_id":"0.0-4.0"},{"group":"dihedral group of order 12","fractal_assignment":["../images/red_prp.png","../images/gry_blk.png","../images/ylw_slt.png","../images/grn_red.png","../images/grn_prp.png","../images/ylw_pnk.png","../images/org_blu.png","../images/wht_red.png","../images/pnk_blu.png","../images/cyn_red.png","../images/grn_blu.png","../images/blu_wht.png"],"mutagen_generator_assignment":[1,0],"goal":4,"start":0,"action_noise":0.15,"location_history":"[0,6,0,6,0,1,2,3,4]","action_history":"[1,1,1,0,0,0,0,0]","mutagen_history":"[0,0,0,1,1,1,1,1]","location_rts":"[4627,1886,588,362,846,917,574,878]","trial_type":"fractal-mutation","trial_index":39,"time_elapsed":1077637,"internal_node_id":"0.0-5.0-0.0"},{"group":"dihedral group of order 12","fractal_assignment":["../images/red_prp.png","../images/gry_blk.png","../images/ylw_slt.png","../images/grn_red.png","../images/grn_prp.png","../images/ylw_pnk.png","../images/org_blu.png","../images/wht_red.png","../images/pnk_blu.png","../images/cyn_red.png","../images/grn_blu.png","../images/blu_wht.png"],"mutagen_generator_assignment":[1,0],"goal":9,"start":4,"action_noise":0.15,"location_history":"[4,5,0,1,2,3,4,5,0,1,7,1,7,1,7,1,7,1,7,6,0,1,7,6,11,10,9]","action_history":"[0,0,0,0,0,0,0,0,0,1,1,1,1,1,1,1,1,1,0,1,0,1,0,0,0,0]","mutagen_history":"[1,1,1,1,1,1,1,1,1,0,0,0,0,0,0,0,0,0,1,0,1,0,1,1,1,1]","location_rts":"[1668,395,537,346,348,527,610,493,728,355,504,694,361,305,310,216,351,376,366,1362,501,815,535,467,441,463]","trial_type":"fractal-mutation","trial_index":40,"time_elapsed":1125139,"internal_node_id":"0.0-5.0-1.0"},{"group":"dihedral group of order 12","fractal_assignment":["../images/red_prp.png","../images/gry_blk.png","../images/ylw_slt.png","../images/grn_red.png","../images/grn_prp.png","../images/ylw_pnk.png","../images/org_blu.png","../images/wht_red.png","../images/pnk_blu.png","../images/cyn_red.png","../images/grn_blu.png","../images/blu_wht.png"],"mutagen_generator_assignment":[1,0],"goal":10,"start":9,"action_noise":0.15,"location_history":"[9,8,7,6,11,10]","action_history":"[0,0,0,0,0]","mutagen_history":"[1,1,1,1,1]","location_rts":"[2638,661,287,269,437]","trial_type":"fractal-mutation","trial_index":41,"time_elapsed":1139007,"internal_node_id":"0.0-5.0-2.0"},{"group":"dihedral group of order 12","fractal_assignment":["../images/red_prp.png","../images/gry_blk.png","../images/ylw_slt.png","../images/grn_red.png","../images/grn_prp.png","../images/ylw_pnk.png","../images/org_blu.png","../images/wht_red.png","../images/pnk_blu.png","../images/cyn_red.png","../images/grn_blu.png","../images/blu_wht.png"],"mutagen_generator_assignment":[1,0],"goal":2,"start":10,"action_noise":0.15,"location_history":"[10,4,5,0,1,2]","action_history":"[0,0,0,0,0]","mutagen_history":"[1,1,1,1,1]","location_rts":"[881,339,221,200,371]","trial_type":"fractal-mutation","trial_index":42,"time_elapsed":1150374,"internal_node_id":"0.0-5.0-3.0"},{"group":"dihedral group of order 12","fractal_assignment":["../images/red_prp.png","../images/gry_blk.png","../images/ylw_slt.png","../images/grn_red.png","../images/grn_prp.png","../images/ylw_pnk.png","../images/org_blu.png","../images/wht_red.png","../images/pnk_blu.png","../images/cyn_red.png","../images/grn_blu.png","../images/blu_wht.png"],"mutagen_generator_assignment":[1,0],"goal":5,"start":2,"action_noise":0.15,"location_history":"[2,8,2,8,7,6,0,6,0,6,11,10,9,8,2,3,4,5]","action_history":"[0,0,0,0,0,1,1,1,1,0,0,0,0,0,0,0,0]","mutagen_history":"[1,1,1,1,1,0,0,0,0,1,1,1,1,1,1,1,1]","location_rts":"[942,497,318,335,514,449,803,469,426,484,346,244,94,291,318,235,276]","trial_type":"fractal-mutation","trial_index":43,"time_elapsed":1180620,"internal_node_id":"0.0-5.0-4.0"},{"group":"dihedral group of order 12","fractal_assignment":["../images/red_prp.png","../images/gry_blk.png","../images/ylw_slt.png","../images/grn_red.png","../images/grn_prp.png","../images/ylw_pnk.png","../images/org_blu.png","../images/wht_red.png","../images/pnk_blu.png","../images/cyn_red.png","../images/grn_blu.png","../images/blu_wht.png"],"mutagen_generator_assignment":[1,0],"goal":11,"start":5,"action_noise":0.15,"location_history":"[5,0,1,2,3,9,8,7,6,0,1,2,3,4,5,0,1,2,3,9,3,9,8,2,8,2,8,2,3,4,5,0,1,2,3,4,5,11]","action_history":"[0,0,0,0,0,0,0,0,0,0,0,0,0,0,0,0,0,0,1,1,1,1,1,1,1,1,1,0,0,0,0,0,0,0,0,0,0]","mutagen_history":"[1,1,1,1,1,1,1,1,1,1,1,1,1,1,1,1,1,1,0,0,0,0,0,0,0,0,0,1,1,1,1,1,1,1,1,1,1]","location_rts":"[1895,131,180,65,189,383,190,262,261,389,255,350,445,519,447,739,382,522,1993,370,538,367,948,484,347,350,514,239,285,963,315,228,266,306,242,91,84]","trial_type":"fractal-mutation","trial_index":44,"time_elapsed":1243444,"internal_node_id":"0.0-5.0-5.0"},{"group":"dihedral group of order 12","fractal_assignment":["../images/red_prp.png","../images/gry_blk.png","../images/ylw_slt.png","../images/grn_red.png","../images/grn_prp.png","../images/ylw_pnk.png","../images/org_blu.png","../images/wht_red.png","../images/pnk_blu.png","../images/cyn_red.png","../images/grn_blu.png","../images/blu_wht.png"],"mutagen_generator_assignment":[1,0],"goal":6,"start":11,"action_noise":0.15,"location_history":"[11,10,9,8,7,6]","action_history":"[0,0,0,0,0]","mutagen_history":"[1,1,1,1,1]","location_rts":"[1169,177,28,376,1168]","trial_type":"fractal-mutation","trial_index":45,"time_elapsed":1255740,"internal_node_id":"0.0-5.0-6.0"},{"group":"dihedral group of order 12","fractal_assignment":["../images/red_prp.png","../images/gry_blk.png","../images/ylw_slt.png","../images/grn_red.png","../images/grn_prp.png","../images/ylw_pnk.png","../images/org_blu.png","../images/wht_red.png","../images/pnk_blu.png","../images/cyn_red.png","../images/grn_blu.png","../images/blu_wht.png"],"mutagen_generator_assignment":[1,0],"goal":3,"start":6,"action_noise":0.15,"location_history":"[6,11,10,9,8,7,6,11,10,4,5,11,5,0,1,2,3]","action_history":"[0,0,0,0,0,0,0,0,0,0,0,0,0,0,0,0]","mutagen_history":"[1,1,1,1,1,1,1,1,1,1,1,1,1,1,1,1]","location_rts":"[660,211,0,149,318,412,248,294,276,75,183,245,28,144,153,309]","trial_type":"fractal-mutation","trial_index":46,"time_elapsed":1281797,"internal_node_id":"0.0-5.0-7.0"},{"group":"dihedral group of order 12","fractal_assignment":["../images/red_prp.png","../images/gry_blk.png","../images/ylw_slt.png","../images/grn_red.png","../images/grn_prp.png","../images/ylw_pnk.png","../images/org_blu.png","../images/wht_red.png","../images/pnk_blu.png","../images/cyn_red.png","../images/grn_blu.png","../images/blu_wht.png"],"mutagen_generator_assignment":[1,0],"goal":8,"start":3,"action_noise":0.15,"location_history":"[3,4,10,9,8]","action_history":"[0,0,0,0]","mutagen_history":"[1,1,1,1]","location_rts":"[703,64,176,78]","trial_type":"fractal-mutation","trial_index":47,"time_elapsed":1291105,"internal_node_id":"0.0-5.0-8.0"},{"group":"dihedral group of order 12","fractal_assignment":["../images/red_prp.png","../images/gry_blk.png","../images/ylw_slt.png","../images/grn_red.png","../images/grn_prp.png","../images/ylw_pnk.png","../images/org_blu.png","../images/wht_red.png","../images/pnk_blu.png","../images/cyn_red.png","../images/grn_blu.png","../images/blu_wht.png"],"mutagen_generator_assignment":[1,0],"goal":1,"start":8,"action_noise":0.15,"location_history":"[8,7,6,11,10,9,8,7,6,11,5,0,6,11,10,9,8,7,6,0,6,0,6,0,6,11,5,11,5,11,5,0,1]","action_history":"[0,0,0,0,0,0,0,0,0,0,0,0,0,0,0,0,0,0,1,1,1,1,1,1,1,1,1,1,1,1,0,0]","mutagen_history":"[1,1,1,1,1,1,1,1,1,1,1,1,1,1,1,1,1,1,0,0,0,0,0,0,0,0,0,0,0,0,1,1]","location_rts":"[589,38,171,217,217,373,224,651,515,873,73,193,214,119,302,283,2143,4754,380,381,277,282,561,274,317,267,260,391,410,470,261,214]","trial_type":"fractal-mutation","trial_index":48,"time_elapsed":1347995,"internal_node_id":"0.0-5.0-9.0"},{"group":"dihedral group of order 12","fractal_assignment":["../images/red_prp.png","../images/gry_blk.png","../images/ylw_slt.png","../images/grn_red.png","../images/grn_prp.png","../images/ylw_pnk.png","../images/org_blu.png","../images/wht_red.png","../images/pnk_blu.png","../images/cyn_red.png","../images/grn_blu.png","../images/blu_wht.png"],"mutagen_generator_assignment":[1,0],"goal":7,"start":1,"action_noise":0.15,"location_history":"[1,2,8,2,8,2,8,7]","action_history":"[0,1,1,1,1,1,0]","mutagen_history":"[1,0,0,0,0,0,1]","location_rts":"[1352,236,262,225,203,348,249]","trial_type":"fractal-mutation","trial_index":49,"time_elapsed":1362230,"internal_node_id":"0.0-5.0-10.0"},{"group":"dihedral group of order 12","fractal_assignment":["../images/red_prp.png","../images/gry_blk.png","../images/ylw_slt.png","../images/grn_red.png","../images/grn_prp.png","../images/ylw_pnk.png","../images/org_blu.png","../images/wht_red.png","../images/pnk_blu.png","../images/cyn_red.png","../images/grn_blu.png","../images/blu_wht.png"],"mutagen_generator_assignment":[1,0],"goal":5,"start":7,"action_noise":0.15,"location_history":"[7,6,0,6,0,1,2,3,4,5]","action_history":"[1,1,1,1,0,0,0,0,0]","mutagen_history":"[0,0,0,0,1,1,1,1,1]","location_rts":"[1445,256,383,482,256,246,335,81,178]","trial_type":"fractal-mutation","trial_index":50,"time_elapsed":1379447,"internal_node_id":"0.0-5.0-11.0"},{"group":"dihedral group of order 12","fractal_assignment":["../images/red_prp.png","../images/gry_blk.png","../images/ylw_slt.png","../images/grn_red.png","../images/grn_prp.png","../images/ylw_pnk.png","../images/org_blu.png","../images/wht_red.png","../images/pnk_blu.png","../images/cyn_red.png","../images/grn_blu.png","../images/blu_wht.png"],"mutagen_generator_assignment":[1,0],"goal":8,"start":5,"action_noise":0.15,"location_history":"[5,11,5,0,1,7,1,7,6,0,1,2,3,4,5,0,1,2,3,4,5,11,10,9,3,4,5,0,1,7,1,2,3,4,5,0,1,2,8]","action_history":"[1,1,1,1,1,1,1,0,0,0,0,0,0,0,0,0,0,0,0,0,0,1,0,1,0,0,0,0,0,0,0,0,0,0,0,0,0,1]","mutagen_history":"[0,0,0,0,0,0,0,1,1,1,1,1,1,1,1,1,1,1,1,1,1,0,1,0,1,1,1,1,1,1,1,1,1,1,1,1,1,0]","location_rts":"[341,266,216,402,412,311,326,258,467,255,400,122,399,348,311,97,117,292,549,664,693,150,356,342,265,541,507,396,635,220,18,195,131,2262,355,8,2506,552]","trial_type":"fractal-mutation","trial_index":51,"time_elapsed":1443115,"internal_node_id":"0.0-5.0-12.0"},{"group":"dihedral group of order 12","fractal_assignment":["../images/red_prp.png","../images/gry_blk.png","../images/ylw_slt.png","../images/grn_red.png","../images/grn_prp.png","../images/ylw_pnk.png","../images/org_blu.png","../images/wht_red.png","../images/pnk_blu.png","../images/cyn_red.png","../images/grn_blu.png","../images/blu_wht.png"],"mutagen_generator_assignment":[1,0],"goal":11,"start":8,"action_noise":0.15,"location_history":"[8,7,1,7,1,7,6,11]","action_history":"[0,1,0,1,1,0,0]","mutagen_history":"[1,0,1,0,0,1,1]","location_rts":"[872,203,584,108,264,441,227]","trial_type":"fractal-mutation","trial_index":52,"time_elapsed":1457386,"internal_node_id":"0.0-5.0-13.0"},{"group":"dihedral group of order 12","fractal_assignment":["../images/red_prp.png","../images/gry_blk.png","../images/ylw_slt.png","../images/grn_red.png","../images/grn_prp.png","../images/ylw_pnk.png","../images/org_blu.png","../images/wht_red.png","../images/pnk_blu.png","../images/cyn_red.png","../images/grn_blu.png","../images/blu_wht.png"],"mutagen_generator_assignment":[1,0],"goal":6,"start":11,"action_noise":0.15,"location_history":"[11,5,11,10,9,3,4,10,4,10,9,3,4,5,11,5,0,1,7,6]","action_history":"[1,1,0,0,1,0,1,0,1,0,0,0,0,1,0,0,0,1,0]","mutagen_history":"[0,0,1,1,0,1,0,1,0,1,1,1,1,0,1,1,1,0,1]","location_rts":"[468,266,227,122,37,379,248,310,255,233,194,109,74,94,131,312,149,64,197]","trial_type":"fractal-mutation","trial_index":53,"time_elapsed":1486621,"internal_node_id":"0.0-5.0-14.0"},{"group":"dihedral group of order 12","fractal_assignment":["../images/red_prp.png","../images/gry_blk.png","../images/ylw_slt.png","../images/grn_red.png","../images/grn_prp.png","../images/ylw_pnk.png","../images/org_blu.png","../images/wht_red.png","../images/pnk_blu.png","../images/cyn_red.png","../images/grn_blu.png","../images/blu_wht.png"],"mutagen_generator_assignment":[1,0],"goal":7,"start":6,"action_noise":0.15,"location_history":"[6,0,1,7]","action_history":"[1,0,1]","mutagen_history":"[0,1,0]","location_rts":"[790,140,311]","trial_type":"fractal-mutation","trial_index":54,"time_elapsed":1494685,"internal_node_id":"0.0-5.0-15.0"},{"group":"dihedral group of order 12","fractal_assignment":["../images/red_prp.png","../images/gry_blk.png","../images/ylw_slt.png","../images/grn_red.png","../images/grn_prp.png","../images/ylw_pnk.png","../images/org_blu.png","../images/wht_red.png","../images/pnk_blu.png","../images/cyn_red.png","../images/grn_blu.png","../images/blu_wht.png"],"mutagen_generator_assignment":[1,0],"goal":10,"start":7,"action_noise":0.15,"location_history":"[7,6,0,1,2,3,9,8,7,1,2,3,4,5,11,10]","action_history":"[0,1,0,1,0,1,0,1,1,0,0,0,0,1,0]","mutagen_history":"[1,0,1,0,1,0,1,0,0,1,1,1,1,0,1]","location_rts":"[1242,192,341,346,420,332,377,353,362,257,86,515,898,873,201]","trial_type":"fractal-mutation","trial_index":55,"time_elapsed":1522165,"internal_node_id":"0.0-5.0-16.0"},{"group":"dihedral group of order 12","fractal_assignment":["../images/red_prp.png","../images/gry_blk.png","../images/ylw_slt.png","../images/grn_red.png","../images/grn_prp.png","../images/ylw_pnk.png","../images/org_blu.png","../images/wht_red.png","../images/pnk_blu.png","../images/cyn_red.png","../images/grn_blu.png","../images/blu_wht.png"],"mutagen_generator_assignment":[1,0],"goal":0,"start":10,"action_noise":0.15,"location_history":"[10,9,3,4,10,9,8,7,6,11,5,11,10,4,10,4,5,11,10,4,5,0]","action_history":"[0,1,0,1,0,1,0,1,0,1,1,0,1,1,0,0,1,0,1,0,1]","mutagen_history":"[1,0,1,0,1,0,1,0,1,0,0,1,0,0,1,1,0,1,0,1,0]","location_rts":"[734,114,233,30,108,298,169,211,117,124,247,230,600,416,314,599,704,575,497,434,586]","trial_type":"fractal-mutation","trial_index":56,"time_elapsed":1556997,"internal_node_id":"0.0-5.0-17.0"},{"group":"dihedral group of order 12","fractal_assignment":["../images/red_prp.png","../images/gry_blk.png","../images/ylw_slt.png","../images/grn_red.png","../images/grn_prp.png","../images/ylw_pnk.png","../images/org_blu.png","../images/wht_red.png","../images/pnk_blu.png","../images/cyn_red.png","../images/grn_blu.png","../images/blu_wht.png"],"mutagen_generator_assignment":[1,0],"goal":9,"start":0,"action_noise":0.15,"location_history":"[0,1,7,6,11,5,0,1,7,1,2,8,7,1,2,3,4,10,9]","action_history":"[0,1,0,0,0,1,0,1,1,0,1,0,1,0,0,0,1,0]","mutagen_history":"[1,0,1,1,1,0,1,0,0,1,0,1,0,1,1,1,0,1]","location_rts":"[532,292,159,112,71,538,54,18,724,41,73,222,1175,210,603,1755,4810,2475]","trial_type":"fractal-mutation","trial_index":57,"time_elapsed":1594738,"internal_node_id":"0.0-5.0-18.0"},{"group":"dihedral group of order 12","fractal_assignment":["../images/red_prp.png","../images/gry_blk.png","../images/ylw_slt.png","../images/grn_red.png","../images/grn_prp.png","../images/ylw_pnk.png","../images/org_blu.png","../images/wht_red.png","../images/pnk_blu.png","../images/cyn_red.png","../images/grn_blu.png","../images/blu_wht.png"],"mutagen_generator_assignment":[1,0],"goal":4,"start":9,"action_noise":0.15,"location_history":"[9,3,4]","action_history":"[1,0]","mutagen_history":"[0,1]","location_rts":"[1299,349]","trial_type":"fractal-mutation","trial_index":58,"time_elapsed":1602203,"internal_node_id":"0.0-5.0-19.0"},{"group":"dihedral group of order 12","fractal_assignment":["../images/red_prp.png","../images/gry_blk.png","../images/ylw_slt.png","../images/grn_red.png","../images/grn_prp.png","../images/ylw_pnk.png","../images/org_blu.png","../images/wht_red.png","../images/pnk_blu.png","../images/cyn_red.png","../images/grn_blu.png","../images/blu_wht.png"],"mutagen_generator_assignment":[1,0],"goal":2,"start":4,"action_noise":0.15,"location_history":"[4,10,4,10,9,3,4,10,9,3,4,5,11,10,4,5,0,6,11,5,11,5,11,10,9,8,7,1,7,1,2]","action_history":"[1,0,1,0,1,0,1,0,1,0,0,1,0,1,0,0,0,0,1,1,1,1,0,0,0,0,1,1,1,0]","mutagen_history":"[0,1,0,1,0,1,0,1,0,1,1,0,1,0,1,1,1,1,0,0,0,0,1,1,1,1,0,0,0,1]","location_rts":"[434,319,29,592,316,109,15,2,145,0,219,53,12,920,351,128,79,68,213,98,78,4,246,191,87,17,18,17,50,17]","trial_type":"fractal-mutation","trial_index":59,"time_elapsed":1644620,"internal_node_id":"0.0-5.0-20.0"},{"group":"dihedral group of order 12","fractal_assignment":["../images/red_prp.png","../images/gry_blk.png","../images/ylw_slt.png","../images/grn_red.png","../images/grn_prp.png","../images/ylw_pnk.png","../images/org_blu.png","../images/wht_red.png","../images/pnk_blu.png","../images/cyn_red.png","../images/grn_blu.png","../images/blu_wht.png"],"mutagen_generator_assignment":[1,0],"goal":1,"start":2,"action_noise":0.15,"location_history":"[2,8,7,6,11,10,4,5,0,1]","action_history":"[1,0,1,0,0,1,1,0,0]","mutagen_history":"[0,1,0,1,1,0,0,1,1]","location_rts":"[644,99,429,61,169,6,12,44,46]","trial_type":"fractal-mutation","trial_index":60,"time_elapsed":1659791,"internal_node_id":"0.0-5.0-21.0"},{"group":"dihedral group of order 12","fractal_assignment":["../images/red_prp.png","../images/gry_blk.png","../images/ylw_slt.png","../images/grn_red.png","../images/grn_prp.png","../images/ylw_pnk.png","../images/org_blu.png","../images/wht_red.png","../images/pnk_blu.png","../images/cyn_red.png","../images/grn_blu.png","../images/blu_wht.png"],"mutagen_generator_assignment":[1,0],"goal":3,"start":1,"action_noise":0.15,"location_history":"[1,7,1,2,8,2,8,2,8,7,1,7,6,0,1,7,6,11,10,9,3]","action_history":"[1,1,0,1,0,1,1,1,0,0,1,0,1,0,1,0,1,0,0,0]","mutagen_history":"[0,0,1,0,1,0,0,0,1,1,0,1,0,1,0,1,0,1,1,1]","location_rts":"[328,249,247,192,29,236,161,359,266,474,100,114,2028,1199,3914,194,566,18,213,309]","trial_type":"fractal-mutation","trial_index":61,"time_elapsed":1696881,"internal_node_id":"0.0-5.0-22.0"},{"group":"dihedral group of order 12","fractal_assignment":["../images/red_prp.png","../images/gry_blk.png","../images/ylw_slt.png","../images/grn_red.png","../images/grn_prp.png","../images/ylw_pnk.png","../images/org_blu.png","../images/wht_red.png","../images/pnk_blu.png","../images/cyn_red.png","../images/grn_blu.png","../images/blu_wht.png"],"mutagen_generator_assignment":[1,0],"goal":7,"start":3,"action_noise":0.15,"location_history":"[3,4,5,0,6,11,5,11,10,4,10,9,8,7]","action_history":"[0,1,0,1,0,1,1,0,1,1,0,0,0]","mutagen_history":"[1,0,1,0,1,0,0,1,0,0,1,1,1]","location_rts":"[332,20,108,426,266,115,277,60,93,865,250,181,167]","trial_type":"fractal-mutation","trial_index":62,"time_elapsed":1718403,"internal_node_id":"0.0-5.0-23.0"},{"group":"dihedral group of order 12","fractal_assignment":["../images/red_prp.png","../images/gry_blk.png","../images/ylw_slt.png","../images/grn_red.png","../images/grn_prp.png","../images/ylw_pnk.png","../images/org_blu.png","../images/wht_red.png","../images/pnk_blu.png","../images/cyn_red.png","../images/grn_blu.png","../images/blu_wht.png"],"mutagen_generator_assignment":[1,0],"goal":6,"start":7,"action_noise":0.15,"location_history":"[7,1,7,6]","action_history":"[0,1,0]","mutagen_history":"[1,0,1]","location_rts":"[563,219,187]","trial_type":"fractal-mutation","trial_index":63,"time_elapsed":1726261,"internal_node_id":"0.0-5.0-24.0"},{"group":"dihedral group of order 12","fractal_assignment":["../images/red_prp.png","../images/gry_blk.png","../images/ylw_slt.png","../images/grn_red.png","../images/grn_prp.png","../images/ylw_pnk.png","../images/org_blu.png","../images/wht_red.png","../images/pnk_blu.png","../images/cyn_red.png","../images/grn_blu.png","../images/blu_wht.png"],"mutagen_generator_assignment":[1,0],"goal":2,"start":6,"action_noise":0.15,"location_history":"[6,11,10,9,8,2]","action_history":"[0,1,0,0,1]","mutagen_history":"[1,0,1,1,0]","location_rts":"[356,378,310,593,306]","trial_type":"fractal-mutation","trial_index":64,"time_elapsed":1737458,"internal_node_id":"0.0-5.0-25.0"},{"group":"dihedral group of order 12","fractal_assignment":["../images/red_prp.png","../images/gry_blk.png","../images/ylw_slt.png","../images/grn_red.png","../images/grn_prp.png","../images/ylw_pnk.png","../images/org_blu.png","../images/wht_red.png","../images/pnk_blu.png","../images/cyn_red.png","../images/grn_blu.png","../images/blu_wht.png"],"mutagen_generator_assignment":[1,0],"goal":8,"start":2,"action_noise":0.15,"location_history":"[2,8]","action_history":"[1]","mutagen_history":"[0]","location_rts":"[303]","trial_type":"fractal-mutation","trial_index":65,"time_elapsed":1742295,"internal_node_id":"0.0-5.0-26.0"},{"group":"dihedral group of order 12","fractal_assignment":["../images/red_prp.png","../images/gry_blk.png","../images/ylw_slt.png","../images/grn_red.png","../images/grn_prp.png","../images/ylw_pnk.png","../images/org_blu.png","../images/wht_red.png","../images/pnk_blu.png","../images/cyn_red.png","../images/grn_blu.png","../images/blu_wht.png"],"mutagen_generator_assignment":[1,0],"goal":0,"start":8,"action_noise":0.15,"location_history":"[8,2,8,7,6,0]","action_history":"[1,1,0,0,0]","mutagen_history":"[0,0,1,1,1]","location_rts":"[535,369,296,42,847]","trial_type":"fractal-mutation","trial_index":66,"time_elapsed":1753381,"internal_node_id":"0.0-5.0-27.0"},{"group":"dihedral group of order 12","fractal_assignment":["../images/red_prp.png","../images/gry_blk.png","../images/ylw_slt.png","../images/grn_red.png","../images/grn_prp.png","../images/ylw_pnk.png","../images/org_blu.png","../images/wht_red.png","../images/pnk_blu.png","../images/cyn_red.png","../images/grn_blu.png","../images/blu_wht.png"],"mutagen_generator_assignment":[1,0],"goal":3,"start":0,"action_noise":0.15,"location_history":"[0,1,7,6,0,6,0,6,0,1,2,3]","action_history":"[0,0,0,1,1,1,1,1,0,0,0]","mutagen_history":"[1,1,1,0,0,0,0,0,1,1,1]","location_rts":"[594,172,97,431,84,197,126,324,135,87,269]","trial_type":"fractal-mutation","trial_index":67,"time_elapsed":1771733,"internal_node_id":"0.0-5.0-28.0"},{"group":"dihedral group of order 12","fractal_assignment":["../images/red_prp.png","../images/gry_blk.png","../images/ylw_slt.png","../images/grn_red.png","../images/grn_prp.png","../images/ylw_pnk.png","../images/org_blu.png","../images/wht_red.png","../images/pnk_blu.png","../images/cyn_red.png","../images/grn_blu.png","../images/blu_wht.png"],"mutagen_generator_assignment":[1,0],"goal":4,"start":3,"action_noise":0.15,"location_history":"[3,9,3,4]","action_history":"[1,1,0]","mutagen_history":"[0,0,1]","location_rts":"[840,63,76]","trial_type":"fractal-mutation","trial_index":68,"time_elapsed":1779426,"internal_node_id":"0.0-5.0-29.0"},{"group":"dihedral group of order 12","fractal_assignment":["../images/red_prp.png","../images/gry_blk.png","../images/ylw_slt.png","../images/grn_red.png","../images/grn_prp.png","../images/ylw_pnk.png","../images/org_blu.png","../images/wht_red.png","../images/pnk_blu.png","../images/cyn_red.png","../images/grn_blu.png","../images/blu_wht.png"],"mutagen_generator_assignment":[1,0],"goal":10,"start":4,"action_noise":0.15,"location_history":"[4,5,11,10]","action_history":"[1,1,0]","mutagen_history":"[0,0,1]","location_rts":"[67,300,145]","trial_type":"fractal-mutation","trial_index":69,"time_elapsed":1786701,"internal_node_id":"0.0-5.0-30.0"},{"group":"dihedral group of order 12","fractal_assignment":["../images/red_prp.png","../images/gry_blk.png","../images/ylw_slt.png","../images/grn_red.png","../images/grn_prp.png","../images/ylw_pnk.png","../images/org_blu.png","../images/wht_red.png","../images/pnk_blu.png","../images/cyn_red.png","../images/grn_blu.png","../images/blu_wht.png"],"mutagen_generator_assignment":[1,0],"goal":11,"start":10,"action_noise":0.15,"location_history":"[10,4,10,4,5,11]","action_history":"[1,1,1,0,0]","mutagen_history":"[0,0,0,1,1]","location_rts":"[68,146,102,38,66]","trial_type":"fractal-mutation","trial_index":70,"time_elapsed":1796064,"internal_node_id":"0.0-5.0-31.0"},{"group":"dihedral group of order 12","fractal_assignment":["../images/red_prp.png","../images/gry_blk.png","../images/ylw_slt.png","../images/grn_red.png","../images/grn_prp.png","../images/ylw_pnk.png","../images/org_blu.png","../images/wht_red.png","../images/pnk_blu.png","../images/cyn_red.png","../images/grn_blu.png","../images/blu_wht.png"],"mutagen_generator_assignment":[1,0],"goal":1,"start":11,"action_noise":0.15,"location_history":"[11,10,9,3,9,3,9,8,2,3,9,8,7,6,0,6,0,1]","action_history":"[0,0,1,1,1,1,0,1,0,1,0,0,0,1,1,1,0]","mutagen_history":"[1,1,0,0,0,0,1,0,1,0,1,1,1,0,0,0,1]","location_rts":"[224,144,186,199,554,214,170,159,267,403,228,15,170,185,193,21,610]","trial_type":"fractal-mutation","trial_index":71,"time_elapsed":1822960,"internal_node_id":"0.0-5.0-32.0"},{"group":"dihedral group of order 12","fractal_assignment":["../images/red_prp.png","../images/gry_blk.png","../images/ylw_slt.png","../images/grn_red.png","../images/grn_prp.png","../images/ylw_pnk.png","../images/org_blu.png","../images/wht_red.png","../images/pnk_blu.png","../images/cyn_red.png","../images/grn_blu.png","../images/blu_wht.png"],"mutagen_generator_assignment":[1,0],"goal":5,"start":1,"action_noise":0.15,"location_history":"[1,7,6,11,10,9,3,9,8,2,8,2,8,7,6,0,1,2,8,2,8,7,1,2,8,2,8,2,8,7,1,7,1,2,8,2,8,7,1,7,1,2,3,4,5]","action_history":"[1,1,1,0,0,0,1,0,1,1,0,0,0,0,1,1,1,1,1,1,0,1,0,1,0,1,0,1,0,1,1,0,0,1,1,1,1,1,1,1,0,0,0,0]","mutagen_history":"[0,0,0,1,1,1,0,1,0,0,1,1,1,1,0,0,0,0,0,0,1,0,1,0,1,0,1,0,1,0,0,1,1,0,0,0,0,0,0,0,1,1,1,1]","location_rts":"[477,87,1309,225,78,74,34,1667,409,299,2408,4382,279,340,14,47,772,219,352,200,891,439,1535,5,554,56,210,111,92,73,193,50,0,102,226,110,556,956,177,739,257,294,0,193]","trial_type":"fractal-mutation","trial_index":72,"time_elapsed":1897443,"internal_node_id":"0.0-5.0-33.0"},{"group":"dihedral group of order 12","fractal_assignment":["../images/red_prp.png","../images/gry_blk.png","../images/ylw_slt.png","../images/grn_red.png","../images/grn_prp.png","../images/ylw_pnk.png","../images/org_blu.png","../images/wht_red.png","../images/pnk_blu.png","../images/cyn_red.png","../images/grn_blu.png","../images/blu_wht.png"],"mutagen_generator_assignment":[1,0],"goal":9,"start":5,"action_noise":0.15,"location_history":"[5,0,1,7,1,7,1,7,6,11,5,0,6,11,5,0,1,7,6,11,5,11,10,4,5,11,5,0,1,2,8,7,6,11,10,9]","action_history":"[0,0,1,1,1,1,1,0,0,0,0,1,0,1,0,0,1,0,0,1,1,0,1,0,1,1,0,0,0,1,0,0,0,0,0]","mutagen_history":"[1,1,0,0,0,0,0,1,1,1,1,0,1,0,1,1,0,1,1,0,0,1,0,1,0,0,1,1,1,0,1,1,1,1,1]","location_rts":"[27436,103,255,389,302,535,8901,712,557,375,98,2471,1752,304,4206,4233,1627,3299,4133,323,4532,1408,890,3214,302,313,361,1790,418,1,302,2053,829,6428,350]","trial_type":"fractal-mutation","trial_index":73,"time_elapsed":2030379,"internal_node_id":"0.0-5.0-34.0"},{"view_history":"[{\"page_index\":0,\"viewing_time\":12952}]","rt":12953,"trial_type":"instructions","trial_index":74,"time_elapsed":2044333,"internal_node_id":"0.0-6.0"},{"rt":1797,"responses":"{\"Q0\":\"\"}","trial_type":"survey-text","trial_index":75,"time_elapsed":2047134,"internal_node_id":"0.0-7.0"}]