[{"view_history":"[{\"page_index\":0,\"viewing_time\":245280},{\"page_index\":1,\"viewing_time\":29298},{\"page_index\":2,\"viewing_time\":28082},{\"page_index\":3,\"viewing_time\":12668}]","rt":315329,"trial_type":"instructions","trial_index":0,"time_elapsed":315329,"internal_node_id":"0.0-0.0"},{"view_history":"[{\"page_index\":0,\"viewing_time\":1762},{\"page_index\":1,\"viewing_time\":50630}]","rt":52392,"trial_type":"instructions","trial_index":1,"time_elapsed":368728,"internal_node_id":"0.0-1.0"},{"group":"dihedral group of order 12","room_assignment":["cyan","blue","ivory","red","yellow","green","brown","grey","pink","olive","orange","purple"],"door_color_assignment":["black","white"],"door_generator_assignment":[0,1],"goal":4,"start":0,"action_noise":0.15,"location_history":"[0,1,2,3,4]","action_history":"[0,0,0,0]","door_history":"[0,0,0,0]","location_rts":"[3770,1895,662,1176]","trial_type":"two-door-navigation","trial_index":2,"time_elapsed":384027,"internal_node_id":"0.0-2.0-0.0"},{"group":"dihedral group of order 12","room_assignment":["cyan","blue","ivory","red","yellow","green","brown","grey","pink","olive","orange","purple"],"door_color_assignment":["black","white"],"door_generator_assignment":[0,1],"goal":9,"start":4,"action_noise":0.15,"location_history":"[4,10,4,10,4,5,0,1,7,1,7,1,7,6,0,6,0,1,2,3,4,5,0,6,0,6,11,5,0,6,11,5,11,5,11,10,9]","action_history":"[1,1,1,1,0,0,0,1,1,1,1,1,0,1,1,1,0,0,0,0,0,0,1,1,1,0,0,1,1,1,1,1,1,1,0,0]","door_history":"[1,1,1,1,0,0,0,1,1,1,1,1,0,1,1,1,0,0,0,0,0,0,1,1,1,0,0,1,1,1,1,1,1,1,0,0]","location_rts":"[2728,621,294,355,1433,2237,477,2050,1029,1300,1117,565,271,1650,1698,1592,1222,1101,1151,2289,746,990,1623,461,482,750,1768,1738,1937,1127,2555,2218,1665,610,694,1506]","trial_type":"two-door-navigation","trial_index":3,"time_elapsed":472177,"internal_node_id":"0.0-2.0-1.0"},{"group":"dihedral group of order 12","room_assignment":["cyan","blue","ivory","red","yellow","green","brown","grey","pink","olive","orange","purple"],"door_color_assignment":["black","white"],"door_generator_assignment":[0,1],"goal":10,"start":9,"action_noise":0.15,"location_history":"[9,8,7,6,11,10]","action_history":"[0,0,0,0,1]","door_history":"[0,0,0,0,1]","location_rts":"[2532,1162,1309,2911,1799]","trial_type":"two-door-navigation","trial_index":4,"time_elapsed":490740,"internal_node_id":"0.0-2.0-2.0"},{"group":"dihedral group of order 12","room_assignment":["cyan","blue","ivory","red","yellow","green","brown","grey","pink","olive","orange","purple"],"door_color_assignment":["black","white"],"door_generator_assignment":[0,1],"goal":2,"start":10,"action_noise":0.15,"location_history":"[10,9,3,9,3,9,8,7,6,11,10,9,8,2]","action_history":"[0,1,1,1,1,0,0,0,0,0,0,0,1]","door_history":"[0,1,1,1,1,0,0,0,0,0,0,0,1]","location_rts":"[3125,851,410,2146,887,1169,748,665,1777,721,697,794,885]","trial_type":"two-door-navigation","trial_index":5,"time_elapsed":523023,"internal_node_id":"0.0-2.0-3.0"},{"group":"dihedral group of order 12","room_assignment":["cyan","blue","ivory","red","yellow","green","brown","grey","pink","olive","orange","purple"],"door_color_assignment":["black","white"],"door_generator_assignment":[0,1],"goal":5,"start":2,"action_noise":0.15,"location_history":"[2,8,7,6,0,1,7,6,11,10,9,8,7,1,7,1,2,3,9,8,7,6,11,10,9,8,7,6,11,5]","action_history":"[0,0,0,1,0,0,0,0,0,0,0,0,0,0,1,0,1,0,1,0,1,0,0,0,0,0,0,0,1]","door_history":"[0,0,0,1,0,0,0,0,0,0,0,0,0,0,1,0,1,0,1,0,1,0,0,0,0,0,0,0,1]","location_rts":"[2377,324,361,1341,1286,459,972,1095,1314,714,1892,760,1145,835,1014,376,5499,990,1793,1252,1325,1597,696,1007,1873,1072,630,1161,688]","trial_type":"two-door-navigation","trial_index":6,"time_elapsed":593504,"internal_node_id":"0.0-2.0-4.0"},{"group":"dihedral group of order 12","room_assignment":["cyan","blue","ivory","red","yellow","green","brown","grey","pink","olive","orange","purple"],"door_color_assignment":["black","white"],"door_generator_assignment":[0,1],"goal":11,"start":5,"action_noise":0.15,"location_history":"[5,11]","action_history":"[1]","door_history":"[1]","location_rts":"[2674]","trial_type":"two-door-navigation","trial_index":7,"time_elapsed":600760,"internal_node_id":"0.0-2.0-5.0"},{"group":"dihedral group of order 12","room_assignment":["cyan","blue","ivory","red","yellow","green","brown","grey","pink","olive","orange","purple"],"door_color_assignment":["black","white"],"door_generator_assignment":[0,1],"goal":6,"start":11,"action_noise":0.15,"location_history":"[11,10,9,8,7,6]","action_history":"[0,0,0,0,0]","door_history":"[0,0,0,0,0]","location_rts":"[2259,244,479,556,827]","trial_type":"two-door-navigation","trial_index":8,"time_elapsed":613990,"internal_node_id":"0.0-2.0-6.0"},{"group":"dihedral group of order 12","room_assignment":["cyan","blue","ivory","red","yellow","green","brown","grey","pink","olive","orange","purple"],"door_color_assignment":["black","white"],"door_generator_assignment":[0,1],"goal":3,"start":6,"action_noise":0.15,"location_history":"[6,11,10,9,8,7,1,7,1,2,3]","action_history":"[0,0,0,0,0,1,1,1,0,0]","door_history":"[0,0,0,0,0,1,1,1,0,0]","location_rts":"[1748,216,190,229,84,806,488,2892,1320,1176]","trial_type":"two-door-navigation","trial_index":9,"time_elapsed":637321,"internal_node_id":"0.0-2.0-7.0"},{"group":"dihedral group of order 12","room_assignment":["cyan","blue","ivory","red","yellow","green","brown","grey","pink","olive","orange","purple"],"door_color_assignment":["black","white"],"door_generator_assignment":[0,1],"goal":8,"start":3,"action_noise":0.15,"location_history":"[3,4,5,0,1,2,8]","action_history":"[0,0,0,0,0,0]","door_history":"[0,0,0,0,0,0]","location_rts":"[2242,222,231,248,217,801]","trial_type":"two-door-navigation","trial_index":10,"time_elapsed":651204,"internal_node_id":"0.0-2.0-8.0"},{"group":"dihedral group of order 12","room_assignment":["cyan","blue","ivory","red","yellow","green","brown","grey","pink","olive","orange","purple"],"door_color_assignment":["black","white"],"door_generator_assignment":[0,1],"goal":1,"start":8,"action_noise":0.15,"location_history":"[8,7,6,11,10,9,8,7,1]","action_history":"[0,0,0,0,0,0,0,1]","door_history":"[0,0,0,0,0,0,0,1]","location_rts":"[1158,208,7,373,447,386,328,1063]","trial_type":"two-door-navigation","trial_index":11,"time_elapsed":667206,"internal_node_id":"0.0-2.0-9.0"},{"group":"dihedral group of order 12","room_assignment":["cyan","blue","ivory","red","yellow","green","brown","grey","pink","olive","orange","purple"],"door_color_assignment":["black","white"],"door_generator_assignment":[0,1],"goal":7,"start":1,"action_noise":0.15,"location_history":"[1,7]","action_history":"[1]","door_history":"[1]","location_rts":"[2217]","trial_type":"two-door-navigation","trial_index":12,"time_elapsed":674015,"internal_node_id":"0.0-2.0-10.0"},{"group":"dihedral group of order 12","room_assignment":["cyan","blue","ivory","red","yellow","green","brown","grey","pink","olive","orange","purple"],"door_color_assignment":["black","white"],"door_generator_assignment":[0,1],"goal":5,"start":7,"action_noise":0.15,"location_history":"[7,6,11,5]","action_history":"[0,0,1]","door_history":"[0,0,1]","location_rts":"[1700,386,1134]","trial_type":"two-door-navigation","trial_index":13,"time_elapsed":683936,"internal_node_id":"0.0-2.0-11.0"},{"group":"dihedral group of order 12","room_assignment":["cyan","blue","ivory","red","yellow","green","brown","grey","pink","olive","orange","purple"],"door_color_assignment":["black","white"],"door_generator_assignment":[0,1],"goal":8,"start":5,"action_noise":0.15,"location_history":"[5,0,1,7,6,11,5,0,1,2,3,4,5,0,1,2,8]","action_history":"[0,0,0,0,0,0,0,0,0,0,0,0,0,1,0,1]","door_history":"[0,0,0,0,0,0,0,0,0,0,0,0,0,1,0,1]","location_rts":"[1275,12,237,129,281,193,277,221,276,444,492,465,345,971,876,1308]","trial_type":"two-door-navigation","trial_index":14,"time_elapsed":712373,"internal_node_id":"0.0-2.0-12.0"},{"group":"dihedral group of order 12","room_assignment":["cyan","blue","ivory","red","yellow","green","brown","grey","pink","olive","orange","purple"],"door_color_assignment":["black","white"],"door_generator_assignment":[0,1],"goal":11,"start":8,"action_noise":0.15,"location_history":"[8,7,6,11]","action_history":"[0,0,0]","door_history":"[0,0,0]","location_rts":"[4026,282,871]","trial_type":"two-door-navigation","trial_index":15,"time_elapsed":724277,"internal_node_id":"0.0-2.0-13.0"},{"group":"dihedral group of order 12","room_assignment":["cyan","blue","ivory","red","yellow","green","brown","grey","pink","olive","orange","purple"],"door_color_assignment":["black","white"],"door_generator_assignment":[0,1],"goal":6,"start":11,"action_noise":0.15,"location_history":"[11,10,9,8,2,3,4,5,0,1,7,6]","action_history":"[0,0,0,0,0,0,0,0,0,0,0]","door_history":"[0,0,0,0,0,0,0,0,0,0,0]","location_rts":"[1178,507,217,346,289,77,177,182,192,70,275]","trial_type":"two-door-navigation","trial_index":16,"time_elapsed":743100,"internal_node_id":"0.0-2.0-14.0"},{"group":"dihedral group of order 12","room_assignment":["cyan","blue","ivory","red","yellow","green","brown","grey","pink","olive","orange","purple"],"door_color_assignment":["black","white"],"door_generator_assignment":[0,1],"goal":7,"start":6,"action_noise":0.15,"location_history":"[6,11,10,9,8,2,3,4,5,0,1,2,3,4,5,0,1,2,3,9,8,7]","action_history":"[0,0,0,0,0,0,0,0,0,0,0,0,0,0,0,0,0,0,1,0,0]","door_history":"[0,0,0,0,0,0,0,0,0,0,0,0,0,0,0,0,0,0,1,0,0]","location_rts":"[1259,516,299,240,234,255,236,185,234,116,130,130,198,222,181,114,193,403,357,483,343]","trial_type":"two-door-navigation","trial_index":17,"time_elapsed":775400,"internal_node_id":"0.0-2.0-15.0"},{"group":"dihedral group of order 12","room_assignment":["cyan","blue","ivory","red","yellow","green","brown","grey","pink","olive","orange","purple"],"door_color_assignment":["black","white"],"door_generator_assignment":[0,1],"goal":10,"start":7,"action_noise":0.15,"location_history":"[7,1,2,3,4,5,0,1,2,3,4,5,0,1,7,1,7,1,2,3,4,5,0,1,2,8,7,6,11,10]","action_history":"[1,0,0,0,1,0,0,0,0,0,0,0,0,1,1,1,1,0,0,0,0,0,0,0,1,0,0,0,0]","door_history":"[1,0,0,0,1,0,0,0,0,0,0,0,0,1,1,1,1,0,0,0,0,0,0,0,1,0,0,0,0]","location_rts":"[2654,322,274,275,843,249,133,464,310,196,420,371,476,267,233,407,937,1007,480,449,186,394,307,323,1851,881,354,1207,314]","trial_type":"two-door-navigation","trial_index":18,"time_elapsed":826467,"internal_node_id":"0.0-2.0-16.0"},{"group":"dihedral group of order 12","room_assignment":["cyan","blue","ivory","red","yellow","green","brown","grey","pink","olive","orange","purple"],"door_color_assignment":["black","white"],"door_generator_assignment":[0,1],"goal":0,"start":10,"action_noise":0.15,"location_history":"[10,9,8,7,1,2,8,2,8,7,6,11,10,9,8,7,1,7,1,7,1,7,1,7,6,11,10,4,10,4,10,9,3,9,8,7,6,11,10,4,5,11,10,9,8,7,6,11,5,11,10,4,5,0]","action_history":"[0,0,0,0,0,1,1,1,0,0,0,0,0,0,0,1,0,1,1,1,0,0,0,0,0,0,1,1,1,1,1,1,1,0,0,0,0,0,0,0,0,0,0,0,0,0,0,1,1,0,1,0,0]","door_history":"[0,0,0,0,0,1,1,1,0,0,0,0,0,0,0,1,0,1,1,1,0,0,0,0,0,0,1,1,1,1,1,1,1,0,0,0,0,0,0,0,0,0,0,0,0,0,0,1,1,0,1,0,0]","location_rts":"[2280,358,174,207,232,1577,1398,1641,981,217,277,410,623,896,392,1444,342,2082,284,991,882,388,220,377,47,369,1809,1386,814,1083,369,224,1009,1077,365,341,308,328,341,290,249,81,377,348,26,603,367,303,271,635,884,359,924]","trial_type":"two-door-navigation","trial_index":19,"time_elapsed":920819,"internal_node_id":"0.0-2.0-17.0"},{"group":"dihedral group of order 12","room_assignment":["cyan","blue","ivory","red","yellow","green","brown","grey","pink","olive","orange","purple"],"door_color_assignment":["black","white"],"door_generator_assignment":[0,1],"goal":9,"start":0,"action_noise":0.15,"location_history":"[0,1,2,8,7,6,0,1,7,1,7,6,11,10,9]","action_history":"[0,0,0,0,0,1,0,1,1,1,0,0,0,0]","door_history":"[0,0,0,0,0,1,0,1,1,1,0,0,0,0]","location_rts":"[1761,412,334,332,752,432,318,1309,1158,1217,789,511,313,339]","trial_type":"two-door-navigation","trial_index":20,"time_elapsed":949268,"internal_node_id":"0.0-2.0-18.0"},{"group":"dihedral group of order 12","room_assignment":["cyan","blue","ivory","red","yellow","green","brown","grey","pink","olive","orange","purple"],"door_color_assignment":["black","white"],"door_generator_assignment":[0,1],"goal":4,"start":9,"action_noise":0.15,"location_history":"[9,3,4]","action_history":"[1,0]","door_history":"[1,0]","location_rts":"[2114,1328]","trial_type":"two-door-navigation","trial_index":21,"time_elapsed":958346,"internal_node_id":"0.0-2.0-19.0"},{"group":"dihedral group of order 12","room_assignment":["cyan","blue","ivory","red","yellow","green","brown","grey","pink","olive","orange","purple"],"door_color_assignment":["black","white"],"door_generator_assignment":[0,1],"goal":2,"start":4,"action_noise":0.15,"location_history":"[4,10,4,5,11,5,11,5,11,10,9,8,7,6,11,10,9,8,7,6,0,6,11,10,4,5,11,10,9,8,7,1,2]","action_history":"[1,1,1,1,1,1,1,1,0,0,0,0,0,0,0,0,0,1,0,1,1,0,0,0,0,0,0,0,0,0,1,0]","door_history":"[1,1,1,1,1,1,1,1,0,0,0,0,0,0,0,0,0,1,0,1,1,0,0,0,0,0,0,0,0,0,1,0]","location_rts":"[1829,607,266,355,247,196,793,347,255,289,1098,245,400,340,381,469,559,1309,472,644,752,992,1933,634,344,230,194,1379,1072,1846,1491,418]","trial_type":"two-door-navigation","trial_index":22,"time_elapsed":1018362,"internal_node_id":"0.0-2.0-20.0"},{"group":"dihedral group of order 12","room_assignment":["cyan","blue","ivory","red","yellow","green","brown","grey","pink","olive","orange","purple"],"door_color_assignment":["black","white"],"door_generator_assignment":[0,1],"goal":1,"start":2,"action_noise":0.15,"location_history":"[2,8,2,8,7,1]","action_history":"[1,1,1,0,0]","door_history":"[1,1,1,0,0]","location_rts":"[2522,1496,1322,596,1404]","trial_type":"two-door-navigation","trial_index":23,"time_elapsed":1034554,"internal_node_id":"0.0-2.0-21.0"},{"group":"dihedral group of order 12","room_assignment":["cyan","blue","ivory","red","yellow","green","brown","grey","pink","olive","orange","purple"],"door_color_assignment":["black","white"],"door_generator_assignment":[0,1],"goal":3,"start":1,"action_noise":0.15,"location_history":"[1,2,3]","action_history":"[0,0]","door_history":"[0,0]","location_rts":"[1285,235]","trial_type":"two-door-navigation","trial_index":24,"time_elapsed":1041722,"internal_node_id":"0.0-2.0-22.0"},{"group":"dihedral group of order 12","room_assignment":["cyan","blue","ivory","red","yellow","green","brown","grey","pink","olive","orange","purple"],"door_color_assignment":["black","white"],"door_generator_assignment":[0,1],"goal":7,"start":3,"action_noise":0.15,"location_history":"[3,9,8,7]","action_history":"[0,0,0]","door_history":"[0,0,0]","location_rts":"[1481,8,221]","trial_type":"two-door-navigation","trial_index":25,"time_elapsed":1050149,"internal_node_id":"0.0-2.0-23.0"},{"group":"dihedral group of order 12","room_assignment":["cyan","blue","ivory","red","yellow","green","brown","grey","pink","olive","orange","purple"],"door_color_assignment":["black","white"],"door_generator_assignment":[0,1],"goal":6,"start":7,"action_noise":0.15,"location_history":"[7,6]","action_history":"[0]","door_history":"[0]","location_rts":"[1677]","trial_type":"two-door-navigation","trial_index":26,"time_elapsed":1056424,"internal_node_id":"0.0-2.0-24.0"},{"group":"dihedral group of order 12","room_assignment":["cyan","blue","ivory","red","yellow","green","brown","grey","pink","olive","orange","purple"],"door_color_assignment":["black","white"],"door_generator_assignment":[0,1],"goal":2,"start":6,"action_noise":0.15,"location_history":"[6,0,1,2]","action_history":"[1,0,0]","door_history":"[1,0,0]","location_rts":"[2631,1759,526]","trial_type":"two-door-navigation","trial_index":27,"time_elapsed":1068044,"internal_node_id":"0.0-2.0-25.0"},{"group":"dihedral group of order 12","room_assignment":["cyan","blue","ivory","red","yellow","green","brown","grey","pink","olive","orange","purple"],"door_color_assignment":["black","white"],"door_generator_assignment":[0,1],"goal":8,"start":2,"action_noise":0.15,"location_history":"[2,3,4,5,0,1,2,3,4,5,0,1,2,3,9,3,9,8]","action_history":"[0,0,0,0,0,0,0,0,1,0,1,1,1,1,1,1,0]","door_history":"[0,0,0,0,0,0,0,0,1,0,1,1,1,1,1,1,0]","location_rts":"[1161,827,495,295,420,779,1411,1034,1194,1717,1653,989,554,396,1416,571,219]","trial_type":"two-door-navigation","trial_index":28,"time_elapsed":1104900,"internal_node_id":"0.0-2.0-26.0"},{"group":"dihedral group of order 12","room_assignment":["cyan","blue","ivory","red","yellow","green","brown","grey","pink","olive","orange","purple"],"door_color_assignment":["black","white"],"door_generator_assignment":[0,1],"goal":0,"start":8,"action_noise":0.15,"location_history":"[8,2,3,9,3,9,3,9,8,7,6,11,10,9,8,7,1,2,8,2,8,2,8,7,6,11,10,9,8,7,1,2,8,2,3,9,8,7,1,7,1,2,8,7,1,2,3,9,8,7,6,11,5,11,10,9,3,4,5,11,5,0]","action_history":"[1,1,1,1,0,0,0,0,0,0,0,0,0,0,1,1,0,1,1,1,1,0,0,0,0,0,0,0,0,1,0,1,1,0,0,0,0,0,1,1,1,1,0,0,0,0,0,0,0,0,0,0,0,0,0,0,0,0,0,1,1]","door_history":"[1,1,1,1,0,0,0,0,0,0,0,0,0,0,1,1,0,1,1,1,1,0,0,0,0,0,0,0,0,1,0,1,1,0,0,0,0,0,1,1,1,1,0,0,0,0,0,0,0,0,0,0,0,0,0,0,0,0,0,1,1]","location_rts":"[2306,1851,823,1110,1028,297,508,4187,851,429,296,292,355,380,237,896,798,1758,817,541,107,500,651,746,545,1329,326,683,424,768,650,2331,908,1441,2783,1275,1571,837,1439,1286,894,875,951,331,14,102,100,166,88,153,19,140,40,218,39,418,358,334,360,629,884]","trial_type":"two-door-navigation","trial_index":29,"time_elapsed":1221204,"internal_node_id":"0.0-2.0-27.0"},{"group":"dihedral group of order 12","room_assignment":["cyan","blue","ivory","red","yellow","green","brown","grey","pink","olive","orange","purple"],"door_color_assignment":["black","white"],"door_generator_assignment":[0,1],"goal":3,"start":0,"action_noise":0.15,"location_history":"[0,6,11,10,4,10,4,10,9,8,7,6,11,10,4,5,0,6,11,10,4,5,11,10,4,5,11,5,0,1,2,8,7,6,0,1,2,8,7,6,0,6,11,10,4,10,4,10,4,10,4,10,9,8,7,6,11,10,9,3]","action_history":"[1,0,0,1,1,1,0,0,0,0,0,0,0,0,0,0,0,0,0,1,0,1,1,1,1,1,1,0,0,0,0,0,0,0,0,0,1,0,0,1,1,0,1,1,1,1,1,1,1,1,1,0,0,0,0,0,0,0,1]","door_history":"[1,0,0,1,1,1,0,0,0,0,0,0,0,0,0,0,0,0,0,1,0,1,1,1,1,1,1,0,0,0,0,0,0,0,0,0,1,0,0,1,1,0,1,1,1,1,1,1,1,1,1,0,0,0,0,0,0,0,1]","location_rts":"[2232,2530,1317,1614,1226,958,698,401,615,293,187,124,116,184,2263,1061,1064,581,341,1327,251,485,217,35,108,151,253,252,1950,772,999,1388,888,1144,463,1013,941,747,652,718,186,712,794,27,175,58,51,368,36,231,27,47,250,63,26,82,64,816,377]","trial_type":"two-door-navigation","trial_index":30,"time_elapsed":1324702,"internal_node_id":"0.0-2.0-28.0"},{"group":"dihedral group of order 12","room_assignment":["cyan","blue","ivory","red","yellow","green","brown","grey","pink","olive","orange","purple"],"door_color_assignment":["black","white"],"door_generator_assignment":[0,1],"goal":4,"start":3,"action_noise":0.15,"location_history":"[3,9,3,4]","action_history":"[1,1,0]","door_history":"[1,1,0]","location_rts":"[2096,646,1437]","trial_type":"two-door-navigation","trial_index":31,"time_elapsed":1335618,"internal_node_id":"0.0-2.0-29.0"},{"group":"dihedral group of order 12","room_assignment":["cyan","blue","ivory","red","yellow","green","brown","grey","pink","olive","orange","purple"],"door_color_assignment":["black","white"],"door_generator_assignment":[0,1],"goal":10,"start":4,"action_noise":0.15,"location_history":"[4,10]","action_history":"[1]","door_history":"[1]","location_rts":"[4494]","trial_type":"two-door-navigation","trial_index":32,"time_elapsed":1344701,"internal_node_id":"0.0-2.0-30.0"},{"group":"dihedral group of order 12","room_assignment":["cyan","blue","ivory","red","yellow","green","brown","grey","pink","olive","orange","purple"],"door_color_assignment":["black","white"],"door_generator_assignment":[0,1],"goal":11,"start":10,"action_noise":0.15,"location_history":"[10,9,3,4,10,4,5,0,1,7,6,0,6,11]","action_history":"[1,0,0,0,0,0,0,0,0,0,1,1,0]","door_history":"[1,0,0,0,0,0,0,0,0,0,1,1,0]","location_rts":"[1867,653,281,29,262,251,1396,1145,409,1156,712,398,991]","trial_type":"two-door-navigation","trial_index":33,"time_elapsed":1371619,"internal_node_id":"0.0-2.0-31.0"},{"group":"dihedral group of order 12","room_assignment":["cyan","blue","ivory","red","yellow","green","brown","grey","pink","olive","orange","purple"],"door_color_assignment":["black","white"],"door_generator_assignment":[0,1],"goal":1,"start":11,"action_noise":0.15,"location_history":"[11,5,11,10,9,8,7,6,11,10,4,10,9,8,7,6,11,10,4,5,11,5,11,5,0,1]","action_history":"[1,1,0,0,0,0,0,0,0,1,1,0,0,0,0,0,0,0,0,1,1,0,0,0,0]","door_history":"[1,1,0,0,0,0,0,0,0,1,1,0,0,0,0,0,0,0,0,1,1,0,0,0,0]","location_rts":"[2268,855,1345,1146,370,10,156,258,1424,471,2374,843,970,253,181,398,247,254,1460,1137,905,933,380,1219,358]","trial_type":"two-door-navigation","trial_index":34,"time_elapsed":1422088,"internal_node_id":"0.0-2.0-32.0"},{"group":"dihedral group of order 12","room_assignment":["cyan","blue","ivory","red","yellow","green","brown","grey","pink","olive","orange","purple"],"door_color_assignment":["black","white"],"door_generator_assignment":[0,1],"goal":5,"start":1,"action_noise":0.15,"location_history":"[1,7,6,11,10,9,8,7,6,0,1,2,3,4,5]","action_history":"[1,0,0,0,0,0,0,0,1,0,0,0,0,0]","door_history":"[1,0,0,0,0,0,0,0,1,0,0,0,0,0]","location_rts":"[3143,1147,881,784,1299,2427,726,78,890,474,605,257,348,311]","trial_type":"two-door-navigation","trial_index":35,"time_elapsed":1453923,"internal_node_id":"0.0-2.0-33.0"},{"group":"dihedral group of order 12","room_assignment":["cyan","blue","ivory","red","yellow","green","brown","grey","pink","olive","orange","purple"],"door_color_assignment":["black","white"],"door_generator_assignment":[0,1],"goal":9,"start":5,"action_noise":0.15,"location_history":"[5,11,5,0,1,2,8,7,6,0,1,2,3,4,5,11,10,9]","action_history":"[1,0,0,1,1,1,0,0,0,0,0,0,0,0,0,0,0]","door_history":"[1,0,0,1,1,1,0,0,0,0,0,0,0,0,0,0,0]","location_rts":"[2364,1291,1766,1675,1129,943,1580,435,621,1225,276,107,99,156,163,231,196]","trial_type":"two-door-navigation","trial_index":36,"time_elapsed":1489874,"internal_node_id":"0.0-2.0-34.0"},{"view_history":"[{\"page_index\":0,\"viewing_time\":1984}]","rt":1985,"trial_type":"instructions","trial_index":37,"time_elapsed":1492863,"internal_node_id":"0.0-3.0"},{"view_history":"[{\"page_index\":0,\"viewing_time\":3526},{\"page_index\":1,\"viewing_time\":49191}]","rt":52718,"trial_type":"instructions","trial_index":38,"time_elapsed":1546585,"internal_node_id":"0.0-4.0"},{"group":"dicyclic group of order 12","fractal_assignment":["../images/gry_blk.png","../images/wht_red.png","../images/grn_prp.png","../images/grn_blu.png","../images/red_prp.png","../images/grn_red.png","../images/ylw_pnk.png","../images/org_blu.png","../images/pnk_blu.png","../images/blu_wht.png","../images/ylw_slt.png","../images/cyn_red.png"],"mutagen_generator_assignment":[1,0],"goal":4,"start":0,"action_noise":0.15,"location_history":"[0,4]","action_history":"[1]","mutagen_history":"[0]","location_rts":"[6405]","trial_type":"fractal-mutation","trial_index":39,"time_elapsed":1557591,"internal_node_id":"0.0-5.0-0.0"},{"group":"dicyclic group of order 12","fractal_assignment":["../images/gry_blk.png","../images/wht_red.png","../images/grn_prp.png","../images/grn_blu.png","../images/red_prp.png","../images/grn_red.png","../images/ylw_pnk.png","../images/org_blu.png","../images/pnk_blu.png","../images/blu_wht.png","../images/ylw_slt.png","../images/cyn_red.png"],"mutagen_generator_assignment":[1,0],"goal":9,"start":4,"action_noise":0.15,"location_history":"[4,9]","action_history":"[0]","mutagen_history":"[1]","location_rts":"[8392]","trial_type":"fractal-mutation","trial_index":40,"time_elapsed":1570639,"internal_node_id":"0.0-5.0-1.0"},{"group":"dicyclic group of order 12","fractal_assignment":["../images/gry_blk.png","../images/wht_red.png","../images/grn_prp.png","../images/grn_blu.png","../images/red_prp.png","../images/grn_red.png","../images/ylw_pnk.png","../images/org_blu.png","../images/pnk_blu.png","../images/blu_wht.png","../images/ylw_slt.png","../images/cyn_red.png"],"mutagen_generator_assignment":[1,0],"goal":10,"start":9,"action_noise":0.15,"location_history":"[9,6,11,3,7,11,3,0,4,9,1,5,9,6,10]","action_history":"[0,0,1,1,1,1,0,1,0,1,1,1,0,0]","mutagen_history":"[1,1,0,0,0,0,1,0,1,0,0,0,1,1]","location_rts":"[2460,6093,1803,1015,2161,3899,1125,1949,1465,2652,856,756,550,468]","trial_type":"fractal-mutation","trial_index":41,"time_elapsed":1617097,"internal_node_id":"0.0-5.0-2.0"},{"group":"dicyclic group of order 12","fractal_assignment":["../images/gry_blk.png","../images/wht_red.png","../images/grn_prp.png","../images/grn_blu.png","../images/red_prp.png","../images/grn_red.png","../images/ylw_pnk.png","../images/org_blu.png","../images/pnk_blu.png","../images/blu_wht.png","../images/ylw_slt.png","../images/cyn_red.png"],"mutagen_generator_assignment":[1,0],"goal":2,"start":10,"action_noise":0.15,"location_history":"[10,2]","action_history":"[1]","mutagen_history":"[0]","location_rts":"[2603]","trial_type":"fractal-mutation","trial_index":42,"time_elapsed":1624291,"internal_node_id":"0.0-5.0-3.0"},{"group":"dicyclic group of order 12","fractal_assignment":["../images/gry_blk.png","../images/wht_red.png","../images/grn_prp.png","../images/grn_blu.png","../images/red_prp.png","../images/grn_red.png","../images/ylw_pnk.png","../images/org_blu.png","../images/pnk_blu.png","../images/blu_wht.png","../images/ylw_slt.png","../images/cyn_red.png"],"mutagen_generator_assignment":[1,0],"goal":5,"start":2,"action_noise":0.15,"location_history":"[2,6,10,2,3,0,1,2,6,10,2,6,11,4,8,0,1,2,6,10,7,8,5]","action_history":"[1,1,1,0,0,0,0,0,1,1,1,0,0,1,1,1,1,1,0,0,0,0]","mutagen_history":"[0,0,0,1,1,1,1,1,0,0,0,1,1,0,0,0,0,0,1,1,1,1]","location_rts":"[2741,1589,1037,1490,1173,1199,771,635,1265,1769,1013,552,2184,1592,972,950,863,1285,1533,1490,1298,1033]","trial_type":"fractal-mutation","trial_index":43,"time_elapsed":1680923,"internal_node_id":"0.0-5.0-4.0"},{"group":"dicyclic group of order 12","fractal_assignment":["../images/gry_blk.png","../images/wht_red.png","../images/grn_prp.png","../images/grn_blu.png","../images/red_prp.png","../images/grn_red.png","../images/ylw_pnk.png","../images/org_blu.png","../images/pnk_blu.png","../images/blu_wht.png","../images/ylw_slt.png","../images/cyn_red.png"],"mutagen_generator_assignment":[1,0],"goal":11,"start":5,"action_noise":0.15,"location_history":"[5,9,1,2,3,0,1,2,3,7,11]","action_history":"[1,1,0,0,0,0,0,0,1,1]","mutagen_history":"[0,0,1,1,1,1,1,1,0,0]","location_rts":"[2659,2444,2403,1322,786,753,733,2279,1127,1637]","trial_type":"fractal-mutation","trial_index":44,"time_elapsed":1711841,"internal_node_id":"0.0-5.0-5.0"},{"group":"dicyclic group of order 12","fractal_assignment":["../images/gry_blk.png","../images/wht_red.png","../images/grn_prp.png","../images/grn_blu.png","../images/red_prp.png","../images/grn_red.png","../images/ylw_pnk.png","../images/org_blu.png","../images/pnk_blu.png","../images/blu_wht.png","../images/ylw_slt.png","../images/cyn_red.png"],"mutagen_generator_assignment":[1,0],"goal":6,"start":11,"action_noise":0.15,"location_history":"[11,3,7,11,4,9,6]","action_history":"[1,0,1,0,0,0]","mutagen_history":"[0,1,0,1,1,1]","location_rts":"[6273,927,849,1016,900,3348]","trial_type":"fractal-mutation","trial_index":45,"time_elapsed":1735437,"internal_node_id":"0.0-5.0-6.0"},{"group":"dicyclic group of order 12","fractal_assignment":["../images/gry_blk.png","../images/wht_red.png","../images/grn_prp.png","../images/grn_blu.png","../images/red_prp.png","../images/grn_red.png","../images/ylw_pnk.png","../images/org_blu.png","../images/pnk_blu.png","../images/blu_wht.png","../images/ylw_slt.png","../images/cyn_red.png"],"mutagen_generator_assignment":[1,0],"goal":3,"start":6,"action_noise":0.15,"location_history":"[6,11,3]","action_history":"[1,1]","mutagen_history":"[0,0]","location_rts":"[2685,1919]","trial_type":"fractal-mutation","trial_index":46,"time_elapsed":1745708,"internal_node_id":"0.0-5.0-7.0"},{"group":"dicyclic group of order 12","fractal_assignment":["../images/gry_blk.png","../images/wht_red.png","../images/grn_prp.png","../images/grn_blu.png","../images/red_prp.png","../images/grn_red.png","../images/ylw_pnk.png","../images/org_blu.png","../images/pnk_blu.png","../images/blu_wht.png","../images/ylw_slt.png","../images/cyn_red.png"],"mutagen_generator_assignment":[1,0],"goal":8,"start":3,"action_noise":0.15,"location_history":"[3,0,4,9,1,5,9,1,2,6,10,2,6,11,3,0,1,2,3,0,4,9,6,11,4,8]","action_history":"[0,0,0,1,1,1,1,0,1,1,1,1,0,1,1,0,1,0,0,0,0,0,0,0,0]","mutagen_history":"[1,1,1,0,0,0,0,1,0,0,0,0,1,0,0,1,0,1,1,1,1,1,1,1,1]","location_rts":"[1676,1410,1067,783,951,636,1063,1023,1633,1118,1104,2398,870,1673,1997,1258,1429,836,844,851,777,776,1139,797,1851]","trial_type":"fractal-mutation","trial_index":47,"time_elapsed":1807368,"internal_node_id":"0.0-5.0-8.0"},{"group":"dicyclic group of order 12","fractal_assignment":["../images/gry_blk.png","../images/wht_red.png","../images/grn_prp.png","../images/grn_blu.png","../images/red_prp.png","../images/grn_red.png","../images/ylw_pnk.png","../images/org_blu.png","../images/pnk_blu.png","../images/blu_wht.png","../images/ylw_slt.png","../images/cyn_red.png"],"mutagen_generator_assignment":[1,0],"goal":1,"start":8,"action_noise":0.15,"location_history":"[8,5,10,2,3,7,11,4,8,5,9,1]","action_history":"[0,1,1,1,1,1,1,1,0,1,1]","mutagen_history":"[1,0,0,0,0,0,0,0,1,0,0]","location_rts":"[3901,632,716,340,418,947,396,1124,1112,356,857]","trial_type":"fractal-mutation","trial_index":48,"time_elapsed":1833924,"internal_node_id":"0.0-5.0-9.0"},{"group":"dicyclic group of order 12","fractal_assignment":["../images/gry_blk.png","../images/wht_red.png","../images/grn_prp.png","../images/grn_blu.png","../images/red_prp.png","../images/grn_red.png","../images/ylw_pnk.png","../images/org_blu.png","../images/pnk_blu.png","../images/blu_wht.png","../images/ylw_slt.png","../images/cyn_red.png"],"mutagen_generator_assignment":[1,0],"goal":7,"start":1,"action_noise":0.15,"location_history":"[1,2,3,7]","action_history":"[0,0,1]","mutagen_history":"[1,1,0]","location_rts":"[2446,1025,687]","trial_type":"fractal-mutation","trial_index":49,"time_elapsed":1844990,"internal_node_id":"0.0-5.0-10.0"},{"group":"dicyclic group of order 12","fractal_assignment":["../images/gry_blk.png","../images/wht_red.png","../images/grn_prp.png","../images/grn_blu.png","../images/red_prp.png","../images/grn_red.png","../images/ylw_pnk.png","../images/org_blu.png","../images/pnk_blu.png","../images/blu_wht.png","../images/ylw_slt.png","../images/cyn_red.png"],"mutagen_generator_assignment":[1,0],"goal":5,"start":7,"action_noise":0.15,"location_history":"[7,8,5]","action_history":"[0,0]","mutagen_history":"[1,1]","location_rts":"[1723,2002]","trial_type":"fractal-mutation","trial_index":50,"time_elapsed":1854564,"internal_node_id":"0.0-5.0-11.0"},{"group":"dicyclic group of order 12","fractal_assignment":["../images/gry_blk.png","../images/wht_red.png","../images/grn_prp.png","../images/grn_blu.png","../images/red_prp.png","../images/grn_red.png","../images/ylw_pnk.png","../images/org_blu.png","../images/pnk_blu.png","../images/blu_wht.png","../images/ylw_slt.png","../images/cyn_red.png"],"mutagen_generator_assignment":[1,0],"goal":8,"start":5,"action_noise":0.15,"location_history":"[5,10,7,11,4,9,1,5,9,1,5,9,6,11,4,9,6,10,7,11,3,7,11,4,8]","action_history":"[0,0,1,0,0,0,1,1,1,1,1,0,0,0,0,0,1,0,1,0,1,1,0,1]","mutagen_history":"[1,1,0,1,1,1,0,0,0,0,0,1,1,1,1,1,0,1,0,1,0,0,1,0]","location_rts":"[3445,1429,878,1534,1356,1371,1605,1317,933,1111,705,3114,923,721,761,1623,246,968,1431,933,866,705,1431,791]","trial_type":"fractal-mutation","trial_index":51,"time_elapsed":1915385,"internal_node_id":"0.0-5.0-12.0"},{"group":"dicyclic group of order 12","fractal_assignment":["../images/gry_blk.png","../images/wht_red.png","../images/grn_prp.png","../images/grn_blu.png","../images/red_prp.png","../images/grn_red.png","../images/ylw_pnk.png","../images/org_blu.png","../images/pnk_blu.png","../images/blu_wht.png","../images/ylw_slt.png","../images/cyn_red.png"],"mutagen_generator_assignment":[1,0],"goal":11,"start":8,"action_noise":0.15,"location_history":"[8,0,4,8,0,1,5,10,7,11]","action_history":"[1,1,1,1,0,0,0,0,1]","mutagen_history":"[0,0,0,0,1,1,1,1,0]","location_rts":"[3184,698,425,557,299,513,901,825,512]","trial_type":"fractal-mutation","trial_index":52,"time_elapsed":1936826,"internal_node_id":"0.0-5.0-13.0"},{"group":"dicyclic group of order 12","fractal_assignment":["../images/gry_blk.png","../images/wht_red.png","../images/grn_prp.png","../images/grn_blu.png","../images/red_prp.png","../images/grn_red.png","../images/ylw_pnk.png","../images/org_blu.png","../images/pnk_blu.png","../images/blu_wht.png","../images/ylw_slt.png","../images/cyn_red.png"],"mutagen_generator_assignment":[1,0],"goal":6,"start":11,"action_noise":0.15,"location_history":"[11,3,7,11,3,0,1,5,9,1,2,6]","action_history":"[1,1,1,0,0,0,0,0,1,0,1]","mutagen_history":"[0,0,0,1,1,1,1,1,0,1,0]","location_rts":"[1917,446,567,863,746,1144,883,848,1026,1065,890]","trial_type":"fractal-mutation","trial_index":53,"time_elapsed":1963085,"internal_node_id":"0.0-5.0-14.0"},{"group":"dicyclic group of order 12","fractal_assignment":["../images/gry_blk.png","../images/wht_red.png","../images/grn_prp.png","../images/grn_blu.png","../images/red_prp.png","../images/grn_red.png","../images/ylw_pnk.png","../images/org_blu.png","../images/pnk_blu.png","../images/blu_wht.png","../images/ylw_slt.png","../images/cyn_red.png"],"mutagen_generator_assignment":[1,0],"goal":7,"start":6,"action_noise":0.15,"location_history":"[6,11,4,8,5,10,7]","action_history":"[1,0,1,0,0,0]","mutagen_history":"[0,1,0,1,1,1]","location_rts":"[1796,1579,1836,1423,618,471]","trial_type":"fractal-mutation","trial_index":54,"time_elapsed":1981018,"internal_node_id":"0.0-5.0-15.0"},{"group":"dicyclic group of order 12","fractal_assignment":["../images/gry_blk.png","../images/wht_red.png","../images/grn_prp.png","../images/grn_blu.png","../images/red_prp.png","../images/grn_red.png","../images/ylw_pnk.png","../images/org_blu.png","../images/pnk_blu.png","../images/blu_wht.png","../images/ylw_slt.png","../images/cyn_red.png"],"mutagen_generator_assignment":[1,0],"goal":10,"start":7,"action_noise":0.15,"location_history":"[7,11,3,0,1,5,10]","action_history":"[1,0,0,0,0,0]","mutagen_history":"[0,1,1,1,1,1]","location_rts":"[1395,256,741,338,263,355]","trial_type":"fractal-mutation","trial_index":55,"time_elapsed":1994730,"internal_node_id":"0.0-5.0-16.0"},{"group":"dicyclic group of order 12","fractal_assignment":["../images/gry_blk.png","../images/wht_red.png","../images/grn_prp.png","../images/grn_blu.png","../images/red_prp.png","../images/grn_red.png","../images/ylw_pnk.png","../images/org_blu.png","../images/pnk_blu.png","../images/blu_wht.png","../images/ylw_slt.png","../images/cyn_red.png"],"mutagen_generator_assignment":[1,0],"goal":0,"start":10,"action_noise":0.15,"location_history":"[10,2,6,11,3,0]","action_history":"[1,1,1,1,0]","mutagen_history":"[0,0,0,0,1]","location_rts":"[1919,62,293,241,807]","trial_type":"fractal-mutation","trial_index":56,"time_elapsed":2007009,"internal_node_id":"0.0-5.0-17.0"},{"group":"dicyclic group of order 12","fractal_assignment":["../images/gry_blk.png","../images/wht_red.png","../images/grn_prp.png","../images/grn_blu.png","../images/red_prp.png","../images/grn_red.png","../images/ylw_pnk.png","../images/org_blu.png","../images/pnk_blu.png","../images/blu_wht.png","../images/ylw_slt.png","../images/cyn_red.png"],"mutagen_generator_assignment":[1,0],"goal":9,"start":0,"action_noise":0.15,"location_history":"[0,4,8,5,9]","action_history":"[1,1,1,1]","mutagen_history":"[0,0,0,0]","location_rts":"[2075,334,505,1792]","trial_type":"fractal-mutation","trial_index":57,"time_elapsed":2019564,"internal_node_id":"0.0-5.0-18.0"},{"group":"dicyclic group of order 12","fractal_assignment":["../images/gry_blk.png","../images/wht_red.png","../images/grn_prp.png","../images/grn_blu.png","../images/red_prp.png","../images/grn_red.png","../images/ylw_pnk.png","../images/org_blu.png","../images/pnk_blu.png","../images/blu_wht.png","../images/ylw_slt.png","../images/cyn_red.png"],"mutagen_generator_assignment":[1,0],"goal":4,"start":9,"action_noise":0.15,"location_history":"[9,1,2,3,0,1,2,3,7,8,0,4]","action_history":"[1,0,0,0,0,0,0,1,0,1,1]","mutagen_history":"[0,1,1,1,1,1,1,0,1,0,0]","location_rts":"[1318,739,744,878,1079,931,1034,586,1094,985,850]","trial_type":"fractal-mutation","trial_index":58,"time_elapsed":2045740,"internal_node_id":"0.0-5.0-19.0"},{"group":"dicyclic group of order 12","fractal_assignment":["../images/gry_blk.png","../images/wht_red.png","../images/grn_prp.png","../images/grn_blu.png","../images/red_prp.png","../images/grn_red.png","../images/ylw_pnk.png","../images/org_blu.png","../images/pnk_blu.png","../images/blu_wht.png","../images/ylw_slt.png","../images/cyn_red.png"],"mutagen_generator_assignment":[1,0],"goal":2,"start":4,"action_noise":0.15,"location_history":"[4,9,1,2]","action_history":"[0,1,0]","mutagen_history":"[1,0,1]","location_rts":"[1600,912,1237]","trial_type":"fractal-mutation","trial_index":59,"time_elapsed":2056395,"internal_node_id":"0.0-5.0-20.0"},{"group":"dicyclic group of order 12","fractal_assignment":["../images/gry_blk.png","../images/wht_red.png","../images/grn_prp.png","../images/grn_blu.png","../images/red_prp.png","../images/grn_red.png","../images/ylw_pnk.png","../images/org_blu.png","../images/pnk_blu.png","../images/blu_wht.png","../images/ylw_slt.png","../images/cyn_red.png"],"mutagen_generator_assignment":[1,0],"goal":1,"start":2,"action_noise":0.15,"location_history":"[2,3,7,11,3,0,1]","action_history":"[1,1,1,1,0,0]","mutagen_history":"[0,0,0,0,1,1]","location_rts":"[922,334,223,361,751,1098]","trial_type":"fractal-mutation","trial_index":60,"time_elapsed":2070189,"internal_node_id":"0.0-5.0-21.0"},{"group":"dicyclic group of order 12","fractal_assignment":["../images/gry_blk.png","../images/wht_red.png","../images/grn_prp.png","../images/grn_blu.png","../images/red_prp.png","../images/grn_red.png","../images/ylw_pnk.png","../images/org_blu.png","../images/pnk_blu.png","../images/blu_wht.png","../images/ylw_slt.png","../images/cyn_red.png"],"mutagen_generator_assignment":[1,0],"goal":3,"start":1,"action_noise":0.15,"location_history":"[1,5,10,7,8,5,9,6,11,3]","action_history":"[1,0,0,0,0,1,0,1,1]","mutagen_history":"[0,1,1,1,1,0,1,0,0]","location_rts":"[1904,674,526,779,1109,659,1212,562,822]","trial_type":"fractal-mutation","trial_index":61,"time_elapsed":2092068,"internal_node_id":"0.0-5.0-22.0"},{"group":"dicyclic group of order 12","fractal_assignment":["../images/gry_blk.png","../images/wht_red.png","../images/grn_prp.png","../images/grn_blu.png","../images/red_prp.png","../images/grn_red.png","../images/ylw_pnk.png","../images/org_blu.png","../images/pnk_blu.png","../images/blu_wht.png","../images/ylw_slt.png","../images/cyn_red.png"],"mutagen_generator_assignment":[1,0],"goal":7,"start":3,"action_noise":0.15,"location_history":"[3,7]","action_history":"[1]","mutagen_history":"[0]","location_rts":"[3345]","trial_type":"fractal-mutation","trial_index":62,"time_elapsed":2100002,"internal_node_id":"0.0-5.0-23.0"},{"group":"dicyclic group of order 12","fractal_assignment":["../images/gry_blk.png","../images/wht_red.png","../images/grn_prp.png","../images/grn_blu.png","../images/red_prp.png","../images/grn_red.png","../images/ylw_pnk.png","../images/org_blu.png","../images/pnk_blu.png","../images/blu_wht.png","../images/ylw_slt.png","../images/cyn_red.png"],"mutagen_generator_assignment":[1,0],"goal":6,"start":7,"action_noise":0.15,"location_history":"[7,11,3,0,1,5,9,6]","action_history":"[1,0,0,1,1,1,0]","mutagen_history":"[0,1,1,0,0,0,1]","location_rts":"[2617,1229,2945,952,799,796,823]","trial_type":"fractal-mutation","trial_index":63,"time_elapsed":2121483,"internal_node_id":"0.0-5.0-24.0"},{"group":"dicyclic group of order 12","fractal_assignment":["../images/gry_blk.png","../images/wht_red.png","../images/grn_prp.png","../images/grn_blu.png","../images/red_prp.png","../images/grn_red.png","../images/ylw_pnk.png","../images/org_blu.png","../images/pnk_blu.png","../images/blu_wht.png","../images/ylw_slt.png","../images/cyn_red.png"],"mutagen_generator_assignment":[1,0],"goal":2,"start":6,"action_noise":0.15,"location_history":"[6,10,7,11,4,8,5,9,6,11,4,8,5,9,1,2]","action_history":"[1,0,1,0,1,1,1,0,0,1,1,0,1,1,0]","mutagen_history":"[0,1,0,1,0,0,0,1,1,0,0,1,0,0,1]","location_rts":"[1917,667,2164,809,935,1012,581,765,517,380,517,898,596,653,499]","trial_type":"fractal-mutation","trial_index":64,"time_elapsed":2154712,"internal_node_id":"0.0-5.0-25.0"},{"group":"dicyclic group of order 12","fractal_assignment":["../images/gry_blk.png","../images/wht_red.png","../images/grn_prp.png","../images/grn_blu.png","../images/red_prp.png","../images/grn_red.png","../images/ylw_pnk.png","../images/org_blu.png","../images/pnk_blu.png","../images/blu_wht.png","../images/ylw_slt.png","../images/cyn_red.png"],"mutagen_generator_assignment":[1,0],"goal":8,"start":2,"action_noise":0.15,"location_history":"[2,6,11,3,0,1,2,3,7,8]","action_history":"[1,0,1,0,0,0,0,1,0]","mutagen_history":"[0,1,0,1,1,1,1,0,1]","location_rts":"[1055,580,602,1290,1727,918,1061,820,1155]","trial_type":"fractal-mutation","trial_index":65,"time_elapsed":2177551,"internal_node_id":"0.0-5.0-26.0"},{"group":"dicyclic group of order 12","fractal_assignment":["../images/gry_blk.png","../images/wht_red.png","../images/grn_prp.png","../images/grn_blu.png","../images/red_prp.png","../images/grn_red.png","../images/ylw_pnk.png","../images/org_blu.png","../images/pnk_blu.png","../images/blu_wht.png","../images/ylw_slt.png","../images/cyn_red.png"],"mutagen_generator_assignment":[1,0],"goal":0,"start":8,"action_noise":0.15,"location_history":"[8,0]","action_history":"[1]","mutagen_history":"[0]","location_rts":"[1167]","trial_type":"fractal-mutation","trial_index":66,"time_elapsed":2183304,"internal_node_id":"0.0-5.0-27.0"},{"group":"dicyclic group of order 12","fractal_assignment":["../images/gry_blk.png","../images/wht_red.png","../images/grn_prp.png","../images/grn_blu.png","../images/red_prp.png","../images/grn_red.png","../images/ylw_pnk.png","../images/org_blu.png","../images/pnk_blu.png","../images/blu_wht.png","../images/ylw_slt.png","../images/cyn_red.png"],"mutagen_generator_assignment":[1,0],"goal":3,"start":0,"action_noise":0.15,"location_history":"[0,4,8,0,1,5,9,1,2,3]","action_history":"[0,1,1,0,1,0,1,0,0]","mutagen_history":"[1,0,0,1,0,1,0,1,1]","location_rts":"[2354,830,1277,840,1218,1098,759,711,957]","trial_type":"fractal-mutation","trial_index":67,"time_elapsed":2207030,"internal_node_id":"0.0-5.0-28.0"},{"group":"dicyclic group of order 12","fractal_assignment":["../images/gry_blk.png","../images/wht_red.png","../images/grn_prp.png","../images/grn_blu.png","../images/red_prp.png","../images/grn_red.png","../images/ylw_pnk.png","../images/org_blu.png","../images/pnk_blu.png","../images/blu_wht.png","../images/ylw_slt.png","../images/cyn_red.png"],"mutagen_generator_assignment":[1,0],"goal":4,"start":3,"action_noise":0.15,"location_history":"[3,7,8,0,1,2,3,7,8,0,4]","action_history":"[1,0,1,0,0,0,1,1,1,1]","mutagen_history":"[0,1,0,1,1,1,0,0,0,0]","location_rts":"[1216,1555,3678,1311,1061,1118,2005,1383,1033,1365]","trial_type":"fractal-mutation","trial_index":68,"time_elapsed":2237449,"internal_node_id":"0.0-5.0-29.0"},{"group":"dicyclic group of order 12","fractal_assignment":["../images/gry_blk.png","../images/wht_red.png","../images/grn_prp.png","../images/grn_blu.png","../images/red_prp.png","../images/grn_red.png","../images/ylw_pnk.png","../images/org_blu.png","../images/pnk_blu.png","../images/blu_wht.png","../images/ylw_slt.png","../images/cyn_red.png"],"mutagen_generator_assignment":[1,0],"goal":10,"start":4,"action_noise":0.15,"location_history":"[4,8,0,4,8,0,1,2,6,11,3,7,8,0,4,9,1,5,9,6,10]","action_history":"[1,1,1,1,0,1,0,1,1,1,1,0,1,1,0,1,0,1,0,1]","mutagen_history":"[0,0,0,0,1,0,1,0,0,0,0,1,0,0,1,0,1,0,1,0]","location_rts":"[3277,1243,463,423,555,1217,1762,931,791,862,879,1095,665,995,1215,944,1251,894,1369,713]","trial_type":"fractal-mutation","trial_index":69,"time_elapsed":2284818,"internal_node_id":"0.0-5.0-30.0"},{"group":"dicyclic group of order 12","fractal_assignment":["../images/gry_blk.png","../images/wht_red.png","../images/grn_prp.png","../images/grn_blu.png","../images/red_prp.png","../images/grn_red.png","../images/ylw_pnk.png","../images/org_blu.png","../images/pnk_blu.png","../images/blu_wht.png","../images/ylw_slt.png","../images/cyn_red.png"],"mutagen_generator_assignment":[1,0],"goal":11,"start":10,"action_noise":0.15,"location_history":"[10,7,11]","action_history":"[0,1]","mutagen_history":"[1,0]","location_rts":"[2244,1638]","trial_type":"fractal-mutation","trial_index":70,"time_elapsed":2294469,"internal_node_id":"0.0-5.0-31.0"},{"group":"dicyclic group of order 12","fractal_assignment":["../images/gry_blk.png","../images/wht_red.png","../images/grn_prp.png","../images/grn_blu.png","../images/red_prp.png","../images/grn_red.png","../images/ylw_pnk.png","../images/org_blu.png","../images/pnk_blu.png","../images/blu_wht.png","../images/ylw_slt.png","../images/cyn_red.png"],"mutagen_generator_assignment":[1,0],"goal":1,"start":11,"action_noise":0.15,"location_history":"[11,3,7,11,4,8,0,4,8,5,10,2,3,7,11,3,7,8,0,4,8,5,9,1]","action_history":"[1,1,1,0,1,1,1,1,0,0,1,0,1,0,1,1,0,1,1,1,0,1,1]","mutagen_history":"[0,0,0,1,0,0,0,0,1,1,0,1,0,1,0,0,1,0,0,0,1,0,0]","location_rts":"[1526,401,427,661,2085,813,539,661,1529,613,569,1035,1417,833,3203,498,470,558,968,473,1096,759,901]","trial_type":"fractal-mutation","trial_index":71,"time_elapsed":2345702,"internal_node_id":"0.0-5.0-32.0"},{"group":"dicyclic group of order 12","fractal_assignment":["../images/gry_blk.png","../images/wht_red.png","../images/grn_prp.png","../images/grn_blu.png","../images/red_prp.png","../images/grn_red.png","../images/ylw_pnk.png","../images/org_blu.png","../images/pnk_blu.png","../images/blu_wht.png","../images/ylw_slt.png","../images/cyn_red.png"],"mutagen_generator_assignment":[1,0],"goal":5,"start":1,"action_noise":0.15,"location_history":"[1,5]","action_history":"[0]","mutagen_history":"[1]","location_rts":"[3647]","trial_type":"fractal-mutation","trial_index":72,"time_elapsed":2354008,"internal_node_id":"0.0-5.0-33.0"},{"group":"dicyclic group of order 12","fractal_assignment":["../images/gry_blk.png","../images/wht_red.png","../images/grn_prp.png","../images/grn_blu.png","../images/red_prp.png","../images/grn_red.png","../images/ylw_pnk.png","../images/org_blu.png","../images/pnk_blu.png","../images/blu_wht.png","../images/ylw_slt.png","../images/cyn_red.png"],"mutagen_generator_assignment":[1,0],"goal":9,"start":5,"action_noise":0.15,"location_history":"[5,9]","action_history":"[1]","mutagen_history":"[0]","location_rts":"[1250]","trial_type":"fractal-mutation","trial_index":73,"time_elapsed":2359841,"internal_node_id":"0.0-5.0-34.0"},{"view_history":"[{\"page_index\":0,\"viewing_time\":9097}]","rt":9097,"trial_type":"instructions","trial_index":74,"time_elapsed":2369941,"internal_node_id":"0.0-6.0"},{"rt":27083,"responses":"{\"Q0\":\"This was extraordinarily difficult.\"}","trial_type":"survey-text","trial_index":75,"time_elapsed":2398031,"internal_node_id":"0.0-7.0"}]