[{"view_history":"[{\"page_index\":0,\"viewing_time\":3813},{\"page_index\":1,\"viewing_time\":3859},{\"page_index\":2,\"viewing_time\":4533},{\"page_index\":3,\"viewing_time\":1008}]","rt":13214,"trial_type":"instructions","trial_index":0,"time_elapsed":13214,"internal_node_id":"0.0-0.0"},{"view_history":"[{\"page_index\":0,\"viewing_time\":1215},{\"page_index\":1,\"viewing_time\":1432}]","rt":2647,"trial_type":"instructions","trial_index":1,"time_elapsed":16862,"internal_node_id":"0.0-1.0"},{"group":"dicyclic group of order 12","room_assignment":["cyan","green","orange","blue","yellow","olive","purple","red","grey","ivory","pink","brown"],"door_color_assignment":["white","black"],"door_generator_assignment":[1,0],"goal":4,"start":0,"action_noise":0.15,"location_history":"[0,4]","action_history":"[1]","door_history":"[0]","location_rts":"[1332]","trial_type":"two-door-navigation","trial_index":2,"time_elapsed":22720,"internal_node_id":"0.0-2.0-0.0"},{"group":"dicyclic group of order 12","room_assignment":["cyan","green","orange","blue","yellow","olive","purple","red","grey","ivory","pink","brown"],"door_color_assignment":["white","black"],"door_generator_assignment":[1,0],"goal":9,"start":4,"action_noise":0.15,"location_history":"[4,8,0,4,9]","action_history":"[1,1,1,0]","door_history":"[0,0,0,1]","location_rts":"[2642,296,222,915]","trial_type":"two-door-navigation","trial_index":3,"time_elapsed":34334,"internal_node_id":"0.0-2.0-1.0"},{"group":"dicyclic group of order 12","room_assignment":["cyan","green","orange","blue","yellow","olive","purple","red","grey","ivory","pink","brown"],"door_color_assignment":["white","black"],"door_generator_assignment":[1,0],"goal":10,"start":9,"action_noise":0.15,"location_history":"[9,1,5,9,1,5,9,1,2,3,7,11,3,7,11,3,7,8,5,9,1,5,9,6,10]","action_history":"[1,1,1,1,1,1,1,1,1,1,1,1,1,1,1,1,1,1,1,1,1,1,1,1]","door_history":"[0,0,0,0,0,0,0,0,0,0,0,0,0,0,0,0,0,0,0,0,0,0,0,0]","location_rts":"[978,324,247,263,275,289,356,308,128,261,394,371,449,397,1736,3699,400,254,313,238,249,35,642,128]","trial_type":"two-door-navigation","trial_index":4,"time_elapsed":74754,"internal_node_id":"0.0-2.0-2.0"},{"group":"dicyclic group of order 12","room_assignment":["cyan","green","orange","blue","yellow","olive","purple","red","grey","ivory","pink","brown"],"door_color_assignment":["white","black"],"door_generator_assignment":[1,0],"goal":2,"start":10,"action_noise":0.15,"location_history":"[10,2]","action_history":"[0]","door_history":"[1]","location_rts":"[1810]","trial_type":"two-door-navigation","trial_index":5,"time_elapsed":81074,"internal_node_id":"0.0-2.0-3.0"},{"group":"dicyclic group of order 12","room_assignment":["cyan","green","orange","blue","yellow","olive","purple","red","grey","ivory","pink","brown"],"door_color_assignment":["white","black"],"door_generator_assignment":[1,0],"goal":5,"start":2,"action_noise":0.15,"location_history":"[2,6,11,3,0,4,9,1,5]","action_history":"[1,0,1,0,1,0,1,0]","door_history":"[0,1,0,1,0,1,0,1]","location_rts":"[1372,344,306,270,233,281,322,386]","trial_type":"two-door-navigation","trial_index":6,"time_elapsed":96146,"internal_node_id":"0.0-2.0-4.0"},{"group":"dicyclic group of order 12","room_assignment":["cyan","green","orange","blue","yellow","olive","purple","red","grey","ivory","pink","brown"],"door_color_assignment":["white","black"],"door_generator_assignment":[1,0],"goal":11,"start":5,"action_noise":0.15,"location_history":"[5,10,7,11]","action_history":"[0,0,0]","door_history":"[1,1,1]","location_rts":"[1118,288,330]","trial_type":"two-door-navigation","trial_index":7,"time_elapsed":104406,"internal_node_id":"0.0-2.0-5.0"},{"group":"dicyclic group of order 12","room_assignment":["cyan","green","orange","blue","yellow","olive","purple","red","grey","ivory","pink","brown"],"door_color_assignment":["white","black"],"door_generator_assignment":[1,0],"goal":6,"start":11,"action_noise":0.15,"location_history":"[11,3,7,11,3,7,11,3,7,11,4,9,1,5,10,7,8,0,4,9,6]","action_history":"[1,1,1,1,1,1,1,1,1,1,1,1,1,0,0,0,0,0,0,0]","door_history":"[0,0,0,0,0,0,0,0,0,0,0,0,0,1,1,1,1,1,1,1]","location_rts":"[1242,2403,335,208,476,314,284,284,266,272,291,499,287,316,487,323,394,218,343,289]","trial_type":"two-door-navigation","trial_index":8,"time_elapsed":138427,"internal_node_id":"0.0-2.0-6.0"},{"group":"dicyclic group of order 12","room_assignment":["cyan","green","orange","blue","yellow","olive","purple","red","grey","ivory","pink","brown"],"door_color_assignment":["white","black"],"door_generator_assignment":[1,0],"goal":3,"start":6,"action_noise":0.15,"location_history":"[6,10,7,8,5,10,7,11,4,9,6,11,4,9,6,11,4,9,6,11,3]","action_history":"[1,0,0,0,0,0,0,0,0,0,0,0,0,0,0,0,0,0,0,1]","door_history":"[0,1,1,1,1,1,1,1,1,1,1,1,1,1,1,1,1,1,1,0]","location_rts":"[4676,528,379,262,294,251,277,290,267,283,666,327,239,305,256,354,309,295,544,435]","trial_type":"two-door-navigation","trial_index":9,"time_elapsed":173305,"internal_node_id":"0.0-2.0-7.0"},{"group":"dicyclic group of order 12","room_assignment":["cyan","green","orange","blue","yellow","olive","purple","red","grey","ivory","pink","brown"],"door_color_assignment":["white","black"],"door_generator_assignment":[1,0],"goal":8,"start":3,"action_noise":0.15,"location_history":"[3,0,1,5,9,1,5,9,1,5,9,1,5,9,1,5,9,1,5,9,6,11,4,9,6,11,4,9,1,2,3,0,1,2,6,10,2,6,10,2,3,7,8]","action_history":"[0,1,1,1,1,1,1,1,1,1,1,1,1,1,1,1,1,1,1,0,0,0,0,0,0,0,0,0,0,0,0,0,0,0,1,1,1,1,1,1,1,0]","door_history":"[1,0,0,0,0,0,0,0,0,0,0,0,0,0,0,0,0,0,0,1,1,1,1,1,1,1,1,1,1,1,1,1,1,1,0,0,0,0,0,0,0,1]","location_rts":"[2024,369,340,357,306,352,327,314,280,329,370,337,317,322,279,289,344,241,299,302,336,320,318,263,298,261,329,281,363,330,277,337,422,426,921,355,360,296,292,274,295,297]","trial_type":"two-door-navigation","trial_index":10,"time_elapsed":234834,"internal_node_id":"0.0-2.0-8.0"},{"group":"dicyclic group of order 12","room_assignment":["cyan","green","orange","blue","yellow","olive","purple","red","grey","ivory","pink","brown"],"door_color_assignment":["white","black"],"door_generator_assignment":[1,0],"goal":1,"start":8,"action_noise":0.15,"location_history":"[8,5,10,7,8,5,10,7,8,5,10,2,6,10,2,6,10,2,6,10,2,3,7,11,3,7,8,0,1]","action_history":"[0,0,0,0,0,0,0,0,0,0,1,1,1,1,1,1,1,1,1,1,1,1,1,1,1,0,1,0]","door_history":"[1,1,1,1,1,1,1,1,1,1,0,0,0,0,0,0,0,0,0,0,0,0,0,0,0,1,0,1]","location_rts":"[1582,506,304,770,638,877,370,369,383,252,387,403,432,559,334,256,291,379,311,232,3318,1712,533,897,555,420,332,310]","trial_type":"two-door-navigation","trial_index":11,"time_elapsed":284237,"internal_node_id":"0.0-2.0-9.0"},{"group":"dicyclic group of order 12","room_assignment":["cyan","green","orange","blue","yellow","olive","purple","red","grey","ivory","pink","brown"],"door_color_assignment":["white","black"],"door_generator_assignment":[1,0],"goal":7,"start":1,"action_noise":0.15,"location_history":"[1,5,9,1,2,6,10,2,6,10,2,6,10,7]","action_history":"[1,1,1,1,1,1,1,1,1,1,1,1,1]","door_history":"[0,0,0,0,0,0,0,0,0,0,0,0,0]","location_rts":"[2008,317,412,451,847,274,155,217,200,344,331,457,490]","trial_type":"two-door-navigation","trial_index":12,"time_elapsed":307322,"internal_node_id":"0.0-2.0-10.0"},{"group":"dicyclic group of order 12","room_assignment":["cyan","green","orange","blue","yellow","olive","purple","red","grey","ivory","pink","brown"],"door_color_assignment":["white","black"],"door_generator_assignment":[1,0],"goal":5,"start":7,"action_noise":0.15,"location_history":"[7,8,0,1,5]","action_history":"[0,1,0,1]","door_history":"[1,0,1,0]","location_rts":"[1294,313,352,257]","trial_type":"two-door-navigation","trial_index":13,"time_elapsed":317068,"internal_node_id":"0.0-2.0-11.0"},{"group":"dicyclic group of order 12","room_assignment":["cyan","green","orange","blue","yellow","olive","purple","red","grey","ivory","pink","brown"],"door_color_assignment":["white","black"],"door_generator_assignment":[1,0],"goal":8,"start":5,"action_noise":0.15,"location_history":"[5,9,1,5,9,6,11,3,0,4,9,6,11,3,0,1,2,6,11,3,0,1,2,3,0,1,2,3,0,4,8]","action_history":"[1,1,1,1,1,1,1,0,0,0,0,0,0,0,0,0,0,0,0,0,0,0,0,0,0,0,0,1,1,1]","door_history":"[0,0,0,0,0,0,0,1,1,1,1,1,1,1,1,1,1,1,1,1,1,1,1,1,1,1,1,0,0,0]","location_rts":"[1389,874,331,920,295,394,466,437,326,377,129,249,319,308,474,323,322,226,661,120,452,535,314,354,953,654,699,326,364,288]","trial_type":"two-door-navigation","trial_index":14,"time_elapsed":364655,"internal_node_id":"0.0-2.0-12.0"},{"group":"dicyclic group of order 12","room_assignment":["cyan","green","orange","blue","yellow","olive","purple","red","grey","ivory","pink","brown"],"door_color_assignment":["white","black"],"door_generator_assignment":[1,0],"goal":11,"start":8,"action_noise":0.15,"location_history":"[8,5,10,7,8,5,10,7,8,5,9,6,11]","action_history":"[0,0,0,0,0,0,0,0,0,0,0,0]","door_history":"[1,1,1,1,1,1,1,1,1,1,1,1]","location_rts":"[3080,387,273,254,305,343,314,306,371,379,287,361]","trial_type":"two-door-navigation","trial_index":15,"time_elapsed":386899,"internal_node_id":"0.0-2.0-13.0"},{"group":"dicyclic group of order 12","room_assignment":["cyan","green","orange","blue","yellow","olive","purple","red","grey","ivory","pink","brown"],"door_color_assignment":["white","black"],"door_generator_assignment":[1,0],"goal":6,"start":11,"action_noise":0.15,"location_history":"[11,3,7,8,0,1,2,3,0,1,2,6]","action_history":"[1,0,0,0,0,0,0,0,0,0,0]","door_history":"[0,1,1,1,1,1,1,1,1,1,1]","location_rts":"[1201,433,305,451,9492,430,378,381,296,797,695]","trial_type":"two-door-navigation","trial_index":16,"time_elapsed":416328,"internal_node_id":"0.0-2.0-14.0"},{"group":"dicyclic group of order 12","room_assignment":["cyan","green","orange","blue","yellow","olive","purple","red","grey","ivory","pink","brown"],"door_color_assignment":["white","black"],"door_generator_assignment":[1,0],"goal":7,"start":6,"action_noise":0.15,"location_history":"[6,10,2,6,10,2,6,10,2,6,10,2,6,10,2,6,10,2,6,10,7]","action_history":"[1,1,1,1,1,1,1,1,1,1,1,1,1,1,1,1,1,1,1,0]","door_history":"[0,0,0,0,0,0,0,0,0,0,0,0,0,0,0,0,0,0,0,1]","location_rts":"[1246,475,345,459,498,306,687,1636,545,52,2017,426,1103,901,395,465,633,711,313,416]","trial_type":"two-door-navigation","trial_index":17,"time_elapsed":453597,"internal_node_id":"0.0-2.0-15.0"},{"group":"dicyclic group of order 12","room_assignment":["cyan","green","orange","blue","yellow","olive","purple","red","grey","ivory","pink","brown"],"door_color_assignment":["white","black"],"door_generator_assignment":[1,0],"goal":10,"start":7,"action_noise":0.15,"location_history":"[7,11,4,9,6,11,4,8,5,10]","action_history":"[1,0,0,0,0,0,0,0,0]","door_history":"[0,1,1,1,1,1,1,1,1]","location_rts":"[1805,389,361,304,234,253,284,591,378]","trial_type":"two-door-navigation","trial_index":18,"time_elapsed":470761,"internal_node_id":"0.0-2.0-16.0"},{"group":"dicyclic group of order 12","room_assignment":["cyan","green","orange","blue","yellow","olive","purple","red","grey","ivory","pink","brown"],"door_color_assignment":["white","black"],"door_generator_assignment":[1,0],"goal":0,"start":10,"action_noise":0.15,"location_history":"[10,7,11,3,0]","action_history":"[0,1,0,0]","door_history":"[1,0,1,1]","location_rts":"[3274,437,377,489]","trial_type":"two-door-navigation","trial_index":19,"time_elapsed":482862,"internal_node_id":"0.0-2.0-17.0"},{"group":"dicyclic group of order 12","room_assignment":["cyan","green","orange","blue","yellow","olive","purple","red","grey","ivory","pink","brown"],"door_color_assignment":["white","black"],"door_generator_assignment":[1,0],"goal":9,"start":0,"action_noise":0.15,"location_history":"[0,4,8,0,1,5,9]","action_history":"[1,1,0,0,1,0]","door_history":"[0,0,1,1,0,1]","location_rts":"[1568,419,1640,617,390,359]","trial_type":"two-door-navigation","trial_index":20,"time_elapsed":497402,"internal_node_id":"0.0-2.0-18.0"},{"group":"dicyclic group of order 12","room_assignment":["cyan","green","orange","blue","yellow","olive","purple","red","grey","ivory","pink","brown"],"door_color_assignment":["white","black"],"door_generator_assignment":[1,0],"goal":4,"start":9,"action_noise":0.15,"location_history":"[9,1,5,9,6,11,4]","action_history":"[1,1,1,0,1,0]","door_history":"[0,0,0,1,0,1]","location_rts":"[1629,326,394,464,391,354]","trial_type":"two-door-navigation","trial_index":21,"time_elapsed":510508,"internal_node_id":"0.0-2.0-19.0"},{"group":"dicyclic group of order 12","room_assignment":["cyan","green","orange","blue","yellow","olive","purple","red","grey","ivory","pink","brown"],"door_color_assignment":["white","black"],"door_generator_assignment":[1,0],"goal":2,"start":4,"action_noise":0.15,"location_history":"[4,8,5,10,7,8,0,1,2]","action_history":"[1,0,0,0,0,0,0,0]","door_history":"[0,1,1,1,1,1,1,1]","location_rts":"[2022,1114,416,582,400,556,713,371]","trial_type":"two-door-navigation","trial_index":22,"time_elapsed":528235,"internal_node_id":"0.0-2.0-20.0"},{"group":"dicyclic group of order 12","room_assignment":["cyan","green","orange","blue","yellow","olive","purple","red","grey","ivory","pink","brown"],"door_color_assignment":["white","black"],"door_generator_assignment":[1,0],"goal":1,"start":2,"action_noise":0.15,"location_history":"[2,6,11,4,9,6,11,4,9,6,11,4,9,6,10,2,3,7,11,3,7,11,3,0,4,8,0,4,8,0,1]","action_history":"[1,0,0,0,0,0,0,0,0,0,0,0,0,1,1,0,1,1,1,1,1,1,1,1,1,1,1,1,1,1]","door_history":"[0,1,1,1,1,1,1,1,1,1,1,1,1,0,0,1,0,0,0,0,0,0,0,0,0,0,0,0,0,0]","location_rts":"[1249,359,521,571,387,369,385,409,455,354,361,312,353,814,410,843,375,363,410,390,345,383,543,553,875,3291,207,700,546,381]","trial_type":"two-door-navigation","trial_index":23,"time_elapsed":579445,"internal_node_id":"0.0-2.0-21.0"},{"group":"dicyclic group of order 12","room_assignment":["cyan","green","orange","blue","yellow","olive","purple","red","grey","ivory","pink","brown"],"door_color_assignment":["white","black"],"door_generator_assignment":[1,0],"goal":3,"start":1,"action_noise":0.15,"location_history":"[1,2,3]","action_history":"[0,0]","door_history":"[1,1]","location_rts":"[2611,498]","trial_type":"two-door-navigation","trial_index":24,"time_elapsed":588070,"internal_node_id":"0.0-2.0-22.0"},{"group":"dicyclic group of order 12","room_assignment":["cyan","green","orange","blue","yellow","olive","purple","red","grey","ivory","pink","brown"],"door_color_assignment":["white","black"],"door_generator_assignment":[1,0],"goal":7,"start":3,"action_noise":0.15,"location_history":"[3,7]","action_history":"[1]","door_history":"[0]","location_rts":"[1564]","trial_type":"two-door-navigation","trial_index":25,"time_elapsed":594136,"internal_node_id":"0.0-2.0-23.0"},{"group":"dicyclic group of order 12","room_assignment":["cyan","green","orange","blue","yellow","olive","purple","red","grey","ivory","pink","brown"],"door_color_assignment":["white","black"],"door_generator_assignment":[1,0],"goal":6,"start":7,"action_noise":0.15,"location_history":"[7,8,5,9,1,2,3,0,1,2,3,7,8,5,10,7,11,4,8,0,1,5,10,2,3,7,8,5,9,6]","action_history":"[0,0,0,0,0,0,0,0,0,0,0,0,0,0,0,1,0,1,1,0,1,0,1,0,1,0,0,1,0]","door_history":"[1,1,1,1,1,1,1,1,1,1,1,1,1,1,1,0,1,0,0,1,0,1,0,1,0,1,1,0,1]","location_rts":"[2146,465,388,384,372,280,585,383,393,531,519,429,425,442,467,928,413,632,935,602,511,330,1008,1042,851,1019,1278,1018,941]","trial_type":"two-door-navigation","trial_index":26,"time_elapsed":646550,"internal_node_id":"0.0-2.0-24.0"},{"group":"dicyclic group of order 12","room_assignment":["cyan","green","orange","blue","yellow","olive","purple","red","grey","ivory","pink","brown"],"door_color_assignment":["white","black"],"door_generator_assignment":[1,0],"goal":2,"start":6,"action_noise":0.15,"location_history":"[6,10,2]","action_history":"[1,1]","door_history":"[0,0]","location_rts":"[16598,516]","trial_type":"two-door-navigation","trial_index":27,"time_elapsed":670055,"internal_node_id":"0.0-2.0-25.0"},{"group":"dicyclic group of order 12","room_assignment":["cyan","green","orange","blue","yellow","olive","purple","red","grey","ivory","pink","brown"],"door_color_assignment":["white","black"],"door_generator_assignment":[1,0],"goal":8,"start":2,"action_noise":0.15,"location_history":"[2,3,0,4,8]","action_history":"[0,0,1,1]","door_history":"[1,1,0,0]","location_rts":"[1044,440,521,746]","trial_type":"two-door-navigation","trial_index":28,"time_elapsed":680334,"internal_node_id":"0.0-2.0-26.0"},{"group":"dicyclic group of order 12","room_assignment":["cyan","green","orange","blue","yellow","olive","purple","red","grey","ivory","pink","brown"],"door_color_assignment":["white","black"],"door_generator_assignment":[1,0],"goal":0,"start":8,"action_noise":0.15,"location_history":"[8,5,10,7,8,5,10,7,8,5,10,2,3,7,8,5,10,2,6,10,2,3,7,11,3,0]","action_history":"[0,0,0,0,0,0,0,0,0,0,0,0,0,0,0,0,1,1,1,1,1,1,1,1,1]","door_history":"[1,1,1,1,1,1,1,1,1,1,1,1,1,1,1,1,0,0,0,0,0,0,0,0,0]","location_rts":"[1455,368,322,288,290,328,249,237,284,245,264,329,298,352,315,466,207,332,586,361,340,330,281,327,463]","trial_type":"two-door-navigation","trial_index":29,"time_elapsed":718330,"internal_node_id":"0.0-2.0-27.0"},{"group":"dicyclic group of order 12","room_assignment":["cyan","green","orange","blue","yellow","olive","purple","red","grey","ivory","pink","brown"],"door_color_assignment":["white","black"],"door_generator_assignment":[1,0],"goal":3,"start":0,"action_noise":0.15,"location_history":"[0,1,2,3]","action_history":"[0,0,0]","door_history":"[1,1,1]","location_rts":"[4576,414,210]","trial_type":"two-door-navigation","trial_index":30,"time_elapsed":730151,"internal_node_id":"0.0-2.0-28.0"},{"group":"dicyclic group of order 12","room_assignment":["cyan","green","orange","blue","yellow","olive","purple","red","grey","ivory","pink","brown"],"door_color_assignment":["white","black"],"door_generator_assignment":[1,0],"goal":4,"start":3,"action_noise":0.15,"location_history":"[3,7,11,3,7,11,3,7,11,3,7,11,4]","action_history":"[1,1,1,1,1,1,1,1,1,1,0,0]","door_history":"[0,0,0,0,0,0,0,0,0,0,1,1]","location_rts":"[921,327,279,746,936,420,451,390,403,426,566,464]","trial_type":"two-door-navigation","trial_index":31,"time_elapsed":752056,"internal_node_id":"0.0-2.0-29.0"},{"group":"dicyclic group of order 12","room_assignment":["cyan","green","orange","blue","yellow","olive","purple","red","grey","ivory","pink","brown"],"door_color_assignment":["white","black"],"door_generator_assignment":[1,0],"goal":10,"start":4,"action_noise":0.15,"location_history":"[4,8,0,4,8,0,1,2,3,7,11,3,7,8,5,10]","action_history":"[1,1,1,1,1,1,1,1,1,1,1,1,0,0,1]","door_history":"[0,0,0,0,0,0,0,0,0,0,0,0,1,1,0]","location_rts":"[1371,385,372,819,714,1671,838,2752,352,378,372,463,1051,337,398]","trial_type":"two-door-navigation","trial_index":32,"time_elapsed":782910,"internal_node_id":"0.0-2.0-30.0"},{"group":"dicyclic group of order 12","room_assignment":["cyan","green","orange","blue","yellow","olive","purple","red","grey","ivory","pink","brown"],"door_color_assignment":["white","black"],"door_generator_assignment":[1,0],"goal":11,"start":10,"action_noise":0.15,"location_history":"[10,2,3,0,1,2,3,0,1,2,3,0,1,2,3,0,1,2,6,10,7,11]","action_history":"[0,0,0,0,0,0,0,0,0,0,0,0,0,0,0,0,0,0,1,0,1]","door_history":"[1,1,1,1,1,1,1,1,1,1,1,1,1,1,1,1,1,1,0,1,0]","location_rts":"[972,253,281,103,732,802,353,433,637,363,754,390,548,481,336,312,180,289,364,343,299]","trial_type":"two-door-navigation","trial_index":33,"time_elapsed":816764,"internal_node_id":"0.0-2.0-31.0"},{"group":"dicyclic group of order 12","room_assignment":["cyan","green","orange","blue","yellow","olive","purple","red","grey","ivory","pink","brown"],"door_color_assignment":["white","black"],"door_generator_assignment":[1,0],"goal":1,"start":11,"action_noise":0.15,"location_history":"[11,3,7,11,4,8,0,4,8,0,4,9,1]","action_history":"[0,1,1,0,1,1,1,1,1,1,1,1]","door_history":"[1,0,0,1,0,0,0,0,0,0,0,0]","location_rts":"[1393,394,396,395,345,399,394,321,738,424,574,372]","trial_type":"two-door-navigation","trial_index":34,"time_elapsed":838493,"internal_node_id":"0.0-2.0-32.0"},{"group":"dicyclic group of order 12","room_assignment":["cyan","green","orange","blue","yellow","olive","purple","red","grey","ivory","pink","brown"],"door_color_assignment":["white","black"],"door_generator_assignment":[1,0],"goal":5,"start":1,"action_noise":0.15,"location_history":"[1,2,6,11,3,0,4,8,5]","action_history":"[0,1,0,1,0,1,1,0]","door_history":"[1,0,1,0,1,0,0,1]","location_rts":"[1035,326,332,272,280,242,273,258]","trial_type":"two-door-navigation","trial_index":35,"time_elapsed":853061,"internal_node_id":"0.0-2.0-33.0"},{"group":"dicyclic group of order 12","room_assignment":["cyan","green","orange","blue","yellow","olive","purple","red","grey","ivory","pink","brown"],"door_color_assignment":["white","black"],"door_generator_assignment":[1,0],"goal":9,"start":5,"action_noise":0.15,"location_history":"[5,9]","action_history":"[1]","door_history":"[0]","location_rts":"[1109]","trial_type":"two-door-navigation","trial_index":36,"time_elapsed":858679,"internal_node_id":"0.0-2.0-34.0"},{"view_history":"[{\"page_index\":0,\"viewing_time\":2829}]","rt":2830,"trial_type":"instructions","trial_index":37,"time_elapsed":862509,"internal_node_id":"0.0-3.0"},{"view_history":"[{\"page_index\":0,\"viewing_time\":2453},{\"page_index\":1,\"viewing_time\":104360}]","rt":106813,"trial_type":"instructions","trial_index":38,"time_elapsed":970323,"internal_node_id":"0.0-4.0"},{"group":"dicyclic group of order 12","fractal_assignment":["../images/grn_blu.png","../images/ylw_slt.png","../images/blu_wht.png","../images/ylw_pnk.png","../images/grn_prp.png","../images/red_prp.png","../images/org_blu.png","../images/cyn_red.png","../images/pnk_blu.png","../images/gry_blk.png","../images/grn_red.png","../images/wht_red.png"],"mutagen_generator_assignment":[1,0],"goal":4,"start":0,"action_noise":0.15,"location_history":"[0,4]","action_history":"[1]","mutagen_history":"[0]","location_rts":"[10776]","trial_type":"fractal-mutation","trial_index":39,"time_elapsed":985620,"internal_node_id":"0.0-5.0-0.0"},{"group":"dicyclic group of order 12","fractal_assignment":["../images/grn_blu.png","../images/ylw_slt.png","../images/blu_wht.png","../images/ylw_pnk.png","../images/grn_prp.png","../images/red_prp.png","../images/org_blu.png","../images/cyn_red.png","../images/pnk_blu.png","../images/gry_blk.png","../images/grn_red.png","../images/wht_red.png"],"mutagen_generator_assignment":[1,0],"goal":9,"start":4,"action_noise":0.15,"location_history":"[4,8,5,10,7,11,3,7,11,4,9]","action_history":"[0,1,0,1,1,1,1,1,0,0]","mutagen_history":"[1,0,1,0,0,0,0,0,1,1]","location_rts":"[786,4629,1230,848,892,625,475,470,402,695]","trial_type":"fractal-mutation","trial_index":40,"time_elapsed":1011674,"internal_node_id":"0.0-5.0-1.0"},{"group":"dicyclic group of order 12","fractal_assignment":["../images/grn_blu.png","../images/ylw_slt.png","../images/blu_wht.png","../images/ylw_pnk.png","../images/grn_prp.png","../images/red_prp.png","../images/org_blu.png","../images/cyn_red.png","../images/pnk_blu.png","../images/gry_blk.png","../images/grn_red.png","../images/wht_red.png"],"mutagen_generator_assignment":[1,0],"goal":10,"start":9,"action_noise":0.15,"location_history":"[9,6,11,3,7,11,4,8,0,4,8,0,4,8,5,9,6,11,4,9,6,11,4,9,1,2,3,7,8,5,10]","action_history":"[0,1,1,1,1,1,1,1,1,1,1,1,1,0,1,0,0,0,0,0,0,0,0,0,0,0,0,0,0,0]","mutagen_history":"[1,0,0,0,0,0,0,0,0,0,0,0,0,1,0,1,1,1,1,1,1,1,1,1,1,1,1,1,1,1]","location_rts":"[53508,1709,94,355,371,398,514,353,469,393,456,1540,2058,56,186,158,829,512,387,445,378,357,611,662,439,339,391,599,498,560]","trial_type":"fractal-mutation","trial_index":41,"time_elapsed":1119457,"internal_node_id":"0.0-5.0-2.0"},{"group":"dicyclic group of order 12","fractal_assignment":["../images/grn_blu.png","../images/ylw_slt.png","../images/blu_wht.png","../images/ylw_pnk.png","../images/grn_prp.png","../images/red_prp.png","../images/org_blu.png","../images/cyn_red.png","../images/pnk_blu.png","../images/gry_blk.png","../images/grn_red.png","../images/wht_red.png"],"mutagen_generator_assignment":[1,0],"goal":2,"start":10,"action_noise":0.15,"location_history":"[10,2]","action_history":"[1]","mutagen_history":"[0]","location_rts":"[1003]","trial_type":"fractal-mutation","trial_index":42,"time_elapsed":1124971,"internal_node_id":"0.0-5.0-3.0"},{"group":"dicyclic group of order 12","fractal_assignment":["../images/grn_blu.png","../images/ylw_slt.png","../images/blu_wht.png","../images/ylw_pnk.png","../images/grn_prp.png","../images/red_prp.png","../images/org_blu.png","../images/cyn_red.png","../images/pnk_blu.png","../images/gry_blk.png","../images/grn_red.png","../images/wht_red.png"],"mutagen_generator_assignment":[1,0],"goal":5,"start":2,"action_noise":0.15,"location_history":"[2,3,0,1,2,3,0,1,5]","action_history":"[0,0,0,0,0,0,0,0]","mutagen_history":"[1,1,1,1,1,1,1,1]","location_rts":"[10208,1451,348,314,376,517,491,540]","trial_type":"fractal-mutation","trial_index":43,"time_elapsed":1152765,"internal_node_id":"0.0-5.0-4.0"},{"group":"dicyclic group of order 12","fractal_assignment":["../images/grn_blu.png","../images/ylw_slt.png","../images/blu_wht.png","../images/ylw_pnk.png","../images/grn_prp.png","../images/red_prp.png","../images/org_blu.png","../images/cyn_red.png","../images/pnk_blu.png","../images/gry_blk.png","../images/grn_red.png","../images/wht_red.png"],"mutagen_generator_assignment":[1,0],"goal":11,"start":5,"action_noise":0.15,"location_history":"[5,10,7,8,5,10,7,8,5,10,2,6,10,2,6,10,2,3,7,11]","action_history":"[0,0,0,0,0,0,0,0,0,1,1,1,1,1,1,1,1,1,1]","mutagen_history":"[1,1,1,1,1,1,1,1,1,0,0,0,0,0,0,0,0,0,0]","location_rts":"[1152,386,309,396,383,361,360,426,368,388,454,411,356,829,367,343,434,431,473]","trial_type":"fractal-mutation","trial_index":44,"time_elapsed":1186757,"internal_node_id":"0.0-5.0-5.0"},{"group":"dicyclic group of order 12","fractal_assignment":["../images/grn_blu.png","../images/ylw_slt.png","../images/blu_wht.png","../images/ylw_pnk.png","../images/grn_prp.png","../images/red_prp.png","../images/org_blu.png","../images/cyn_red.png","../images/pnk_blu.png","../images/gry_blk.png","../images/grn_red.png","../images/wht_red.png"],"mutagen_generator_assignment":[1,0],"goal":6,"start":11,"action_noise":0.15,"location_history":"[11,4,9,6]","action_history":"[0,0,0]","mutagen_history":"[1,1,1]","location_rts":"[1460,309,361]","trial_type":"fractal-mutation","trial_index":45,"time_elapsed":1195974,"internal_node_id":"0.0-5.0-6.0"},{"group":"dicyclic group of order 12","fractal_assignment":["../images/grn_blu.png","../images/ylw_slt.png","../images/blu_wht.png","../images/ylw_pnk.png","../images/grn_prp.png","../images/red_prp.png","../images/org_blu.png","../images/cyn_red.png","../images/pnk_blu.png","../images/gry_blk.png","../images/grn_red.png","../images/wht_red.png"],"mutagen_generator_assignment":[1,0],"goal":3,"start":6,"action_noise":0.15,"location_history":"[6,11,3]","action_history":"[0,0]","mutagen_history":"[1,1]","location_rts":"[1081,419]","trial_type":"fractal-mutation","trial_index":46,"time_elapsed":1203359,"internal_node_id":"0.0-5.0-7.0"},{"group":"dicyclic group of order 12","fractal_assignment":["../images/grn_blu.png","../images/ylw_slt.png","../images/blu_wht.png","../images/ylw_pnk.png","../images/grn_prp.png","../images/red_prp.png","../images/org_blu.png","../images/cyn_red.png","../images/pnk_blu.png","../images/gry_blk.png","../images/grn_red.png","../images/wht_red.png"],"mutagen_generator_assignment":[1,0],"goal":8,"start":3,"action_noise":0.15,"location_history":"[3,7,11,3,7,11,3,0,4,8]","action_history":"[1,1,1,1,1,1,1,1,1]","mutagen_history":"[0,0,0,0,0,0,0,0,0]","location_rts":"[1046,440,416,396,546,387,364,351,375]","trial_type":"fractal-mutation","trial_index":47,"time_elapsed":1220299,"internal_node_id":"0.0-5.0-8.0"},{"group":"dicyclic group of order 12","fractal_assignment":["../images/grn_blu.png","../images/ylw_slt.png","../images/blu_wht.png","../images/ylw_pnk.png","../images/grn_prp.png","../images/red_prp.png","../images/org_blu.png","../images/cyn_red.png","../images/pnk_blu.png","../images/gry_blk.png","../images/grn_red.png","../images/wht_red.png"],"mutagen_generator_assignment":[1,0],"goal":1,"start":8,"action_noise":0.15,"location_history":"[8,5,10,7,8,0,1]","action_history":"[0,0,0,0,0,0]","mutagen_history":"[1,1,1,1,1,1]","location_rts":"[2392,653,505,276,314,399]","trial_type":"fractal-mutation","trial_index":48,"time_elapsed":1235500,"internal_node_id":"0.0-5.0-9.0"},{"group":"dicyclic group of order 12","fractal_assignment":["../images/grn_blu.png","../images/ylw_slt.png","../images/blu_wht.png","../images/ylw_pnk.png","../images/grn_prp.png","../images/red_prp.png","../images/org_blu.png","../images/cyn_red.png","../images/pnk_blu.png","../images/gry_blk.png","../images/grn_red.png","../images/wht_red.png"],"mutagen_generator_assignment":[1,0],"goal":7,"start":1,"action_noise":0.15,"location_history":"[1,2,6,11,4,8,5,10,7]","action_history":"[0,0,0,0,0,0,0,0]","mutagen_history":"[1,1,1,1,1,1,1,1]","location_rts":"[1253,436,400,337,324,337,341,533]","trial_type":"fractal-mutation","trial_index":49,"time_elapsed":1252554,"internal_node_id":"0.0-5.0-10.0"},{"group":"dicyclic group of order 12","fractal_assignment":["../images/grn_blu.png","../images/ylw_slt.png","../images/blu_wht.png","../images/ylw_pnk.png","../images/grn_prp.png","../images/red_prp.png","../images/org_blu.png","../images/cyn_red.png","../images/pnk_blu.png","../images/gry_blk.png","../images/grn_red.png","../images/wht_red.png"],"mutagen_generator_assignment":[1,0],"goal":5,"start":7,"action_noise":0.15,"location_history":"[7,8,5]","action_history":"[0,0]","mutagen_history":"[1,1]","location_rts":"[1405,409]","trial_type":"fractal-mutation","trial_index":50,"time_elapsed":1260296,"internal_node_id":"0.0-5.0-11.0"},{"group":"dicyclic group of order 12","fractal_assignment":["../images/grn_blu.png","../images/ylw_slt.png","../images/blu_wht.png","../images/ylw_pnk.png","../images/grn_prp.png","../images/red_prp.png","../images/org_blu.png","../images/cyn_red.png","../images/pnk_blu.png","../images/gry_blk.png","../images/grn_red.png","../images/wht_red.png"],"mutagen_generator_assignment":[1,0],"goal":8,"start":5,"action_noise":0.15,"location_history":"[5,9,1,5,9,6,10,7,11,3,7,11,3,7,11,3,7,8]","action_history":"[1,1,1,1,1,1,1,1,1,1,1,1,1,1,1,1,1]","mutagen_history":"[0,0,0,0,0,0,0,0,0,0,0,0,0,0,0,0,0]","location_rts":"[2045,370,375,313,240,299,609,858,381,388,743,349,453,427,368,442,760]","trial_type":"fractal-mutation","trial_index":51,"time_elapsed":1290406,"internal_node_id":"0.0-5.0-12.0"},{"group":"dicyclic group of order 12","fractal_assignment":["../images/grn_blu.png","../images/ylw_slt.png","../images/blu_wht.png","../images/ylw_pnk.png","../images/grn_prp.png","../images/red_prp.png","../images/org_blu.png","../images/cyn_red.png","../images/pnk_blu.png","../images/gry_blk.png","../images/grn_red.png","../images/wht_red.png"],"mutagen_generator_assignment":[1,0],"goal":11,"start":8,"action_noise":0.15,"location_history":"[8,5,9,1,5,9,1,5,9,1,5,10,7,8,5,9,6,10,7,8,0,4,8,5,10,7,8,5,10,7,8,5,10,7,8,0,1,2,3,0,4,8,5,10,7,8,0,1,5,9,1,5,9,1,2,6,10,7,8,0,4,9,1,2,6,11]","action_history":"[0,1,1,1,1,1,1,1,1,1,0,0,0,0,0,0,0,0,0,1,1,1,0,0,0,0,0,0,0,0,0,0,0,0,0,0,0,0,0,0,0,0,0,0,0,0,0,0,1,1,1,1,1,1,1,1,1,1,1,1,0,1,0,1,0]","mutagen_history":"[1,0,0,0,0,0,0,0,0,0,1,1,1,1,1,1,1,1,1,0,0,0,1,1,1,1,1,1,1,1,1,1,1,1,1,1,1,1,1,1,1,1,1,1,1,1,1,1,0,0,0,0,0,0,0,0,0,0,0,0,1,0,1,0,1]","location_rts":"[2061,465,360,344,364,372,477,337,359,343,346,668,1600,421,47,49,341,317,461,843,410,404,415,501,305,298,403,242,310,273,414,304,301,278,339,361,335,371,402,517,419,768,359,317,466,499,592,339,383,372,491,293,515,1959,380,342,325,275,305,316,361,470,344,408,315]","trial_type":"fractal-mutation","trial_index":52,"time_elapsed":1398976,"internal_node_id":"0.0-5.0-13.0"},{"group":"dicyclic group of order 12","fractal_assignment":["../images/grn_blu.png","../images/ylw_slt.png","../images/blu_wht.png","../images/ylw_pnk.png","../images/grn_prp.png","../images/red_prp.png","../images/org_blu.png","../images/cyn_red.png","../images/pnk_blu.png","../images/gry_blk.png","../images/grn_red.png","../images/wht_red.png"],"mutagen_generator_assignment":[1,0],"goal":6,"start":11,"action_noise":0.15,"location_history":"[11,4,9,6]","action_history":"[0,0,0]","mutagen_history":"[1,1,1]","location_rts":"[1360,380,13640]","trial_type":"fractal-mutation","trial_index":53,"time_elapsed":1421466,"internal_node_id":"0.0-5.0-14.0"},{"group":"dicyclic group of order 12","fractal_assignment":["../images/grn_blu.png","../images/ylw_slt.png","../images/blu_wht.png","../images/ylw_pnk.png","../images/grn_prp.png","../images/red_prp.png","../images/org_blu.png","../images/cyn_red.png","../images/pnk_blu.png","../images/gry_blk.png","../images/grn_red.png","../images/wht_red.png"],"mutagen_generator_assignment":[1,0],"goal":7,"start":6,"action_noise":0.15,"location_history":"[6,10,7]","action_history":"[0,0]","mutagen_history":"[1,1]","location_rts":"[1073,423]","trial_type":"fractal-mutation","trial_index":54,"time_elapsed":1428849,"internal_node_id":"0.0-5.0-15.0"},{"group":"dicyclic group of order 12","fractal_assignment":["../images/grn_blu.png","../images/ylw_slt.png","../images/blu_wht.png","../images/ylw_pnk.png","../images/grn_prp.png","../images/red_prp.png","../images/org_blu.png","../images/cyn_red.png","../images/pnk_blu.png","../images/gry_blk.png","../images/grn_red.png","../images/wht_red.png"],"mutagen_generator_assignment":[1,0],"goal":10,"start":7,"action_noise":0.15,"location_history":"[7,8,5,10]","action_history":"[0,0,0]","mutagen_history":"[1,1,1]","location_rts":"[918,482,274]","trial_type":"fractal-mutation","trial_index":55,"time_elapsed":1437591,"internal_node_id":"0.0-5.0-16.0"},{"group":"dicyclic group of order 12","fractal_assignment":["../images/grn_blu.png","../images/ylw_slt.png","../images/blu_wht.png","../images/ylw_pnk.png","../images/grn_prp.png","../images/red_prp.png","../images/org_blu.png","../images/cyn_red.png","../images/pnk_blu.png","../images/gry_blk.png","../images/grn_red.png","../images/wht_red.png"],"mutagen_generator_assignment":[1,0],"goal":0,"start":10,"action_noise":0.15,"location_history":"[10,2,6,11,3,7,11,3,7,11,3,7,8,0]","action_history":"[1,1,1,1,1,1,1,1,1,1,1,1,1]","mutagen_history":"[0,0,0,0,0,0,0,0,0,0,0,0,0]","location_rts":"[1196,725,603,611,409,881,1019,402,431,322,841,1375,845]","trial_type":"fractal-mutation","trial_index":56,"time_elapsed":1463933,"internal_node_id":"0.0-5.0-17.0"},{"group":"dicyclic group of order 12","fractal_assignment":["../images/grn_blu.png","../images/ylw_slt.png","../images/blu_wht.png","../images/ylw_pnk.png","../images/grn_prp.png","../images/red_prp.png","../images/org_blu.png","../images/cyn_red.png","../images/pnk_blu.png","../images/gry_blk.png","../images/grn_red.png","../images/wht_red.png"],"mutagen_generator_assignment":[1,0],"goal":9,"start":0,"action_noise":0.15,"location_history":"[0,4,8,0,4,8,0,4,8,0,4,8,0,4,8,0,4,8,5,9]","action_history":"[1,1,1,1,1,1,1,1,1,1,1,1,1,1,1,1,1,1,1]","mutagen_history":"[0,0,0,0,0,0,0,0,0,0,0,0,0,0,0,0,0,0,0]","location_rts":"[994,335,346,499,327,576,361,647,400,507,469,440,358,391,408,1144,374,288,325]","trial_type":"fractal-mutation","trial_index":57,"time_elapsed":1495824,"internal_node_id":"0.0-5.0-18.0"},{"group":"dicyclic group of order 12","fractal_assignment":["../images/grn_blu.png","../images/ylw_slt.png","../images/blu_wht.png","../images/ylw_pnk.png","../images/grn_prp.png","../images/red_prp.png","../images/org_blu.png","../images/cyn_red.png","../images/pnk_blu.png","../images/gry_blk.png","../images/grn_red.png","../images/wht_red.png"],"mutagen_generator_assignment":[1,0],"goal":4,"start":9,"action_noise":0.15,"location_history":"[9,1,2,6,11,4]","action_history":"[0,0,0,0,0]","mutagen_history":"[1,1,1,1,1]","location_rts":"[947,223,86,804,449]","trial_type":"fractal-mutation","trial_index":58,"time_elapsed":1507903,"internal_node_id":"0.0-5.0-19.0"},{"group":"dicyclic group of order 12","fractal_assignment":["../images/grn_blu.png","../images/ylw_slt.png","../images/blu_wht.png","../images/ylw_pnk.png","../images/grn_prp.png","../images/red_prp.png","../images/org_blu.png","../images/cyn_red.png","../images/pnk_blu.png","../images/gry_blk.png","../images/grn_red.png","../images/wht_red.png"],"mutagen_generator_assignment":[1,0],"goal":2,"start":4,"action_noise":0.15,"location_history":"[4,8,5,9,1,5,9,6,10,7,11,3,7,11,3,7,11,3,7,11,4,9,6,11,4,9,6,11,4,8,5,10,7,11,3,7,11,4,8,5,10,7,8,5,10,7,8,5,10,7,11,3,0,4,8,5,9,6,10,7,11,4,9,6,10,7,11,4,8,5,9,6,11,3,7,11,3,7,11,3,0,1,2]","action_history":"[1,1,1,1,1,1,1,1,0,1,1,1,1,1,1,1,1,1,0,0,0,0,0,0,0,0,0,0,0,0,0,0,0,0,1,1,1,1,0,0,0,0,0,0,0,0,0,0,0,1,1,1,1,1,0,1,0,1,0,1,0,1,0,1,0,1,0,1,0,1,0,1,1,1,1,1,1,1,0,0,0,0]","mutagen_history":"[0,0,0,0,0,0,0,0,1,0,0,0,0,0,0,0,0,0,1,1,1,1,1,1,1,1,1,1,1,1,1,1,1,1,0,0,0,0,1,1,1,1,1,1,1,1,1,1,1,0,0,0,0,0,1,0,1,0,1,0,1,0,1,0,1,0,1,0,1,0,1,0,0,0,0,0,0,0,1,1,1,1]","location_rts":"[3881,370,728,1417,601,365,708,343,375,331,386,370,1113,399,1496,438,327,313,483,618,334,629,316,53,308,376,640,343,338,255,311,306,311,338,286,377,251,279,161882,1352,226,251,477,266,369,334,424,365,358,1137,428,420,621,370,587,375,454,331,324,298,315,182,306,430,305,520,242,669,299,340,457,359,391,361,344,500,627,501,355,405,389,646]","trial_type":"fractal-mutation","trial_index":59,"time_elapsed":1809807,"internal_node_id":"0.0-5.0-20.0"},{"group":"dicyclic group of order 12","fractal_assignment":["../images/grn_blu.png","../images/ylw_slt.png","../images/blu_wht.png","../images/ylw_pnk.png","../images/grn_prp.png","../images/red_prp.png","../images/org_blu.png","../images/cyn_red.png","../images/pnk_blu.png","../images/gry_blk.png","../images/grn_red.png","../images/wht_red.png"],"mutagen_generator_assignment":[1,0],"goal":1,"start":2,"action_noise":0.15,"location_history":"[2,6,10,2,6,10,2,6,10,2,6,11,4,9,1]","action_history":"[1,1,1,1,1,0,1,1,1,1,0,0,0,1]","mutagen_history":"[0,0,0,0,0,1,0,0,0,0,1,1,1,0]","location_rts":"[1312,349,584,438,352,350,323,335,444,151,11699,391,306,360]","trial_type":"fractal-mutation","trial_index":60,"time_elapsed":1846092,"internal_node_id":"0.0-5.0-21.0"},{"group":"dicyclic group of order 12","fractal_assignment":["../images/grn_blu.png","../images/ylw_slt.png","../images/blu_wht.png","../images/ylw_pnk.png","../images/grn_prp.png","../images/red_prp.png","../images/org_blu.png","../images/cyn_red.png","../images/pnk_blu.png","../images/gry_blk.png","../images/grn_red.png","../images/wht_red.png"],"mutagen_generator_assignment":[1,0],"goal":3,"start":1,"action_noise":0.15,"location_history":"[1,5,9,1,5,9,1,5,9,1,5,9,1,2,3]","action_history":"[1,1,1,1,1,1,1,1,1,1,1,1,0,0]","mutagen_history":"[0,0,0,0,0,0,0,0,0,0,0,0,1,1]","location_rts":"[1066,434,337,293,280,283,468,248,311,279,310,337,291,345]","trial_type":"fractal-mutation","trial_index":61,"time_elapsed":1869382,"internal_node_id":"0.0-5.0-22.0"},{"group":"dicyclic group of order 12","fractal_assignment":["../images/grn_blu.png","../images/ylw_slt.png","../images/blu_wht.png","../images/ylw_pnk.png","../images/grn_prp.png","../images/red_prp.png","../images/org_blu.png","../images/cyn_red.png","../images/pnk_blu.png","../images/gry_blk.png","../images/grn_red.png","../images/wht_red.png"],"mutagen_generator_assignment":[1,0],"goal":7,"start":3,"action_noise":0.15,"location_history":"[3,0,1,2,6,11,4,9,1,2,3,0,1,2,3,0,1,2,6,11,4,9,1,5,9,6,10,2,6,10,2,6,10,7]","action_history":"[0,0,0,0,0,0,0,0,0,0,0,0,0,0,0,0,0,0,0,0,0,1,1,1,1,1,1,1,1,1,1,1,0]","mutagen_history":"[1,1,1,1,1,1,1,1,1,1,1,1,1,1,1,1,1,1,1,1,1,0,0,0,0,0,0,0,0,0,0,0,1]","location_rts":"[1030,384,318,693,284,496,458,284,341,331,537,148,460,2,339,355,381,545,763,681,499,324,326,306,260,667,176,325,429,354,339,285,338]","trial_type":"fractal-mutation","trial_index":62,"time_elapsed":1925428,"internal_node_id":"0.0-5.0-23.0"},{"group":"dicyclic group of order 12","fractal_assignment":["../images/grn_blu.png","../images/ylw_slt.png","../images/blu_wht.png","../images/ylw_pnk.png","../images/grn_prp.png","../images/red_prp.png","../images/org_blu.png","../images/cyn_red.png","../images/pnk_blu.png","../images/gry_blk.png","../images/grn_red.png","../images/wht_red.png"],"mutagen_generator_assignment":[1,0],"goal":6,"start":7,"action_noise":0.15,"location_history":"[7,8,5,10,7,8,5,10,7,8,0,4,8,0,4,8,0,4,8,5,10,2,6]","action_history":"[0,0,0,0,0,0,0,0,0,1,1,1,1,1,1,1,1,1,0,0,0,1]","mutagen_history":"[1,1,1,1,1,1,1,1,1,0,0,0,0,0,0,0,0,0,1,1,1,0]","location_rts":"[58296,1500,6413,395,374,371,373,312,425,493,345,316,346,356,295,367,354,356,399,484,554,327]","trial_type":"fractal-mutation","trial_index":63,"time_elapsed":2028837,"internal_node_id":"0.0-5.0-24.0"},{"group":"dicyclic group of order 12","fractal_assignment":["../images/grn_blu.png","../images/ylw_slt.png","../images/blu_wht.png","../images/ylw_pnk.png","../images/grn_prp.png","../images/red_prp.png","../images/org_blu.png","../images/cyn_red.png","../images/pnk_blu.png","../images/gry_blk.png","../images/grn_red.png","../images/wht_red.png"],"mutagen_generator_assignment":[1,0],"goal":2,"start":6,"action_noise":0.15,"location_history":"[6,10,7,8,0,1,2]","action_history":"[1,0,0,0,0,0]","mutagen_history":"[0,1,1,1,1,1]","location_rts":"[1074,351,387,547,448,634]","trial_type":"fractal-mutation","trial_index":64,"time_elapsed":2042752,"internal_node_id":"0.0-5.0-25.0"},{"group":"dicyclic group of order 12","fractal_assignment":["../images/grn_blu.png","../images/ylw_slt.png","../images/blu_wht.png","../images/ylw_pnk.png","../images/grn_prp.png","../images/red_prp.png","../images/org_blu.png","../images/cyn_red.png","../images/pnk_blu.png","../images/gry_blk.png","../images/grn_red.png","../images/wht_red.png"],"mutagen_generator_assignment":[1,0],"goal":8,"start":2,"action_noise":0.15,"location_history":"[2,3,0,1,2,3,0,1,2,6,11,4,8]","action_history":"[0,0,0,0,0,0,0,0,1,1,1,1]","mutagen_history":"[1,1,1,1,1,1,1,1,0,0,0,0]","location_rts":"[1119,338,605,465,643,326,398,380,840,339,432,267]","trial_type":"fractal-mutation","trial_index":65,"time_elapsed":2066334,"internal_node_id":"0.0-5.0-26.0"},{"group":"dicyclic group of order 12","fractal_assignment":["../images/grn_blu.png","../images/ylw_slt.png","../images/blu_wht.png","../images/ylw_pnk.png","../images/grn_prp.png","../images/red_prp.png","../images/org_blu.png","../images/cyn_red.png","../images/pnk_blu.png","../images/gry_blk.png","../images/grn_red.png","../images/wht_red.png"],"mutagen_generator_assignment":[1,0],"goal":0,"start":8,"action_noise":0.15,"location_history":"[8,5,10,7,8,5,10,7,8,5,9,1,5,9,1,5,9,1,5,10,2,6,10,7,11,3,7,11,4,9,1,2,3,0]","action_history":"[0,0,0,0,0,0,0,0,0,1,1,1,1,1,1,1,1,1,1,1,0,1,0,0,0,1,1,1,1,1,0,0,0]","mutagen_history":"[1,1,1,1,1,1,1,1,1,0,0,0,0,0,0,0,0,0,0,0,1,0,1,1,1,0,0,0,0,0,1,1,1]","location_rts":"[779,408,291,91,470,538,583,1631,446,376,1006,601,735,374,626,454,432,429,427,288,364,317,393,437,378,365,393,270,338,488,544,370,303]","trial_type":"fractal-mutation","trial_index":66,"time_elapsed":2123546,"internal_node_id":"0.0-5.0-27.0"},{"group":"dicyclic group of order 12","fractal_assignment":["../images/grn_blu.png","../images/ylw_slt.png","../images/blu_wht.png","../images/ylw_pnk.png","../images/grn_prp.png","../images/red_prp.png","../images/org_blu.png","../images/cyn_red.png","../images/pnk_blu.png","../images/gry_blk.png","../images/grn_red.png","../images/wht_red.png"],"mutagen_generator_assignment":[1,0],"goal":3,"start":0,"action_noise":0.15,"location_history":"[0,1,2,3]","action_history":"[0,0,0]","mutagen_history":"[1,1,1]","location_rts":"[48908,333,794]","trial_type":"fractal-mutation","trial_index":67,"time_elapsed":2180675,"internal_node_id":"0.0-5.0-28.0"},{"group":"dicyclic group of order 12","fractal_assignment":["../images/grn_blu.png","../images/ylw_slt.png","../images/blu_wht.png","../images/ylw_pnk.png","../images/grn_prp.png","../images/red_prp.png","../images/org_blu.png","../images/cyn_red.png","../images/pnk_blu.png","../images/gry_blk.png","../images/grn_red.png","../images/wht_red.png"],"mutagen_generator_assignment":[1,0],"goal":4,"start":3,"action_noise":0.15,"location_history":"[3,7,11,3,7,11,3,7,11,3,7,8,5,10,7,8,5,10,7,8,5,10,7,8,5,10,2,6,10,2,6,11,4]","action_history":"[1,1,1,1,1,1,1,1,1,1,0,0,0,0,0,0,0,0,0,0,0,0,0,0,0,1,1,1,1,1,1,0]","mutagen_history":"[0,0,0,0,0,0,0,0,0,0,1,1,1,1,1,1,1,1,1,1,1,1,1,1,1,0,0,0,0,0,0,1]","location_rts":"[1103,405,329,463,286,542,879,345,376,511,411,300,211,158,315,790,319,62,331,341,411,817,421,392,491,670,390,330,497,389,360,500]","trial_type":"fractal-mutation","trial_index":68,"time_elapsed":2234279,"internal_node_id":"0.0-5.0-29.0"},{"group":"dicyclic group of order 12","fractal_assignment":["../images/grn_blu.png","../images/ylw_slt.png","../images/blu_wht.png","../images/ylw_pnk.png","../images/grn_prp.png","../images/red_prp.png","../images/org_blu.png","../images/cyn_red.png","../images/pnk_blu.png","../images/gry_blk.png","../images/grn_red.png","../images/wht_red.png"],"mutagen_generator_assignment":[1,0],"goal":10,"start":4,"action_noise":0.15,"location_history":"[4,8,5,10]","action_history":"[0,1,0]","mutagen_history":"[1,0,1]","location_rts":"[981,501,325]","trial_type":"fractal-mutation","trial_index":69,"time_elapsed":2243091,"internal_node_id":"0.0-5.0-30.0"},{"group":"dicyclic group of order 12","fractal_assignment":["../images/grn_blu.png","../images/ylw_slt.png","../images/blu_wht.png","../images/ylw_pnk.png","../images/grn_prp.png","../images/red_prp.png","../images/org_blu.png","../images/cyn_red.png","../images/pnk_blu.png","../images/gry_blk.png","../images/grn_red.png","../images/wht_red.png"],"mutagen_generator_assignment":[1,0],"goal":11,"start":10,"action_noise":0.15,"location_history":"[10,2,3,7,11]","action_history":"[1,0,1,1]","mutagen_history":"[0,1,0,0]","location_rts":"[954,396,430,782]","trial_type":"fractal-mutation","trial_index":70,"time_elapsed":2253566,"internal_node_id":"0.0-5.0-31.0"},{"group":"dicyclic group of order 12","fractal_assignment":["../images/grn_blu.png","../images/ylw_slt.png","../images/blu_wht.png","../images/ylw_pnk.png","../images/grn_prp.png","../images/red_prp.png","../images/org_blu.png","../images/cyn_red.png","../images/pnk_blu.png","../images/gry_blk.png","../images/grn_red.png","../images/wht_red.png"],"mutagen_generator_assignment":[1,0],"goal":1,"start":11,"action_noise":0.15,"location_history":"[11,4,8,0,4,9,1]","action_history":"[0,1,1,0,0,1]","mutagen_history":"[1,0,0,1,1,0]","location_rts":"[832,454,357,501,500,149]","trial_type":"fractal-mutation","trial_index":71,"time_elapsed":2266752,"internal_node_id":"0.0-5.0-32.0"},{"group":"dicyclic group of order 12","fractal_assignment":["../images/grn_blu.png","../images/ylw_slt.png","../images/blu_wht.png","../images/ylw_pnk.png","../images/grn_prp.png","../images/red_prp.png","../images/org_blu.png","../images/cyn_red.png","../images/pnk_blu.png","../images/gry_blk.png","../images/grn_red.png","../images/wht_red.png"],"mutagen_generator_assignment":[1,0],"goal":5,"start":1,"action_noise":0.15,"location_history":"[1,2,3,0,4,9,1,5]","action_history":"[0,1,0,1,0,1,1]","mutagen_history":"[1,0,1,0,1,0,0]","location_rts":"[956,409,470,720,1018,501,438]","trial_type":"fractal-mutation","trial_index":72,"time_elapsed":2282749,"internal_node_id":"0.0-5.0-33.0"},{"group":"dicyclic group of order 12","fractal_assignment":["../images/grn_blu.png","../images/ylw_slt.png","../images/blu_wht.png","../images/ylw_pnk.png","../images/grn_prp.png","../images/red_prp.png","../images/org_blu.png","../images/cyn_red.png","../images/pnk_blu.png","../images/gry_blk.png","../images/grn_red.png","../images/wht_red.png"],"mutagen_generator_assignment":[1,0],"goal":9,"start":5,"action_noise":0.15,"location_history":"[5,9]","action_history":"[0]","mutagen_history":"[1]","location_rts":"[1124]","trial_type":"fractal-mutation","trial_index":73,"time_elapsed":2288558,"internal_node_id":"0.0-5.0-34.0"},{"view_history":"[{\"page_index\":0,\"viewing_time\":6778}]","rt":6778,"trial_type":"instructions","trial_index":74,"time_elapsed":2296336,"internal_node_id":"0.0-6.0"},{"rt":1749,"responses":"{\"Q0\":\"\"}","trial_type":"survey-text","trial_index":75,"time_elapsed":2299090,"internal_node_id":"0.0-7.0"}]