[{"view_history":"[{\"page_index\":0,\"viewing_time\":53977},{\"page_index\":1,\"viewing_time\":38928},{\"page_index\":2,\"viewing_time\":102680},{\"page_index\":3,\"viewing_time\":10346}]","rt":205932,"trial_type":"instructions","trial_index":0,"time_elapsed":205934,"internal_node_id":"0.0-0.0"},{"view_history":"[{\"page_index\":0,\"viewing_time\":3700},{\"page_index\":1,\"viewing_time\":39385}]","rt":43085,"trial_type":"instructions","trial_index":1,"time_elapsed":250020,"internal_node_id":"0.0-1.0"},{"group":"dicyclic group of order 12","room_assignment":["purple","ivory","grey","brown","green","cyan","orange","olive","red","pink","blue","yellow"],"door_color_assignment":["black","white"],"door_generator_assignment":[0,1],"goal":4,"start":0,"action_noise":0.15,"location_history":"[0,1,2,6,11,4]","action_history":"[0,0,0,0,0]","door_history":"[0,0,0,0,0]","location_rts":"[2679,2297,2066,1832,2051]","trial_type":"two-door-navigation","trial_index":2,"time_elapsed":269548,"internal_node_id":"0.0-2.0-0.0"},{"group":"dicyclic group of order 12","room_assignment":["purple","ivory","grey","brown","green","cyan","orange","olive","red","pink","blue","yellow"],"door_color_assignment":["black","white"],"door_generator_assignment":[0,1],"goal":9,"start":4,"action_noise":0.15,"location_history":"[4,9]","action_history":"[0]","door_history":"[0]","location_rts":"[2619]","trial_type":"two-door-navigation","trial_index":3,"time_elapsed":276692,"internal_node_id":"0.0-2.0-1.0"},{"group":"dicyclic group of order 12","room_assignment":["purple","ivory","grey","brown","green","cyan","orange","olive","red","pink","blue","yellow"],"door_color_assignment":["black","white"],"door_generator_assignment":[0,1],"goal":10,"start":9,"action_noise":0.15,"location_history":"[9,6,10]","action_history":"[0,1]","door_history":"[0,1]","location_rts":"[2339,1914]","trial_type":"two-door-navigation","trial_index":4,"time_elapsed":286487,"internal_node_id":"0.0-2.0-2.0"},{"group":"dicyclic group of order 12","room_assignment":["purple","ivory","grey","brown","green","cyan","orange","olive","red","pink","blue","yellow"],"door_color_assignment":["black","white"],"door_generator_assignment":[0,1],"goal":2,"start":10,"action_noise":0.15,"location_history":"[10,7,8,5,10,7,11,3,7,11,3,7,11,4,9,1,2]","action_history":"[0,0,0,0,1,1,1,1,1,1,1,1,0,0,0,0]","door_history":"[0,0,0,0,1,1,1,1,1,1,1,1,0,0,0,0]","location_rts":"[4762,2248,1119,874,2172,902,997,910,1156,1151,949,914,863,635,642,857]","trial_type":"two-door-navigation","trial_index":5,"time_elapsed":327448,"internal_node_id":"0.0-2.0-3.0"},{"group":"dicyclic group of order 12","room_assignment":["purple","ivory","grey","brown","green","cyan","orange","olive","red","pink","blue","yellow"],"door_color_assignment":["black","white"],"door_generator_assignment":[0,1],"goal":5,"start":2,"action_noise":0.15,"location_history":"[2,3,0,1,2,3,7,11,3,0,4,8,0,4,8,5]","action_history":"[0,0,0,0,0,1,1,1,1,1,1,1,1,1,0]","door_history":"[0,0,0,0,0,1,1,1,1,1,1,1,1,1,0]","location_rts":"[2949,1184,1478,1034,847,887,855,1010,1073,825,721,897,955,606,1248]","trial_type":"two-door-navigation","trial_index":6,"time_elapsed":362814,"internal_node_id":"0.0-2.0-4.0"},{"group":"dicyclic group of order 12","room_assignment":["purple","ivory","grey","brown","green","cyan","orange","olive","red","pink","blue","yellow"],"door_color_assignment":["black","white"],"door_generator_assignment":[0,1],"goal":11,"start":5,"action_noise":0.15,"location_history":"[5,10,7,8,5,9,1,2,3,0,4,8,5,10,7,8,5,10,7,11]","action_history":"[0,0,0,0,1,0,1,0,0,1,1,0,0,0,0,0,0,1,1]","door_history":"[0,0,0,0,1,0,1,0,0,1,1,0,0,0,0,0,0,1,1]","location_rts":"[2153,1232,1454,1700,2104,1899,1255,2785,825,1500,1292,1301,904,815,607,546,708,794,980]","trial_type":"two-door-navigation","trial_index":7,"time_elapsed":410510,"internal_node_id":"0.0-2.0-5.0"},{"group":"dicyclic group of order 12","room_assignment":["purple","ivory","grey","brown","green","cyan","orange","olive","red","pink","blue","yellow"],"door_color_assignment":["black","white"],"door_generator_assignment":[0,1],"goal":6,"start":11,"action_noise":0.15,"location_history":"[11,4,8,5,10,7,8,0,1,2,6]","action_history":"[0,0,0,0,0,0,1,0,0,1]","door_history":"[0,0,0,0,0,0,1,0,0,1]","location_rts":"[1975,1386,959,1104,1280,990,1052,917,2184,882]","trial_type":"two-door-navigation","trial_index":8,"time_elapsed":436916,"internal_node_id":"0.0-2.0-6.0"},{"group":"dicyclic group of order 12","room_assignment":["purple","ivory","grey","brown","green","cyan","orange","olive","red","pink","blue","yellow"],"door_color_assignment":["black","white"],"door_generator_assignment":[0,1],"goal":3,"start":6,"action_noise":0.15,"location_history":"[6,11,4,8,5,10,7,8,5,10,2,6,11,3]","action_history":"[0,0,0,0,1,0,0,0,0,1,1,1,1]","door_history":"[0,0,0,0,1,0,0,0,0,1,1,1,1]","location_rts":"[2208,1398,1078,1020,1139,778,961,1147,1011,1058,931,945,907]","trial_type":"two-door-navigation","trial_index":9,"time_elapsed":468233,"internal_node_id":"0.0-2.0-7.0"},{"group":"dicyclic group of order 12","room_assignment":["purple","ivory","grey","brown","green","cyan","orange","olive","red","pink","blue","yellow"],"door_color_assignment":["black","white"],"door_generator_assignment":[0,1],"goal":8,"start":3,"action_noise":0.15,"location_history":"[3,7,8]","action_history":"[1,0]","door_history":"[1,0]","location_rts":"[2976,1044]","trial_type":"two-door-navigation","trial_index":10,"time_elapsed":477793,"internal_node_id":"0.0-2.0-8.0"},{"group":"dicyclic group of order 12","room_assignment":["purple","ivory","grey","brown","green","cyan","orange","olive","red","pink","blue","yellow"],"door_color_assignment":["black","white"],"door_generator_assignment":[0,1],"goal":1,"start":8,"action_noise":0.15,"location_history":"[8,0,1]","action_history":"[1,0]","door_history":"[1,0]","location_rts":"[3314,1087]","trial_type":"two-door-navigation","trial_index":11,"time_elapsed":487739,"internal_node_id":"0.0-2.0-9.0"},{"group":"dicyclic group of order 12","room_assignment":["purple","ivory","grey","brown","green","cyan","orange","olive","red","pink","blue","yellow"],"door_color_assignment":["black","white"],"door_generator_assignment":[0,1],"goal":7,"start":1,"action_noise":0.15,"location_history":"[1,5,9,1,5,9,6,10,7]","action_history":"[1,1,1,1,1,0,1,0]","door_history":"[1,1,1,1,1,0,1,0]","location_rts":"[2324,878,909,870,832,938,1330,958]","trial_type":"two-door-navigation","trial_index":12,"time_elapsed":508427,"internal_node_id":"0.0-2.0-10.0"},{"group":"dicyclic group of order 12","room_assignment":["purple","ivory","grey","brown","green","cyan","orange","olive","red","pink","blue","yellow"],"door_color_assignment":["black","white"],"door_generator_assignment":[0,1],"goal":5,"start":7,"action_noise":0.15,"location_history":"[7,11,3,0,1,2,3,7,11,3,0,1,2,6,11,4,8,0,4,8,5]","action_history":"[1,1,0,0,0,0,1,1,1,0,0,0,1,0,0,1,1,1,1,0]","door_history":"[1,1,0,0,0,0,1,1,1,0,0,0,1,0,0,1,1,1,1,0]","location_rts":"[2888,859,2064,911,931,897,1737,1272,1004,850,749,691,1224,939,754,1119,819,792,871,737]","trial_type":"two-door-navigation","trial_index":13,"time_elapsed":554415,"internal_node_id":"0.0-2.0-11.0"},{"group":"dicyclic group of order 12","room_assignment":["purple","ivory","grey","brown","green","cyan","orange","olive","red","pink","blue","yellow"],"door_color_assignment":["black","white"],"door_generator_assignment":[0,1],"goal":8,"start":5,"action_noise":0.15,"location_history":"[5,9,1,2,6,11,3,0,1,5,10,7,11,4,9,6,11,4,9,1,2,6,11,3,7,11,4,9,1,2,6,10,2,6,10,2,6,10,7,11,3,0,1,2,3,0,1,2,3,0,4,9,1,2,3,7,8]","action_history":"[1,1,1,0,0,1,0,0,1,0,0,0,0,0,0,0,0,1,1,0,1,0,1,1,1,0,0,1,0,1,1,1,1,1,1,1,0,0,1,1,0,0,0,0,0,1,1,0,1,1,1,1,0,0,1,0]","door_history":"[1,1,1,0,0,1,0,0,1,0,0,0,0,0,0,0,0,1,1,0,1,0,1,1,1,0,0,1,0,1,1,1,1,1,1,1,0,0,1,1,0,0,0,0,0,1,1,0,1,1,1,1,0,0,1,0]","location_rts":"[1917,1401,1506,1781,1177,1027,802,611,1555,1495,644,780,716,593,669,646,694,626,598,715,525,1233,643,494,831,1064,783,639,1024,693,686,667,619,558,552,582,868,903,797,390,431,400,392,337,355,418,406,644,374,296,289,356,391,391,965,626]","trial_type":"two-door-navigation","trial_index":14,"time_elapsed":656517,"internal_node_id":"0.0-2.0-12.0"},{"group":"dicyclic group of order 12","room_assignment":["purple","ivory","grey","brown","green","cyan","orange","olive","red","pink","blue","yellow"],"door_color_assignment":["black","white"],"door_generator_assignment":[0,1],"goal":11,"start":8,"action_noise":0.15,"location_history":"[8,5,10,2,6,10,2,6,11]","action_history":"[0,0,1,1,1,1,1,0]","door_history":"[0,0,1,1,1,1,1,0]","location_rts":"[1958,1176,2426,5096,1370,2237,5766,1286]","trial_type":"two-door-navigation","trial_index":15,"time_elapsed":689491,"internal_node_id":"0.0-2.0-13.0"},{"group":"dicyclic group of order 12","room_assignment":["purple","ivory","grey","brown","green","cyan","orange","olive","red","pink","blue","yellow"],"door_color_assignment":["black","white"],"door_generator_assignment":[0,1],"goal":6,"start":11,"action_noise":0.15,"location_history":"[11,4,9,6]","action_history":"[0,1,0]","door_history":"[0,1,0]","location_rts":"[2369,967,909]","trial_type":"two-door-navigation","trial_index":16,"time_elapsed":700290,"internal_node_id":"0.0-2.0-14.0"},{"group":"dicyclic group of order 12","room_assignment":["purple","ivory","grey","brown","green","cyan","orange","olive","red","pink","blue","yellow"],"door_color_assignment":["black","white"],"door_generator_assignment":[0,1],"goal":7,"start":6,"action_noise":0.15,"location_history":"[6,11,3,0,1,2,3,0,4,8,0,4,8,5,10,7]","action_history":"[0,1,0,0,0,0,1,1,1,1,1,1,0,0,0]","door_history":"[0,1,0,0,0,0,1,1,1,1,1,1,0,0,0]","location_rts":"[2087,1094,1242,525,597,675,1223,654,1712,533,404,855,360,593,1858]","trial_type":"two-door-navigation","trial_index":17,"time_elapsed":733491,"internal_node_id":"0.0-2.0-15.0"},{"group":"dicyclic group of order 12","room_assignment":["purple","ivory","grey","brown","green","cyan","orange","olive","red","pink","blue","yellow"],"door_color_assignment":["black","white"],"door_generator_assignment":[0,1],"goal":10,"start":7,"action_noise":0.15,"location_history":"[7,11,3,7,8,0,1,2,3,0,4,9,6,10]","action_history":"[1,1,1,1,0,0,0,0,0,0,0,1,0]","door_history":"[1,1,1,1,0,0,0,0,0,0,0,1,0]","location_rts":"[4309,420,757,682,1161,589,788,1299,709,918,1542,7744,3597]","trial_type":"two-door-navigation","trial_index":18,"time_elapsed":774748,"internal_node_id":"0.0-2.0-16.0"},{"group":"dicyclic group of order 12","room_assignment":["purple","ivory","grey","brown","green","cyan","orange","olive","red","pink","blue","yellow"],"door_color_assignment":["black","white"],"door_generator_assignment":[0,1],"goal":0,"start":10,"action_noise":0.15,"location_history":"[10,2,3,7,8,0]","action_history":"[1,1,1,1,1]","door_history":"[1,1,1,1,1]","location_rts":"[19316,1067,993,987,524]","trial_type":"two-door-navigation","trial_index":19,"time_elapsed":806232,"internal_node_id":"0.0-2.0-17.0"},{"group":"dicyclic group of order 12","room_assignment":["purple","ivory","grey","brown","green","cyan","orange","olive","red","pink","blue","yellow"],"door_color_assignment":["black","white"],"door_generator_assignment":[0,1],"goal":9,"start":0,"action_noise":0.15,"location_history":"[0,4,9]","action_history":"[0,0]","door_history":"[0,0]","location_rts":"[6277,1844]","trial_type":"two-door-navigation","trial_index":20,"time_elapsed":819898,"internal_node_id":"0.0-2.0-18.0"},{"group":"dicyclic group of order 12","room_assignment":["purple","ivory","grey","brown","green","cyan","orange","olive","red","pink","blue","yellow"],"door_color_assignment":["black","white"],"door_generator_assignment":[0,1],"goal":4,"start":9,"action_noise":0.15,"location_history":"[9,6,10,7,8,5,10,7,11,3,7,8,5,9,1,2,6,10,7,11,3,7,8,5,10,2,6,10,2,6,10,2,6,11,3,7,11,4]","action_history":"[0,0,0,0,0,0,1,0,1,1,0,0,1,1,0,0,1,0,1,1,1,0,0,0,1,1,1,1,1,1,1,1,0,1,0,0,0]","door_history":"[0,0,0,0,0,0,1,0,1,1,0,0,1,1,0,0,1,0,1,1,1,0,0,0,1,1,1,1,1,1,1,1,0,1,0,0,0]","location_rts":"[1761,2132,699,565,510,611,777,1301,612,832,1022,738,887,787,1542,796,5247,1353,1112,1177,902,759,673,1167,760,1197,825,930,874,384,460,408,541,1093,750,715,602]","trial_type":"two-door-navigation","trial_index":21,"time_elapsed":898574,"internal_node_id":"0.0-2.0-19.0"},{"group":"dicyclic group of order 12","room_assignment":["purple","ivory","grey","brown","green","cyan","orange","olive","red","pink","blue","yellow"],"door_color_assignment":["black","white"],"door_generator_assignment":[0,1],"goal":2,"start":4,"action_noise":0.15,"location_history":"[4,8,5,10,7,8,5,10,7,8,5,10,7,8,5,10,2]","action_history":"[1,0,0,0,0,0,0,0,0,0,0,0,0,0,0,1]","door_history":"[1,0,0,0,0,0,0,0,0,0,0,0,0,0,0,1]","location_rts":"[7132,2158,566,2876,755,9544,400,384,582,483,437,443,535,360,455,902]","trial_type":"two-door-navigation","trial_index":22,"time_elapsed":946396,"internal_node_id":"0.0-2.0-20.0"},{"group":"dicyclic group of order 12","room_assignment":["purple","ivory","grey","brown","green","cyan","orange","olive","red","pink","blue","yellow"],"door_color_assignment":["black","white"],"door_generator_assignment":[0,1],"goal":1,"start":2,"action_noise":0.15,"location_history":"[2,3,0,1]","action_history":"[0,0,0]","door_history":"[0,0,0]","location_rts":"[7751,483,943]","trial_type":"two-door-navigation","trial_index":23,"time_elapsed":962140,"internal_node_id":"0.0-2.0-21.0"},{"group":"dicyclic group of order 12","room_assignment":["purple","ivory","grey","brown","green","cyan","orange","olive","red","pink","blue","yellow"],"door_color_assignment":["black","white"],"door_generator_assignment":[0,1],"goal":3,"start":1,"action_noise":0.15,"location_history":"[1,2,3]","action_history":"[0,0]","door_history":"[0,0]","location_rts":"[2897,634]","trial_type":"two-door-navigation","trial_index":24,"time_elapsed":971210,"internal_node_id":"0.0-2.0-22.0"},{"group":"dicyclic group of order 12","room_assignment":["purple","ivory","grey","brown","green","cyan","orange","olive","red","pink","blue","yellow"],"door_color_assignment":["black","white"],"door_generator_assignment":[0,1],"goal":7,"start":3,"action_noise":0.15,"location_history":"[3,0,1,5,9,6,11,4,9,6,10,7]","action_history":"[0,0,1,0,0,0,0,0,0,1,0]","door_history":"[0,0,1,0,0,0,0,0,0,1,0]","location_rts":"[3028,710,1882,738,627,1044,1083,2245,3263,1219,1309]","trial_type":"two-door-navigation","trial_index":25,"time_elapsed":1003080,"internal_node_id":"0.0-2.0-23.0"},{"group":"dicyclic group of order 12","room_assignment":["purple","ivory","grey","brown","green","cyan","orange","olive","red","pink","blue","yellow"],"door_color_assignment":["black","white"],"door_generator_assignment":[0,1],"goal":6,"start":7,"action_noise":0.15,"location_history":"[7,11,4,9,6]","action_history":"[1,0,0,0]","door_history":"[1,0,0,0]","location_rts":"[4787,4309,3073,1872]","trial_type":"two-door-navigation","trial_index":26,"time_elapsed":1024697,"internal_node_id":"0.0-2.0-24.0"},{"group":"dicyclic group of order 12","room_assignment":["purple","ivory","grey","brown","green","cyan","orange","olive","red","pink","blue","yellow"],"door_color_assignment":["black","white"],"door_generator_assignment":[0,1],"goal":2,"start":6,"action_noise":0.15,"location_history":"[6,11,4,9,6,11,3,0,1,2]","action_history":"[0,0,0,0,0,0,0,0,0]","door_history":"[0,0,0,0,0,0,0,0,0]","location_rts":"[1941,812,785,895,1292,1223,2625,1250,941]","trial_type":"two-door-navigation","trial_index":27,"time_elapsed":1049137,"internal_node_id":"0.0-2.0-25.0"},{"group":"dicyclic group of order 12","room_assignment":["purple","ivory","grey","brown","green","cyan","orange","olive","red","pink","blue","yellow"],"door_color_assignment":["black","white"],"door_generator_assignment":[0,1],"goal":8,"start":2,"action_noise":0.15,"location_history":"[2,6,10,7,11,3,7,11,4,8]","action_history":"[1,1,0,1,1,0,1,0,1]","door_history":"[1,1,0,1,1,0,1,0,1]","location_rts":"[2397,1551,1617,1331,1454,1313,1169,994,2048]","trial_type":"two-door-navigation","trial_index":28,"time_elapsed":1075680,"internal_node_id":"0.0-2.0-26.0"},{"group":"dicyclic group of order 12","room_assignment":["purple","ivory","grey","brown","green","cyan","orange","olive","red","pink","blue","yellow"],"door_color_assignment":["black","white"],"door_generator_assignment":[0,1],"goal":0,"start":8,"action_noise":0.15,"location_history":"[8,5,9,6,11,4,8,0]","action_history":"[0,0,0,0,0,0,1]","door_history":"[0,0,0,0,0,0,1]","location_rts":"[1772,1520,1167,2187,1839,1315,2149]","trial_type":"two-door-navigation","trial_index":29,"time_elapsed":1098261,"internal_node_id":"0.0-2.0-27.0"},{"group":"dicyclic group of order 12","room_assignment":["purple","ivory","grey","brown","green","cyan","orange","olive","red","pink","blue","yellow"],"door_color_assignment":["black","white"],"door_generator_assignment":[0,1],"goal":3,"start":0,"action_noise":0.15,"location_history":"[0,1,2,3]","action_history":"[0,0,0]","door_history":"[0,0,0]","location_rts":"[7611,1580,1237]","trial_type":"two-door-navigation","trial_index":30,"time_elapsed":1115249,"internal_node_id":"0.0-2.0-28.0"},{"group":"dicyclic group of order 12","room_assignment":["purple","ivory","grey","brown","green","cyan","orange","olive","red","pink","blue","yellow"],"door_color_assignment":["black","white"],"door_generator_assignment":[0,1],"goal":4,"start":3,"action_noise":0.15,"location_history":"[3,7,11,3,7,8,0,4]","action_history":"[1,1,1,1,0,1,1]","door_history":"[1,1,1,1,0,1,1]","location_rts":"[2177,1264,1044,977,1208,916,817]","trial_type":"two-door-navigation","trial_index":31,"time_elapsed":1134286,"internal_node_id":"0.0-2.0-29.0"},{"group":"dicyclic group of order 12","room_assignment":["purple","ivory","grey","brown","green","cyan","orange","olive","red","pink","blue","yellow"],"door_color_assignment":["black","white"],"door_generator_assignment":[0,1],"goal":10,"start":4,"action_noise":0.15,"location_history":"[4,9,6,11,4,9,6,11,3,0,1,5,9,6,11,3,7,11,4,9,6,11,4,8,5,9,1,5,9,6,11,4,8,0,1,5,9,6,10]","action_history":"[0,0,0,0,0,0,0,1,0,0,1,1,0,1,1,1,1,0,0,0,0,0,1,0,1,1,1,1,0,0,0,0,1,0,1,1,1,1]","door_history":"[0,0,0,0,0,0,0,1,0,0,1,1,0,1,1,1,1,0,0,0,0,0,1,0,1,1,1,1,0,0,0,0,1,0,1,1,1,1]","location_rts":"[3805,1345,782,932,1100,628,569,858,807,642,1203,1256,1066,1040,1024,1080,691,883,1390,717,996,1013,1516,1306,1022,948,716,1021,993,3501,1223,1583,1741,1173,1393,1292,1078,829]","trial_type":"two-door-navigation","trial_index":32,"time_elapsed":1221674,"internal_node_id":"0.0-2.0-30.0"},{"group":"dicyclic group of order 12","room_assignment":["purple","ivory","grey","brown","green","cyan","orange","olive","red","pink","blue","yellow"],"door_color_assignment":["black","white"],"door_generator_assignment":[0,1],"goal":11,"start":10,"action_noise":0.15,"location_history":"[10,2,6,11]","action_history":"[1,1,0]","door_history":"[1,1,0]","location_rts":"[3489,1391,1540]","trial_type":"two-door-navigation","trial_index":33,"time_elapsed":1234658,"internal_node_id":"0.0-2.0-31.0"},{"group":"dicyclic group of order 12","room_assignment":["purple","ivory","grey","brown","green","cyan","orange","olive","red","pink","blue","yellow"],"door_color_assignment":["black","white"],"door_generator_assignment":[0,1],"goal":1,"start":11,"action_noise":0.15,"location_history":"[11,4,8,5,9,6,11,4,9,6,11,4,9,1]","action_history":"[0,0,0,0,0,0,0,0,0,0,0,0,1]","door_history":"[0,0,0,0,0,0,0,0,0,0,0,0,1]","location_rts":"[2012,940,1247,822,634,753,849,820,772,870,1129,524,1292]","trial_type":"two-door-navigation","trial_index":34,"time_elapsed":1264066,"internal_node_id":"0.0-2.0-32.0"},{"group":"dicyclic group of order 12","room_assignment":["purple","ivory","grey","brown","green","cyan","orange","olive","red","pink","blue","yellow"],"door_color_assignment":["black","white"],"door_generator_assignment":[0,1],"goal":5,"start":1,"action_noise":0.15,"location_history":"[1,5]","action_history":"[1]","door_history":"[1]","location_rts":"[2417]","trial_type":"two-door-navigation","trial_index":35,"time_elapsed":1271006,"internal_node_id":"0.0-2.0-33.0"},{"group":"dicyclic group of order 12","room_assignment":["purple","ivory","grey","brown","green","cyan","orange","olive","red","pink","blue","yellow"],"door_color_assignment":["black","white"],"door_generator_assignment":[0,1],"goal":9,"start":5,"action_noise":0.15,"location_history":"[5,9]","action_history":"[1]","door_history":"[1]","location_rts":"[3176]","trial_type":"two-door-navigation","trial_index":36,"time_elapsed":1278706,"internal_node_id":"0.0-2.0-34.0"},{"view_history":"[{\"page_index\":0,\"viewing_time\":4685}]","rt":4686,"trial_type":"instructions","trial_index":37,"time_elapsed":1284393,"internal_node_id":"0.0-3.0"},{"view_history":"[{\"page_index\":0,\"viewing_time\":7379},{\"page_index\":1,\"viewing_time\":70724}]","rt":78104,"trial_type":"instructions","trial_index":38,"time_elapsed":1363498,"internal_node_id":"0.0-4.0"},{"group":"dihedral group of order 12","fractal_assignment":["../images/ylw_pnk.png","../images/wht_red.png","../images/grn_blu.png","../images/blu_wht.png","../images/ylw_slt.png","../images/org_blu.png","../images/gry_blk.png","../images/cyn_red.png","../images/grn_prp.png","../images/pnk_blu.png","../images/grn_red.png","../images/red_prp.png"],"mutagen_generator_assignment":[0,1],"goal":4,"start":0,"action_noise":0.15,"location_history":"[0,1,2,8,2,8,7,6,11,10,9,3,9,8,2,3,9,3,4]","action_history":"[0,0,1,1,1,0,0,0,0,0,1,1,0,1,1,1,1,0]","mutagen_history":"[0,0,1,1,1,0,0,0,0,0,1,1,0,1,1,1,1,0]","location_rts":"[6350,1688,1056,1480,1260,1071,555,471,510,411,356,509,376,447,1032,819,706,1478]","trial_type":"fractal-mutation","trial_index":39,"time_elapsed":1407329,"internal_node_id":"0.0-5.0-0.0"},{"group":"dihedral group of order 12","fractal_assignment":["../images/ylw_pnk.png","../images/wht_red.png","../images/grn_blu.png","../images/blu_wht.png","../images/ylw_slt.png","../images/org_blu.png","../images/gry_blk.png","../images/cyn_red.png","../images/grn_prp.png","../images/pnk_blu.png","../images/grn_red.png","../images/red_prp.png"],"mutagen_generator_assignment":[0,1],"goal":9,"start":4,"action_noise":0.15,"location_history":"[4,5,0,1,2,3,9]","action_history":"[0,0,0,0,0,1]","mutagen_history":"[0,0,0,0,0,1]","location_rts":"[2198,852,808,659,655,1377]","trial_type":"fractal-mutation","trial_index":40,"time_elapsed":1423658,"internal_node_id":"0.0-5.0-1.0"},{"group":"dihedral group of order 12","fractal_assignment":["../images/ylw_pnk.png","../images/wht_red.png","../images/grn_blu.png","../images/blu_wht.png","../images/ylw_slt.png","../images/org_blu.png","../images/gry_blk.png","../images/cyn_red.png","../images/grn_prp.png","../images/pnk_blu.png","../images/grn_red.png","../images/red_prp.png"],"mutagen_generator_assignment":[0,1],"goal":10,"start":9,"action_noise":0.15,"location_history":"[9,3,4,5,11,5,0,6,0,6,0,1,7,1,2,3,9,8,7,6,11,5,0,6,11,5,0,6,0,1,7,1,7,6,11,5,11,5,11,5,0,6,0,6,0,6,11,5,11,10]","action_history":"[1,1,1,1,1,0,1,1,0,0,0,0,1,0,0,0,0,0,0,0,1,0,1,0,1,0,1,1,0,1,1,0,0,0,1,1,1,1,1,0,1,1,1,1,1,0,1,0,0]","mutagen_history":"[1,1,1,1,1,0,1,1,0,0,0,0,1,0,0,0,0,0,0,0,1,0,1,0,1,0,1,1,0,1,1,0,0,0,1,1,1,1,1,0,1,1,1,1,1,0,1,0,0]","location_rts":"[21483,834,764,1297,989,1060,819,863,1936,885,1815,775,1499,1108,690,536,545,625,678,533,621,1051,988,1429,1142,568,764,542,551,521,789,1030,517,362,355,326,359,343,333,516,412,320,493,370,626,335,520,433,784]","trial_type":"fractal-mutation","trial_index":41,"time_elapsed":1538283,"internal_node_id":"0.0-5.0-2.0"},{"group":"dihedral group of order 12","fractal_assignment":["../images/ylw_pnk.png","../images/wht_red.png","../images/grn_blu.png","../images/blu_wht.png","../images/ylw_slt.png","../images/org_blu.png","../images/gry_blk.png","../images/cyn_red.png","../images/grn_prp.png","../images/pnk_blu.png","../images/grn_red.png","../images/red_prp.png"],"mutagen_generator_assignment":[0,1],"goal":2,"start":10,"action_noise":0.15,"location_history":"[10,9,3,9,8,2]","action_history":"[0,1,1,1,1]","mutagen_history":"[0,1,1,1,1]","location_rts":"[2942,953,1030,963,911]","trial_type":"fractal-mutation","trial_index":42,"time_elapsed":1554087,"internal_node_id":"0.0-5.0-3.0"},{"group":"dihedral group of order 12","fractal_assignment":["../images/ylw_pnk.png","../images/wht_red.png","../images/grn_blu.png","../images/blu_wht.png","../images/ylw_slt.png","../images/org_blu.png","../images/gry_blk.png","../images/cyn_red.png","../images/grn_prp.png","../images/pnk_blu.png","../images/grn_red.png","../images/red_prp.png"],"mutagen_generator_assignment":[0,1],"goal":5,"start":2,"action_noise":0.15,"location_history":"[2,8,7,6,0,1,7,1,2,8,2,8,7,6,0,1,2,8,7,6,11,10,4,10,4,5]","action_history":"[1,0,0,0,1,1,0,0,1,1,1,0,0,1,0,0,0,0,0,0,1,1,1,1,1]","mutagen_history":"[1,0,0,0,1,1,0,0,1,1,1,0,0,1,0,0,0,0,0,0,1,1,1,1,1]","location_rts":"[794,703,591,480,1370,809,574,572,685,454,1332,705,579,460,313,448,446,406,405,570,309,376,343,472,393]","trial_type":"fractal-mutation","trial_index":43,"time_elapsed":1599666,"internal_node_id":"0.0-5.0-4.0"},{"group":"dihedral group of order 12","fractal_assignment":["../images/ylw_pnk.png","../images/wht_red.png","../images/grn_blu.png","../images/blu_wht.png","../images/ylw_slt.png","../images/org_blu.png","../images/gry_blk.png","../images/cyn_red.png","../images/grn_prp.png","../images/pnk_blu.png","../images/grn_red.png","../images/red_prp.png"],"mutagen_generator_assignment":[0,1],"goal":11,"start":5,"action_noise":0.15,"location_history":"[5,0,1,2,8,7,6,0,1,7,1,2,8,2,3,4,10,4,10,9,3,9,3,4,5,11]","action_history":"[0,1,1,0,0,0,0,0,1,0,0,1,1,1,1,1,1,1,0,1,1,1,0,1,1]","mutagen_history":"[0,1,1,0,0,0,0,0,1,0,0,1,1,1,1,1,1,1,0,1,1,1,0,1,1]","location_rts":"[40137,799,423,858,663,493,375,931,527,789,642,888,725,480,657,368,476,680,354,356,416,636,445,610,1225]","trial_type":"fractal-mutation","trial_index":44,"time_elapsed":1685574,"internal_node_id":"0.0-5.0-5.0"},{"group":"dihedral group of order 12","fractal_assignment":["../images/ylw_pnk.png","../images/wht_red.png","../images/grn_blu.png","../images/blu_wht.png","../images/ylw_slt.png","../images/org_blu.png","../images/gry_blk.png","../images/cyn_red.png","../images/grn_prp.png","../images/pnk_blu.png","../images/grn_red.png","../images/red_prp.png"],"mutagen_generator_assignment":[0,1],"goal":6,"start":11,"action_noise":0.15,"location_history":"[11,10,9,8,7,1,2,3,4,5,11,5,0,6]","action_history":"[0,0,0,0,0,0,0,1,0,0,1,1,1]","mutagen_history":"[0,0,0,0,0,0,0,1,0,0,1,1,1]","location_rts":"[1224,859,8378,482,468,437,689,578,533,396,412,353,389]","trial_type":"fractal-mutation","trial_index":45,"time_elapsed":1718076,"internal_node_id":"0.0-5.0-6.0"},{"group":"dihedral group of order 12","fractal_assignment":["../images/ylw_pnk.png","../images/wht_red.png","../images/grn_blu.png","../images/blu_wht.png","../images/ylw_slt.png","../images/org_blu.png","../images/gry_blk.png","../images/cyn_red.png","../images/grn_prp.png","../images/pnk_blu.png","../images/grn_red.png","../images/red_prp.png"],"mutagen_generator_assignment":[0,1],"goal":3,"start":6,"action_noise":0.15,"location_history":"[6,0,1,2,3]","action_history":"[1,1,1,1]","mutagen_history":"[1,1,1,1]","location_rts":"[1173,529,424,444]","trial_type":"fractal-mutation","trial_index":46,"time_elapsed":1728619,"internal_node_id":"0.0-5.0-7.0"},{"group":"dihedral group of order 12","fractal_assignment":["../images/ylw_pnk.png","../images/wht_red.png","../images/grn_blu.png","../images/blu_wht.png","../images/ylw_slt.png","../images/org_blu.png","../images/gry_blk.png","../images/cyn_red.png","../images/grn_prp.png","../images/pnk_blu.png","../images/grn_red.png","../images/red_prp.png"],"mutagen_generator_assignment":[0,1],"goal":8,"start":3,"action_noise":0.15,"location_history":"[3,4,5,0,6,11,10,9,8]","action_history":"[0,0,0,1,0,0,0,0]","mutagen_history":"[0,0,0,1,0,0,0,0]","location_rts":"[1207,475,595,1530,431,614,915,507]","trial_type":"fractal-mutation","trial_index":47,"time_elapsed":1746885,"internal_node_id":"0.0-5.0-8.0"},{"group":"dihedral group of order 12","fractal_assignment":["../images/ylw_pnk.png","../images/wht_red.png","../images/grn_blu.png","../images/blu_wht.png","../images/ylw_slt.png","../images/org_blu.png","../images/gry_blk.png","../images/cyn_red.png","../images/grn_prp.png","../images/pnk_blu.png","../images/grn_red.png","../images/red_prp.png"],"mutagen_generator_assignment":[0,1],"goal":1,"start":8,"action_noise":0.15,"location_history":"[8,7,6,11,10,9,8,7,6,11,10,4,5,11,10,4,5,0,6,11,10,4,10,4,10,4,10,4,10,9,3,4,10,9,8,2,8,7,6,11,10,9,3,4,5,11,5,0,1]","action_history":"[0,0,0,0,0,0,0,0,0,0,0,0,0,0,1,0,0,1,0,0,1,1,0,1,1,1,1,1,0,1,0,1,0,0,1,1,1,0,0,0,0,0,0,0,1,1,0,0]","mutagen_history":"[0,0,0,0,0,0,0,0,0,0,0,0,0,0,1,0,0,1,0,0,1,1,0,1,1,1,1,1,0,1,0,1,0,0,1,1,1,0,0,0,0,0,0,0,1,1,0,0]","location_rts":"[944,454,363,373,364,403,375,390,397,364,429,234,264,242,441,270,423,448,380,387,600,266,439,326,414,292,283,284,315,268,860,640,684,2095,362,752,1009,320,316,334,141,270,261,256,308,235,242,527]","trial_type":"fractal-mutation","trial_index":48,"time_elapsed":1822959,"internal_node_id":"0.0-5.0-9.0"},{"group":"dihedral group of order 12","fractal_assignment":["../images/ylw_pnk.png","../images/wht_red.png","../images/grn_blu.png","../images/blu_wht.png","../images/ylw_slt.png","../images/org_blu.png","../images/gry_blk.png","../images/cyn_red.png","../images/grn_prp.png","../images/pnk_blu.png","../images/grn_red.png","../images/red_prp.png"],"mutagen_generator_assignment":[0,1],"goal":7,"start":1,"action_noise":0.15,"location_history":"[1,2,8,7]","action_history":"[0,1,0]","mutagen_history":"[0,1,0]","location_rts":"[394,229,350]","trial_type":"fractal-mutation","trial_index":49,"time_elapsed":1830643,"internal_node_id":"0.0-5.0-10.0"},{"group":"dihedral group of order 12","fractal_assignment":["../images/ylw_pnk.png","../images/wht_red.png","../images/grn_blu.png","../images/blu_wht.png","../images/ylw_slt.png","../images/org_blu.png","../images/gry_blk.png","../images/cyn_red.png","../images/grn_prp.png","../images/pnk_blu.png","../images/grn_red.png","../images/red_prp.png"],"mutagen_generator_assignment":[0,1],"goal":5,"start":7,"action_noise":0.15,"location_history":"[7,1,2,3,4,10,4,5]","action_history":"[1,0,0,0,1,1,1]","mutagen_history":"[1,0,0,0,1,1,1]","location_rts":"[836,323,390,395,363,448,572]","trial_type":"fractal-mutation","trial_index":50,"time_elapsed":1845146,"internal_node_id":"0.0-5.0-11.0"},{"group":"dihedral group of order 12","fractal_assignment":["../images/ylw_pnk.png","../images/wht_red.png","../images/grn_blu.png","../images/blu_wht.png","../images/ylw_slt.png","../images/org_blu.png","../images/gry_blk.png","../images/cyn_red.png","../images/grn_prp.png","../images/pnk_blu.png","../images/grn_red.png","../images/red_prp.png"],"mutagen_generator_assignment":[0,1],"goal":8,"start":5,"action_noise":0.15,"location_history":"[5,0,6,11,10,9,3,9,8]","action_history":"[0,1,0,0,1,1,1,0]","mutagen_history":"[0,1,0,0,1,1,1,0]","location_rts":"[722,654,190,283,313,405,401,399]","trial_type":"fractal-mutation","trial_index":51,"time_elapsed":1860712,"internal_node_id":"0.0-5.0-12.0"},{"group":"dihedral group of order 12","fractal_assignment":["../images/ylw_pnk.png","../images/wht_red.png","../images/grn_blu.png","../images/blu_wht.png","../images/ylw_slt.png","../images/org_blu.png","../images/gry_blk.png","../images/cyn_red.png","../images/grn_prp.png","../images/pnk_blu.png","../images/grn_red.png","../images/red_prp.png"],"mutagen_generator_assignment":[0,1],"goal":11,"start":8,"action_noise":0.15,"location_history":"[8,7,6,11]","action_history":"[0,0,0]","mutagen_history":"[0,0,0]","location_rts":"[1196,603,880]","trial_type":"fractal-mutation","trial_index":52,"time_elapsed":1869962,"internal_node_id":"0.0-5.0-13.0"},{"group":"dihedral group of order 12","fractal_assignment":["../images/ylw_pnk.png","../images/wht_red.png","../images/grn_blu.png","../images/blu_wht.png","../images/ylw_slt.png","../images/org_blu.png","../images/gry_blk.png","../images/cyn_red.png","../images/grn_prp.png","../images/pnk_blu.png","../images/grn_red.png","../images/red_prp.png"],"mutagen_generator_assignment":[0,1],"goal":6,"start":11,"action_noise":0.15,"location_history":"[11,10,4,5,0,6]","action_history":"[1,0,0,0,0]","mutagen_history":"[1,0,0,0,0]","location_rts":"[1407,399,310,240,569]","trial_type":"fractal-mutation","trial_index":53,"time_elapsed":1881776,"internal_node_id":"0.0-5.0-14.0"},{"group":"dihedral group of order 12","fractal_assignment":["../images/ylw_pnk.png","../images/wht_red.png","../images/grn_blu.png","../images/blu_wht.png","../images/ylw_slt.png","../images/org_blu.png","../images/gry_blk.png","../images/cyn_red.png","../images/grn_prp.png","../images/pnk_blu.png","../images/grn_red.png","../images/red_prp.png"],"mutagen_generator_assignment":[0,1],"goal":7,"start":6,"action_noise":0.15,"location_history":"[6,11,5,11,10,4,5,0,1,2,8,2,8,2,3,4,5,0,6,11,10,9,8,7]","action_history":"[0,1,0,0,1,0,0,0,0,1,1,1,1,0,0,0,0,1,0,0,0,0,0]","mutagen_history":"[0,1,0,0,1,0,0,0,0,1,1,1,1,0,0,0,0,1,0,0,0,0,0]","location_rts":"[2857,1000,822,1137,804,664,533,871,625,516,941,801,1331,364,582,871,185,536,432,579,1745,2165,537]","trial_type":"fractal-mutation","trial_index":54,"time_elapsed":1931117,"internal_node_id":"0.0-5.0-15.0"},{"group":"dihedral group of order 12","fractal_assignment":["../images/ylw_pnk.png","../images/wht_red.png","../images/grn_blu.png","../images/blu_wht.png","../images/ylw_slt.png","../images/org_blu.png","../images/gry_blk.png","../images/cyn_red.png","../images/grn_prp.png","../images/pnk_blu.png","../images/grn_red.png","../images/red_prp.png"],"mutagen_generator_assignment":[0,1],"goal":10,"start":7,"action_noise":0.15,"location_history":"[7,6,11,5,11,5,11,10]","action_history":"[0,0,1,1,1,1,0]","mutagen_history":"[0,0,1,1,1,1,0]","location_rts":"[5157,1014,642,574,540,450,422]","trial_type":"fractal-mutation","trial_index":55,"time_elapsed":1950992,"internal_node_id":"0.0-5.0-16.0"},{"group":"dihedral group of order 12","fractal_assignment":["../images/ylw_pnk.png","../images/wht_red.png","../images/grn_blu.png","../images/blu_wht.png","../images/ylw_slt.png","../images/org_blu.png","../images/gry_blk.png","../images/cyn_red.png","../images/grn_prp.png","../images/pnk_blu.png","../images/grn_red.png","../images/red_prp.png"],"mutagen_generator_assignment":[0,1],"goal":0,"start":10,"action_noise":0.15,"location_history":"[10,9,8,7,6,11,10,4,10,9,8,7,1,7,6,11,10,4,5,11,5,11,10,4,5,11,10,9,3,4,5,11,5,0]","action_history":"[0,0,0,0,0,0,1,0,0,0,0,1,1,0,0,0,0,1,1,1,1,0,1,0,1,0,0,1,0,0,1,1,0]","mutagen_history":"[0,0,0,0,0,0,1,0,0,0,0,1,1,0,0,0,0,1,1,1,1,0,1,0,1,0,0,1,0,0,1,1,0]","location_rts":"[833,358,352,453,412,553,801,254,898,518,649,533,467,429,518,476,785,445,1258,821,573,388,748,613,599,779,955,1187,608,793,861,378,280]","trial_type":"fractal-mutation","trial_index":56,"time_elapsed":2010716,"internal_node_id":"0.0-5.0-17.0"},{"group":"dihedral group of order 12","fractal_assignment":["../images/ylw_pnk.png","../images/wht_red.png","../images/grn_blu.png","../images/blu_wht.png","../images/ylw_slt.png","../images/org_blu.png","../images/gry_blk.png","../images/cyn_red.png","../images/grn_prp.png","../images/pnk_blu.png","../images/grn_red.png","../images/red_prp.png"],"mutagen_generator_assignment":[0,1],"goal":9,"start":0,"action_noise":0.15,"location_history":"[0,6,0,6,0,1,7,1,7,1,7,6,11,5,0,6,11,10,4,5,0,1,7,6,0,6,11,10,9]","action_history":"[1,1,1,1,0,1,0,1,1,1,0,0,1,0,1,1,0,0,1,0,0,1,1,1,1,0,0,0]","mutagen_history":"[1,1,1,1,0,1,0,1,1,1,0,0,1,0,1,1,0,0,1,0,0,1,1,1,1,0,0,0]","location_rts":"[1254,396,743,539,752,516,716,654,623,815,383,548,697,1218,1895,524,428,486,750,508,639,250,417,474,705,827,2110,1052]","trial_type":"fractal-mutation","trial_index":57,"time_elapsed":2065943,"internal_node_id":"0.0-5.0-18.0"},{"group":"dihedral group of order 12","fractal_assignment":["../images/ylw_pnk.png","../images/wht_red.png","../images/grn_blu.png","../images/blu_wht.png","../images/ylw_slt.png","../images/org_blu.png","../images/gry_blk.png","../images/cyn_red.png","../images/grn_prp.png","../images/pnk_blu.png","../images/grn_red.png","../images/red_prp.png"],"mutagen_generator_assignment":[0,1],"goal":4,"start":9,"action_noise":0.15,"location_history":"[9,3,4]","action_history":"[1,0]","mutagen_history":"[1,0]","location_rts":"[1026,731]","trial_type":"fractal-mutation","trial_index":58,"time_elapsed":2073406,"internal_node_id":"0.0-5.0-19.0"},{"group":"dihedral group of order 12","fractal_assignment":["../images/ylw_pnk.png","../images/wht_red.png","../images/grn_blu.png","../images/blu_wht.png","../images/ylw_slt.png","../images/org_blu.png","../images/gry_blk.png","../images/cyn_red.png","../images/grn_prp.png","../images/pnk_blu.png","../images/grn_red.png","../images/red_prp.png"],"mutagen_generator_assignment":[0,1],"goal":2,"start":4,"action_noise":0.15,"location_history":"[4,10,9,8,2]","action_history":"[1,0,0,1]","mutagen_history":"[1,0,0,1]","location_rts":"[1185,413,380,872]","trial_type":"fractal-mutation","trial_index":59,"time_elapsed":2084129,"internal_node_id":"0.0-5.0-20.0"},{"group":"dihedral group of order 12","fractal_assignment":["../images/ylw_pnk.png","../images/wht_red.png","../images/grn_blu.png","../images/blu_wht.png","../images/ylw_slt.png","../images/org_blu.png","../images/gry_blk.png","../images/cyn_red.png","../images/grn_prp.png","../images/pnk_blu.png","../images/grn_red.png","../images/red_prp.png"],"mutagen_generator_assignment":[0,1],"goal":1,"start":2,"action_noise":0.15,"location_history":"[2,3,4,5,0,1]","action_history":"[0,0,0,0,0]","mutagen_history":"[0,0,0,0,0]","location_rts":"[1143,503,548,443,598]","trial_type":"fractal-mutation","trial_index":60,"time_elapsed":2095986,"internal_node_id":"0.0-5.0-21.0"},{"group":"dihedral group of order 12","fractal_assignment":["../images/ylw_pnk.png","../images/wht_red.png","../images/grn_blu.png","../images/blu_wht.png","../images/ylw_slt.png","../images/org_blu.png","../images/gry_blk.png","../images/cyn_red.png","../images/grn_prp.png","../images/pnk_blu.png","../images/grn_red.png","../images/red_prp.png"],"mutagen_generator_assignment":[0,1],"goal":3,"start":1,"action_noise":0.15,"location_history":"[1,7,1,7,1,2,8,7,1,2,3]","action_history":"[1,1,1,1,0,1,1,1,0,1]","mutagen_history":"[1,1,1,1,0,1,1,1,0,1]","location_rts":"[1262,464,501,489,1091,333,380,439,606,440]","trial_type":"fractal-mutation","trial_index":61,"time_elapsed":2116576,"internal_node_id":"0.0-5.0-22.0"},{"group":"dihedral group of order 12","fractal_assignment":["../images/ylw_pnk.png","../images/wht_red.png","../images/grn_blu.png","../images/blu_wht.png","../images/ylw_slt.png","../images/org_blu.png","../images/gry_blk.png","../images/cyn_red.png","../images/grn_prp.png","../images/pnk_blu.png","../images/grn_red.png","../images/red_prp.png"],"mutagen_generator_assignment":[0,1],"goal":7,"start":3,"action_noise":0.15,"location_history":"[3,4,5,11,5,0,6,0,1,2,8,2,8,2,3,9,8,2,3,4,10,9,8,7]","action_history":"[0,0,1,1,0,1,1,0,0,1,1,1,1,0,1,0,1,0,0,1,0,0,1]","mutagen_history":"[0,0,1,1,0,1,1,0,0,1,1,1,1,0,1,0,1,0,0,1,0,0,1]","location_rts":"[959,705,367,310,391,348,698,550,692,661,706,1023,915,782,595,447,459,471,417,331,465,350,396]","trial_type":"fractal-mutation","trial_index":62,"time_elapsed":2158236,"internal_node_id":"0.0-5.0-23.0"},{"group":"dihedral group of order 12","fractal_assignment":["../images/ylw_pnk.png","../images/wht_red.png","../images/grn_blu.png","../images/blu_wht.png","../images/ylw_slt.png","../images/org_blu.png","../images/gry_blk.png","../images/cyn_red.png","../images/grn_prp.png","../images/pnk_blu.png","../images/grn_red.png","../images/red_prp.png"],"mutagen_generator_assignment":[0,1],"goal":6,"start":7,"action_noise":0.15,"location_history":"[7,6]","action_history":"[0]","mutagen_history":"[0]","location_rts":"[817]","trial_type":"fractal-mutation","trial_index":63,"time_elapsed":2163583,"internal_node_id":"0.0-5.0-24.0"},{"group":"dihedral group of order 12","fractal_assignment":["../images/ylw_pnk.png","../images/wht_red.png","../images/grn_blu.png","../images/blu_wht.png","../images/ylw_slt.png","../images/org_blu.png","../images/gry_blk.png","../images/cyn_red.png","../images/grn_prp.png","../images/pnk_blu.png","../images/grn_red.png","../images/red_prp.png"],"mutagen_generator_assignment":[0,1],"goal":2,"start":6,"action_noise":0.15,"location_history":"[6,11,5,0,6,0,6,0,1,7,6,0,6,11,5,0,1,2]","action_history":"[1,1,0,1,1,1,1,0,1,0,1,1,0,1,0,0,0]","mutagen_history":"[1,1,0,1,1,1,1,0,1,0,1,1,0,1,0,0,0]","location_rts":"[1157,434,278,223,299,445,475,269,597,694,420,1024,699,706,289,370,468]","trial_type":"fractal-mutation","trial_index":64,"time_elapsed":2194626,"internal_node_id":"0.0-5.0-25.0"},{"group":"dihedral group of order 12","fractal_assignment":["../images/ylw_pnk.png","../images/wht_red.png","../images/grn_blu.png","../images/blu_wht.png","../images/ylw_slt.png","../images/org_blu.png","../images/gry_blk.png","../images/cyn_red.png","../images/grn_prp.png","../images/pnk_blu.png","../images/grn_red.png","../images/red_prp.png"],"mutagen_generator_assignment":[0,1],"goal":8,"start":2,"action_noise":0.15,"location_history":"[2,3,9,8]","action_history":"[0,0,0]","mutagen_history":"[0,0,0]","location_rts":"[1279,510,502]","trial_type":"fractal-mutation","trial_index":65,"time_elapsed":2203485,"internal_node_id":"0.0-5.0-26.0"},{"group":"dihedral group of order 12","fractal_assignment":["../images/ylw_pnk.png","../images/wht_red.png","../images/grn_blu.png","../images/blu_wht.png","../images/ylw_slt.png","../images/org_blu.png","../images/gry_blk.png","../images/cyn_red.png","../images/grn_prp.png","../images/pnk_blu.png","../images/grn_red.png","../images/red_prp.png"],"mutagen_generator_assignment":[0,1],"goal":0,"start":8,"action_noise":0.15,"location_history":"[8,7,6,11,10,9,8,2,8,7,6,0]","action_history":"[0,0,0,0,0,0,1,1,0,1,1]","mutagen_history":"[0,0,0,0,0,0,1,1,0,1,1]","location_rts":"[1625,736,645,565,584,616,742,368,402,498,304]","trial_type":"fractal-mutation","trial_index":66,"time_elapsed":2225756,"internal_node_id":"0.0-5.0-27.0"},{"group":"dihedral group of order 12","fractal_assignment":["../images/ylw_pnk.png","../images/wht_red.png","../images/grn_blu.png","../images/blu_wht.png","../images/ylw_slt.png","../images/org_blu.png","../images/gry_blk.png","../images/cyn_red.png","../images/grn_prp.png","../images/pnk_blu.png","../images/grn_red.png","../images/red_prp.png"],"mutagen_generator_assignment":[0,1],"goal":3,"start":0,"action_noise":0.15,"location_history":"[0,6,0,6,0,6,11,5,0,1,2,8,2,8,7,6,11,10,9,3]","action_history":"[1,1,1,1,1,0,1,1,0,1,1,1,1,0,0,0,0,0,1]","mutagen_history":"[1,1,1,1,1,0,1,1,0,1,1,1,1,0,0,0,0,0,1]","location_rts":"[1028,461,399,481,472,737,270,1138,277,570,474,454,433,343,465,401,416,482,185]","trial_type":"fractal-mutation","trial_index":67,"time_elapsed":2259663,"internal_node_id":"0.0-5.0-28.0"},{"group":"dihedral group of order 12","fractal_assignment":["../images/ylw_pnk.png","../images/wht_red.png","../images/grn_blu.png","../images/blu_wht.png","../images/ylw_slt.png","../images/org_blu.png","../images/gry_blk.png","../images/cyn_red.png","../images/grn_prp.png","../images/pnk_blu.png","../images/grn_red.png","../images/red_prp.png"],"mutagen_generator_assignment":[0,1],"goal":4,"start":3,"action_noise":0.15,"location_history":"[3,9,3,4]","action_history":"[0,1,0]","mutagen_history":"[0,1,0]","location_rts":"[1285,684,679]","trial_type":"fractal-mutation","trial_index":68,"time_elapsed":2269023,"internal_node_id":"0.0-5.0-29.0"},{"group":"dihedral group of order 12","fractal_assignment":["../images/ylw_pnk.png","../images/wht_red.png","../images/grn_blu.png","../images/blu_wht.png","../images/ylw_slt.png","../images/org_blu.png","../images/gry_blk.png","../images/cyn_red.png","../images/grn_prp.png","../images/pnk_blu.png","../images/grn_red.png","../images/red_prp.png"],"mutagen_generator_assignment":[0,1],"goal":10,"start":4,"action_noise":0.15,"location_history":"[4,5,11,5,0,1,2,3,9,8,7,1,7,6,11,10]","action_history":"[0,1,1,0,0,0,1,1,0,0,1,1,0,0,0]","mutagen_history":"[0,1,1,0,0,0,1,1,0,0,1,1,0,0,0]","location_rts":"[1816,625,503,400,418,440,572,526,370,424,427,332,487,247,425]","trial_type":"fractal-mutation","trial_index":69,"time_elapsed":2296819,"internal_node_id":"0.0-5.0-30.0"},{"group":"dihedral group of order 12","fractal_assignment":["../images/ylw_pnk.png","../images/wht_red.png","../images/grn_blu.png","../images/blu_wht.png","../images/ylw_slt.png","../images/org_blu.png","../images/gry_blk.png","../images/cyn_red.png","../images/grn_prp.png","../images/pnk_blu.png","../images/grn_red.png","../images/red_prp.png"],"mutagen_generator_assignment":[0,1],"goal":11,"start":10,"action_noise":0.15,"location_history":"[10,9,8,2,8,2,8,2,8,2,3,9,3,9,3,9,8,7,6,11]","action_history":"[1,0,1,1,1,1,1,1,1,1,1,1,1,1,1,0,0,0,1]","mutagen_history":"[1,0,1,1,1,1,1,1,1,1,1,1,1,1,1,0,0,0,1]","location_rts":"[1050,591,388,450,452,449,396,686,372,540,437,415,446,413,543,203,805,1112,396]","trial_type":"fractal-mutation","trial_index":70,"time_elapsed":2331520,"internal_node_id":"0.0-5.0-31.0"},{"group":"dihedral group of order 12","fractal_assignment":["../images/ylw_pnk.png","../images/wht_red.png","../images/grn_blu.png","../images/blu_wht.png","../images/ylw_slt.png","../images/org_blu.png","../images/gry_blk.png","../images/cyn_red.png","../images/grn_prp.png","../images/pnk_blu.png","../images/grn_red.png","../images/red_prp.png"],"mutagen_generator_assignment":[0,1],"goal":1,"start":11,"action_noise":0.15,"location_history":"[11,10,4,10,9,8,7,1]","action_history":"[0,1,1,0,0,0,1]","mutagen_history":"[0,1,1,0,0,0,1]","location_rts":"[1936,568,452,403,442,425,480]","trial_type":"fractal-mutation","trial_index":71,"time_elapsed":2347330,"internal_node_id":"0.0-5.0-32.0"},{"group":"dihedral group of order 12","fractal_assignment":["../images/ylw_pnk.png","../images/wht_red.png","../images/grn_blu.png","../images/blu_wht.png","../images/ylw_slt.png","../images/org_blu.png","../images/gry_blk.png","../images/cyn_red.png","../images/grn_prp.png","../images/pnk_blu.png","../images/grn_red.png","../images/red_prp.png"],"mutagen_generator_assignment":[0,1],"goal":5,"start":1,"action_noise":0.15,"location_history":"[1,2,8,7,1,2,8,2,8,7,6,11,10,4,10,4,5]","action_history":"[0,1,1,1,0,1,1,1,0,0,0,0,1,1,1,1]","mutagen_history":"[0,1,1,1,0,1,1,1,0,0,0,0,1,1,1,1]","location_rts":"[968,547,483,547,710,601,443,690,801,518,682,937,544,238,387,340]","trial_type":"fractal-mutation","trial_index":72,"time_elapsed":2377805,"internal_node_id":"0.0-5.0-33.0"},{"group":"dihedral group of order 12","fractal_assignment":["../images/ylw_pnk.png","../images/wht_red.png","../images/grn_blu.png","../images/blu_wht.png","../images/ylw_slt.png","../images/org_blu.png","../images/gry_blk.png","../images/cyn_red.png","../images/grn_prp.png","../images/pnk_blu.png","../images/grn_red.png","../images/red_prp.png"],"mutagen_generator_assignment":[0,1],"goal":9,"start":5,"action_noise":0.15,"location_history":"[5,11,10,9]","action_history":"[1,0,0]","mutagen_history":"[1,0,0]","location_rts":"[919,400,129]","trial_type":"fractal-mutation","trial_index":73,"time_elapsed":2386006,"internal_node_id":"0.0-5.0-34.0"},{"view_history":"[{\"page_index\":0,\"viewing_time\":6295}]","rt":6295,"trial_type":"instructions","trial_index":74,"time_elapsed":2393301,"internal_node_id":"0.0-6.0"},{"rt":1637,"responses":"{\"Q0\":\"\"}","trial_type":"survey-text","trial_index":75,"time_elapsed":2395943,"internal_node_id":"0.0-7.0"}]