[{"view_history":"[{\"page_index\":0,\"viewing_time\":7786},{\"page_index\":1,\"viewing_time\":26131}]","rt":33918,"trial_type":"instructions","trial_index":0,"time_elapsed":33919,"internal_node_id":"0.0-0.0"},{"view_history":"[{\"page_index\":0,\"viewing_time\":2723},{\"page_index\":1,\"viewing_time\":1682}]","rt":4405,"trial_type":"instructions","trial_index":1,"time_elapsed":39325,"internal_node_id":"0.0-1.0"},{"group":"hexagon_bi","room_assignment":["yellow","grey","purple","blue","green","red"],"door_color_assignment":["white","black"],"door_generator_assignment":[0,1],"goal":2,"start":1,"action_noise":0.15,"location_history":"[1,2]","action_history":"[0]","door_history":"[0]","location_rts":"[4060]","trial_type":"two-door-navigation","trial_index":2,"time_elapsed":47920,"internal_node_id":"0.0-2.0-0.0"},{"group":"hexagon_bi","room_assignment":["yellow","grey","purple","blue","green","red"],"door_color_assignment":["white","black"],"door_generator_assignment":[0,1],"goal":0,"start":2,"action_noise":0.15,"location_history":"[2,1,0]","action_history":"[0,1]","door_history":"[0,1]","location_rts":"[3423,389]","trial_type":"two-door-navigation","trial_index":3,"time_elapsed":57288,"internal_node_id":"0.0-2.0-1.0"},{"group":"hexagon_bi","room_assignment":["yellow","grey","purple","blue","green","red"],"door_color_assignment":["white","black"],"door_generator_assignment":[0,1],"goal":5,"start":0,"action_noise":0.15,"location_history":"[0,1,0,5]","action_history":"[0,1,0]","door_history":"[0,1,0]","location_rts":"[3704,3993,342]","trial_type":"two-door-navigation","trial_index":4,"time_elapsed":71913,"internal_node_id":"0.0-2.0-2.0"},{"group":"hexagon_bi","room_assignment":["yellow","grey","purple","blue","green","red"],"door_color_assignment":["white","black"],"door_generator_assignment":[0,1],"goal":1,"start":5,"action_noise":0.15,"location_history":"[5,0,1]","action_history":"[0,1]","door_history":"[0,1]","location_rts":"[5518,234]","trial_type":"two-door-navigation","trial_index":5,"time_elapsed":83216,"internal_node_id":"0.0-2.0-3.0"},{"group":"hexagon_bi","room_assignment":["yellow","grey","purple","blue","green","red"],"door_color_assignment":["white","black"],"door_generator_assignment":[0,1],"goal":3,"start":1,"action_noise":0.15,"location_history":"[1,2,3]","action_history":"[0,1]","door_history":"[0,1]","location_rts":"[4760,230]","trial_type":"two-door-navigation","trial_index":6,"time_elapsed":93763,"internal_node_id":"0.0-2.0-4.0"},{"group":"hexagon_bi","room_assignment":["yellow","grey","purple","blue","green","red"],"door_color_assignment":["white","black"],"door_generator_assignment":[0,1],"goal":5,"start":3,"action_noise":0.15,"location_history":"[3,2,3,4,3,4,5]","action_history":"[0,1,0,1,0,1]","door_history":"[0,1,0,1,0,1]","location_rts":"[3551,492,1871,387,1339,231]","trial_type":"two-door-navigation","trial_index":7,"time_elapsed":111283,"internal_node_id":"0.0-2.0-5.0"},{"group":"hexagon_bi","room_assignment":["yellow","grey","purple","blue","green","red"],"door_color_assignment":["white","black"],"door_generator_assignment":[0,1],"goal":4,"start":5,"action_noise":0.15,"location_history":"[5,4]","action_history":"[1]","door_history":"[1]","location_rts":"[4322]","trial_type":"two-door-navigation","trial_index":8,"time_elapsed":120134,"internal_node_id":"0.0-2.0-6.0"},{"group":"hexagon_bi","room_assignment":["yellow","grey","purple","blue","green","red"],"door_color_assignment":["white","black"],"door_generator_assignment":[0,1],"goal":0,"start":4,"action_noise":0.15,"location_history":"[4,3,2,1,0]","action_history":"[0,1,0,1]","door_history":"[0,1,0,1]","location_rts":"[4953,704,8573,283]","trial_type":"two-door-navigation","trial_index":9,"time_elapsed":142252,"internal_node_id":"0.0-2.0-7.0"},{"group":"hexagon_bi","room_assignment":["yellow","grey","purple","blue","green","red"],"door_color_assignment":["white","black"],"door_generator_assignment":[0,1],"goal":2,"start":0,"action_noise":0.15,"location_history":"[0,1,2]","action_history":"[1,0]","door_history":"[1,0]","location_rts":"[3704,224]","trial_type":"two-door-navigation","trial_index":10,"time_elapsed":151738,"internal_node_id":"0.0-2.0-8.0"},{"group":"hexagon_bi","room_assignment":["yellow","grey","purple","blue","green","red"],"door_color_assignment":["white","black"],"door_generator_assignment":[0,1],"goal":4,"start":2,"action_noise":0.15,"location_history":"[2,3,4]","action_history":"[1,0]","door_history":"[1,0]","location_rts":"[6272,271]","trial_type":"two-door-navigation","trial_index":11,"time_elapsed":163835,"internal_node_id":"0.0-2.0-9.0"},{"group":"hexagon_bi","room_assignment":["yellow","grey","purple","blue","green","red"],"door_color_assignment":["white","black"],"door_generator_assignment":[0,1],"goal":2,"start":4,"action_noise":0.15,"location_history":"[4,3,2]","action_history":"[0,1]","door_history":"[0,1]","location_rts":"[5693,763]","trial_type":"two-door-navigation","trial_index":12,"time_elapsed":175844,"internal_node_id":"0.0-2.0-10.0"},{"group":"hexagon_bi","room_assignment":["yellow","grey","purple","blue","green","red"],"door_color_assignment":["white","black"],"door_generator_assignment":[0,1],"goal":3,"start":2,"action_noise":0.15,"location_history":"[2,3]","action_history":"[1]","door_history":"[1]","location_rts":"[66990]","trial_type":"two-door-navigation","trial_index":13,"time_elapsed":247360,"internal_node_id":"0.0-2.0-11.0"},{"group":"hexagon_bi","room_assignment":["yellow","grey","purple","blue","green","red"],"door_color_assignment":["white","black"],"door_generator_assignment":[0,1],"goal":0,"start":3,"action_noise":0.15,"location_history":"[3,4,3,2,1,0]","action_history":"[1,0,1,0,1]","door_history":"[1,0,1,0,1]","location_rts":"[5269,427,240,768,258]","trial_type":"two-door-navigation","trial_index":14,"time_elapsed":262959,"internal_node_id":"0.0-2.0-12.0"},{"group":"hexagon_bi","room_assignment":["yellow","grey","purple","blue","green","red"],"door_color_assignment":["white","black"],"door_generator_assignment":[0,1],"goal":5,"start":0,"action_noise":0.15,"location_history":"[0,5]","action_history":"[0]","door_history":"[0]","location_rts":"[3428]","trial_type":"two-door-navigation","trial_index":15,"time_elapsed":270922,"internal_node_id":"0.0-2.0-13.0"},{"group":"hexagon_bi","room_assignment":["yellow","grey","purple","blue","green","red"],"door_color_assignment":["white","black"],"door_generator_assignment":[0,1],"goal":1,"start":5,"action_noise":0.15,"location_history":"[5,0,1]","action_history":"[0,1]","door_history":"[0,1]","location_rts":"[8713,403]","trial_type":"two-door-navigation","trial_index":16,"time_elapsed":285589,"internal_node_id":"0.0-2.0-14.0"},{"group":"hexagon_bi","room_assignment":["yellow","grey","purple","blue","green","red"],"door_color_assignment":["white","black"],"door_generator_assignment":[0,1],"goal":5,"start":1,"action_noise":0.15,"location_history":"[1,0,1,0,5]","action_history":"[1,0,1,0]","door_history":"[1,0,1,0]","location_rts":"[5049,246,948,194]","trial_type":"two-door-navigation","trial_index":17,"time_elapsed":299634,"internal_node_id":"0.0-2.0-15.0"},{"group":"hexagon_bi","room_assignment":["yellow","grey","purple","blue","green","red"],"door_color_assignment":["white","black"],"door_generator_assignment":[0,1],"goal":3,"start":5,"action_noise":0.15,"location_history":"[5,4,3]","action_history":"[1,0]","door_history":"[1,0]","location_rts":"[3438,178]","trial_type":"two-door-navigation","trial_index":18,"time_elapsed":308800,"internal_node_id":"0.0-2.0-16.0"},{"group":"hexagon_bi","room_assignment":["yellow","grey","purple","blue","green","red"],"door_color_assignment":["white","black"],"door_generator_assignment":[0,1],"goal":2,"start":3,"action_noise":0.15,"location_history":"[3,2]","action_history":"[1]","door_history":"[1]","location_rts":"[4874]","trial_type":"two-door-navigation","trial_index":19,"time_elapsed":318202,"internal_node_id":"0.0-2.0-17.0"},{"group":"hexagon_bi","room_assignment":["yellow","grey","purple","blue","green","red"],"door_color_assignment":["white","black"],"door_generator_assignment":[0,1],"goal":1,"start":2,"action_noise":0.15,"location_history":"[2,1]","action_history":"[0]","door_history":"[0]","location_rts":"[3162]","trial_type":"two-door-navigation","trial_index":20,"time_elapsed":325895,"internal_node_id":"0.0-2.0-18.0"},{"group":"hexagon_bi","room_assignment":["yellow","grey","purple","blue","green","red"],"door_color_assignment":["white","black"],"door_generator_assignment":[0,1],"goal":4,"start":1,"action_noise":0.15,"location_history":"[1,0,5,4]","action_history":"[1,0,1]","door_history":"[1,0,1]","location_rts":"[5523,272,222]","trial_type":"two-door-navigation","trial_index":21,"time_elapsed":338488,"internal_node_id":"0.0-2.0-19.0"},{"group":"hexagon_bi","room_assignment":["yellow","grey","purple","blue","green","red"],"door_color_assignment":["white","black"],"door_generator_assignment":[0,1],"goal":0,"start":4,"action_noise":0.15,"location_history":"[4,3,4,5,0]","action_history":"[1,0,1,0]","door_history":"[1,0,1,0]","location_rts":"[5877,228,1145,55]","trial_type":"two-door-navigation","trial_index":22,"time_elapsed":353406,"internal_node_id":"0.0-2.0-20.0"},{"group":"hexagon_bi","room_assignment":["yellow","grey","purple","blue","green","red"],"door_color_assignment":["white","black"],"door_generator_assignment":[0,1],"goal":3,"start":0,"action_noise":0.15,"location_history":"[0,5,4,3]","action_history":"[0,1,0]","door_history":"[0,1,0]","location_rts":"[5747,499,330]","trial_type":"two-door-navigation","trial_index":23,"time_elapsed":366559,"internal_node_id":"0.0-2.0-21.0"},{"group":"hexagon_bi","room_assignment":["yellow","grey","purple","blue","green","red"],"door_color_assignment":["white","black"],"door_generator_assignment":[0,1],"goal":1,"start":3,"action_noise":0.15,"location_history":"[3,2,1]","action_history":"[1,0]","door_history":"[1,0]","location_rts":"[9058,296]","trial_type":"two-door-navigation","trial_index":24,"time_elapsed":381463,"internal_node_id":"0.0-2.0-22.0"},{"group":"hexagon_bi","room_assignment":["yellow","grey","purple","blue","green","red"],"door_color_assignment":["white","black"],"door_generator_assignment":[0,1],"goal":0,"start":1,"action_noise":0.15,"location_history":"[1,0]","action_history":"[1]","door_history":"[1]","location_rts":"[19348]","trial_type":"two-door-navigation","trial_index":25,"time_elapsed":405346,"internal_node_id":"0.0-2.0-23.0"},{"group":"hexagon_bi","room_assignment":["yellow","grey","purple","blue","green","red"],"door_color_assignment":["white","black"],"door_generator_assignment":[0,1],"goal":2,"start":0,"action_noise":0.15,"location_history":"[0,1,2]","action_history":"[1,0]","door_history":"[1,0]","location_rts":"[3280,234]","trial_type":"two-door-navigation","trial_index":26,"time_elapsed":414415,"internal_node_id":"0.0-2.0-24.0"},{"group":"hexagon_bi","room_assignment":["yellow","grey","purple","blue","green","red"],"door_color_assignment":["white","black"],"door_generator_assignment":[0,1],"goal":4,"start":2,"action_noise":0.15,"location_history":"[2,3,4]","action_history":"[1,0]","door_history":"[1,0]","location_rts":"[15493,230]","trial_type":"two-door-navigation","trial_index":27,"time_elapsed":435692,"internal_node_id":"0.0-2.0-25.0"},{"group":"hexagon_bi","room_assignment":["yellow","grey","purple","blue","green","red"],"door_color_assignment":["white","black"],"door_generator_assignment":[0,1],"goal":5,"start":4,"action_noise":0.15,"location_history":"[4,5]","action_history":"[1]","door_history":"[1]","location_rts":"[4951]","trial_type":"two-door-navigation","trial_index":28,"time_elapsed":445169,"internal_node_id":"0.0-2.0-26.0"},{"group":"hexagon_bi","room_assignment":["yellow","grey","purple","blue","green","red"],"door_color_assignment":["white","black"],"door_generator_assignment":[0,1],"goal":2,"start":5,"action_noise":0.15,"location_history":"[5,4,3,2]","action_history":"[1,0,1]","door_history":"[1,0,1]","location_rts":"[5383,289,320]","trial_type":"two-door-navigation","trial_index":29,"time_elapsed":457734,"internal_node_id":"0.0-2.0-27.0"},{"group":"hexagon_bi","room_assignment":["yellow","grey","purple","blue","green","red"],"door_color_assignment":["white","black"],"door_generator_assignment":[0,1],"goal":3,"start":2,"action_noise":0.15,"location_history":"[2,3]","action_history":"[1]","door_history":"[1]","location_rts":"[6099]","trial_type":"two-door-navigation","trial_index":30,"time_elapsed":468364,"internal_node_id":"0.0-2.0-28.0"},{"group":"hexagon_bi","room_assignment":["yellow","grey","purple","blue","green","red"],"door_color_assignment":["white","black"],"door_generator_assignment":[0,1],"goal":1,"start":3,"action_noise":0.15,"location_history":"[3,2,1]","action_history":"[1,0]","door_history":"[1,0]","location_rts":"[4145,283]","trial_type":"two-door-navigation","trial_index":31,"time_elapsed":478350,"internal_node_id":"0.0-2.0-29.0"},{"group":"hexagon_bi","room_assignment":["yellow","grey","purple","blue","green","red"],"door_color_assignment":["white","black"],"door_generator_assignment":[0,1],"goal":4,"start":1,"action_noise":0.15,"location_history":"[1,0,5,0,5,4]","action_history":"[1,0,1,0,1]","door_history":"[1,0,1,0,1]","location_rts":"[9118,196,267,5991,150]","trial_type":"two-door-navigation","trial_index":32,"time_elapsed":502715,"internal_node_id":"0.0-2.0-30.0"},{"group":"hexagon_bi","room_assignment":["yellow","grey","purple","blue","green","red"],"door_color_assignment":["white","black"],"door_generator_assignment":[0,1],"goal":5,"start":4,"action_noise":0.15,"location_history":"[4,5]","action_history":"[1]","door_history":"[1]","location_rts":"[4534]","trial_type":"two-door-navigation","trial_index":33,"time_elapsed":511777,"internal_node_id":"0.0-2.0-31.0"},{"group":"hexagon_bi","room_assignment":["yellow","grey","purple","blue","green","red"],"door_color_assignment":["white","black"],"door_generator_assignment":[0,1],"goal":0,"start":5,"action_noise":0.15,"location_history":"[5,4,5,0]","action_history":"[0,1,0]","door_history":"[0,1,0]","location_rts":"[3299,5182,289]","trial_type":"two-door-navigation","trial_index":34,"time_elapsed":527122,"internal_node_id":"0.0-2.0-32.0"},{"group":"hexagon_bi","room_assignment":["yellow","grey","purple","blue","green","red"],"door_color_assignment":["white","black"],"door_generator_assignment":[0,1],"goal":2,"start":0,"action_noise":0.15,"location_history":"[0,1,2]","action_history":"[1,0]","door_history":"[1,0]","location_rts":"[4702,279]","trial_type":"two-door-navigation","trial_index":35,"time_elapsed":537653,"internal_node_id":"0.0-2.0-33.0"},{"group":"hexagon_bi","room_assignment":["yellow","grey","purple","blue","green","red"],"door_color_assignment":["white","black"],"door_generator_assignment":[0,1],"goal":0,"start":2,"action_noise":0.15,"location_history":"[2,1,0]","action_history":"[0,1]","door_history":"[0,1]","location_rts":"[5251,272]","trial_type":"two-door-navigation","trial_index":36,"time_elapsed":548727,"internal_node_id":"0.0-2.0-34.0"},{"group":"hexagon_bi","room_assignment":["yellow","grey","purple","blue","green","red"],"door_color_assignment":["white","black"],"door_generator_assignment":[0,1],"goal":5,"start":0,"action_noise":0.15,"location_history":"[0,1,0,5]","action_history":"[0,1,0]","door_history":"[0,1,0]","location_rts":"[1645,3830,254]","trial_type":"two-door-navigation","trial_index":37,"time_elapsed":561032,"internal_node_id":"0.0-2.0-35.0"},{"group":"hexagon_bi","room_assignment":["yellow","grey","purple","blue","green","red"],"door_color_assignment":["white","black"],"door_generator_assignment":[0,1],"goal":1,"start":5,"action_noise":0.15,"location_history":"[5,0,1]","action_history":"[0,1]","door_history":"[0,1]","location_rts":"[4494,311]","trial_type":"two-door-navigation","trial_index":38,"time_elapsed":571390,"internal_node_id":"0.0-2.0-36.0"},{"group":"hexagon_bi","room_assignment":["yellow","grey","purple","blue","green","red"],"door_color_assignment":["white","black"],"door_generator_assignment":[0,1],"goal":4,"start":1,"action_noise":0.15,"location_history":"[1,0,5,4]","action_history":"[1,0,1]","door_history":"[1,0,1]","location_rts":"[6810,274,251]","trial_type":"two-door-navigation","trial_index":39,"time_elapsed":585303,"internal_node_id":"0.0-2.0-37.0"},{"group":"hexagon_bi","room_assignment":["yellow","grey","purple","blue","green","red"],"door_color_assignment":["white","black"],"door_generator_assignment":[0,1],"goal":3,"start":4,"action_noise":0.15,"location_history":"[4,3]","action_history":"[0]","door_history":"[0]","location_rts":"[5800]","trial_type":"two-door-navigation","trial_index":40,"time_elapsed":595628,"internal_node_id":"0.0-2.0-38.0"},{"group":"hexagon_bi","room_assignment":["yellow","grey","purple","blue","green","red"],"door_color_assignment":["white","black"],"door_generator_assignment":[0,1],"goal":5,"start":3,"action_noise":0.15,"location_history":"[3,4,5]","action_history":"[0,1]","door_history":"[0,1]","location_rts":"[8238,220]","trial_type":"two-door-navigation","trial_index":41,"time_elapsed":609643,"internal_node_id":"0.0-2.0-39.0"},{"group":"hexagon_bi","room_assignment":["yellow","grey","purple","blue","green","red"],"door_color_assignment":["white","black"],"door_generator_assignment":[0,1],"goal":1,"start":5,"action_noise":0.15,"location_history":"[5,0,5,0,1]","action_history":"[0,1,0,1]","door_history":"[0,1,0,1]","location_rts":"[4088,152,3553,277]","trial_type":"two-door-navigation","trial_index":42,"time_elapsed":625315,"internal_node_id":"0.0-2.0-40.0"},{"group":"hexagon_bi","room_assignment":["yellow","grey","purple","blue","green","red"],"door_color_assignment":["white","black"],"door_generator_assignment":[0,1],"goal":2,"start":1,"action_noise":0.15,"location_history":"[1,2]","action_history":"[0]","door_history":"[0]","location_rts":"[11773]","trial_type":"two-door-navigation","trial_index":43,"time_elapsed":641620,"internal_node_id":"0.0-2.0-41.0"},{"group":"hexagon_bi","room_assignment":["yellow","grey","purple","blue","green","red"],"door_color_assignment":["white","black"],"door_generator_assignment":[0,1],"goal":4,"start":2,"action_noise":0.15,"location_history":"[2,3,4]","action_history":"[1,0]","door_history":"[1,0]","location_rts":"[3208,351]","trial_type":"two-door-navigation","trial_index":44,"time_elapsed":650732,"internal_node_id":"0.0-2.0-42.0"},{"group":"hexagon_bi","room_assignment":["yellow","grey","purple","blue","green","red"],"door_color_assignment":["white","black"],"door_generator_assignment":[0,1],"goal":0,"start":4,"action_noise":0.15,"location_history":"[4,5,0]","action_history":"[1,0]","door_history":"[1,0]","location_rts":"[3291,263]","trial_type":"two-door-navigation","trial_index":45,"time_elapsed":659835,"internal_node_id":"0.0-2.0-43.0"},{"group":"hexagon_bi","room_assignment":["yellow","grey","purple","blue","green","red"],"door_color_assignment":["white","black"],"door_generator_assignment":[0,1],"goal":3,"start":0,"action_noise":0.15,"location_history":"[0,5,4,3]","action_history":"[0,1,0]","door_history":"[0,1,0]","location_rts":"[3137,203,311]","trial_type":"two-door-navigation","trial_index":46,"time_elapsed":670068,"internal_node_id":"0.0-2.0-44.0"},{"group":"hexagon_bi","room_assignment":["yellow","grey","purple","blue","green","red"],"door_color_assignment":["white","black"],"door_generator_assignment":[0,1],"goal":0,"start":3,"action_noise":0.15,"location_history":"[3,2,1,0]","action_history":"[1,0,1]","door_history":"[1,0,1]","location_rts":"[7414,389,268]","trial_type":"two-door-navigation","trial_index":47,"time_elapsed":684727,"internal_node_id":"0.0-2.0-45.0"},{"group":"hexagon_bi","room_assignment":["yellow","grey","purple","blue","green","red"],"door_color_assignment":["white","black"],"door_generator_assignment":[0,1],"goal":4,"start":0,"action_noise":0.15,"location_history":"[0,1,0,5,4]","action_history":"[0,1,0,1]","door_history":"[0,1,0,1]","location_rts":"[3392,4778,564,985]","trial_type":"two-door-navigation","trial_index":48,"time_elapsed":702047,"internal_node_id":"0.0-2.0-46.0"},{"group":"hexagon_bi","room_assignment":["yellow","grey","purple","blue","green","red"],"door_color_assignment":["white","black"],"door_generator_assignment":[0,1],"goal":5,"start":4,"action_noise":0.15,"location_history":"[4,5]","action_history":"[1]","door_history":"[1]","location_rts":"[3444]","trial_type":"two-door-navigation","trial_index":49,"time_elapsed":710016,"internal_node_id":"0.0-2.0-47.0"},{"group":"hexagon_bi","room_assignment":["yellow","grey","purple","blue","green","red"],"door_color_assignment":["white","black"],"door_generator_assignment":[0,1],"goal":2,"start":5,"action_noise":0.15,"location_history":"[5,4,3,2]","action_history":"[1,0,1]","door_history":"[1,0,1]","location_rts":"[4764,256,214]","trial_type":"two-door-navigation","trial_index":50,"time_elapsed":721830,"internal_node_id":"0.0-2.0-48.0"},{"group":"hexagon_bi","room_assignment":["yellow","grey","purple","blue","green","red"],"door_color_assignment":["white","black"],"door_generator_assignment":[0,1],"goal":1,"start":2,"action_noise":0.15,"location_history":"[2,1]","action_history":"[0]","door_history":"[0]","location_rts":"[2128]","trial_type":"two-door-navigation","trial_index":51,"time_elapsed":728488,"internal_node_id":"0.0-2.0-49.0"},{"view_history":"[{\"page_index\":0,\"viewing_time\":2676}]","rt":2676,"trial_type":"instructions","trial_index":52,"time_elapsed":732164,"internal_node_id":"0.0-3.0"},{"view_history":"[{\"page_index\":0,\"viewing_time\":1204},{\"page_index\":1,\"viewing_time\":1056}]","rt":2261,"trial_type":"instructions","trial_index":53,"time_elapsed":735425,"internal_node_id":"0.0-4.0"},{"group":"hexagon_bi","fractal_assignment":["../images/blu_wht.png","../images/org_blu.png","../images/gry_blk.png","../images/cyn_red.png","../images/pnk_blu.png","../images/ylw_slt.png"],"mutagen_generator_assignment":[1,0],"goal":2,"start":1,"action_noise":0.15,"location_history":"[1,2]","action_history":"[0]","mutagen_history":"[1]","location_rts":"[16064]","trial_type":"fractal-mutation","trial_index":54,"time_elapsed":756092,"internal_node_id":"0.0-5.0-0.0"},{"group":"hexagon_bi","fractal_assignment":["../images/blu_wht.png","../images/org_blu.png","../images/gry_blk.png","../images/cyn_red.png","../images/pnk_blu.png","../images/ylw_slt.png"],"mutagen_generator_assignment":[1,0],"goal":0,"start":2,"action_noise":0.15,"location_history":"[2,3,2,1,0]","action_history":"[1,1,1,0]","mutagen_history":"[0,0,0,1]","location_rts":"[2051,555,1121,245]","trial_type":"fractal-mutation","trial_index":55,"time_elapsed":767832,"internal_node_id":"0.0-5.0-1.0"},{"group":"hexagon_bi","fractal_assignment":["../images/blu_wht.png","../images/org_blu.png","../images/gry_blk.png","../images/cyn_red.png","../images/pnk_blu.png","../images/ylw_slt.png"],"mutagen_generator_assignment":[1,0],"goal":5,"start":0,"action_noise":0.15,"location_history":"[0,1,2,3,4,3,2,3,2,3,4,3,4,3,2,1,0,1,0,1,0,5]","action_history":"[0,0,1,0,0,1,1,1,0,0,0,0,1,1,0,1,0,1,1,1,0]","mutagen_history":"[1,1,0,1,1,0,0,0,1,1,1,1,0,0,1,0,1,0,0,0,1]","location_rts":"[1400,1362,1069,753,447,506,447,740,442,245,427,882,389,868,821,1284,1166,1058,771,1645,843]","trial_type":"fractal-mutation","trial_index":56,"time_elapsed":811443,"internal_node_id":"0.0-5.0-2.0"},{"group":"hexagon_bi","fractal_assignment":["../images/blu_wht.png","../images/org_blu.png","../images/gry_blk.png","../images/cyn_red.png","../images/pnk_blu.png","../images/ylw_slt.png"],"mutagen_generator_assignment":[1,0],"goal":1,"start":5,"action_noise":0.15,"location_history":"[5,4,3,4,5,4,5,0,1]","action_history":"[1,0,0,1,1,1,0,1]","mutagen_history":"[0,1,1,0,0,0,1,0]","location_rts":"[2229,1020,393,530,670,679,430,1812]","trial_type":"fractal-mutation","trial_index":57,"time_elapsed":831249,"internal_node_id":"0.0-5.0-3.0"},{"group":"hexagon_bi","fractal_assignment":["../images/blu_wht.png","../images/org_blu.png","../images/gry_blk.png","../images/cyn_red.png","../images/pnk_blu.png","../images/ylw_slt.png"],"mutagen_generator_assignment":[1,0],"goal":3,"start":1,"action_noise":0.15,"location_history":"[1,0,5,4,5,4,3]","action_history":"[1,0,1,1,1,0]","mutagen_history":"[0,1,0,0,0,1]","location_rts":"[1749,1011,785,1765,909,395]","trial_type":"fractal-mutation","trial_index":58,"time_elapsed":847775,"internal_node_id":"0.0-5.0-4.0"},{"group":"hexagon_bi","fractal_assignment":["../images/blu_wht.png","../images/org_blu.png","../images/gry_blk.png","../images/cyn_red.png","../images/pnk_blu.png","../images/ylw_slt.png"],"mutagen_generator_assignment":[1,0],"goal":5,"start":3,"action_noise":0.15,"location_history":"[3,2,3,4,3,4,5]","action_history":"[1,1,0,0,0,1]","mutagen_history":"[0,0,1,1,1,0]","location_rts":"[1426,884,657,1350,669,224]","trial_type":"fractal-mutation","trial_index":59,"time_elapsed":862935,"internal_node_id":"0.0-5.0-5.0"},{"group":"hexagon_bi","fractal_assignment":["../images/blu_wht.png","../images/org_blu.png","../images/gry_blk.png","../images/cyn_red.png","../images/pnk_blu.png","../images/ylw_slt.png"],"mutagen_generator_assignment":[1,0],"goal":4,"start":5,"action_noise":0.15,"location_history":"[5,4]","action_history":"[1]","mutagen_history":"[0]","location_rts":"[1982]","trial_type":"fractal-mutation","trial_index":60,"time_elapsed":869478,"internal_node_id":"0.0-5.0-6.0"},{"group":"hexagon_bi","fractal_assignment":["../images/blu_wht.png","../images/org_blu.png","../images/gry_blk.png","../images/cyn_red.png","../images/pnk_blu.png","../images/ylw_slt.png"],"mutagen_generator_assignment":[1,0],"goal":0,"start":4,"action_noise":0.15,"location_history":"[4,5,4,3,4,5,0]","action_history":"[1,0,0,0,1,1]","mutagen_history":"[0,1,1,1,0,0]","location_rts":"[1361,7746,915,1421,305,1154]","trial_type":"fractal-mutation","trial_index":61,"time_elapsed":892315,"internal_node_id":"0.0-5.0-7.0"},{"group":"hexagon_bi","fractal_assignment":["../images/blu_wht.png","../images/org_blu.png","../images/gry_blk.png","../images/cyn_red.png","../images/pnk_blu.png","../images/ylw_slt.png"],"mutagen_generator_assignment":[1,0],"goal":2,"start":0,"action_noise":0.15,"location_history":"[0,5,4,3,4,5,0,5,4,5,4,5,0,1,2]","action_history":"[0,1,1,0,1,0,0,1,1,0,0,1,1,0]","mutagen_history":"[1,0,0,1,0,1,1,0,0,1,1,0,0,1]","location_rts":"[1950,445,934,322,504,1257,1014,476,781,1324,810,774,1639,426]","trial_type":"fractal-mutation","trial_index":62,"time_elapsed":923470,"internal_node_id":"0.0-5.0-8.0"},{"group":"hexagon_bi","fractal_assignment":["../images/blu_wht.png","../images/org_blu.png","../images/gry_blk.png","../images/cyn_red.png","../images/pnk_blu.png","../images/ylw_slt.png"],"mutagen_generator_assignment":[1,0],"goal":4,"start":2,"action_noise":0.15,"location_history":"[2,3,4]","action_history":"[1,0]","mutagen_history":"[0,1]","location_rts":"[1485,1064]","trial_type":"fractal-mutation","trial_index":63,"time_elapsed":931666,"internal_node_id":"0.0-5.0-9.0"},{"group":"hexagon_bi","fractal_assignment":["../images/blu_wht.png","../images/org_blu.png","../images/gry_blk.png","../images/cyn_red.png","../images/pnk_blu.png","../images/ylw_slt.png"],"mutagen_generator_assignment":[1,0],"goal":2,"start":4,"action_noise":0.15,"location_history":"[4,5,4,5,0,5,0,1,0,1,2]","action_history":"[0,1,1,0,0,0,1,0,1,0]","mutagen_history":"[1,0,0,1,1,1,0,1,0,1]","location_rts":"[1796,657,1059,1720,1120,1589,475,395,955,434]","trial_type":"fractal-mutation","trial_index":64,"time_elapsed":956113,"internal_node_id":"0.0-5.0-10.0"},{"group":"hexagon_bi","fractal_assignment":["../images/blu_wht.png","../images/org_blu.png","../images/gry_blk.png","../images/cyn_red.png","../images/pnk_blu.png","../images/ylw_slt.png"],"mutagen_generator_assignment":[1,0],"goal":3,"start":2,"action_noise":0.15,"location_history":"[2,1,0,1,2,3]","action_history":"[1,0,1,0,0]","mutagen_history":"[0,1,0,1,1]","location_rts":"[1951,560,1399,300,1033]","trial_type":"fractal-mutation","trial_index":65,"time_elapsed":970221,"internal_node_id":"0.0-5.0-11.0"},{"group":"hexagon_bi","fractal_assignment":["../images/blu_wht.png","../images/org_blu.png","../images/gry_blk.png","../images/cyn_red.png","../images/pnk_blu.png","../images/ylw_slt.png"],"mutagen_generator_assignment":[1,0],"goal":0,"start":3,"action_noise":0.15,"location_history":"[3,2,1,2,1,2,3,2,1,2,3,2,1,2,1,0]","action_history":"[1,0,1,0,0,1,1,0,0,1,1,0,1,1,1]","mutagen_history":"[0,1,0,1,1,0,0,1,1,0,0,1,0,0,0]","location_rts":"[2822,273,1811,917,1159,751,650,1762,1954,693,670,1132,1379,391,348]","trial_type":"fractal-mutation","trial_index":66,"time_elapsed":1006455,"internal_node_id":"0.0-5.0-12.0"},{"group":"hexagon_bi","fractal_assignment":["../images/blu_wht.png","../images/org_blu.png","../images/gry_blk.png","../images/cyn_red.png","../images/pnk_blu.png","../images/ylw_slt.png"],"mutagen_generator_assignment":[1,0],"goal":5,"start":0,"action_noise":0.15,"location_history":"[0,5]","action_history":"[0]","mutagen_history":"[1]","location_rts":"[1860]","trial_type":"fractal-mutation","trial_index":67,"time_elapsed":1012905,"internal_node_id":"0.0-5.0-13.0"},{"group":"hexagon_bi","fractal_assignment":["../images/blu_wht.png","../images/org_blu.png","../images/gry_blk.png","../images/cyn_red.png","../images/pnk_blu.png","../images/ylw_slt.png"],"mutagen_generator_assignment":[1,0],"goal":1,"start":5,"action_noise":0.15,"location_history":"[5,4,5,4,5,4,5,0,1]","action_history":"[1,1,1,1,1,1,0,1]","mutagen_history":"[0,0,0,0,0,0,1,0]","location_rts":"[1961,427,328,467,405,296,584,256]","trial_type":"fractal-mutation","trial_index":68,"time_elapsed":1029604,"internal_node_id":"0.0-5.0-14.0"},{"group":"hexagon_bi","fractal_assignment":["../images/blu_wht.png","../images/org_blu.png","../images/gry_blk.png","../images/cyn_red.png","../images/pnk_blu.png","../images/ylw_slt.png"],"mutagen_generator_assignment":[1,0],"goal":5,"start":1,"action_noise":0.15,"location_history":"[1,2,3,2,1,2,3,4,3,4,5]","action_history":"[0,1,1,0,0,1,0,0,1,1]","mutagen_history":"[1,0,0,1,1,0,1,1,0,0]","location_rts":"[1964,531,312,1018,332,536,1092,317,433,397]","trial_type":"fractal-mutation","trial_index":69,"time_elapsed":1050751,"internal_node_id":"0.0-5.0-15.0"},{"group":"hexagon_bi","fractal_assignment":["../images/blu_wht.png","../images/org_blu.png","../images/gry_blk.png","../images/cyn_red.png","../images/pnk_blu.png","../images/ylw_slt.png"],"mutagen_generator_assignment":[1,0],"goal":3,"start":5,"action_noise":0.15,"location_history":"[5,0,1,0,1,2,3]","action_history":"[0,0,1,1,0,0]","mutagen_history":"[1,1,0,0,1,1]","location_rts":"[1397,959,303,491,361,1271]","trial_type":"fractal-mutation","trial_index":70,"time_elapsed":1065495,"internal_node_id":"0.0-5.0-16.0"},{"group":"hexagon_bi","fractal_assignment":["../images/blu_wht.png","../images/org_blu.png","../images/gry_blk.png","../images/cyn_red.png","../images/pnk_blu.png","../images/ylw_slt.png"],"mutagen_generator_assignment":[1,0],"goal":2,"start":3,"action_noise":0.15,"location_history":"[3,2]","action_history":"[0]","mutagen_history":"[1]","location_rts":"[1284]","trial_type":"fractal-mutation","trial_index":71,"time_elapsed":1071379,"internal_node_id":"0.0-5.0-17.0"},{"group":"hexagon_bi","fractal_assignment":["../images/blu_wht.png","../images/org_blu.png","../images/gry_blk.png","../images/cyn_red.png","../images/pnk_blu.png","../images/ylw_slt.png"],"mutagen_generator_assignment":[1,0],"goal":1,"start":2,"action_noise":0.15,"location_history":"[2,3,4,3,4,3,4,5,0,1]","action_history":"[1,0,0,0,1,0,1,0,1]","mutagen_history":"[0,1,1,1,0,1,0,1,0]","location_rts":"[1131,1308,992,590,555,470,589,533,807]","trial_type":"fractal-mutation","trial_index":72,"time_elapsed":1091550,"internal_node_id":"0.0-5.0-18.0"},{"group":"hexagon_bi","fractal_assignment":["../images/blu_wht.png","../images/org_blu.png","../images/gry_blk.png","../images/cyn_red.png","../images/pnk_blu.png","../images/ylw_slt.png"],"mutagen_generator_assignment":[1,0],"goal":4,"start":1,"action_noise":0.15,"location_history":"[1,0,5,0,5,4]","action_history":"[1,0,0,0,1]","mutagen_history":"[0,1,1,1,0]","location_rts":"[1402,743,440,773,418]","trial_type":"fractal-mutation","trial_index":73,"time_elapsed":1104201,"internal_node_id":"0.0-5.0-19.0"},{"group":"hexagon_bi","fractal_assignment":["../images/blu_wht.png","../images/org_blu.png","../images/gry_blk.png","../images/cyn_red.png","../images/pnk_blu.png","../images/ylw_slt.png"],"mutagen_generator_assignment":[1,0],"goal":0,"start":4,"action_noise":0.15,"location_history":"[4,5,0]","action_history":"[1,1]","mutagen_history":"[0,0]","location_rts":"[1248,1448]","trial_type":"fractal-mutation","trial_index":74,"time_elapsed":1112511,"internal_node_id":"0.0-5.0-20.0"},{"group":"hexagon_bi","fractal_assignment":["../images/blu_wht.png","../images/org_blu.png","../images/gry_blk.png","../images/cyn_red.png","../images/pnk_blu.png","../images/ylw_slt.png"],"mutagen_generator_assignment":[1,0],"goal":3,"start":0,"action_noise":0.15,"location_history":"[0,1,0,1,2,1,2,1,0,1,2,1,2,3]","action_history":"[0,1,1,0,0,0,0,1,1,0,0,0,1]","mutagen_history":"[1,0,0,1,1,1,1,0,0,1,1,1,0]","location_rts":"[1187,743,795,306,1123,977,608,1688,977,282,966,889,803]","trial_type":"fractal-mutation","trial_index":75,"time_elapsed":1141323,"internal_node_id":"0.0-5.0-21.0"},{"group":"hexagon_bi","fractal_assignment":["../images/blu_wht.png","../images/org_blu.png","../images/gry_blk.png","../images/cyn_red.png","../images/pnk_blu.png","../images/ylw_slt.png"],"mutagen_generator_assignment":[1,0],"goal":1,"start":3,"action_noise":0.15,"location_history":"[3,2,3,2,1]","action_history":"[1,1,1,0]","mutagen_history":"[0,0,0,1]","location_rts":"[1249,1322,639,605]","trial_type":"fractal-mutation","trial_index":76,"time_elapsed":1152896,"internal_node_id":"0.0-5.0-22.0"},{"group":"hexagon_bi","fractal_assignment":["../images/blu_wht.png","../images/org_blu.png","../images/gry_blk.png","../images/cyn_red.png","../images/pnk_blu.png","../images/ylw_slt.png"],"mutagen_generator_assignment":[1,0],"goal":0,"start":1,"action_noise":0.15,"location_history":"[1,0]","action_history":"[1]","mutagen_history":"[0]","location_rts":"[1242]","trial_type":"fractal-mutation","trial_index":77,"time_elapsed":1158691,"internal_node_id":"0.0-5.0-23.0"},{"group":"hexagon_bi","fractal_assignment":["../images/blu_wht.png","../images/org_blu.png","../images/gry_blk.png","../images/cyn_red.png","../images/pnk_blu.png","../images/ylw_slt.png"],"mutagen_generator_assignment":[1,0],"goal":2,"start":0,"action_noise":0.15,"location_history":"[0,1,2]","action_history":"[1,0]","mutagen_history":"[0,1]","location_rts":"[1871,313]","trial_type":"fractal-mutation","trial_index":78,"time_elapsed":1166522,"internal_node_id":"0.0-5.0-24.0"},{"group":"hexagon_bi","fractal_assignment":["../images/blu_wht.png","../images/org_blu.png","../images/gry_blk.png","../images/cyn_red.png","../images/pnk_blu.png","../images/ylw_slt.png"],"mutagen_generator_assignment":[1,0],"goal":4,"start":2,"action_noise":0.15,"location_history":"[2,1,2,3,4]","action_history":"[0,0,1,0]","mutagen_history":"[1,1,0,1]","location_rts":"[1363,1003,400,1310]","trial_type":"fractal-mutation","trial_index":79,"time_elapsed":1178425,"internal_node_id":"0.0-5.0-25.0"},{"group":"hexagon_bi","fractal_assignment":["../images/blu_wht.png","../images/org_blu.png","../images/gry_blk.png","../images/cyn_red.png","../images/pnk_blu.png","../images/ylw_slt.png"],"mutagen_generator_assignment":[1,0],"goal":5,"start":4,"action_noise":0.15,"location_history":"[4,3,2,3,2,1,2,1,0,1,2,3,4,3,4,3,2,1,2,3,4,3,4,5]","action_history":"[0,1,1,1,0,0,0,1,1,0,0,0,0,0,0,1,0,0,0,0,0,0,0]","mutagen_history":"[1,0,0,0,1,1,1,0,0,1,1,1,1,1,1,0,1,1,1,1,1,1,1]","location_rts":"[1489,560,940,429,644,827,647,274,750,372,886,840,364,446,321,787,525,2216,1212,463,577,775,406]","trial_type":"fractal-mutation","trial_index":80,"time_elapsed":1223472,"internal_node_id":"0.0-5.0-26.0"},{"group":"hexagon_bi","fractal_assignment":["../images/blu_wht.png","../images/org_blu.png","../images/gry_blk.png","../images/cyn_red.png","../images/pnk_blu.png","../images/ylw_slt.png"],"mutagen_generator_assignment":[1,0],"goal":2,"start":5,"action_noise":0.15,"location_history":"[5,0,1,0,1,2]","action_history":"[1,1,0,1,0]","mutagen_history":"[0,0,1,0,1]","location_rts":"[1124,993,276,956,246]","trial_type":"fractal-mutation","trial_index":81,"time_elapsed":1235898,"internal_node_id":"0.0-5.0-27.0"},{"group":"hexagon_bi","fractal_assignment":["../images/blu_wht.png","../images/org_blu.png","../images/gry_blk.png","../images/cyn_red.png","../images/pnk_blu.png","../images/ylw_slt.png"],"mutagen_generator_assignment":[1,0],"goal":3,"start":2,"action_noise":0.15,"location_history":"[2,1,0,1,2,1,0,5,0,5,4,5,4,3]","action_history":"[0,1,1,0,0,0,0,1,0,1,1,1,0]","mutagen_history":"[1,0,0,1,1,1,1,0,1,0,0,0,1]","location_rts":"[1208,953,959,308,483,692,572,353,336,458,1837,834,577]","trial_type":"fractal-mutation","trial_index":82,"time_elapsed":1262889,"internal_node_id":"0.0-5.0-28.0"},{"group":"hexagon_bi","fractal_assignment":["../images/blu_wht.png","../images/org_blu.png","../images/gry_blk.png","../images/cyn_red.png","../images/pnk_blu.png","../images/ylw_slt.png"],"mutagen_generator_assignment":[1,0],"goal":1,"start":3,"action_noise":0.15,"location_history":"[3,2,1]","action_history":"[1,0]","mutagen_history":"[0,1]","location_rts":"[1343,712]","trial_type":"fractal-mutation","trial_index":83,"time_elapsed":1270588,"internal_node_id":"0.0-5.0-29.0"},{"group":"hexagon_bi","fractal_assignment":["../images/blu_wht.png","../images/org_blu.png","../images/gry_blk.png","../images/cyn_red.png","../images/pnk_blu.png","../images/ylw_slt.png"],"mutagen_generator_assignment":[1,0],"goal":4,"start":1,"action_noise":0.15,"location_history":"[1,2,1,0,1,2,1,2,1,2,3,4]","action_history":"[0,0,0,0,0,0,0,0,0,1,0]","mutagen_history":"[1,1,1,1,1,1,1,1,1,0,1]","location_rts":"[1902,957,705,436,592,1436,781,355,403,602,1456]","trial_type":"fractal-mutation","trial_index":84,"time_elapsed":1295659,"internal_node_id":"0.0-5.0-30.0"},{"group":"hexagon_bi","fractal_assignment":["../images/blu_wht.png","../images/org_blu.png","../images/gry_blk.png","../images/cyn_red.png","../images/pnk_blu.png","../images/ylw_slt.png"],"mutagen_generator_assignment":[1,0],"goal":5,"start":4,"action_noise":0.15,"location_history":"[4,5]","action_history":"[1]","mutagen_history":"[0]","location_rts":"[937]","trial_type":"fractal-mutation","trial_index":85,"time_elapsed":1301148,"internal_node_id":"0.0-5.0-31.0"},{"group":"hexagon_bi","fractal_assignment":["../images/blu_wht.png","../images/org_blu.png","../images/gry_blk.png","../images/cyn_red.png","../images/pnk_blu.png","../images/ylw_slt.png"],"mutagen_generator_assignment":[1,0],"goal":0,"start":5,"action_noise":0.15,"location_history":"[5,4,3,2,3,4,3,4,5,4,5,0]","action_history":"[1,0,1,1,1,0,0,1,1,1,0]","mutagen_history":"[0,1,0,0,0,1,1,0,0,0,1]","location_rts":"[1072,500,788,421,603,318,478,279,1514,679,887]","trial_type":"fractal-mutation","trial_index":86,"time_elapsed":1323919,"internal_node_id":"0.0-5.0-32.0"},{"group":"hexagon_bi","fractal_assignment":["../images/blu_wht.png","../images/org_blu.png","../images/gry_blk.png","../images/cyn_red.png","../images/pnk_blu.png","../images/ylw_slt.png"],"mutagen_generator_assignment":[1,0],"goal":2,"start":0,"action_noise":0.15,"location_history":"[0,1,2]","action_history":"[1,0]","mutagen_history":"[0,1]","location_rts":"[1314,325]","trial_type":"fractal-mutation","trial_index":87,"time_elapsed":1331208,"internal_node_id":"0.0-5.0-33.0"},{"group":"hexagon_bi","fractal_assignment":["../images/blu_wht.png","../images/org_blu.png","../images/gry_blk.png","../images/cyn_red.png","../images/pnk_blu.png","../images/ylw_slt.png"],"mutagen_generator_assignment":[1,0],"goal":0,"start":2,"action_noise":0.15,"location_history":"[2,3,4,3,2,3,2,1,2,1,2,1,2,3,2,3,2,3,4,3,4,5,4,5,4,5,4,5,0]","action_history":"[1,0,0,1,1,1,0,0,0,1,0,0,1,1,1,1,0,0,0,0,1,1,1,0,1,1,1,0]","mutagen_history":"[0,1,1,0,0,0,1,1,1,0,1,1,0,0,0,0,1,1,1,1,0,0,0,1,0,0,0,1]","location_rts":"[2242,1939,949,788,1084,524,281,1073,676,367,647,451,676,428,554,327,625,241,488,361,337,258,512,293,412,415,453,361]","trial_type":"fractal-mutation","trial_index":88,"time_elapsed":1382407,"internal_node_id":"0.0-5.0-34.0"},{"group":"hexagon_bi","fractal_assignment":["../images/blu_wht.png","../images/org_blu.png","../images/gry_blk.png","../images/cyn_red.png","../images/pnk_blu.png","../images/ylw_slt.png"],"mutagen_generator_assignment":[1,0],"goal":5,"start":0,"action_noise":0.15,"location_history":"[0,5]","action_history":"[1]","mutagen_history":"[0]","location_rts":"[1105]","trial_type":"fractal-mutation","trial_index":89,"time_elapsed":1388070,"internal_node_id":"0.0-5.0-35.0"},{"group":"hexagon_bi","fractal_assignment":["../images/blu_wht.png","../images/org_blu.png","../images/gry_blk.png","../images/cyn_red.png","../images/pnk_blu.png","../images/ylw_slt.png"],"mutagen_generator_assignment":[1,0],"goal":1,"start":5,"action_noise":0.15,"location_history":"[5,4,3,2,3,4,5,0,1]","action_history":"[1,0,0,1,1,1,0,1]","mutagen_history":"[0,1,1,0,0,0,1,0]","location_rts":"[782,344,248,545,378,365,261,1173]","trial_type":"fractal-mutation","trial_index":90,"time_elapsed":1404199,"internal_node_id":"0.0-5.0-36.0"},{"group":"hexagon_bi","fractal_assignment":["../images/blu_wht.png","../images/org_blu.png","../images/gry_blk.png","../images/cyn_red.png","../images/pnk_blu.png","../images/ylw_slt.png"],"mutagen_generator_assignment":[1,0],"goal":4,"start":1,"action_noise":0.15,"location_history":"[1,0,5,4]","action_history":"[1,0,1]","mutagen_history":"[0,1,0]","location_rts":"[943,629,550]","trial_type":"fractal-mutation","trial_index":91,"time_elapsed":1413016,"internal_node_id":"0.0-5.0-37.0"},{"group":"hexagon_bi","fractal_assignment":["../images/blu_wht.png","../images/org_blu.png","../images/gry_blk.png","../images/cyn_red.png","../images/pnk_blu.png","../images/ylw_slt.png"],"mutagen_generator_assignment":[1,0],"goal":3,"start":4,"action_noise":0.15,"location_history":"[4,5,0,1,0,1,2,3]","action_history":"[1,0,0,1,0,0,1]","mutagen_history":"[0,1,1,0,1,1,0]","location_rts":"[1840,1129,585,487,715,460,490]","trial_type":"fractal-mutation","trial_index":92,"time_elapsed":1429734,"internal_node_id":"0.0-5.0-38.0"},{"group":"hexagon_bi","fractal_assignment":["../images/blu_wht.png","../images/org_blu.png","../images/gry_blk.png","../images/cyn_red.png","../images/pnk_blu.png","../images/ylw_slt.png"],"mutagen_generator_assignment":[1,0],"goal":5,"start":3,"action_noise":0.15,"location_history":"[3,4,5]","action_history":"[0,1]","mutagen_history":"[1,0]","location_rts":"[2272,308]","trial_type":"fractal-mutation","trial_index":93,"time_elapsed":1437957,"internal_node_id":"0.0-5.0-39.0"},{"group":"hexagon_bi","fractal_assignment":["../images/blu_wht.png","../images/org_blu.png","../images/gry_blk.png","../images/cyn_red.png","../images/pnk_blu.png","../images/ylw_slt.png"],"mutagen_generator_assignment":[1,0],"goal":1,"start":5,"action_noise":0.15,"location_history":"[5,4,3,4,5,0,1]","action_history":"[1,0,0,1,1,1]","mutagen_history":"[0,1,1,0,0,0]","location_rts":"[984,1269,721,365,355,467]","trial_type":"fractal-mutation","trial_index":94,"time_elapsed":1452000,"internal_node_id":"0.0-5.0-40.0"},{"group":"hexagon_bi","fractal_assignment":["../images/blu_wht.png","../images/org_blu.png","../images/gry_blk.png","../images/cyn_red.png","../images/pnk_blu.png","../images/ylw_slt.png"],"mutagen_generator_assignment":[1,0],"goal":2,"start":1,"action_noise":0.15,"location_history":"[1,2]","action_history":"[0]","mutagen_history":"[1]","location_rts":"[1293]","trial_type":"fractal-mutation","trial_index":95,"time_elapsed":1457880,"internal_node_id":"0.0-5.0-41.0"},{"group":"hexagon_bi","fractal_assignment":["../images/blu_wht.png","../images/org_blu.png","../images/gry_blk.png","../images/cyn_red.png","../images/pnk_blu.png","../images/ylw_slt.png"],"mutagen_generator_assignment":[1,0],"goal":4,"start":2,"action_noise":0.15,"location_history":"[2,1,0,5,0,1,2,1,2,3,4]","action_history":"[0,1,1,0,1,0,0,0,1,0]","mutagen_history":"[1,0,0,1,0,1,1,1,0,1]","location_rts":"[1386,663,585,296,727,314,445,945,459,530]","trial_type":"fractal-mutation","trial_index":96,"time_elapsed":1478460,"internal_node_id":"0.0-5.0-42.0"},{"group":"hexagon_bi","fractal_assignment":["../images/blu_wht.png","../images/org_blu.png","../images/gry_blk.png","../images/cyn_red.png","../images/pnk_blu.png","../images/ylw_slt.png"],"mutagen_generator_assignment":[1,0],"goal":0,"start":4,"action_noise":0.15,"location_history":"[4,5,4,5,4,3,4,3,4,3,2,3,2,1,2,3,2,3,2,1,0]","action_history":"[0,1,1,1,1,0,0,0,0,1,1,1,0,0,1,1,1,1,0,1]","mutagen_history":"[1,0,0,0,0,1,1,1,1,0,0,0,1,1,0,0,0,0,1,0]","location_rts":"[2954,425,538,1031,553,605,519,577,256,638,1264,629,264,1618,626,634,378,375,286,1808]","trial_type":"fractal-mutation","trial_index":97,"time_elapsed":1519271,"internal_node_id":"0.0-5.0-43.0"},{"group":"hexagon_bi","fractal_assignment":["../images/blu_wht.png","../images/org_blu.png","../images/gry_blk.png","../images/cyn_red.png","../images/pnk_blu.png","../images/ylw_slt.png"],"mutagen_generator_assignment":[1,0],"goal":3,"start":0,"action_noise":0.15,"location_history":"[0,1,2,1,2,1,2,3]","action_history":"[1,0,0,0,0,0,1]","mutagen_history":"[0,1,1,1,1,1,0]","location_rts":"[1221,229,820,972,406,296,564]","trial_type":"fractal-mutation","trial_index":98,"time_elapsed":1534842,"internal_node_id":"0.0-5.0-44.0"},{"group":"hexagon_bi","fractal_assignment":["../images/blu_wht.png","../images/org_blu.png","../images/gry_blk.png","../images/cyn_red.png","../images/pnk_blu.png","../images/ylw_slt.png"],"mutagen_generator_assignment":[1,0],"goal":0,"start":3,"action_noise":0.15,"location_history":"[3,4,3,4,5,4,5,0]","action_history":"[1,0,0,1,1,1,0]","mutagen_history":"[0,1,1,0,0,0,1]","location_rts":"[1024,352,482,297,367,682,732]","trial_type":"fractal-mutation","trial_index":99,"time_elapsed":1549759,"internal_node_id":"0.0-5.0-45.0"},{"group":"hexagon_bi","fractal_assignment":["../images/blu_wht.png","../images/org_blu.png","../images/gry_blk.png","../images/cyn_red.png","../images/pnk_blu.png","../images/ylw_slt.png"],"mutagen_generator_assignment":[1,0],"goal":4,"start":0,"action_noise":0.15,"location_history":"[0,5,4]","action_history":"[0,1]","mutagen_history":"[1,0]","location_rts":"[1507,397]","trial_type":"fractal-mutation","trial_index":100,"time_elapsed":1557319,"internal_node_id":"0.0-5.0-46.0"},{"group":"hexagon_bi","fractal_assignment":["../images/blu_wht.png","../images/org_blu.png","../images/gry_blk.png","../images/cyn_red.png","../images/pnk_blu.png","../images/ylw_slt.png"],"mutagen_generator_assignment":[1,0],"goal":5,"start":4,"action_noise":0.15,"location_history":"[4,5]","action_history":"[1]","mutagen_history":"[0]","location_rts":"[3759]","trial_type":"fractal-mutation","trial_index":101,"time_elapsed":1565639,"internal_node_id":"0.0-5.0-47.0"},{"group":"hexagon_bi","fractal_assignment":["../images/blu_wht.png","../images/org_blu.png","../images/gry_blk.png","../images/cyn_red.png","../images/pnk_blu.png","../images/ylw_slt.png"],"mutagen_generator_assignment":[1,0],"goal":2,"start":5,"action_noise":0.15,"location_history":"[5,0,5,0,5,0,1,0,1,2]","action_history":"[0,1,0,1,0,1,1,1,0]","mutagen_history":"[1,0,1,0,1,0,0,0,1]","location_rts":"[1497,724,382,752,377,638,326,1059,286]","trial_type":"fractal-mutation","trial_index":102,"time_elapsed":1584806,"internal_node_id":"0.0-5.0-48.0"},{"group":"hexagon_bi","fractal_assignment":["../images/blu_wht.png","../images/org_blu.png","../images/gry_blk.png","../images/cyn_red.png","../images/pnk_blu.png","../images/ylw_slt.png"],"mutagen_generator_assignment":[1,0],"goal":1,"start":2,"action_noise":0.15,"location_history":"[2,1]","action_history":"[0]","mutagen_history":"[1]","location_rts":"[1568]","trial_type":"fractal-mutation","trial_index":103,"time_elapsed":1590968,"internal_node_id":"0.0-5.0-49.0"},{"view_history":"[{\"page_index\":0,\"viewing_time\":2687}]","rt":2688,"trial_type":"instructions","trial_index":104,"time_elapsed":1594656,"internal_node_id":"0.0-6.0"},{"rt":40900,"responses":"{\"Q0\":\"ones ability to visualize an interconnected world in three dimensions and navigate it successfully. \"}","trial_type":"survey-text","trial_index":105,"time_elapsed":1636558,"internal_node_id":"0.0-7.0-0.0"},{"rt":25829,"responses":"{\"Q0\":\"Ones ability to remember the relationship between pairs and their affect on each other.\"}","trial_type":"survey-text","trial_index":106,"time_elapsed":1663390,"internal_node_id":"0.0-7.0-1.0"},{"rt":27924,"responses":"{\"Q0\":\"<img src='../images/diagrams/hexagon_tri.png'>\"}","trial_type":"survey-multi-choice","trial_index":107,"time_elapsed":1692319,"internal_node_id":"0.0-7.0-2.0"},{"rt":54899,"assignments":["../images/blu_wht.png","../images/ylw_slt.png","../images/cyn_red.png","../images/pnk_blu.png","../images/gry_blk.png","../images/org_blu.png"],"trial_type":"drag-drop-on-image","trial_index":108,"time_elapsed":1748221,"internal_node_id":"0.0-7.0-3.0"},{"rt":5592,"responses":"{\"Q0\":\"1\"}","trial_type":"survey-likert","trial_index":109,"time_elapsed":1754816,"internal_node_id":"0.0-7.0-4.0"},{"rt":41417,"responses":"{\"Q0\":\"navigation paths were the same from time to time but were more likely to be different in the visual pattern experiment.\"}","trial_type":"survey-text","trial_index":110,"time_elapsed":1797235,"internal_node_id":"0.0-7.0-5.0"},{"rt":4503,"responses":"{\"Q0\":\"Yes\"}","trial_type":"survey-multi-choice","trial_index":111,"time_elapsed":1802743,"internal_node_id":"0.0-7.0-6.0"},{"rt":5611,"responses":"{\"Q0\":\"During session 1\"}","trial_type":"survey-multi-choice","trial_index":112,"time_elapsed":1809359,"internal_node_id":"0.0-7.0-7.0"},{"rt":5493,"responses":"{\"Q0\":\"\"}","trial_type":"survey-text","trial_index":113,"time_elapsed":1815853,"internal_node_id":"0.0-7.0-8.0"},{"rt":6660,"responses":"{\"Q0\":\"1\"}","trial_type":"survey-likert","trial_index":114,"time_elapsed":1823516,"internal_node_id":"0.0-7.0-9.0"},{"rt":7839,"responses":"{\"Q0\":\"Different structure\"}","trial_type":"survey-multi-choice","trial_index":115,"time_elapsed":1832357,"internal_node_id":"0.0-7.0-10.0"},{"rt":38885,"responses":"{\"Q0\":\"left (white) door = acid, right (black) door = ray\",\"Q1\":\"Slightly confident\"}","trial_type":"survey-multi-choice","trial_index":116,"time_elapsed":1872247,"internal_node_id":"0.0-7.0-11.0"},{"rt":14886,"responses":"{\"Q0\":\"35-45\",\"Q1\":\"Bachelor's degree\",\"Q2\":\"Male\",\"Q3\":\"White\"}","trial_type":"survey-multi-choice","trial_index":117,"time_elapsed":1888144,"internal_node_id":"0.0-8.0"},{"rt":4730,"responses":"{\"Q0\":\"none\"}","trial_type":"survey-text","trial_index":118,"time_elapsed":1893876,"internal_node_id":"0.0-9.0"}]