[{"view_history":"[{\"page_index\":0,\"viewing_time\":2842},{\"page_index\":1,\"viewing_time\":6713}]","rt":9560,"trial_type":"instructions","trial_index":0,"time_elapsed":9560,"internal_node_id":"0.0-0.0"},{"view_history":"[{\"page_index\":0,\"viewing_time\":4203},{\"page_index\":1,\"viewing_time\":2664}]","rt":6868,"trial_type":"instructions","trial_index":1,"time_elapsed":17431,"internal_node_id":"0.0-1.0"},{"group":"hexagon_tri","room_assignment":["green","yellow","blue","red","purple","grey"],"door_color_assignment":["black","white"],"door_generator_assignment":[0,1],"goal":2,"start":1,"action_noise":0.15,"location_history":"[1,5,0,5,4,0,5,4,2]","action_history":"[0,0,0,0,0,0,0,0]","door_history":"[0,0,0,0,0,0,0,0]","location_rts":"[1719,607,432,403,434,441,419,465]","trial_type":"two-door-navigation","trial_index":2,"time_elapsed":33915,"internal_node_id":"0.0-2.0-0.0"},{"group":"hexagon_tri","room_assignment":["green","yellow","blue","red","purple","grey"],"door_color_assignment":["black","white"],"door_generator_assignment":[0,1],"goal":0,"start":2,"action_noise":0.15,"location_history":"[2,3,4,0]","action_history":"[1,1,0]","door_history":"[1,1,0]","location_rts":"[1450,369,470]","trial_type":"two-door-navigation","trial_index":3,"time_elapsed":42723,"internal_node_id":"0.0-2.0-1.0"},{"group":"hexagon_tri","room_assignment":["green","yellow","blue","red","purple","grey"],"door_color_assignment":["black","white"],"door_generator_assignment":[0,1],"goal":5,"start":0,"action_noise":0.15,"location_history":"[0,5]","action_history":"[0]","door_history":"[0]","location_rts":"[1185]","trial_type":"two-door-navigation","trial_index":4,"time_elapsed":48410,"internal_node_id":"0.0-2.0-2.0"},{"group":"hexagon_tri","room_assignment":["green","yellow","blue","red","purple","grey"],"door_color_assignment":["black","white"],"door_generator_assignment":[0,1],"goal":1,"start":5,"action_noise":0.15,"location_history":"[5,4,0,5,4,0,1]","action_history":"[0,0,0,0,0,1]","door_history":"[0,0,0,0,0,1]","location_rts":"[747,394,404,370,392,432]","trial_type":"two-door-navigation","trial_index":5,"time_elapsed":60678,"internal_node_id":"0.0-2.0-3.0"},{"group":"hexagon_tri","room_assignment":["green","yellow","blue","red","purple","grey"],"door_color_assignment":["black","white"],"door_generator_assignment":[0,1],"goal":3,"start":1,"action_noise":0.15,"location_history":"[1,3]","action_history":"[0]","door_history":"[0]","location_rts":"[869]","trial_type":"two-door-navigation","trial_index":6,"time_elapsed":66050,"internal_node_id":"0.0-2.0-4.0"},{"group":"hexagon_tri","room_assignment":["green","yellow","blue","red","purple","grey"],"door_color_assignment":["black","white"],"door_generator_assignment":[0,1],"goal":5,"start":3,"action_noise":0.15,"location_history":"[3,2,1,3,4,0,1,3,4,2,3,2,3,2,3,2,1,5]","action_history":"[0,1,0,1,0,1,0,1,0,1,0,1,0,1,0,1,0]","door_history":"[0,1,0,1,0,1,0,1,0,1,0,1,0,1,0,1,0]","location_rts":"[497,351,441,330,815,452,505,402,364,427,359,365,438,298,360,362,478]","trial_type":"two-door-navigation","trial_index":7,"time_elapsed":93852,"internal_node_id":"0.0-2.0-5.0"},{"group":"hexagon_tri","room_assignment":["green","yellow","blue","red","purple","grey"],"door_color_assignment":["black","white"],"door_generator_assignment":[0,1],"goal":4,"start":5,"action_noise":0.15,"location_history":"[5,4]","action_history":"[0]","door_history":"[0]","location_rts":"[1106]","trial_type":"two-door-navigation","trial_index":8,"time_elapsed":99470,"internal_node_id":"0.0-2.0-6.0"},{"group":"hexagon_tri","room_assignment":["green","yellow","blue","red","purple","grey"],"door_color_assignment":["black","white"],"door_generator_assignment":[0,1],"goal":0,"start":4,"action_noise":0.15,"location_history":"[4,0]","action_history":"[0]","door_history":"[0]","location_rts":"[852]","trial_type":"two-door-navigation","trial_index":9,"time_elapsed":104826,"internal_node_id":"0.0-2.0-7.0"},{"group":"hexagon_tri","room_assignment":["green","yellow","blue","red","purple","grey"],"door_color_assignment":["black","white"],"door_generator_assignment":[0,1],"goal":2,"start":0,"action_noise":0.15,"location_history":"[0,5,4,0,5,4,0,5,4,0,1,5,4,0,5,4,0,5,4,2]","action_history":"[0,0,0,0,0,0,0,0,0,1,1,0,0,0,0,0,0,0,1]","door_history":"[0,0,0,0,0,0,0,0,0,1,1,0,0,0,0,0,0,0,1]","location_rts":"[966,528,388,385,404,383,435,1068,357,351,336,460,323,352,359,370,353,352,310]","trial_type":"two-door-navigation","trial_index":10,"time_elapsed":135847,"internal_node_id":"0.0-2.0-8.0"},{"group":"hexagon_tri","room_assignment":["green","yellow","blue","red","purple","grey"],"door_color_assignment":["black","white"],"door_generator_assignment":[0,1],"goal":4,"start":2,"action_noise":0.15,"location_history":"[2,1,3,2,1,3,2,3,2,1,3,2,1,3,4]","action_history":"[0,0,0,0,0,0,0,0,0,0,0,0,0,1]","door_history":"[0,0,0,0,0,0,0,0,0,0,0,0,0,1]","location_rts":"[2990,489,413,1014,391,382,343,396,690,406,352,877,372,294]","trial_type":"two-door-navigation","trial_index":11,"time_elapsed":162778,"internal_node_id":"0.0-2.0-9.0"},{"group":"hexagon_tri","room_assignment":["green","yellow","blue","red","purple","grey"],"door_color_assignment":["black","white"],"door_generator_assignment":[0,1],"goal":2,"start":4,"action_noise":0.15,"location_history":"[4,0,5,4,0,5,0,1,3,2]","action_history":"[0,0,0,0,0,0,0,0,0]","door_history":"[0,0,0,0,0,0,0,0,0]","location_rts":"[551,367,435,1661,2656,600,366,395,347]","trial_type":"two-door-navigation","trial_index":12,"time_elapsed":182667,"internal_node_id":"0.0-2.0-10.0"},{"group":"hexagon_tri","room_assignment":["green","yellow","blue","red","purple","grey"],"door_color_assignment":["black","white"],"door_generator_assignment":[0,1],"goal":3,"start":2,"action_noise":0.15,"location_history":"[2,1,3]","action_history":"[0,0]","door_history":"[0,0]","location_rts":"[1026,673]","trial_type":"two-door-navigation","trial_index":13,"time_elapsed":189871,"internal_node_id":"0.0-2.0-11.0"},{"group":"hexagon_tri","room_assignment":["green","yellow","blue","red","purple","grey"],"door_color_assignment":["black","white"],"door_generator_assignment":[0,1],"goal":0,"start":3,"action_noise":0.15,"location_history":"[3,2,1,3,2,1,3,2,1,5,4,0]","action_history":"[0,0,0,0,0,0,0,0,0,0,0]","door_history":"[0,0,0,0,0,0,0,0,0,0,0]","location_rts":"[590,740,382,344,490,370,453,480,347,350,392]","trial_type":"two-door-navigation","trial_index":14,"time_elapsed":209321,"internal_node_id":"0.0-2.0-12.0"},{"group":"hexagon_tri","room_assignment":["green","yellow","blue","red","purple","grey"],"door_color_assignment":["black","white"],"door_generator_assignment":[0,1],"goal":5,"start":0,"action_noise":0.15,"location_history":"[0,5]","action_history":"[0]","door_history":"[0]","location_rts":"[539]","trial_type":"two-door-navigation","trial_index":15,"time_elapsed":214365,"internal_node_id":"0.0-2.0-13.0"},{"group":"hexagon_tri","room_assignment":["green","yellow","blue","red","purple","grey"],"door_color_assignment":["black","white"],"door_generator_assignment":[0,1],"goal":1,"start":5,"action_noise":0.15,"location_history":"[5,0,1]","action_history":"[0,0]","door_history":"[0,0]","location_rts":"[664,475]","trial_type":"two-door-navigation","trial_index":16,"time_elapsed":221023,"internal_node_id":"0.0-2.0-14.0"},{"group":"hexagon_tri","room_assignment":["green","yellow","blue","red","purple","grey"],"door_color_assignment":["black","white"],"door_generator_assignment":[0,1],"goal":5,"start":1,"action_noise":0.15,"location_history":"[1,3,4,0,5]","action_history":"[0,1,0,1]","door_history":"[0,1,0,1]","location_rts":"[568,307,209,540]","trial_type":"two-door-navigation","trial_index":17,"time_elapsed":230181,"internal_node_id":"0.0-2.0-15.0"},{"group":"hexagon_tri","room_assignment":["green","yellow","blue","red","purple","grey"],"door_color_assignment":["black","white"],"door_generator_assignment":[0,1],"goal":3,"start":5,"action_noise":0.15,"location_history":"[5,4,0,5,4,0,1,3]","action_history":"[0,0,0,0,0,1,0]","door_history":"[0,0,0,0,0,1,0]","location_rts":"[494,329,272,248,381,297,277]","trial_type":"two-door-navigation","trial_index":18,"time_elapsed":243001,"internal_node_id":"0.0-2.0-16.0"},{"group":"hexagon_tri","room_assignment":["green","yellow","blue","red","purple","grey"],"door_color_assignment":["black","white"],"door_generator_assignment":[0,1],"goal":2,"start":3,"action_noise":0.15,"location_history":"[3,2]","action_history":"[0]","door_history":"[0]","location_rts":"[323]","trial_type":"two-door-navigation","trial_index":19,"time_elapsed":247824,"internal_node_id":"0.0-2.0-17.0"},{"group":"hexagon_tri","room_assignment":["green","yellow","blue","red","purple","grey"],"door_color_assignment":["black","white"],"door_generator_assignment":[0,1],"goal":1,"start":2,"action_noise":0.15,"location_history":"[2,1]","action_history":"[0]","door_history":"[0]","location_rts":"[1251]","trial_type":"two-door-navigation","trial_index":20,"time_elapsed":253577,"internal_node_id":"0.0-2.0-18.0"},{"group":"hexagon_tri","room_assignment":["green","yellow","blue","red","purple","grey"],"door_color_assignment":["black","white"],"door_generator_assignment":[0,1],"goal":4,"start":1,"action_noise":0.15,"location_history":"[1,3,2,1,3,2,3,2,1,5,0,5,4]","action_history":"[0,0,0,0,0,1,0,0,0,0,0,0]","door_history":"[0,0,0,0,0,1,0,0,0,0,0,0]","location_rts":"[427,399,514,404,352,726,273,561,306,391,369,438]","trial_type":"two-door-navigation","trial_index":21,"time_elapsed":274258,"internal_node_id":"0.0-2.0-19.0"},{"group":"hexagon_tri","room_assignment":["green","yellow","blue","red","purple","grey"],"door_color_assignment":["black","white"],"door_generator_assignment":[0,1],"goal":0,"start":4,"action_noise":0.15,"location_history":"[4,0]","action_history":"[0]","door_history":"[0]","location_rts":"[574]","trial_type":"two-door-navigation","trial_index":22,"time_elapsed":279338,"internal_node_id":"0.0-2.0-20.0"},{"group":"hexagon_tri","room_assignment":["green","yellow","blue","red","purple","grey"],"door_color_assignment":["black","white"],"door_generator_assignment":[0,1],"goal":3,"start":0,"action_noise":0.15,"location_history":"[0,5,0,5,0,5,4,0,5,0,5,4,0,5,4,0,5,4,0,5,0,1,3]","action_history":"[0,0,0,0,0,0,0,0,1,0,0,0,0,0,0,0,0,0,0,1,0,0]","door_history":"[0,0,0,0,0,0,0,0,1,0,0,0,0,0,0,0,0,0,0,1,0,0]","location_rts":"[587,425,478,374,365,335,429,499,1036,319,413,419,345,334,380,417,395,388,367,323,281,289]","trial_type":"two-door-navigation","trial_index":23,"time_elapsed":314116,"internal_node_id":"0.0-2.0-21.0"},{"group":"hexagon_tri","room_assignment":["green","yellow","blue","red","purple","grey"],"door_color_assignment":["black","white"],"door_generator_assignment":[0,1],"goal":1,"start":3,"action_noise":0.15,"location_history":"[3,2,1]","action_history":"[0,0]","door_history":"[0,0]","location_rts":"[760,912]","trial_type":"two-door-navigation","trial_index":24,"time_elapsed":321291,"internal_node_id":"0.0-2.0-22.0"},{"group":"hexagon_tri","room_assignment":["green","yellow","blue","red","purple","grey"],"door_color_assignment":["black","white"],"door_generator_assignment":[0,1],"goal":0,"start":1,"action_noise":0.15,"location_history":"[1,3,2,1,5,0]","action_history":"[0,0,0,0,1]","door_history":"[0,0,0,0,1]","location_rts":"[781,404,428,383,431]","trial_type":"two-door-navigation","trial_index":25,"time_elapsed":332230,"internal_node_id":"0.0-2.0-23.0"},{"group":"hexagon_tri","room_assignment":["green","yellow","blue","red","purple","grey"],"door_color_assignment":["black","white"],"door_generator_assignment":[0,1],"goal":2,"start":0,"action_noise":0.15,"location_history":"[0,5,0,5,4,0,5,4,0,5,4,0,5,0,5,4,0,5,4,2]","action_history":"[0,0,0,0,0,0,0,0,0,0,0,0,1,0,0,0,0,0,0]","door_history":"[0,0,0,0,0,0,0,0,0,0,0,0,1,0,0,0,0,0,0]","location_rts":"[495,634,437,975,856,502,539,430,467,402,400,661,878,335,356,332,409,377,414]","trial_type":"two-door-navigation","trial_index":26,"time_elapsed":364703,"internal_node_id":"0.0-2.0-24.0"},{"group":"hexagon_tri","room_assignment":["green","yellow","blue","red","purple","grey"],"door_color_assignment":["black","white"],"door_generator_assignment":[0,1],"goal":4,"start":2,"action_noise":0.15,"location_history":"[2,3,2,1,3,2,1,3,4]","action_history":"[0,0,0,0,0,0,0,0]","door_history":"[0,0,0,0,0,0,0,0]","location_rts":"[694,395,717,417,397,660,384,440]","trial_type":"two-door-navigation","trial_index":27,"time_elapsed":380351,"internal_node_id":"0.0-2.0-25.0"},{"group":"hexagon_tri","room_assignment":["green","yellow","blue","red","purple","grey"],"door_color_assignment":["black","white"],"door_generator_assignment":[0,1],"goal":5,"start":4,"action_noise":0.15,"location_history":"[4,0,1,3,4,0,1,3,4,2,1,3,4,0,1,3,2,1,3,2,3,2,3,2,3,4,0,5]","action_history":"[0,1,0,1,0,1,0,1,0,1,0,1,0,1,0,0,0,0,0,1,0,1,0,1,0,0,0]","door_history":"[0,1,0,1,0,1,0,1,0,1,0,1,0,1,0,0,0,0,0,1,0,1,0,1,0,0,0]","location_rts":"[364,140,155,146,208,114,169,193,89,183,70,207,165,151,284,134,270,328,404,226,276,293,254,367,304,180,372]","trial_type":"two-door-navigation","trial_index":28,"time_elapsed":416996,"internal_node_id":"0.0-2.0-26.0"},{"group":"hexagon_tri","room_assignment":["green","yellow","blue","red","purple","grey"],"door_color_assignment":["black","white"],"door_generator_assignment":[0,1],"goal":2,"start":5,"action_noise":0.15,"location_history":"[5,4,0,5,4,0,1,3,2]","action_history":"[0,0,0,0,0,1,0,0]","door_history":"[0,0,0,0,0,1,0,0]","location_rts":"[558,412,357,380,397,386,241,429]","trial_type":"two-door-navigation","trial_index":29,"time_elapsed":431691,"internal_node_id":"0.0-2.0-27.0"},{"group":"hexagon_tri","room_assignment":["green","yellow","blue","red","purple","grey"],"door_color_assignment":["black","white"],"door_generator_assignment":[0,1],"goal":3,"start":2,"action_noise":0.15,"location_history":"[2,1,3]","action_history":"[0,0]","door_history":"[0,0]","location_rts":"[456,470]","trial_type":"two-door-navigation","trial_index":30,"time_elapsed":438125,"internal_node_id":"0.0-2.0-28.0"},{"group":"hexagon_tri","room_assignment":["green","yellow","blue","red","purple","grey"],"door_color_assignment":["black","white"],"door_generator_assignment":[0,1],"goal":1,"start":3,"action_noise":0.15,"location_history":"[3,2,1]","action_history":"[0,0]","door_history":"[0,0]","location_rts":"[435,404]","trial_type":"two-door-navigation","trial_index":31,"time_elapsed":444472,"internal_node_id":"0.0-2.0-29.0"},{"group":"hexagon_tri","room_assignment":["green","yellow","blue","red","purple","grey"],"door_color_assignment":["black","white"],"door_generator_assignment":[0,1],"goal":4,"start":1,"action_noise":0.15,"location_history":"[1,3,2,1,3,2,1,3,2,1,3,4]","action_history":"[0,0,0,0,0,0,0,0,0,0,0]","door_history":"[0,0,0,0,0,0,0,0,0,0,0]","location_rts":"[1053,411,929,523,475,860,405,397,669,413,424]","trial_type":"two-door-navigation","trial_index":32,"time_elapsed":465570,"internal_node_id":"0.0-2.0-30.0"},{"group":"hexagon_tri","room_assignment":["green","yellow","blue","red","purple","grey"],"door_color_assignment":["black","white"],"door_generator_assignment":[0,1],"goal":5,"start":4,"action_noise":0.15,"location_history":"[4,0,5]","action_history":"[0,1]","door_history":"[0,1]","location_rts":"[532,300]","trial_type":"two-door-navigation","trial_index":33,"time_elapsed":471903,"internal_node_id":"0.0-2.0-31.0"},{"group":"hexagon_tri","room_assignment":["green","yellow","blue","red","purple","grey"],"door_color_assignment":["black","white"],"door_generator_assignment":[0,1],"goal":0,"start":5,"action_noise":0.15,"location_history":"[5,4,0]","action_history":"[0,1]","door_history":"[0,1]","location_rts":"[362,186]","trial_type":"two-door-navigation","trial_index":34,"time_elapsed":477956,"internal_node_id":"0.0-2.0-32.0"},{"group":"hexagon_tri","room_assignment":["green","yellow","blue","red","purple","grey"],"door_color_assignment":["black","white"],"door_generator_assignment":[0,1],"goal":2,"start":0,"action_noise":0.15,"location_history":"[0,1,3,2]","action_history":"[0,0,1]","door_history":"[0,0,1]","location_rts":"[443,333,733]","trial_type":"two-door-navigation","trial_index":35,"time_elapsed":485967,"internal_node_id":"0.0-2.0-33.0"},{"group":"hexagon_tri","room_assignment":["green","yellow","blue","red","purple","grey"],"door_color_assignment":["black","white"],"door_generator_assignment":[0,1],"goal":0,"start":2,"action_noise":0.15,"location_history":"[2,1,3,2,1,3,2,3,2,1,5,4,2,1,5,4,0]","action_history":"[0,0,0,1,0,0,0,0,0,1,0,1,0,0,0,0]","door_history":"[0,0,0,1,0,0,0,0,0,1,0,1,0,0,0,0]","location_rts":"[541,357,474,616,470,351,435,374,404,324,175,206,92,232,244,365]","trial_type":"two-door-navigation","trial_index":36,"time_elapsed":511164,"internal_node_id":"0.0-2.0-34.0"},{"group":"hexagon_tri","room_assignment":["green","yellow","blue","red","purple","grey"],"door_color_assignment":["black","white"],"door_generator_assignment":[0,1],"goal":5,"start":0,"action_noise":0.15,"location_history":"[0,5]","action_history":"[0]","door_history":"[0]","location_rts":"[466]","trial_type":"two-door-navigation","trial_index":37,"time_elapsed":516135,"internal_node_id":"0.0-2.0-35.0"},{"group":"hexagon_tri","room_assignment":["green","yellow","blue","red","purple","grey"],"door_color_assignment":["black","white"],"door_generator_assignment":[0,1],"goal":1,"start":5,"action_noise":0.15,"location_history":"[5,4,0,5,4,2,3,4,0,1]","action_history":"[0,0,0,0,0,1,0,0,0]","door_history":"[0,0,0,0,0,1,0,0,0]","location_rts":"[503,327,392,347,453,227,356,349,417]","trial_type":"two-door-navigation","trial_index":38,"time_elapsed":532036,"internal_node_id":"0.0-2.0-36.0"},{"group":"hexagon_tri","room_assignment":["green","yellow","blue","red","purple","grey"],"door_color_assignment":["black","white"],"door_generator_assignment":[0,1],"goal":4,"start":1,"action_noise":0.15,"location_history":"[1,5,4]","action_history":"[0,0]","door_history":"[0,0]","location_rts":"[701,455]","trial_type":"two-door-navigation","trial_index":39,"time_elapsed":538700,"internal_node_id":"0.0-2.0-37.0"},{"group":"hexagon_tri","room_assignment":["green","yellow","blue","red","purple","grey"],"door_color_assignment":["black","white"],"door_generator_assignment":[0,1],"goal":3,"start":4,"action_noise":0.15,"location_history":"[4,0,5,4,0,1,3]","action_history":"[0,0,0,0,0,0]","door_history":"[0,0,0,0,0,0]","location_rts":"[390,375,1170,378,392,421]","trial_type":"two-door-navigation","trial_index":40,"time_elapsed":551374,"internal_node_id":"0.0-2.0-38.0"},{"group":"hexagon_tri","room_assignment":["green","yellow","blue","red","purple","grey"],"door_color_assignment":["black","white"],"door_generator_assignment":[0,1],"goal":5,"start":3,"action_noise":0.15,"location_history":"[3,2,3,2,3,2,3,2,3,2,3,4,0,5]","action_history":"[0,1,0,1,0,1,0,1,0,1,0,1,0]","door_history":"[0,1,0,1,0,1,0,1,0,1,0,1,0]","location_rts":"[479,340,354,322,340,319,418,360,295,325,240,123,219]","trial_type":"two-door-navigation","trial_index":41,"time_elapsed":572066,"internal_node_id":"0.0-2.0-39.0"},{"group":"hexagon_tri","room_assignment":["green","yellow","blue","red","purple","grey"],"door_color_assignment":["black","white"],"door_generator_assignment":[0,1],"goal":1,"start":5,"action_noise":0.15,"location_history":"[5,4,0,5,4,0,1]","action_history":"[0,0,0,0,0,0]","door_history":"[0,0,0,0,0,0]","location_rts":"[1271,1630,336,312,392,441]","trial_type":"two-door-navigation","trial_index":42,"time_elapsed":585964,"internal_node_id":"0.0-2.0-40.0"},{"group":"hexagon_tri","room_assignment":["green","yellow","blue","red","purple","grey"],"door_color_assignment":["black","white"],"door_generator_assignment":[0,1],"goal":2,"start":1,"action_noise":0.15,"location_history":"[1,3,2]","action_history":"[0,0]","door_history":"[0,0]","location_rts":"[628,330]","trial_type":"two-door-navigation","trial_index":43,"time_elapsed":592424,"internal_node_id":"0.0-2.0-41.0"},{"group":"hexagon_tri","room_assignment":["green","yellow","blue","red","purple","grey"],"door_color_assignment":["black","white"],"door_generator_assignment":[0,1],"goal":4,"start":2,"action_noise":0.15,"location_history":"[2,1,3,2,1,3,2,1,3,2,1,3,2,3,4]","action_history":"[0,0,0,0,0,1,1,0,0,0,0,0,1,1]","door_history":"[0,0,0,0,0,1,1,0,0,0,0,0,1,1]","location_rts":"[419,320,382,396,580,295,430,577,389,413,437,365,414,217]","trial_type":"two-door-navigation","trial_index":44,"time_elapsed":615581,"internal_node_id":"0.0-2.0-42.0"},{"group":"hexagon_tri","room_assignment":["green","yellow","blue","red","purple","grey"],"door_color_assignment":["black","white"],"door_generator_assignment":[0,1],"goal":0,"start":4,"action_noise":0.15,"location_history":"[4,0]","action_history":"[0]","door_history":"[0]","location_rts":"[419]","trial_type":"two-door-navigation","trial_index":45,"time_elapsed":620499,"internal_node_id":"0.0-2.0-43.0"},{"group":"hexagon_tri","room_assignment":["green","yellow","blue","red","purple","grey"],"door_color_assignment":["black","white"],"door_generator_assignment":[0,1],"goal":3,"start":0,"action_noise":0.15,"location_history":"[0,5,4,0,5,4,0,5,4,0,5,0,5,4,0,5,0,5,4,0,5,4,0,5,4,0,5,0,5,0,5,4,0,5,4,0,5,0,5,4,0,5,4,0,5,0,1,5,0,1,3]","action_history":"[0,0,0,0,0,0,0,0,0,0,0,0,0,0,0,1,0,0,0,0,0,0,0,0,0,0,1,0,0,0,0,0,0,0,0,0,1,0,0,0,0,0,0,0,1,0,0,0,0,0]","door_history":"[0,0,0,0,0,0,0,0,0,0,0,0,0,0,0,1,0,0,0,0,0,0,0,0,0,0,1,0,0,0,0,0,0,0,0,0,1,0,0,0,0,0,0,0,1,0,0,0,0,0]","location_rts":"[406,273,405,469,342,382,326,350,380,460,317,363,335,415,407,472,235,308,372,376,329,470,306,410,672,654,544,572,402,314,379,375,366,414,383,447,787,25,83,77,69,357,345,355,203,202,235,124,310,281]","trial_type":"two-door-navigation","trial_index":46,"time_elapsed":692012,"internal_node_id":"0.0-2.0-44.0"},{"group":"hexagon_tri","room_assignment":["green","yellow","blue","red","purple","grey"],"door_color_assignment":["black","white"],"door_generator_assignment":[0,1],"goal":0,"start":3,"action_noise":0.15,"location_history":"[3,2,1,3,2,1,5,4,0]","action_history":"[0,0,0,0,0,0,0,0]","door_history":"[0,0,0,0,0,0,0,0]","location_rts":"[417,250,214,354,323,280,334,360]","trial_type":"two-door-navigation","trial_index":47,"time_elapsed":706080,"internal_node_id":"0.0-2.0-45.0"},{"group":"hexagon_tri","room_assignment":["green","yellow","blue","red","purple","grey"],"door_color_assignment":["black","white"],"door_generator_assignment":[0,1],"goal":4,"start":0,"action_noise":0.15,"location_history":"[0,5,4]","action_history":"[0,0]","door_history":"[0,0]","location_rts":"[413,248]","trial_type":"two-door-navigation","trial_index":48,"time_elapsed":712244,"internal_node_id":"0.0-2.0-46.0"},{"group":"hexagon_tri","room_assignment":["green","yellow","blue","red","purple","grey"],"door_color_assignment":["black","white"],"door_generator_assignment":[0,1],"goal":5,"start":4,"action_noise":0.15,"location_history":"[4,2,3,2,3,2,3,4,2,1,5]","action_history":"[0,1,0,1,0,1,0,1,0,1]","door_history":"[0,1,0,1,0,1,0,1,0,1]","location_rts":"[444,101,83,76,53,83,156,77,196,105]","trial_type":"two-door-navigation","trial_index":49,"time_elapsed":727141,"internal_node_id":"0.0-2.0-47.0"},{"group":"hexagon_tri","room_assignment":["green","yellow","blue","red","purple","grey"],"door_color_assignment":["black","white"],"door_generator_assignment":[0,1],"goal":2,"start":5,"action_noise":0.15,"location_history":"[5,4,0,5,4,2]","action_history":"[0,0,0,0,0]","door_history":"[0,0,0,0,0]","location_rts":"[395,317,338,343,372]","trial_type":"two-door-navigation","trial_index":50,"time_elapsed":737423,"internal_node_id":"0.0-2.0-48.0"},{"group":"hexagon_tri","room_assignment":["green","yellow","blue","red","purple","grey"],"door_color_assignment":["black","white"],"door_generator_assignment":[0,1],"goal":1,"start":2,"action_noise":0.15,"location_history":"[2,1]","action_history":"[0]","door_history":"[0]","location_rts":"[492]","trial_type":"two-door-navigation","trial_index":51,"time_elapsed":742422,"internal_node_id":"0.0-2.0-49.0"},{"view_history":"[{\"page_index\":0,\"viewing_time\":23393}]","rt":23393,"trial_type":"instructions","trial_index":52,"time_elapsed":766814,"internal_node_id":"0.0-3.0"},{"view_history":"[{\"page_index\":0,\"viewing_time\":1078},{\"page_index\":1,\"viewing_time\":1639}]","rt":2718,"trial_type":"instructions","trial_index":53,"time_elapsed":770532,"internal_node_id":"0.0-4.0"},{"group":"hexagon_tri","fractal_assignment":["../images/ylw_slt.png","../images/gry_blk.png","../images/blu_wht.png","../images/pnk_blu.png","../images/org_blu.png","../images/cyn_red.png"],"mutagen_generator_assignment":[1,0],"goal":2,"start":1,"action_noise":0.15,"location_history":"[1,3,2]","action_history":"[0,0]","mutagen_history":"[1,1]","location_rts":"[3227,762]","trial_type":"fractal-mutation","trial_index":54,"time_elapsed":780090,"internal_node_id":"0.0-5.0-0.0"},{"group":"hexagon_tri","fractal_assignment":["../images/ylw_slt.png","../images/gry_blk.png","../images/blu_wht.png","../images/pnk_blu.png","../images/org_blu.png","../images/cyn_red.png"],"mutagen_generator_assignment":[1,0],"goal":0,"start":2,"action_noise":0.15,"location_history":"[2,1,5,4,0]","action_history":"[0,1,0,0]","mutagen_history":"[1,0,1,1]","location_rts":"[411,369,450,404]","trial_type":"fractal-mutation","trial_index":55,"time_elapsed":789369,"internal_node_id":"0.0-5.0-1.0"},{"group":"hexagon_tri","fractal_assignment":["../images/ylw_slt.png","../images/gry_blk.png","../images/blu_wht.png","../images/pnk_blu.png","../images/org_blu.png","../images/cyn_red.png"],"mutagen_generator_assignment":[1,0],"goal":5,"start":0,"action_noise":0.15,"location_history":"[0,1,3,2,1,3,4,0,1,5]","action_history":"[0,1,0,0,0,0,0,1,1]","mutagen_history":"[1,0,1,1,1,1,1,0,0]","location_rts":"[548,407,479,448,461,542,1107,580,582]","trial_type":"fractal-mutation","trial_index":56,"time_elapsed":807239,"internal_node_id":"0.0-5.0-2.0"},{"group":"hexagon_tri","fractal_assignment":["../images/ylw_slt.png","../images/gry_blk.png","../images/blu_wht.png","../images/pnk_blu.png","../images/org_blu.png","../images/cyn_red.png"],"mutagen_generator_assignment":[1,0],"goal":1,"start":5,"action_noise":0.15,"location_history":"[5,0,5,4,2,1]","action_history":"[0,0,0,1,0]","mutagen_history":"[1,1,1,0,1]","location_rts":"[134,448,458,402,424]","trial_type":"fractal-mutation","trial_index":57,"time_elapsed":817763,"internal_node_id":"0.0-5.0-3.0"},{"group":"hexagon_tri","fractal_assignment":["../images/ylw_slt.png","../images/gry_blk.png","../images/blu_wht.png","../images/pnk_blu.png","../images/org_blu.png","../images/cyn_red.png"],"mutagen_generator_assignment":[1,0],"goal":3,"start":1,"action_noise":0.15,"location_history":"[1,3]","action_history":"[0]","mutagen_history":"[1]","location_rts":"[443]","trial_type":"fractal-mutation","trial_index":58,"time_elapsed":822733,"internal_node_id":"0.0-5.0-4.0"},{"group":"hexagon_tri","fractal_assignment":["../images/ylw_slt.png","../images/gry_blk.png","../images/blu_wht.png","../images/pnk_blu.png","../images/org_blu.png","../images/cyn_red.png"],"mutagen_generator_assignment":[1,0],"goal":5,"start":3,"action_noise":0.15,"location_history":"[3,2,3,2,3,4,2,1,3,2,3,2,3,2,1,5]","action_history":"[0,1,0,1,0,1,0,0,0,1,0,0,0,0,1]","mutagen_history":"[1,0,1,0,1,0,1,1,1,0,1,1,1,1,0]","location_rts":"[298,485,294,369,343,504,370,347,439,634,367,331,428,442,510]","trial_type":"fractal-mutation","trial_index":59,"time_elapsed":847727,"internal_node_id":"0.0-5.0-5.0"},{"group":"hexagon_tri","fractal_assignment":["../images/ylw_slt.png","../images/gry_blk.png","../images/blu_wht.png","../images/pnk_blu.png","../images/org_blu.png","../images/cyn_red.png"],"mutagen_generator_assignment":[1,0],"goal":4,"start":5,"action_noise":0.15,"location_history":"[5,0,1,3,2,3,2,3,2,3,2,3,2,3,2,1,3,4]","action_history":"[0,1,0,0,1,0,0,0,1,0,1,0,1,0,0,0,1]","mutagen_history":"[1,0,1,1,0,1,1,1,0,1,0,1,0,1,1,1,0]","location_rts":"[597,415,388,440,381,436,430,493,377,341,333,316,298,267,326,522,400]","trial_type":"fractal-mutation","trial_index":60,"time_elapsed":875225,"internal_node_id":"0.0-5.0-6.0"},{"group":"hexagon_tri","fractal_assignment":["../images/ylw_slt.png","../images/gry_blk.png","../images/blu_wht.png","../images/pnk_blu.png","../images/org_blu.png","../images/cyn_red.png"],"mutagen_generator_assignment":[1,0],"goal":0,"start":4,"action_noise":0.15,"location_history":"[4,0]","action_history":"[0]","mutagen_history":"[1]","location_rts":"[334]","trial_type":"fractal-mutation","trial_index":61,"time_elapsed":880072,"internal_node_id":"0.0-5.0-7.0"},{"group":"hexagon_tri","fractal_assignment":["../images/ylw_slt.png","../images/gry_blk.png","../images/blu_wht.png","../images/pnk_blu.png","../images/org_blu.png","../images/cyn_red.png"],"mutagen_generator_assignment":[1,0],"goal":2,"start":0,"action_noise":0.15,"location_history":"[0,1,3,2]","action_history":"[1,0,0]","mutagen_history":"[0,1,1]","location_rts":"[351,293,425]","trial_type":"fractal-mutation","trial_index":62,"time_elapsed":887691,"internal_node_id":"0.0-5.0-8.0"},{"group":"hexagon_tri","fractal_assignment":["../images/ylw_slt.png","../images/gry_blk.png","../images/blu_wht.png","../images/pnk_blu.png","../images/org_blu.png","../images/cyn_red.png"],"mutagen_generator_assignment":[1,0],"goal":4,"start":2,"action_noise":0.15,"location_history":"[2,1,5,4]","action_history":"[0,1,0]","mutagen_history":"[1,0,1]","location_rts":"[261,325,341]","trial_type":"fractal-mutation","trial_index":63,"time_elapsed":895214,"internal_node_id":"0.0-5.0-9.0"},{"group":"hexagon_tri","fractal_assignment":["../images/ylw_slt.png","../images/gry_blk.png","../images/blu_wht.png","../images/pnk_blu.png","../images/org_blu.png","../images/cyn_red.png"],"mutagen_generator_assignment":[1,0],"goal":2,"start":4,"action_noise":0.15,"location_history":"[4,0,1,5,4,2]","action_history":"[0,0,1,0,0]","mutagen_history":"[1,1,0,1,1]","location_rts":"[35,402,401,301,301]","trial_type":"fractal-mutation","trial_index":64,"time_elapsed":905239,"internal_node_id":"0.0-5.0-10.0"},{"group":"hexagon_tri","fractal_assignment":["../images/ylw_slt.png","../images/gry_blk.png","../images/blu_wht.png","../images/pnk_blu.png","../images/org_blu.png","../images/cyn_red.png"],"mutagen_generator_assignment":[1,0],"goal":3,"start":2,"action_noise":0.15,"location_history":"[2,1,5,4,0,5,4,0,1,5,4,0,1,3]","action_history":"[0,1,0,0,0,0,0,1,0,0,0,1,0]","mutagen_history":"[1,0,1,1,1,1,1,0,1,1,1,0,1]","location_rts":"[14,376,1034,389,445,385,429,450,281,351,440,458,340]","trial_type":"fractal-mutation","trial_index":65,"time_elapsed":927372,"internal_node_id":"0.0-5.0-11.0"},{"group":"hexagon_tri","fractal_assignment":["../images/ylw_slt.png","../images/gry_blk.png","../images/blu_wht.png","../images/pnk_blu.png","../images/org_blu.png","../images/cyn_red.png"],"mutagen_generator_assignment":[1,0],"goal":0,"start":3,"action_noise":0.15,"location_history":"[3,2,3,2,1,3,4,0]","action_history":"[0,1,0,1,0,1,0]","mutagen_history":"[1,0,1,0,1,0,1]","location_rts":"[434,369,283,310,298,394,318]","trial_type":"fractal-mutation","trial_index":66,"time_elapsed":940417,"internal_node_id":"0.0-5.0-12.0"},{"group":"hexagon_tri","fractal_assignment":["../images/ylw_slt.png","../images/gry_blk.png","../images/blu_wht.png","../images/pnk_blu.png","../images/org_blu.png","../images/cyn_red.png"],"mutagen_generator_assignment":[1,0],"goal":5,"start":0,"action_noise":0.15,"location_history":"[0,5]","action_history":"[0]","mutagen_history":"[1]","location_rts":"[460]","trial_type":"fractal-mutation","trial_index":67,"time_elapsed":945422,"internal_node_id":"0.0-5.0-13.0"},{"group":"hexagon_tri","fractal_assignment":["../images/ylw_slt.png","../images/gry_blk.png","../images/blu_wht.png","../images/pnk_blu.png","../images/org_blu.png","../images/cyn_red.png"],"mutagen_generator_assignment":[1,0],"goal":1,"start":5,"action_noise":0.15,"location_history":"[5,4,0,1]","action_history":"[0,0,1]","mutagen_history":"[1,1,0]","location_rts":"[209,403,491]","trial_type":"fractal-mutation","trial_index":68,"time_elapsed":953073,"internal_node_id":"0.0-5.0-14.0"},{"group":"hexagon_tri","fractal_assignment":["../images/ylw_slt.png","../images/gry_blk.png","../images/blu_wht.png","../images/pnk_blu.png","../images/org_blu.png","../images/cyn_red.png"],"mutagen_generator_assignment":[1,0],"goal":5,"start":1,"action_noise":0.15,"location_history":"[1,3,2,3,4,0,5]","action_history":"[0,0,0,1,0,0]","mutagen_history":"[1,1,1,0,1,1]","location_rts":"[286,566,425,542,640,356]","trial_type":"fractal-mutation","trial_index":69,"time_elapsed":965548,"internal_node_id":"0.0-5.0-15.0"},{"group":"hexagon_tri","fractal_assignment":["../images/ylw_slt.png","../images/gry_blk.png","../images/blu_wht.png","../images/pnk_blu.png","../images/org_blu.png","../images/cyn_red.png"],"mutagen_generator_assignment":[1,0],"goal":3,"start":5,"action_noise":0.15,"location_history":"[5,4,0,5,4,0,5,4,0,5,4,2,1,3]","action_history":"[0,0,0,1,0,0,0,0,0,0,1,0,0]","mutagen_history":"[1,1,1,0,1,1,1,1,1,1,0,1,1]","location_rts":"[714,650,1038,570,634,1569,607,701,710,566,446,491,464]","trial_type":"fractal-mutation","trial_index":70,"time_elapsed":991552,"internal_node_id":"0.0-5.0-16.0"},{"group":"hexagon_tri","fractal_assignment":["../images/ylw_slt.png","../images/gry_blk.png","../images/blu_wht.png","../images/pnk_blu.png","../images/org_blu.png","../images/cyn_red.png"],"mutagen_generator_assignment":[1,0],"goal":2,"start":3,"action_noise":0.15,"location_history":"[3,2]","action_history":"[0]","mutagen_history":"[1]","location_rts":"[649]","trial_type":"fractal-mutation","trial_index":71,"time_elapsed":996731,"internal_node_id":"0.0-5.0-17.0"},{"group":"hexagon_tri","fractal_assignment":["../images/ylw_slt.png","../images/gry_blk.png","../images/blu_wht.png","../images/pnk_blu.png","../images/org_blu.png","../images/cyn_red.png"],"mutagen_generator_assignment":[1,0],"goal":1,"start":2,"action_noise":0.15,"location_history":"[2,1]","action_history":"[0]","mutagen_history":"[1]","location_rts":"[502]","trial_type":"fractal-mutation","trial_index":72,"time_elapsed":1001759,"internal_node_id":"0.0-5.0-18.0"},{"group":"hexagon_tri","fractal_assignment":["../images/ylw_slt.png","../images/gry_blk.png","../images/blu_wht.png","../images/pnk_blu.png","../images/org_blu.png","../images/cyn_red.png"],"mutagen_generator_assignment":[1,0],"goal":4,"start":1,"action_noise":0.15,"location_history":"[1,3,2,1,5,4]","action_history":"[0,0,0,1,0]","mutagen_history":"[1,1,1,0,1]","location_rts":"[508,566,809,858,562]","trial_type":"fractal-mutation","trial_index":73,"time_elapsed":1013657,"internal_node_id":"0.0-5.0-19.0"},{"group":"hexagon_tri","fractal_assignment":["../images/ylw_slt.png","../images/gry_blk.png","../images/blu_wht.png","../images/pnk_blu.png","../images/org_blu.png","../images/cyn_red.png"],"mutagen_generator_assignment":[1,0],"goal":0,"start":4,"action_noise":0.15,"location_history":"[4,0]","action_history":"[0]","mutagen_history":"[1]","location_rts":"[907]","trial_type":"fractal-mutation","trial_index":74,"time_elapsed":1019076,"internal_node_id":"0.0-5.0-20.0"},{"group":"hexagon_tri","fractal_assignment":["../images/ylw_slt.png","../images/gry_blk.png","../images/blu_wht.png","../images/pnk_blu.png","../images/org_blu.png","../images/cyn_red.png"],"mutagen_generator_assignment":[1,0],"goal":3,"start":0,"action_noise":0.15,"location_history":"[0,5,4,0,5,4,0,1,3]","action_history":"[0,0,0,0,0,0,0,0]","mutagen_history":"[1,1,1,1,1,1,1,1]","location_rts":"[569,463,449,412,637,523,671,559]","trial_type":"fractal-mutation","trial_index":75,"time_elapsed":1035050,"internal_node_id":"0.0-5.0-21.0"},{"group":"hexagon_tri","fractal_assignment":["../images/ylw_slt.png","../images/gry_blk.png","../images/blu_wht.png","../images/pnk_blu.png","../images/org_blu.png","../images/cyn_red.png"],"mutagen_generator_assignment":[1,0],"goal":1,"start":3,"action_noise":0.15,"location_history":"[3,2,1]","action_history":"[0,0]","mutagen_history":"[1,1]","location_rts":"[509,840]","trial_type":"fractal-mutation","trial_index":76,"time_elapsed":1041921,"internal_node_id":"0.0-5.0-22.0"},{"group":"hexagon_tri","fractal_assignment":["../images/ylw_slt.png","../images/gry_blk.png","../images/blu_wht.png","../images/pnk_blu.png","../images/org_blu.png","../images/cyn_red.png"],"mutagen_generator_assignment":[1,0],"goal":0,"start":1,"action_noise":0.15,"location_history":"[1,3,2,3,2,1,5,0]","action_history":"[0,0,1,0,0,0,0]","mutagen_history":"[1,1,0,1,1,1,1]","location_rts":"[398,462,446,357,417,440,489]","trial_type":"fractal-mutation","trial_index":77,"time_elapsed":1055591,"internal_node_id":"0.0-5.0-23.0"},{"group":"hexagon_tri","fractal_assignment":["../images/ylw_slt.png","../images/gry_blk.png","../images/blu_wht.png","../images/pnk_blu.png","../images/org_blu.png","../images/cyn_red.png"],"mutagen_generator_assignment":[1,0],"goal":2,"start":0,"action_noise":0.15,"location_history":"[0,5,0,5,0,5,4,2]","action_history":"[0,0,0,1,0,0,0]","mutagen_history":"[1,1,1,0,1,1,1]","location_rts":"[307,386,522,445,381,412,512]","trial_type":"fractal-mutation","trial_index":78,"time_elapsed":1069218,"internal_node_id":"0.0-5.0-24.0"},{"group":"hexagon_tri","fractal_assignment":["../images/ylw_slt.png","../images/gry_blk.png","../images/blu_wht.png","../images/pnk_blu.png","../images/org_blu.png","../images/cyn_red.png"],"mutagen_generator_assignment":[1,0],"goal":4,"start":2,"action_noise":0.15,"location_history":"[2,1,3,2,3,4]","action_history":"[0,0,0,0,1]","mutagen_history":"[1,1,1,1,0]","location_rts":"[580,387,484,453,539]","trial_type":"fractal-mutation","trial_index":79,"time_elapsed":1080253,"internal_node_id":"0.0-5.0-25.0"},{"group":"hexagon_tri","fractal_assignment":["../images/ylw_slt.png","../images/gry_blk.png","../images/blu_wht.png","../images/pnk_blu.png","../images/org_blu.png","../images/cyn_red.png"],"mutagen_generator_assignment":[1,0],"goal":5,"start":4,"action_noise":0.15,"location_history":"[4,2,3,4,2,3,2,3,2,1,3,2,1,3,4,2,1,3,2,1,3,2,1,5]","action_history":"[0,0,0,0,1,0,0,0,0,0,1,0,0,0,1,0,0,0,1,0,0,0,1]","mutagen_history":"[1,1,1,1,0,1,1,1,1,1,0,1,1,1,0,1,1,1,0,1,1,1,0]","location_rts":"[163,427,579,652,430,333,655,479,609,478,449,379,442,506,683,402,379,428,602,280,402,418,465]","trial_type":"fractal-mutation","trial_index":80,"time_elapsed":1117878,"internal_node_id":"0.0-5.0-26.0"},{"group":"hexagon_tri","fractal_assignment":["../images/ylw_slt.png","../images/gry_blk.png","../images/blu_wht.png","../images/pnk_blu.png","../images/org_blu.png","../images/cyn_red.png"],"mutagen_generator_assignment":[1,0],"goal":2,"start":5,"action_noise":0.15,"location_history":"[5,4,0,5,0,1,5,4,2]","action_history":"[0,0,0,1,0,0,0,0]","mutagen_history":"[1,1,1,0,1,1,1,1]","location_rts":"[64,444,397,427,395,382,456,468]","trial_type":"fractal-mutation","trial_index":81,"time_elapsed":1132560,"internal_node_id":"0.0-5.0-27.0"},{"group":"hexagon_tri","fractal_assignment":["../images/ylw_slt.png","../images/gry_blk.png","../images/blu_wht.png","../images/pnk_blu.png","../images/org_blu.png","../images/cyn_red.png"],"mutagen_generator_assignment":[1,0],"goal":3,"start":2,"action_noise":0.15,"location_history":"[2,1,5,4,0,5,0,5,4,0,5,0,1,5,4,0,5,4,2,1,3]","action_history":"[0,1,0,0,0,1,0,0,0,0,0,0,0,1,0,0,0,1,0,0]","mutagen_history":"[1,0,1,1,1,0,1,1,1,1,1,1,1,0,1,1,1,0,1,1]","location_rts":"[424,414,317,341,442,464,342,350,472,421,444,465,439,462,393,449,456,557,457,467]","trial_type":"fractal-mutation","trial_index":82,"time_elapsed":1165099,"internal_node_id":"0.0-5.0-28.0"},{"group":"hexagon_tri","fractal_assignment":["../images/ylw_slt.png","../images/gry_blk.png","../images/blu_wht.png","../images/pnk_blu.png","../images/org_blu.png","../images/cyn_red.png"],"mutagen_generator_assignment":[1,0],"goal":1,"start":3,"action_noise":0.15,"location_history":"[3,2,1]","action_history":"[0,0]","mutagen_history":"[1,1]","location_rts":"[594,1621]","trial_type":"fractal-mutation","trial_index":83,"time_elapsed":1172845,"internal_node_id":"0.0-5.0-29.0"},{"group":"hexagon_tri","fractal_assignment":["../images/ylw_slt.png","../images/gry_blk.png","../images/blu_wht.png","../images/pnk_blu.png","../images/org_blu.png","../images/cyn_red.png"],"mutagen_generator_assignment":[1,0],"goal":4,"start":1,"action_noise":0.15,"location_history":"[1,5,4]","action_history":"[0,0]","mutagen_history":"[1,1]","location_rts":"[954,938]","trial_type":"fractal-mutation","trial_index":84,"time_elapsed":1180277,"internal_node_id":"0.0-5.0-30.0"},{"group":"hexagon_tri","fractal_assignment":["../images/ylw_slt.png","../images/gry_blk.png","../images/blu_wht.png","../images/pnk_blu.png","../images/org_blu.png","../images/cyn_red.png"],"mutagen_generator_assignment":[1,0],"goal":5,"start":4,"action_noise":0.15,"location_history":"[4,0,1,3,2,1,5]","action_history":"[0,1,0,0,0,1]","mutagen_history":"[1,0,1,1,1,0]","location_rts":"[601,416,2028,390,359,320]","trial_type":"fractal-mutation","trial_index":85,"time_elapsed":1193993,"internal_node_id":"0.0-5.0-31.0"},{"group":"hexagon_tri","fractal_assignment":["../images/ylw_slt.png","../images/gry_blk.png","../images/blu_wht.png","../images/pnk_blu.png","../images/org_blu.png","../images/cyn_red.png"],"mutagen_generator_assignment":[1,0],"goal":0,"start":5,"action_noise":0.15,"location_history":"[5,4,2,1,3,2,1,5,0]","action_history":"[0,1,0,0,0,0,1,0]","mutagen_history":"[1,0,1,1,1,1,0,1]","location_rts":"[206,423,457,338,362,332,431,466]","trial_type":"fractal-mutation","trial_index":86,"time_elapsed":1208627,"internal_node_id":"0.0-5.0-32.0"},{"group":"hexagon_tri","fractal_assignment":["../images/ylw_slt.png","../images/gry_blk.png","../images/blu_wht.png","../images/pnk_blu.png","../images/org_blu.png","../images/cyn_red.png"],"mutagen_generator_assignment":[1,0],"goal":2,"start":0,"action_noise":0.15,"location_history":"[0,5,0,1,3,2]","action_history":"[0,0,1,0,0]","mutagen_history":"[1,1,0,1,1]","location_rts":"[30,419,364,324,452]","trial_type":"fractal-mutation","trial_index":87,"time_elapsed":1218819,"internal_node_id":"0.0-5.0-33.0"},{"group":"hexagon_tri","fractal_assignment":["../images/ylw_slt.png","../images/gry_blk.png","../images/blu_wht.png","../images/pnk_blu.png","../images/org_blu.png","../images/cyn_red.png"],"mutagen_generator_assignment":[1,0],"goal":0,"start":2,"action_noise":0.15,"location_history":"[2,3,4,0]","action_history":"[0,1,0]","mutagen_history":"[1,0,1]","location_rts":"[25,337,272]","trial_type":"fractal-mutation","trial_index":88,"time_elapsed":1226001,"internal_node_id":"0.0-5.0-34.0"},{"group":"hexagon_tri","fractal_assignment":["../images/ylw_slt.png","../images/gry_blk.png","../images/blu_wht.png","../images/pnk_blu.png","../images/org_blu.png","../images/cyn_red.png"],"mutagen_generator_assignment":[1,0],"goal":5,"start":0,"action_noise":0.15,"location_history":"[0,5]","action_history":"[0]","mutagen_history":"[1]","location_rts":"[533]","trial_type":"fractal-mutation","trial_index":89,"time_elapsed":1231048,"internal_node_id":"0.0-5.0-35.0"},{"group":"hexagon_tri","fractal_assignment":["../images/ylw_slt.png","../images/gry_blk.png","../images/blu_wht.png","../images/pnk_blu.png","../images/org_blu.png","../images/cyn_red.png"],"mutagen_generator_assignment":[1,0],"goal":1,"start":5,"action_noise":0.15,"location_history":"[5,4,2,3,4,0,5,4,0,1]","action_history":"[0,0,0,1,0,0,0,0,1]","mutagen_history":"[1,1,1,0,1,1,1,1,0]","location_rts":"[254,391,547,412,338,405,414,507,346]","trial_type":"fractal-mutation","trial_index":90,"time_elapsed":1247336,"internal_node_id":"0.0-5.0-36.0"},{"group":"hexagon_tri","fractal_assignment":["../images/ylw_slt.png","../images/gry_blk.png","../images/blu_wht.png","../images/pnk_blu.png","../images/org_blu.png","../images/cyn_red.png"],"mutagen_generator_assignment":[1,0],"goal":4,"start":1,"action_noise":0.15,"location_history":"[1,5,4]","action_history":"[0,0]","mutagen_history":"[1,1]","location_rts":"[271,323]","trial_type":"fractal-mutation","trial_index":91,"time_elapsed":1253482,"internal_node_id":"0.0-5.0-37.0"},{"group":"hexagon_tri","fractal_assignment":["../images/ylw_slt.png","../images/gry_blk.png","../images/blu_wht.png","../images/pnk_blu.png","../images/org_blu.png","../images/cyn_red.png"],"mutagen_generator_assignment":[1,0],"goal":3,"start":4,"action_noise":0.15,"location_history":"[4,2,3]","action_history":"[0,1]","mutagen_history":"[1,0]","location_rts":"[35,468]","trial_type":"fractal-mutation","trial_index":92,"time_elapsed":1259521,"internal_node_id":"0.0-5.0-38.0"},{"group":"hexagon_tri","fractal_assignment":["../images/ylw_slt.png","../images/gry_blk.png","../images/blu_wht.png","../images/pnk_blu.png","../images/org_blu.png","../images/cyn_red.png"],"mutagen_generator_assignment":[1,0],"goal":5,"start":3,"action_noise":0.15,"location_history":"[3,2,3,2,1,3,4,0,5]","action_history":"[0,1,0,0,0,1,0,0]","mutagen_history":"[1,0,1,1,1,0,1,1]","location_rts":"[144,360,271,393,338,380,289,337]","trial_type":"fractal-mutation","trial_index":93,"time_elapsed":1273661,"internal_node_id":"0.0-5.0-39.0"},{"group":"hexagon_tri","fractal_assignment":["../images/ylw_slt.png","../images/gry_blk.png","../images/blu_wht.png","../images/pnk_blu.png","../images/org_blu.png","../images/cyn_red.png"],"mutagen_generator_assignment":[1,0],"goal":1,"start":5,"action_noise":0.15,"location_history":"[5,4,2,1]","action_history":"[0,1,0]","mutagen_history":"[1,0,1]","location_rts":"[36,348,266]","trial_type":"fractal-mutation","trial_index":94,"time_elapsed":1280865,"internal_node_id":"0.0-5.0-40.0"},{"group":"hexagon_tri","fractal_assignment":["../images/ylw_slt.png","../images/gry_blk.png","../images/blu_wht.png","../images/pnk_blu.png","../images/org_blu.png","../images/cyn_red.png"],"mutagen_generator_assignment":[1,0],"goal":2,"start":1,"action_noise":0.15,"location_history":"[1,3,4,0,1,3,2]","action_history":"[0,1,0,1,0,0]","mutagen_history":"[1,0,1,0,1,1]","location_rts":"[68,315,363,310,464,358]","trial_type":"fractal-mutation","trial_index":95,"time_elapsed":1292361,"internal_node_id":"0.0-5.0-41.0"},{"group":"hexagon_tri","fractal_assignment":["../images/ylw_slt.png","../images/gry_blk.png","../images/blu_wht.png","../images/pnk_blu.png","../images/org_blu.png","../images/cyn_red.png"],"mutagen_generator_assignment":[1,0],"goal":4,"start":2,"action_noise":0.15,"location_history":"[2,1,5,4]","action_history":"[0,1,0]","mutagen_history":"[1,0,1]","location_rts":"[149,295,378]","trial_type":"fractal-mutation","trial_index":96,"time_elapsed":1299731,"internal_node_id":"0.0-5.0-42.0"},{"group":"hexagon_tri","fractal_assignment":["../images/ylw_slt.png","../images/gry_blk.png","../images/blu_wht.png","../images/pnk_blu.png","../images/org_blu.png","../images/cyn_red.png"],"mutagen_generator_assignment":[1,0],"goal":0,"start":4,"action_noise":0.15,"location_history":"[4,2,1,5,4,0]","action_history":"[0,0,1,0,0]","mutagen_history":"[1,1,0,1,1]","location_rts":"[362,356,374,310,420]","trial_type":"fractal-mutation","trial_index":97,"time_elapsed":1310178,"internal_node_id":"0.0-5.0-43.0"},{"group":"hexagon_tri","fractal_assignment":["../images/ylw_slt.png","../images/gry_blk.png","../images/blu_wht.png","../images/pnk_blu.png","../images/org_blu.png","../images/cyn_red.png"],"mutagen_generator_assignment":[1,0],"goal":3,"start":0,"action_noise":0.15,"location_history":"[0,5,4,2,3]","action_history":"[0,0,0,1]","mutagen_history":"[1,1,1,0]","location_rts":"[516,539,493,491]","trial_type":"fractal-mutation","trial_index":98,"time_elapsed":1319781,"internal_node_id":"0.0-5.0-44.0"},{"group":"hexagon_tri","fractal_assignment":["../images/ylw_slt.png","../images/gry_blk.png","../images/blu_wht.png","../images/pnk_blu.png","../images/org_blu.png","../images/cyn_red.png"],"mutagen_generator_assignment":[1,0],"goal":0,"start":3,"action_noise":0.15,"location_history":"[3,2,1,5,4,0]","action_history":"[0,1,0,0,0]","mutagen_history":"[1,0,1,1,1]","location_rts":"[274,367,342,718,379]","trial_type":"fractal-mutation","trial_index":99,"time_elapsed":1330481,"internal_node_id":"0.0-5.0-45.0"},{"group":"hexagon_tri","fractal_assignment":["../images/ylw_slt.png","../images/gry_blk.png","../images/blu_wht.png","../images/pnk_blu.png","../images/org_blu.png","../images/cyn_red.png"],"mutagen_generator_assignment":[1,0],"goal":4,"start":0,"action_noise":0.15,"location_history":"[0,5,0,5,4]","action_history":"[0,1,0,0]","mutagen_history":"[1,0,1,1]","location_rts":"[352,387,474,478]","trial_type":"fractal-mutation","trial_index":100,"time_elapsed":1339750,"internal_node_id":"0.0-5.0-46.0"},{"group":"hexagon_tri","fractal_assignment":["../images/ylw_slt.png","../images/gry_blk.png","../images/blu_wht.png","../images/pnk_blu.png","../images/org_blu.png","../images/cyn_red.png"],"mutagen_generator_assignment":[1,0],"goal":5,"start":4,"action_noise":0.15,"location_history":"[4,0,5]","action_history":"[0,0]","mutagen_history":"[1,1]","location_rts":"[336,713]","trial_type":"fractal-mutation","trial_index":101,"time_elapsed":1346345,"internal_node_id":"0.0-5.0-47.0"},{"group":"hexagon_tri","fractal_assignment":["../images/ylw_slt.png","../images/gry_blk.png","../images/blu_wht.png","../images/pnk_blu.png","../images/org_blu.png","../images/cyn_red.png"],"mutagen_generator_assignment":[1,0],"goal":2,"start":5,"action_noise":0.15,"location_history":"[5,0,5,4,0,5,4,2]","action_history":"[0,0,0,1,0,0,0]","mutagen_history":"[1,1,1,0,1,1,1]","location_rts":"[452,386,347,382,328,319,345]","trial_type":"fractal-mutation","trial_index":102,"time_elapsed":1359548,"internal_node_id":"0.0-5.0-48.0"},{"group":"hexagon_tri","fractal_assignment":["../images/ylw_slt.png","../images/gry_blk.png","../images/blu_wht.png","../images/pnk_blu.png","../images/org_blu.png","../images/cyn_red.png"],"mutagen_generator_assignment":[1,0],"goal":1,"start":2,"action_noise":0.15,"location_history":"[2,1]","action_history":"[0]","mutagen_history":"[1]","location_rts":"[354]","trial_type":"fractal-mutation","trial_index":103,"time_elapsed":1364430,"internal_node_id":"0.0-5.0-49.0"},{"view_history":"[{\"page_index\":0,\"viewing_time\":2353}]","rt":2354,"trial_type":"instructions","trial_index":104,"time_elapsed":1367785,"internal_node_id":"0.0-6.0"},{"rt":31057,"responses":"{\"Q0\":\"The ability to recall and navigate when there is an element of randomness involved?\"}","trial_type":"survey-text","trial_index":105,"time_elapsed":1399851,"internal_node_id":"0.0-7.0-0.0"},{"rt":36657,"responses":"{\"Q0\":\"The ability to detect patterns in a visual environment when there is some inconsistency introduced?\"}","trial_type":"survey-text","trial_index":106,"time_elapsed":1437513,"internal_node_id":"0.0-7.0-1.0"},{"rt":37287,"responses":"{\"Q0\":\"<img src='../images/diagrams/hexagon_tri.png'>\"}","trial_type":"survey-multi-choice","trial_index":107,"time_elapsed":1475810,"internal_node_id":"0.0-7.0-2.0"},{"rt":31863,"assignments":["../images/ylw_slt.png","../images/cyn_red.png","../images/gry_blk.png","../images/blu_wht.png","../images/pnk_blu.png","../images/org_blu.png"],"trial_type":"drag-drop-on-image","trial_index":108,"time_elapsed":1508679,"internal_node_id":"0.0-7.0-3.0"},{"rt":8138,"responses":"{\"Q0\":\"3\"}","trial_type":"survey-likert","trial_index":109,"time_elapsed":1517825,"internal_node_id":"0.0-7.0-4.0"},{"rt":23141,"responses":"{\"Q0\":\"In my view, they both involved memorizing patterns with randomness...and an attempt to learn that pattern.\"}","trial_type":"survey-text","trial_index":110,"time_elapsed":1541969,"internal_node_id":"0.0-7.0-5.0"},{"rt":7927,"responses":"{\"Q0\":\"Yes\"}","trial_type":"survey-multi-choice","trial_index":111,"time_elapsed":1550901,"internal_node_id":"0.0-7.0-6.0"},{"rt":12571,"responses":"{\"Q0\":\"During session 1\"}","trial_type":"survey-multi-choice","trial_index":112,"time_elapsed":1564482,"internal_node_id":"0.0-7.0-7.0"},{"rt":43597,"responses":"{\"Q0\":\"It is as I've already mentioned.  They correspond in that there is a pattern to be recognized.  I'm sorry but I don't know how it could be better explained.\"}","trial_type":"survey-text","trial_index":113,"time_elapsed":1609084,"internal_node_id":"0.0-7.0-8.0"},{"rt":7546,"responses":"{\"Q0\":\"1\"}","trial_type":"survey-likert","trial_index":114,"time_elapsed":1617632,"internal_node_id":"0.0-7.0-9.0"},{"rt":6183,"responses":"{\"Q0\":\"Same structure\"}","trial_type":"survey-multi-choice","trial_index":115,"time_elapsed":1624822,"internal_node_id":"0.0-7.0-10.0"},{"rt":20132,"responses":"{\"Q0\":\"left (black) door = acid, right (white) door = ray\",\"Q1\":\"Not at all confident\"}","trial_type":"survey-multi-choice","trial_index":116,"time_elapsed":1645968,"internal_node_id":"0.0-7.0-11.0"},{"rt":11931,"responses":"{\"Q0\":\"35-45\",\"Q1\":\"Some college\",\"Q2\":\"Male\",\"Q3\":\"White\"}","trial_type":"survey-multi-choice","trial_index":117,"time_elapsed":1658937,"internal_node_id":"0.0-8.0"},{"rt":20320,"responses":"{\"Q0\":\"Thanks for the HITS!  I did my best and hope the data is useful!  These were much more interesting than the average MTURK task!\"}","trial_type":"survey-text","trial_index":118,"time_elapsed":1680261,"internal_node_id":"0.0-9.0"}]