[{"view_history":"[{\"page_index\":0,\"viewing_time\":1715},{\"page_index\":1,\"viewing_time\":1904}]","rt":3619,"trial_type":"instructions","trial_index":0,"time_elapsed":3620,"internal_node_id":"0.0-0.0"},{"view_history":"[{\"page_index\":0,\"viewing_time\":7842},{\"page_index\":1,\"viewing_time\":2673}]","rt":10516,"trial_type":"instructions","trial_index":1,"time_elapsed":15137,"internal_node_id":"0.0-1.0"},{"group":"hexagon_tri","room_assignment":["purple","red","grey","green","yellow","blue"],"door_color_assignment":["white","black"],"door_generator_assignment":[1,0],"goal":2,"start":1,"action_noise":0.15,"location_history":"[1,5,4,0,1,3,4,0,5,0,5,0,5,0,1,5,4,2]","action_history":"[1,0,0,1,0,1,0,0,1,0,1,0,1,1,1,0,1]","door_history":"[0,1,1,0,1,0,1,1,0,1,0,1,0,0,0,1,0]","location_rts":"[2538,1382,644,346,160,195,212,45148,201,616,39741,426,1121,11541,2737,1377,13615]","trial_type":"two-door-navigation","trial_index":2,"time_elapsed":158003,"internal_node_id":"0.0-2.0-0.0"},{"group":"hexagon_tri","room_assignment":["purple","red","grey","green","yellow","blue"],"door_color_assignment":["white","black"],"door_generator_assignment":[1,0],"goal":0,"start":2,"action_noise":0.15,"location_history":"[2,3,4,2,3,2,3,2,3,2,3,2,1,5,4,0]","action_history":"[1,1,1,1,0,1,0,1,0,1,1,0,1,1,1]","door_history":"[0,0,0,0,1,0,1,0,1,0,0,1,0,0,0]","location_rts":"[3208,2367,1418,6214,528,2320,69,366,590,1261,6992,1353,258,1539,899]","trial_type":"two-door-navigation","trial_index":3,"time_elapsed":206212,"internal_node_id":"0.0-2.0-1.0"},{"group":"hexagon_tri","room_assignment":["purple","red","grey","green","yellow","blue"],"door_color_assignment":["white","black"],"door_generator_assignment":[1,0],"goal":5,"start":0,"action_noise":0.15,"location_history":"[0,1,5]","action_history":"[1,1]","door_history":"[0,0]","location_rts":"[1464,622]","trial_type":"two-door-navigation","trial_index":4,"time_elapsed":213845,"internal_node_id":"0.0-2.0-2.0"},{"group":"hexagon_tri","room_assignment":["purple","red","grey","green","yellow","blue"],"door_color_assignment":["white","black"],"door_generator_assignment":[1,0],"goal":1,"start":5,"action_noise":0.15,"location_history":"[5,0,5,0,5,0,1]","action_history":"[1,0,1,0,1,1]","door_history":"[0,1,0,1,0,0]","location_rts":"[2465,177,24,703,816,5079]","trial_type":"two-door-navigation","trial_index":5,"time_elapsed":232745,"internal_node_id":"0.0-2.0-3.0"},{"group":"hexagon_tri","room_assignment":["purple","red","grey","green","yellow","blue"],"door_color_assignment":["white","black"],"door_generator_assignment":[1,0],"goal":3,"start":1,"action_noise":0.15,"location_history":"[1,5,0,1,5,0,5,0,5,4,2,1,5,0,5,0,1,5,0,1,5,0,1,3]","action_history":"[1,1,1,1,1,0,1,0,1,1,0,1,1,1,1,0,1,1,1,1,1,1,0]","door_history":"[0,0,0,0,0,1,0,1,0,0,1,0,0,0,0,1,0,0,0,0,0,0,1]","location_rts":"[780,647,947,127574,12940,1940,257,911,2173,275,1217,226,147,1581,20344,1996,1227,14009,702,54,82,3679,715]","trial_type":"two-door-navigation","trial_index":6,"time_elapsed":454141,"internal_node_id":"0.0-2.0-4.0"},{"group":"hexagon_tri","room_assignment":["purple","red","grey","green","yellow","blue"],"door_color_assignment":["white","black"],"door_generator_assignment":[1,0],"goal":5,"start":3,"action_noise":0.15,"location_history":"[3,4,2,1,3,4,2,3,4,2,1,5]","action_history":"[1,1,0,0,1,0,1,1,0,0,1]","door_history":"[0,0,1,1,0,1,0,0,1,1,0]","location_rts":"[838,81,7534,25253,129,1556,773,717,128,400,2508]","trial_type":"two-door-navigation","trial_index":7,"time_elapsed":508807,"internal_node_id":"0.0-2.0-5.0"},{"group":"hexagon_tri","room_assignment":["purple","red","grey","green","yellow","blue"],"door_color_assignment":["white","black"],"door_generator_assignment":[1,0],"goal":4,"start":5,"action_noise":0.15,"location_history":"[5,0,5,4]","action_history":"[1,0,0]","door_history":"[0,1,1]","location_rts":"[877,52,685]","trial_type":"two-door-navigation","trial_index":8,"time_elapsed":516988,"internal_node_id":"0.0-2.0-6.0"},{"group":"hexagon_tri","room_assignment":["purple","red","grey","green","yellow","blue"],"door_color_assignment":["white","black"],"door_generator_assignment":[1,0],"goal":0,"start":4,"action_noise":0.15,"location_history":"[4,2,1,5,4,0]","action_history":"[1,0,1,0,1]","door_history":"[0,1,0,1,0]","location_rts":"[1222,283,2727,1073,289]","trial_type":"two-door-navigation","trial_index":9,"time_elapsed":531193,"internal_node_id":"0.0-2.0-7.0"},{"group":"hexagon_tri","room_assignment":["purple","red","grey","green","yellow","blue"],"door_color_assignment":["white","black"],"door_generator_assignment":[1,0],"goal":2,"start":0,"action_noise":0.15,"location_history":"[0,5,0,5,4,2]","action_history":"[0,1,0,1,1]","door_history":"[1,0,1,0,0]","location_rts":"[894,1937,807,102,896]","trial_type":"two-door-navigation","trial_index":10,"time_elapsed":544442,"internal_node_id":"0.0-2.0-8.0"},{"group":"hexagon_tri","room_assignment":["purple","red","grey","green","yellow","blue"],"door_color_assignment":["white","black"],"door_generator_assignment":[1,0],"goal":4,"start":2,"action_noise":0.15,"location_history":"[2,3,4]","action_history":"[1,1]","door_history":"[0,0]","location_rts":"[2065,45448]","trial_type":"two-door-navigation","trial_index":11,"time_elapsed":597497,"internal_node_id":"0.0-2.0-9.0"},{"group":"hexagon_tri","room_assignment":["purple","red","grey","green","yellow","blue"],"door_color_assignment":["white","black"],"door_generator_assignment":[1,0],"goal":2,"start":4,"action_noise":0.15,"location_history":"[4,2]","action_history":"[1]","door_history":"[0]","location_rts":"[5504]","trial_type":"two-door-navigation","trial_index":12,"time_elapsed":607528,"internal_node_id":"0.0-2.0-10.0"},{"group":"hexagon_tri","room_assignment":["purple","red","grey","green","yellow","blue"],"door_color_assignment":["white","black"],"door_generator_assignment":[1,0],"goal":3,"start":2,"action_noise":0.15,"location_history":"[2,3]","action_history":"[1]","door_history":"[0]","location_rts":"[898]","trial_type":"two-door-navigation","trial_index":13,"time_elapsed":612950,"internal_node_id":"0.0-2.0-11.0"},{"group":"hexagon_tri","room_assignment":["purple","red","grey","green","yellow","blue"],"door_color_assignment":["white","black"],"door_generator_assignment":[1,0],"goal":0,"start":3,"action_noise":0.15,"location_history":"[3,4,2,1,3,4,2,1,5,0]","action_history":"[1,1,1,1,1,1,0,1,1]","door_history":"[0,0,0,0,0,0,1,0,0]","location_rts":"[992,544,142,467,73,406,984,862,524]","trial_type":"two-door-navigation","trial_index":14,"time_elapsed":630640,"internal_node_id":"0.0-2.0-12.0"},{"group":"hexagon_tri","room_assignment":["purple","red","grey","green","yellow","blue"],"door_color_assignment":["white","black"],"door_generator_assignment":[1,0],"goal":5,"start":0,"action_noise":0.15,"location_history":"[0,1,5]","action_history":"[1,0]","door_history":"[0,1]","location_rts":"[3968,894]","trial_type":"two-door-navigation","trial_index":15,"time_elapsed":641052,"internal_node_id":"0.0-2.0-13.0"},{"group":"hexagon_tri","room_assignment":["purple","red","grey","green","yellow","blue"],"door_color_assignment":["white","black"],"door_generator_assignment":[1,0],"goal":1,"start":5,"action_noise":0.15,"location_history":"[5,0,1]","action_history":"[1,1]","door_history":"[0,0]","location_rts":"[2656,741]","trial_type":"two-door-navigation","trial_index":16,"time_elapsed":649996,"internal_node_id":"0.0-2.0-14.0"},{"group":"hexagon_tri","room_assignment":["purple","red","grey","green","yellow","blue"],"door_color_assignment":["white","black"],"door_generator_assignment":[1,0],"goal":5,"start":1,"action_noise":0.15,"location_history":"[1,5]","action_history":"[1]","door_history":"[0]","location_rts":"[5946]","trial_type":"two-door-navigation","trial_index":17,"time_elapsed":660470,"internal_node_id":"0.0-2.0-15.0"},{"group":"hexagon_tri","room_assignment":["purple","red","grey","green","yellow","blue"],"door_color_assignment":["white","black"],"door_generator_assignment":[1,0],"goal":3,"start":5,"action_noise":0.15,"location_history":"[5,4,2,3]","action_history":"[0,0,1]","door_history":"[1,1,0]","location_rts":"[2449,755,2149]","trial_type":"two-door-navigation","trial_index":18,"time_elapsed":672399,"internal_node_id":"0.0-2.0-16.0"},{"group":"hexagon_tri","room_assignment":["purple","red","grey","green","yellow","blue"],"door_color_assignment":["white","black"],"door_generator_assignment":[1,0],"goal":2,"start":3,"action_noise":0.15,"location_history":"[3,4,2]","action_history":"[0,0]","door_history":"[1,1]","location_rts":"[708,665]","trial_type":"two-door-navigation","trial_index":19,"time_elapsed":679316,"internal_node_id":"0.0-2.0-17.0"},{"group":"hexagon_tri","room_assignment":["purple","red","grey","green","yellow","blue"],"door_color_assignment":["white","black"],"door_generator_assignment":[1,0],"goal":1,"start":2,"action_noise":0.15,"location_history":"[2,3,2,1]","action_history":"[1,0,1]","door_history":"[0,1,0]","location_rts":"[577,133,657]","trial_type":"two-door-navigation","trial_index":20,"time_elapsed":687258,"internal_node_id":"0.0-2.0-18.0"},{"group":"hexagon_tri","room_assignment":["purple","red","grey","green","yellow","blue"],"door_color_assignment":["white","black"],"door_generator_assignment":[1,0],"goal":4,"start":1,"action_noise":0.15,"location_history":"[1,3,4]","action_history":"[1,0]","door_history":"[0,1]","location_rts":"[14119,187]","trial_type":"two-door-navigation","trial_index":21,"time_elapsed":707110,"internal_node_id":"0.0-2.0-19.0"},{"group":"hexagon_tri","room_assignment":["purple","red","grey","green","yellow","blue"],"door_color_assignment":["white","black"],"door_generator_assignment":[1,0],"goal":0,"start":4,"action_noise":0.15,"location_history":"[4,0]","action_history":"[0]","door_history":"[1]","location_rts":"[1898]","trial_type":"two-door-navigation","trial_index":22,"time_elapsed":713533,"internal_node_id":"0.0-2.0-20.0"},{"group":"hexagon_tri","room_assignment":["purple","red","grey","green","yellow","blue"],"door_color_assignment":["white","black"],"door_generator_assignment":[1,0],"goal":3,"start":0,"action_noise":0.15,"location_history":"[0,1,5,0,5,0,1,5,0,5,0,1,5,0,1,3]","action_history":"[1,1,1,0,1,1,1,1,1,1,0,1,1,1,1]","door_history":"[0,0,0,1,0,0,0,0,0,0,1,0,0,0,0]","location_rts":"[664,574,898,717,1532,633,392,2364,289,93,667,1136,50,1152,613]","trial_type":"two-door-navigation","trial_index":23,"time_elapsed":744150,"internal_node_id":"0.0-2.0-21.0"},{"group":"hexagon_tri","room_assignment":["purple","red","grey","green","yellow","blue"],"door_color_assignment":["white","black"],"door_generator_assignment":[1,0],"goal":1,"start":3,"action_noise":0.15,"location_history":"[3,4,2,3,4,2,3,4,0,5,0,1]","action_history":"[1,1,1,1,1,1,1,1,0,1,1]","door_history":"[0,0,0,0,0,0,0,0,1,0,0]","location_rts":"[10755,124,130,151,145,7600,32912,662,1219,689,1898]","trial_type":"two-door-navigation","trial_index":24,"time_elapsed":815182,"internal_node_id":"0.0-2.0-22.0"},{"group":"hexagon_tri","room_assignment":["purple","red","grey","green","yellow","blue"],"door_color_assignment":["white","black"],"door_generator_assignment":[1,0],"goal":0,"start":1,"action_noise":0.15,"location_history":"[1,5,4,0]","action_history":"[1,1,0]","door_history":"[0,0,1]","location_rts":"[1279,308,582]","trial_type":"two-door-navigation","trial_index":25,"time_elapsed":823914,"internal_node_id":"0.0-2.0-23.0"},{"group":"hexagon_tri","room_assignment":["purple","red","grey","green","yellow","blue"],"door_color_assignment":["white","black"],"door_generator_assignment":[1,0],"goal":2,"start":0,"action_noise":0.15,"location_history":"[0,1,5,4,2]","action_history":"[1,1,0,1]","door_history":"[0,0,1,0]","location_rts":"[1748,976,261,185]","trial_type":"two-door-navigation","trial_index":26,"time_elapsed":834682,"internal_node_id":"0.0-2.0-24.0"},{"group":"hexagon_tri","room_assignment":["purple","red","grey","green","yellow","blue"],"door_color_assignment":["white","black"],"door_generator_assignment":[1,0],"goal":4,"start":2,"action_noise":0.15,"location_history":"[2,1,5,0,5,4]","action_history":"[1,1,1,0,1]","door_history":"[0,0,0,1,0]","location_rts":"[1675,389,117,531,875]","trial_type":"two-door-navigation","trial_index":27,"time_elapsed":846882,"internal_node_id":"0.0-2.0-25.0"},{"group":"hexagon_tri","room_assignment":["purple","red","grey","green","yellow","blue"],"door_color_assignment":["white","black"],"door_generator_assignment":[1,0],"goal":5,"start":4,"action_noise":0.15,"location_history":"[4,0,1,3,2,3,2,3,4,2,1,5]","action_history":"[1,0,0,0,1,0,1,1,1,0,0]","door_history":"[0,1,1,1,0,1,0,0,0,1,1]","location_rts":"[1514,435,709,490,180,826,164,1071,103,437,111]","trial_type":"two-door-navigation","trial_index":28,"time_elapsed":867683,"internal_node_id":"0.0-2.0-26.0"},{"group":"hexagon_tri","room_assignment":["purple","red","grey","green","yellow","blue"],"door_color_assignment":["white","black"],"door_generator_assignment":[1,0],"goal":2,"start":5,"action_noise":0.15,"location_history":"[5,0,1,5,0,1,5,0,1,3,4,2]","action_history":"[1,1,1,1,1,1,0,1,0,1,1]","door_history":"[0,0,0,0,0,0,1,0,1,0,0]","location_rts":"[1611,142,154,175,29,1204,113,1080,594,1063,513]","trial_type":"two-door-navigation","trial_index":29,"time_elapsed":889100,"internal_node_id":"0.0-2.0-27.0"},{"group":"hexagon_tri","room_assignment":["purple","red","grey","green","yellow","blue"],"door_color_assignment":["white","black"],"door_generator_assignment":[1,0],"goal":3,"start":2,"action_noise":0.15,"location_history":"[2,3]","action_history":"[1]","door_history":"[0]","location_rts":"[16907]","trial_type":"two-door-navigation","trial_index":30,"time_elapsed":910529,"internal_node_id":"0.0-2.0-28.0"},{"group":"hexagon_tri","room_assignment":["purple","red","grey","green","yellow","blue"],"door_color_assignment":["white","black"],"door_generator_assignment":[1,0],"goal":1,"start":3,"action_noise":0.15,"location_history":"[3,4,0,1]","action_history":"[1,0,1]","door_history":"[0,1,0]","location_rts":"[731,145,1596]","trial_type":"two-door-navigation","trial_index":31,"time_elapsed":919567,"internal_node_id":"0.0-2.0-29.0"},{"group":"hexagon_tri","room_assignment":["purple","red","grey","green","yellow","blue"],"door_color_assignment":["white","black"],"door_generator_assignment":[1,0],"goal":4,"start":1,"action_noise":0.15,"location_history":"[1,5,4]","action_history":"[1,1]","door_history":"[0,0]","location_rts":"[866,1040]","trial_type":"two-door-navigation","trial_index":32,"time_elapsed":927018,"internal_node_id":"0.0-2.0-30.0"},{"group":"hexagon_tri","room_assignment":["purple","red","grey","green","yellow","blue"],"door_color_assignment":["white","black"],"door_generator_assignment":[1,0],"goal":5,"start":4,"action_noise":0.15,"location_history":"[4,2,3,2,3,2,1,5]","action_history":"[1,1,0,1,1,0,1]","door_history":"[0,0,1,0,0,1,0]","location_rts":"[1451,1090,1405,2084,132713,111,568]","trial_type":"two-door-navigation","trial_index":33,"time_elapsed":1077098,"internal_node_id":"0.0-2.0-31.0"},{"group":"hexagon_tri","room_assignment":["purple","red","grey","green","yellow","blue"],"door_color_assignment":["white","black"],"door_generator_assignment":[1,0],"goal":0,"start":5,"action_noise":0.15,"location_history":"[5,4,2,3,4,0]","action_history":"[1,1,1,1,0]","door_history":"[0,0,0,0,1]","location_rts":"[1525,726,27680,18500,189]","trial_type":"two-door-navigation","trial_index":34,"time_elapsed":1134332,"internal_node_id":"0.0-2.0-32.0"},{"group":"hexagon_tri","room_assignment":["purple","red","grey","green","yellow","blue"],"door_color_assignment":["white","black"],"door_generator_assignment":[1,0],"goal":2,"start":0,"action_noise":0.15,"location_history":"[0,1,3,4,0,5,0,1,5,0,5,0,1,3,4,2]","action_history":"[1,0,1,1,1,1,1,1,1,0,1,1,1,1,1]","door_history":"[0,1,0,0,0,0,0,0,0,1,0,0,0,0,0]","location_rts":"[973,611,583,1012,780,1339,709,889,651,1090,869,765,188,1018,719]","trial_type":"two-door-navigation","trial_index":35,"time_elapsed":1165360,"internal_node_id":"0.0-2.0-33.0"},{"group":"hexagon_tri","room_assignment":["purple","red","grey","green","yellow","blue"],"door_color_assignment":["white","black"],"door_generator_assignment":[1,0],"goal":0,"start":2,"action_noise":0.15,"location_history":"[2,3,4,0]","action_history":"[1,1,1]","door_history":"[0,0,0]","location_rts":"[1392,466,64]","trial_type":"two-door-navigation","trial_index":36,"time_elapsed":1173846,"internal_node_id":"0.0-2.0-34.0"},{"group":"hexagon_tri","room_assignment":["purple","red","grey","green","yellow","blue"],"door_color_assignment":["white","black"],"door_generator_assignment":[1,0],"goal":5,"start":0,"action_noise":0.15,"location_history":"[0,5]","action_history":"[1]","door_history":"[0]","location_rts":"[1824]","trial_type":"two-door-navigation","trial_index":37,"time_elapsed":1180198,"internal_node_id":"0.0-2.0-35.0"},{"group":"hexagon_tri","room_assignment":["purple","red","grey","green","yellow","blue"],"door_color_assignment":["white","black"],"door_generator_assignment":[1,0],"goal":1,"start":5,"action_noise":0.15,"location_history":"[5,0,1]","action_history":"[1,1]","door_history":"[0,0]","location_rts":"[1542,203]","trial_type":"two-door-navigation","trial_index":38,"time_elapsed":1187491,"internal_node_id":"0.0-2.0-36.0"},{"group":"hexagon_tri","room_assignment":["purple","red","grey","green","yellow","blue"],"door_color_assignment":["white","black"],"door_generator_assignment":[1,0],"goal":4,"start":1,"action_noise":0.15,"location_history":"[1,5,0,1,5,4]","action_history":"[1,1,1,1,0]","door_history":"[0,0,0,0,1]","location_rts":"[2266,73,1477,1083,342]","trial_type":"two-door-navigation","trial_index":39,"time_elapsed":1201347,"internal_node_id":"0.0-2.0-37.0"},{"group":"hexagon_tri","room_assignment":["purple","red","grey","green","yellow","blue"],"door_color_assignment":["white","black"],"door_generator_assignment":[1,0],"goal":3,"start":4,"action_noise":0.15,"location_history":"[4,2,3]","action_history":"[1,1]","door_history":"[0,0]","location_rts":"[1716,958]","trial_type":"two-door-navigation","trial_index":40,"time_elapsed":1209568,"internal_node_id":"0.0-2.0-38.0"},{"group":"hexagon_tri","room_assignment":["purple","red","grey","green","yellow","blue"],"door_color_assignment":["white","black"],"door_generator_assignment":[1,0],"goal":5,"start":3,"action_noise":0.15,"location_history":"[3,2,1,5]","action_history":"[1,0,1]","door_history":"[0,1,0]","location_rts":"[6026,509,99]","trial_type":"two-door-navigation","trial_index":41,"time_elapsed":1222763,"internal_node_id":"0.0-2.0-39.0"},{"group":"hexagon_tri","room_assignment":["purple","red","grey","green","yellow","blue"],"door_color_assignment":["white","black"],"door_generator_assignment":[1,0],"goal":1,"start":5,"action_noise":0.15,"location_history":"[5,0,1]","action_history":"[1,1]","door_history":"[0,0]","location_rts":"[794,2299]","trial_type":"two-door-navigation","trial_index":42,"time_elapsed":1231400,"internal_node_id":"0.0-2.0-40.0"},{"group":"hexagon_tri","room_assignment":["purple","red","grey","green","yellow","blue"],"door_color_assignment":["white","black"],"door_generator_assignment":[1,0],"goal":2,"start":1,"action_noise":0.15,"location_history":"[1,5,0,5,0,1,5,0,1,5,0,5,4,2]","action_history":"[1,1,0,1,1,1,1,1,1,1,0,1,1]","door_history":"[0,0,1,0,0,0,0,0,0,0,1,0,0]","location_rts":"[737,1737,1615,715,69,2597,624,183,2062,1209,123,396,230]","trial_type":"two-door-navigation","trial_index":43,"time_elapsed":1260480,"internal_node_id":"0.0-2.0-41.0"},{"group":"hexagon_tri","room_assignment":["purple","red","grey","green","yellow","blue"],"door_color_assignment":["white","black"],"door_generator_assignment":[1,0],"goal":4,"start":2,"action_noise":0.15,"location_history":"[2,1,5,0,1,5,0,1,5,0,1,5,0,5,4]","action_history":"[1,1,1,1,1,1,1,1,1,1,1,0,1,0]","door_history":"[0,0,0,0,0,0,0,0,0,0,0,1,0,1]","location_rts":"[760,4170,1906,236,98,2,1821,30,260,364,228,477,30,377]","trial_type":"two-door-navigation","trial_index":44,"time_elapsed":1289031,"internal_node_id":"0.0-2.0-42.0"},{"group":"hexagon_tri","room_assignment":["purple","red","grey","green","yellow","blue"],"door_color_assignment":["white","black"],"door_generator_assignment":[1,0],"goal":0,"start":4,"action_noise":0.15,"location_history":"[4,2,1,3,4,2,3,4,0]","action_history":"[1,0,0,1,1,1,1,0]","door_history":"[0,1,1,0,0,0,0,1]","location_rts":"[869,1021,735,449,1352,301,421,537]","trial_type":"two-door-navigation","trial_index":45,"time_elapsed":1306395,"internal_node_id":"0.0-2.0-43.0"},{"group":"hexagon_tri","room_assignment":["purple","red","grey","green","yellow","blue"],"door_color_assignment":["white","black"],"door_generator_assignment":[1,0],"goal":3,"start":0,"action_noise":0.15,"location_history":"[0,1,5,0,1,5,0,1,5,0,1,5,0,5,4,0,5,0,1,5,0,1,3]","action_history":"[1,1,1,1,1,1,1,1,1,1,0,1,0,0,0,0,1,1,1,1,1,1]","door_history":"[0,0,0,0,0,0,0,0,0,0,1,0,1,1,1,1,0,0,0,0,0,0]","location_rts":"[851,130,278,1446,122,234,750,50,362,3285,786,2195,7,187,601,634,1265,845,2287,85,1437,531]","trial_type":"two-door-navigation","trial_index":46,"time_elapsed":1350732,"internal_node_id":"0.0-2.0-44.0"},{"group":"hexagon_tri","room_assignment":["purple","red","grey","green","yellow","blue"],"door_color_assignment":["white","black"],"door_generator_assignment":[1,0],"goal":0,"start":3,"action_noise":0.15,"location_history":"[3,4,2,3,4,0]","action_history":"[1,1,1,1,1]","door_history":"[0,0,0,0,0]","location_rts":"[715,604,1561,318,1142]","trial_type":"two-door-navigation","trial_index":47,"time_elapsed":1363678,"internal_node_id":"0.0-2.0-45.0"},{"group":"hexagon_tri","room_assignment":["purple","red","grey","green","yellow","blue"],"door_color_assignment":["white","black"],"door_generator_assignment":[1,0],"goal":4,"start":0,"action_noise":0.15,"location_history":"[0,1,5,0,1,3,4]","action_history":"[1,1,0,1,1,1]","door_history":"[0,0,1,0,0,0]","location_rts":"[10877,1744,917,2307,576,307]","trial_type":"two-door-navigation","trial_index":48,"time_elapsed":1390034,"internal_node_id":"0.0-2.0-46.0"},{"group":"hexagon_tri","room_assignment":["purple","red","grey","green","yellow","blue"],"door_color_assignment":["white","black"],"door_generator_assignment":[1,0],"goal":5,"start":4,"action_noise":0.15,"location_history":"[4,2,3,4,2,1,5]","action_history":"[1,1,1,1,0,0]","door_history":"[0,0,0,0,1,1]","location_rts":"[1132,1146,708,874,5135,135]","trial_type":"two-door-navigation","trial_index":49,"time_elapsed":1408806,"internal_node_id":"0.0-2.0-47.0"},{"group":"hexagon_tri","room_assignment":["purple","red","grey","green","yellow","blue"],"door_color_assignment":["white","black"],"door_generator_assignment":[1,0],"goal":2,"start":5,"action_noise":0.15,"location_history":"[5,4,0,5,0,1,5,0,1,3,2]","action_history":"[0,0,0,1,1,1,1,1,1,1]","door_history":"[1,1,1,0,0,0,0,0,0,0]","location_rts":"[877,609,1511,3026,714,1101,989,81,906,640]","trial_type":"two-door-navigation","trial_index":50,"time_elapsed":1432976,"internal_node_id":"0.0-2.0-48.0"},{"group":"hexagon_tri","room_assignment":["purple","red","grey","green","yellow","blue"],"door_color_assignment":["white","black"],"door_generator_assignment":[1,0],"goal":1,"start":2,"action_noise":0.15,"location_history":"[2,1]","action_history":"[0]","door_history":"[1]","location_rts":"[1145]","trial_type":"two-door-navigation","trial_index":51,"time_elapsed":1438644,"internal_node_id":"0.0-2.0-49.0"},{"view_history":"[{\"page_index\":0,\"viewing_time\":3026}]","rt":3026,"trial_type":"instructions","trial_index":52,"time_elapsed":1442671,"internal_node_id":"0.0-3.0"},{"view_history":"[{\"page_index\":0,\"viewing_time\":1460},{\"page_index\":1,\"viewing_time\":1550}]","rt":3010,"trial_type":"instructions","trial_index":53,"time_elapsed":1446683,"internal_node_id":"0.0-4.0"},{"group":"hexagon_bi","fractal_assignment":["../images/org_blu.png","../images/gry_blk.png","../images/ylw_slt.png","../images/blu_wht.png","../images/pnk_blu.png","../images/cyn_red.png"],"mutagen_generator_assignment":[1,0],"goal":2,"start":1,"action_noise":0.15,"location_history":"[1,0,1,0,1,0,1,2]","action_history":"[1,1,1,0,1,1,0]","mutagen_history":"[0,0,0,1,0,0,1]","location_rts":"[12909,330,526,228,523,212,167]","trial_type":"fractal-mutation","trial_index":54,"time_elapsed":1472333,"internal_node_id":"0.0-5.0-0.0"},{"group":"hexagon_bi","fractal_assignment":["../images/org_blu.png","../images/gry_blk.png","../images/ylw_slt.png","../images/blu_wht.png","../images/pnk_blu.png","../images/cyn_red.png"],"mutagen_generator_assignment":[1,0],"goal":0,"start":2,"action_noise":0.15,"location_history":"[2,3,2,3,2,1,0]","action_history":"[1,0,1,1,0,1]","mutagen_history":"[0,1,0,0,1,0]","location_rts":"[205,522,575,187,743,272]","trial_type":"fractal-mutation","trial_index":55,"time_elapsed":1484559,"internal_node_id":"0.0-5.0-1.0"},{"group":"hexagon_bi","fractal_assignment":["../images/org_blu.png","../images/gry_blk.png","../images/ylw_slt.png","../images/blu_wht.png","../images/pnk_blu.png","../images/cyn_red.png"],"mutagen_generator_assignment":[1,0],"goal":5,"start":0,"action_noise":0.15,"location_history":"[0,5]","action_history":"[0]","mutagen_history":"[1]","location_rts":"[247]","trial_type":"fractal-mutation","trial_index":56,"time_elapsed":1489353,"internal_node_id":"0.0-5.0-2.0"},{"group":"hexagon_bi","fractal_assignment":["../images/org_blu.png","../images/gry_blk.png","../images/ylw_slt.png","../images/blu_wht.png","../images/pnk_blu.png","../images/cyn_red.png"],"mutagen_generator_assignment":[1,0],"goal":1,"start":5,"action_noise":0.15,"location_history":"[5,4,3,2,3,4,5,4,3,4,5,0,1]","action_history":"[1,0,1,1,0,1,1,0,0,0,0,1]","mutagen_history":"[0,1,0,0,1,0,0,1,1,1,1,0]","location_rts":"[820,441,231,100,517,370,34,338,501,463,58,313]","trial_type":"fractal-mutation","trial_index":57,"time_elapsed":1509427,"internal_node_id":"0.0-5.0-3.0"},{"group":"hexagon_bi","fractal_assignment":["../images/org_blu.png","../images/gry_blk.png","../images/ylw_slt.png","../images/blu_wht.png","../images/pnk_blu.png","../images/cyn_red.png"],"mutagen_generator_assignment":[1,0],"goal":3,"start":1,"action_noise":0.15,"location_history":"[1,0,5,4,3]","action_history":"[1,0,1,0]","mutagen_history":"[0,1,0,1]","location_rts":"[3086,283,3936,376]","trial_type":"fractal-mutation","trial_index":58,"time_elapsed":1524739,"internal_node_id":"0.0-5.0-4.0"},{"group":"hexagon_bi","fractal_assignment":["../images/org_blu.png","../images/gry_blk.png","../images/ylw_slt.png","../images/blu_wht.png","../images/pnk_blu.png","../images/cyn_red.png"],"mutagen_generator_assignment":[1,0],"goal":5,"start":3,"action_noise":0.15,"location_history":"[3,2,1,0,5]","action_history":"[1,0,1,0]","mutagen_history":"[0,1,0,1]","location_rts":"[279,87,1231,182]","trial_type":"fractal-mutation","trial_index":59,"time_elapsed":1534153,"internal_node_id":"0.0-5.0-5.0"},{"group":"hexagon_bi","fractal_assignment":["../images/org_blu.png","../images/gry_blk.png","../images/ylw_slt.png","../images/blu_wht.png","../images/pnk_blu.png","../images/cyn_red.png"],"mutagen_generator_assignment":[1,0],"goal":4,"start":5,"action_noise":0.15,"location_history":"[5,4]","action_history":"[0]","mutagen_history":"[1]","location_rts":"[178]","trial_type":"fractal-mutation","trial_index":60,"time_elapsed":1538869,"internal_node_id":"0.0-5.0-6.0"},{"group":"hexagon_bi","fractal_assignment":["../images/org_blu.png","../images/gry_blk.png","../images/ylw_slt.png","../images/blu_wht.png","../images/pnk_blu.png","../images/cyn_red.png"],"mutagen_generator_assignment":[1,0],"goal":0,"start":4,"action_noise":0.15,"location_history":"[4,5,4,3,4,5,0]","action_history":"[1,1,1,0,1,0]","mutagen_history":"[0,0,0,1,0,1]","location_rts":"[6966,162,115,214,171,416]","trial_type":"fractal-mutation","trial_index":61,"time_elapsed":1556595,"internal_node_id":"0.0-5.0-7.0"},{"group":"hexagon_bi","fractal_assignment":["../images/org_blu.png","../images/gry_blk.png","../images/ylw_slt.png","../images/blu_wht.png","../images/pnk_blu.png","../images/cyn_red.png"],"mutagen_generator_assignment":[1,0],"goal":2,"start":0,"action_noise":0.15,"location_history":"[0,1,2]","action_history":"[0,1]","mutagen_history":"[1,0]","location_rts":"[180,274]","trial_type":"fractal-mutation","trial_index":62,"time_elapsed":1562617,"internal_node_id":"0.0-5.0-8.0"},{"group":"hexagon_bi","fractal_assignment":["../images/org_blu.png","../images/gry_blk.png","../images/ylw_slt.png","../images/blu_wht.png","../images/pnk_blu.png","../images/cyn_red.png"],"mutagen_generator_assignment":[1,0],"goal":4,"start":2,"action_noise":0.15,"location_history":"[2,1,2,3,4]","action_history":"[0,1,1,0]","mutagen_history":"[1,0,0,1]","location_rts":"[4308,458,299,74]","trial_type":"fractal-mutation","trial_index":63,"time_elapsed":1575399,"internal_node_id":"0.0-5.0-9.0"},{"group":"hexagon_bi","fractal_assignment":["../images/org_blu.png","../images/gry_blk.png","../images/ylw_slt.png","../images/blu_wht.png","../images/pnk_blu.png","../images/cyn_red.png"],"mutagen_generator_assignment":[1,0],"goal":2,"start":4,"action_noise":0.15,"location_history":"[4,3,4,5,0,5,4,3,2]","action_history":"[0,1,0,0,0,1,0,1]","mutagen_history":"[1,0,1,1,1,0,1,0]","location_rts":"[1126,72,405,385,373,224,4,70]","trial_type":"fractal-mutation","trial_index":64,"time_elapsed":1589827,"internal_node_id":"0.0-5.0-10.0"},{"group":"hexagon_bi","fractal_assignment":["../images/org_blu.png","../images/gry_blk.png","../images/ylw_slt.png","../images/blu_wht.png","../images/pnk_blu.png","../images/cyn_red.png"],"mutagen_generator_assignment":[1,0],"goal":3,"start":2,"action_noise":0.15,"location_history":"[2,1,2,1,0,5,0,5,4,3]","action_history":"[0,0,0,1,1,0,0,1,0]","mutagen_history":"[1,1,1,0,0,1,1,0,1]","location_rts":"[2837,24,29,10,216,103,225,45,9]","trial_type":"fractal-mutation","trial_index":65,"time_elapsed":1606137,"internal_node_id":"0.0-5.0-11.0"},{"group":"hexagon_bi","fractal_assignment":["../images/org_blu.png","../images/gry_blk.png","../images/ylw_slt.png","../images/blu_wht.png","../images/pnk_blu.png","../images/cyn_red.png"],"mutagen_generator_assignment":[1,0],"goal":0,"start":3,"action_noise":0.15,"location_history":"[3,2,3,2,1,2,3,4,3,2,1,0]","action_history":"[1,1,1,0,0,0,0,0,1,0,1]","mutagen_history":"[0,0,0,1,1,1,1,1,0,1,0]","location_rts":"[26390,78,405,135463,277,361,169,203,436,671,432]","trial_type":"fractal-mutation","trial_index":66,"time_elapsed":1785872,"internal_node_id":"0.0-5.0-12.0"},{"group":"hexagon_bi","fractal_assignment":["../images/org_blu.png","../images/gry_blk.png","../images/ylw_slt.png","../images/blu_wht.png","../images/pnk_blu.png","../images/cyn_red.png"],"mutagen_generator_assignment":[1,0],"goal":5,"start":0,"action_noise":0.15,"location_history":"[0,5]","action_history":"[1]","mutagen_history":"[0]","location_rts":"[609]","trial_type":"fractal-mutation","trial_index":67,"time_elapsed":1791019,"internal_node_id":"0.0-5.0-13.0"},{"group":"hexagon_bi","fractal_assignment":["../images/org_blu.png","../images/gry_blk.png","../images/ylw_slt.png","../images/blu_wht.png","../images/pnk_blu.png","../images/cyn_red.png"],"mutagen_generator_assignment":[1,0],"goal":1,"start":5,"action_noise":0.15,"location_history":"[5,0,5,0,5,0,5,0,5,4,3,4,5,0,1]","action_history":"[0,0,0,0,1,0,0,0,1,0,0,1,1,0]","mutagen_history":"[1,1,1,1,0,1,1,1,0,1,1,0,0,1]","location_rts":"[2216,1266,14438,4,178,232,246,70,260,589,1687,292,321,649]","trial_type":"fractal-mutation","trial_index":68,"time_elapsed":1831442,"internal_node_id":"0.0-5.0-14.0"},{"group":"hexagon_bi","fractal_assignment":["../images/org_blu.png","../images/gry_blk.png","../images/ylw_slt.png","../images/blu_wht.png","../images/pnk_blu.png","../images/cyn_red.png"],"mutagen_generator_assignment":[1,0],"goal":5,"start":1,"action_noise":0.15,"location_history":"[1,2,1,0,5]","action_history":"[0,0,1,0]","mutagen_history":"[1,1,0,1]","location_rts":"[3595,391,391,32318]","trial_type":"fractal-mutation","trial_index":69,"time_elapsed":1875778,"internal_node_id":"0.0-5.0-15.0"},{"group":"hexagon_bi","fractal_assignment":["../images/org_blu.png","../images/gry_blk.png","../images/ylw_slt.png","../images/blu_wht.png","../images/pnk_blu.png","../images/cyn_red.png"],"mutagen_generator_assignment":[1,0],"goal":3,"start":5,"action_noise":0.15,"location_history":"[5,4,5,0,5,4,3]","action_history":"[0,0,0,0,0,0]","mutagen_history":"[1,1,1,1,1,1]","location_rts":"[816,405,465,24,276,293]","trial_type":"fractal-mutation","trial_index":70,"time_elapsed":1887770,"internal_node_id":"0.0-5.0-16.0"},{"group":"hexagon_bi","fractal_assignment":["../images/org_blu.png","../images/gry_blk.png","../images/ylw_slt.png","../images/blu_wht.png","../images/pnk_blu.png","../images/cyn_red.png"],"mutagen_generator_assignment":[1,0],"goal":2,"start":3,"action_noise":0.15,"location_history":"[3,4,3,4,3,2]","action_history":"[0,0,0,0,1]","mutagen_history":"[1,1,1,1,0]","location_rts":"[402,327,1101,422,1020]","trial_type":"fractal-mutation","trial_index":71,"time_elapsed":1899712,"internal_node_id":"0.0-5.0-17.0"},{"group":"hexagon_bi","fractal_assignment":["../images/org_blu.png","../images/gry_blk.png","../images/ylw_slt.png","../images/blu_wht.png","../images/pnk_blu.png","../images/cyn_red.png"],"mutagen_generator_assignment":[1,0],"goal":1,"start":2,"action_noise":0.15,"location_history":"[2,1]","action_history":"[0]","mutagen_history":"[1]","location_rts":"[383]","trial_type":"fractal-mutation","trial_index":72,"time_elapsed":1904635,"internal_node_id":"0.0-5.0-18.0"},{"group":"hexagon_bi","fractal_assignment":["../images/org_blu.png","../images/gry_blk.png","../images/ylw_slt.png","../images/blu_wht.png","../images/pnk_blu.png","../images/cyn_red.png"],"mutagen_generator_assignment":[1,0],"goal":4,"start":1,"action_noise":0.15,"location_history":"[1,2,1,0,5,0,5,0,5,0,5,0,5,0,5,4]","action_history":"[0,0,0,0,0,0,0,0,0,0,0,0,0,0,1]","mutagen_history":"[1,1,1,1,1,1,1,1,1,1,1,1,1,1,0]","location_rts":"[1124,317,388,110,396,297,5870,430,662,276,1459,462,20,143,825]","trial_type":"fractal-mutation","trial_index":73,"time_elapsed":1936433,"internal_node_id":"0.0-5.0-19.0"},{"group":"hexagon_bi","fractal_assignment":["../images/org_blu.png","../images/gry_blk.png","../images/ylw_slt.png","../images/blu_wht.png","../images/pnk_blu.png","../images/cyn_red.png"],"mutagen_generator_assignment":[1,0],"goal":0,"start":4,"action_noise":0.15,"location_history":"[4,5,4,3,2,1,2,3,4,5,4,3,2,3,2,1,0]","action_history":"[1,1,0,1,0,1,1,0,1,1,0,1,1,1,1,1]","mutagen_history":"[0,0,1,0,1,0,0,1,0,0,1,0,0,0,0,0]","location_rts":"[1276,878,293,125,833,970,559,38,808,327,248,2556,408,73,40,112]","trial_type":"fractal-mutation","trial_index":74,"time_elapsed":1965974,"internal_node_id":"0.0-5.0-20.0"},{"group":"hexagon_bi","fractal_assignment":["../images/org_blu.png","../images/gry_blk.png","../images/ylw_slt.png","../images/blu_wht.png","../images/pnk_blu.png","../images/cyn_red.png"],"mutagen_generator_assignment":[1,0],"goal":3,"start":0,"action_noise":0.15,"location_history":"[0,5,0,1,0,1,2,1,2,1,0,5,0,5,0,5,0,5,0,5,0,1,2,1,2,3]","action_history":"[0,0,1,1,1,1,0,0,0,0,0,0,0,0,0,0,0,0,0,0,0,0,0,0,1]","mutagen_history":"[1,1,0,0,0,0,1,1,1,1,1,1,1,1,1,1,1,1,1,1,1,1,1,1,0]","location_rts":"[1971,397,395,12,18,412,584,633,310,499,234,239,145,278,237,140,249,304,273,2983,266,487,111,332,508]","trial_type":"fractal-mutation","trial_index":75,"time_elapsed":2007303,"internal_node_id":"0.0-5.0-21.0"},{"group":"hexagon_bi","fractal_assignment":["../images/org_blu.png","../images/gry_blk.png","../images/ylw_slt.png","../images/blu_wht.png","../images/pnk_blu.png","../images/cyn_red.png"],"mutagen_generator_assignment":[1,0],"goal":1,"start":3,"action_noise":0.15,"location_history":"[3,2,3,4,3,4,3,4,5,0,1]","action_history":"[1,1,1,0,0,0,0,0,0,0]","mutagen_history":"[0,0,0,1,1,1,1,1,1,1]","location_rts":"[229,205,158,330,87,156,98,173,151,68]","trial_type":"fractal-mutation","trial_index":76,"time_elapsed":2022783,"internal_node_id":"0.0-5.0-22.0"},{"group":"hexagon_bi","fractal_assignment":["../images/org_blu.png","../images/gry_blk.png","../images/ylw_slt.png","../images/blu_wht.png","../images/pnk_blu.png","../images/cyn_red.png"],"mutagen_generator_assignment":[1,0],"goal":0,"start":1,"action_noise":0.15,"location_history":"[1,0]","action_history":"[1]","mutagen_history":"[0]","location_rts":"[162]","trial_type":"fractal-mutation","trial_index":77,"time_elapsed":2027477,"internal_node_id":"0.0-5.0-23.0"},{"group":"hexagon_bi","fractal_assignment":["../images/org_blu.png","../images/gry_blk.png","../images/ylw_slt.png","../images/blu_wht.png","../images/pnk_blu.png","../images/cyn_red.png"],"mutagen_generator_assignment":[1,0],"goal":2,"start":0,"action_noise":0.15,"location_history":"[0,5,0,5,0,5,0,5,4,3,4,3,2]","action_history":"[0,0,0,0,0,0,0,0,0,0,0,0]","mutagen_history":"[1,1,1,1,1,1,1,1,1,1,1,1]","location_rts":"[975,32,129,179,83,19,3,25,465,96,287,165]","trial_type":"fractal-mutation","trial_index":78,"time_elapsed":2045873,"internal_node_id":"0.0-5.0-24.0"},{"group":"hexagon_bi","fractal_assignment":["../images/org_blu.png","../images/gry_blk.png","../images/ylw_slt.png","../images/blu_wht.png","../images/pnk_blu.png","../images/cyn_red.png"],"mutagen_generator_assignment":[1,0],"goal":4,"start":2,"action_noise":0.15,"location_history":"[2,3,2,3,2,3,2,1,2,1,0,1,2,1,0,5,0,1,2,3,4]","action_history":"[1,1,1,1,1,1,1,0,0,0,0,0,0,1,0,0,1,1,1,1]","mutagen_history":"[0,0,0,0,0,0,0,1,1,1,1,1,1,0,1,1,0,0,0,0]","location_rts":"[7,5,163,45,267,1045,270,1537,15,246,215,165,202,1483,756,132,728,180,98,143]","trial_type":"fractal-mutation","trial_index":79,"time_elapsed":2077678,"internal_node_id":"0.0-5.0-25.0"},{"group":"hexagon_bi","fractal_assignment":["../images/org_blu.png","../images/gry_blk.png","../images/ylw_slt.png","../images/blu_wht.png","../images/pnk_blu.png","../images/cyn_red.png"],"mutagen_generator_assignment":[1,0],"goal":5,"start":4,"action_noise":0.15,"location_history":"[4,5]","action_history":"[0]","mutagen_history":"[1]","location_rts":"[636]","trial_type":"fractal-mutation","trial_index":80,"time_elapsed":2082854,"internal_node_id":"0.0-5.0-26.0"},{"group":"hexagon_bi","fractal_assignment":["../images/org_blu.png","../images/gry_blk.png","../images/ylw_slt.png","../images/blu_wht.png","../images/pnk_blu.png","../images/cyn_red.png"],"mutagen_generator_assignment":[1,0],"goal":2,"start":5,"action_noise":0.15,"location_history":"[5,4,5,4,3,2]","action_history":"[1,1,1,1,1]","mutagen_history":"[0,0,0,0,0]","location_rts":"[314,248,272,39,65]","trial_type":"fractal-mutation","trial_index":81,"time_elapsed":2092448,"internal_node_id":"0.0-5.0-27.0"},{"group":"hexagon_bi","fractal_assignment":["../images/org_blu.png","../images/gry_blk.png","../images/ylw_slt.png","../images/blu_wht.png","../images/pnk_blu.png","../images/cyn_red.png"],"mutagen_generator_assignment":[1,0],"goal":3,"start":2,"action_noise":0.15,"location_history":"[2,3]","action_history":"[1]","mutagen_history":"[0]","location_rts":"[2332]","trial_type":"fractal-mutation","trial_index":82,"time_elapsed":2099310,"internal_node_id":"0.0-5.0-28.0"},{"group":"hexagon_bi","fractal_assignment":["../images/org_blu.png","../images/gry_blk.png","../images/ylw_slt.png","../images/blu_wht.png","../images/pnk_blu.png","../images/cyn_red.png"],"mutagen_generator_assignment":[1,0],"goal":1,"start":3,"action_noise":0.15,"location_history":"[3,2,3,2,3,2,3,4,5,0,5,0,1]","action_history":"[1,1,1,1,1,1,0,0,0,0,0,0]","mutagen_history":"[0,0,0,0,0,0,1,1,1,1,1,1]","location_rts":"[2296,826,25,27,123,90,1457,206,67,29,45,297]","trial_type":"fractal-mutation","trial_index":83,"time_elapsed":2120687,"internal_node_id":"0.0-5.0-29.0"},{"group":"hexagon_bi","fractal_assignment":["../images/org_blu.png","../images/gry_blk.png","../images/ylw_slt.png","../images/blu_wht.png","../images/pnk_blu.png","../images/cyn_red.png"],"mutagen_generator_assignment":[1,0],"goal":4,"start":1,"action_noise":0.15,"location_history":"[1,0,1,0,1,0,5,0,1,2,1,2,1,0,5,4]","action_history":"[1,1,1,1,1,0,0,0,0,0,0,0,1,1,1]","mutagen_history":"[0,0,0,0,0,1,1,1,1,1,1,1,0,0,0]","location_rts":"[653,14,13,207,19,1721,270,86,215,31,117,11,1747,87,112]","trial_type":"fractal-mutation","trial_index":84,"time_elapsed":2144947,"internal_node_id":"0.0-5.0-30.0"},{"group":"hexagon_bi","fractal_assignment":["../images/org_blu.png","../images/gry_blk.png","../images/ylw_slt.png","../images/blu_wht.png","../images/pnk_blu.png","../images/cyn_red.png"],"mutagen_generator_assignment":[1,0],"goal":5,"start":4,"action_noise":0.15,"location_history":"[4,3,4,3,4,3,4,3,2,1,0,1,0,1,2,1,2,3,4,3,4,5]","action_history":"[0,0,0,0,0,0,0,1,1,1,1,1,1,0,0,0,1,0,0,0,1]","mutagen_history":"[1,1,1,1,1,1,1,0,0,0,0,0,0,1,1,1,0,1,1,1,0]","location_rts":"[1059,135,71,133,14,66,401,868,195,14,137,137,155,1179,340,315,81,348,108,183,71]","trial_type":"fractal-mutation","trial_index":85,"time_elapsed":2176157,"internal_node_id":"0.0-5.0-31.0"},{"group":"hexagon_bi","fractal_assignment":["../images/org_blu.png","../images/gry_blk.png","../images/ylw_slt.png","../images/blu_wht.png","../images/pnk_blu.png","../images/cyn_red.png"],"mutagen_generator_assignment":[1,0],"goal":0,"start":5,"action_noise":0.15,"location_history":"[5,4,5,4,3,4,3,2,1,0]","action_history":"[1,1,1,0,0,0,1,1,1]","mutagen_history":"[0,0,0,1,1,1,0,0,0]","location_rts":"[3066,203,27,95,48,128,162,113,98]","trial_type":"fractal-mutation","trial_index":86,"time_elapsed":2192873,"internal_node_id":"0.0-5.0-32.0"},{"group":"hexagon_bi","fractal_assignment":["../images/org_blu.png","../images/gry_blk.png","../images/ylw_slt.png","../images/blu_wht.png","../images/pnk_blu.png","../images/cyn_red.png"],"mutagen_generator_assignment":[1,0],"goal":2,"start":0,"action_noise":0.15,"location_history":"[0,5,0,5,0,5,4,5,4,5,0,5,0,5,4,5,4,5,0,1,0,1,2]","action_history":"[0,0,0,0,0,1,1,1,1,0,0,0,0,1,1,1,1,0,1,0,1,0]","mutagen_history":"[1,1,1,1,1,0,0,0,0,1,1,1,1,0,0,0,0,1,0,1,0,1]","location_rts":"[42,151,141,968,14,6517,450,92,120,7210,52,83,159,83882,53,145,29,169,122,103,274,154]","trial_type":"fractal-mutation","trial_index":87,"time_elapsed":2319989,"internal_node_id":"0.0-5.0-33.0"},{"group":"hexagon_bi","fractal_assignment":["../images/org_blu.png","../images/gry_blk.png","../images/ylw_slt.png","../images/blu_wht.png","../images/pnk_blu.png","../images/cyn_red.png"],"mutagen_generator_assignment":[1,0],"goal":0,"start":2,"action_noise":0.15,"location_history":"[2,1,0]","action_history":"[0,1]","mutagen_history":"[1,0]","location_rts":"[1258,33]","trial_type":"fractal-mutation","trial_index":88,"time_elapsed":2326857,"internal_node_id":"0.0-5.0-34.0"},{"group":"hexagon_bi","fractal_assignment":["../images/org_blu.png","../images/gry_blk.png","../images/ylw_slt.png","../images/blu_wht.png","../images/pnk_blu.png","../images/cyn_red.png"],"mutagen_generator_assignment":[1,0],"goal":5,"start":0,"action_noise":0.15,"location_history":"[0,5]","action_history":"[1]","mutagen_history":"[0]","location_rts":"[144]","trial_type":"fractal-mutation","trial_index":89,"time_elapsed":2331531,"internal_node_id":"0.0-5.0-35.0"},{"group":"hexagon_bi","fractal_assignment":["../images/org_blu.png","../images/gry_blk.png","../images/ylw_slt.png","../images/blu_wht.png","../images/pnk_blu.png","../images/cyn_red.png"],"mutagen_generator_assignment":[1,0],"goal":1,"start":5,"action_noise":0.15,"location_history":"[5,4,5,4,5,4,3,4,5,4,3,4,3,4,5,4,5,4,3,4,5,4,3,2,1]","action_history":"[1,1,0,1,0,0,0,1,1,0,0,0,0,0,1,1,1,1,0,0,1,0,1,0]","mutagen_history":"[0,0,1,0,1,1,1,0,0,1,1,1,1,1,0,0,0,0,1,1,0,1,0,1]","location_rts":"[1779,166,297,160,189,60,3064,109,148,53,77,564,181,370,144,93,303,429,82,5713,287,162,1755,2551]","trial_type":"fractal-mutation","trial_index":90,"time_elapsed":2378506,"internal_node_id":"0.0-5.0-36.0"},{"group":"hexagon_bi","fractal_assignment":["../images/org_blu.png","../images/gry_blk.png","../images/ylw_slt.png","../images/blu_wht.png","../images/pnk_blu.png","../images/cyn_red.png"],"mutagen_generator_assignment":[1,0],"goal":4,"start":1,"action_noise":0.15,"location_history":"[1,0,1,0,1,2,1,2,3,4]","action_history":"[1,1,1,1,0,0,0,1,0]","mutagen_history":"[0,0,0,0,1,1,1,0,1]","location_rts":"[6643,145,7471,8,198,251,54,58,166]","trial_type":"fractal-mutation","trial_index":91,"time_elapsed":2406266,"internal_node_id":"0.0-5.0-37.0"},{"group":"hexagon_bi","fractal_assignment":["../images/org_blu.png","../images/gry_blk.png","../images/ylw_slt.png","../images/blu_wht.png","../images/pnk_blu.png","../images/cyn_red.png"],"mutagen_generator_assignment":[1,0],"goal":3,"start":4,"action_noise":0.15,"location_history":"[4,5,4,3]","action_history":"[1,1,0]","mutagen_history":"[0,0,1]","location_rts":"[177,126,241]","trial_type":"fractal-mutation","trial_index":92,"time_elapsed":2413407,"internal_node_id":"0.0-5.0-38.0"},{"group":"hexagon_bi","fractal_assignment":["../images/org_blu.png","../images/gry_blk.png","../images/ylw_slt.png","../images/blu_wht.png","../images/pnk_blu.png","../images/cyn_red.png"],"mutagen_generator_assignment":[1,0],"goal":5,"start":3,"action_noise":0.15,"location_history":"[3,4,3,4,5]","action_history":"[0,0,1,0]","mutagen_history":"[1,1,0,1]","location_rts":"[71,177,0,121]","trial_type":"fractal-mutation","trial_index":93,"time_elapsed":2421404,"internal_node_id":"0.0-5.0-39.0"},{"group":"hexagon_bi","fractal_assignment":["../images/org_blu.png","../images/gry_blk.png","../images/ylw_slt.png","../images/blu_wht.png","../images/pnk_blu.png","../images/cyn_red.png"],"mutagen_generator_assignment":[1,0],"goal":1,"start":5,"action_noise":0.15,"location_history":"[5,4,3,4,5,0,1]","action_history":"[0,0,1,1,0,1]","mutagen_history":"[1,1,0,0,1,0]","location_rts":"[32,43,1,208,23,446]","trial_type":"fractal-mutation","trial_index":94,"time_elapsed":2431859,"internal_node_id":"0.0-5.0-40.0"},{"group":"hexagon_bi","fractal_assignment":["../images/org_blu.png","../images/gry_blk.png","../images/ylw_slt.png","../images/blu_wht.png","../images/pnk_blu.png","../images/cyn_red.png"],"mutagen_generator_assignment":[1,0],"goal":2,"start":1,"action_noise":0.15,"location_history":"[1,2]","action_history":"[0]","mutagen_history":"[1]","location_rts":"[243]","trial_type":"fractal-mutation","trial_index":95,"time_elapsed":2436637,"internal_node_id":"0.0-5.0-41.0"},{"group":"hexagon_bi","fractal_assignment":["../images/org_blu.png","../images/gry_blk.png","../images/ylw_slt.png","../images/blu_wht.png","../images/pnk_blu.png","../images/cyn_red.png"],"mutagen_generator_assignment":[1,0],"goal":4,"start":2,"action_noise":0.15,"location_history":"[2,1,2,1,2,1,0,1,2,3,4]","action_history":"[0,0,0,0,0,1,1,1,1,0]","mutagen_history":"[1,1,1,1,1,0,0,0,0,1]","location_rts":"[863,390,258,162,370,355,147,333,287,99]","trial_type":"fractal-mutation","trial_index":96,"time_elapsed":2453754,"internal_node_id":"0.0-5.0-42.0"},{"group":"hexagon_bi","fractal_assignment":["../images/org_blu.png","../images/gry_blk.png","../images/ylw_slt.png","../images/blu_wht.png","../images/pnk_blu.png","../images/cyn_red.png"],"mutagen_generator_assignment":[1,0],"goal":0,"start":4,"action_noise":0.15,"location_history":"[4,3,4,3,2,1,2,1,2,1,2,1,0]","action_history":"[0,0,0,1,0,0,0,0,0,0,0,1]","mutagen_history":"[1,1,1,0,1,1,1,1,1,1,1,0]","location_rts":"[704,179,252,82,685,50,70,198,28,20,42,243]","trial_type":"fractal-mutation","trial_index":97,"time_elapsed":2472204,"internal_node_id":"0.0-5.0-43.0"},{"group":"hexagon_bi","fractal_assignment":["../images/org_blu.png","../images/gry_blk.png","../images/ylw_slt.png","../images/blu_wht.png","../images/pnk_blu.png","../images/cyn_red.png"],"mutagen_generator_assignment":[1,0],"goal":3,"start":0,"action_noise":0.15,"location_history":"[0,1,0,5,0,1,0,5,4,3]","action_history":"[1,1,0,0,0,1,1,1,1]","mutagen_history":"[0,0,1,1,1,0,0,0,0]","location_rts":"[1812,39,55,65,144,14,36,118,49]","trial_type":"fractal-mutation","trial_index":98,"time_elapsed":2487305,"internal_node_id":"0.0-5.0-44.0"},{"group":"hexagon_bi","fractal_assignment":["../images/org_blu.png","../images/gry_blk.png","../images/ylw_slt.png","../images/blu_wht.png","../images/pnk_blu.png","../images/cyn_red.png"],"mutagen_generator_assignment":[1,0],"goal":0,"start":3,"action_noise":0.15,"location_history":"[3,2,1,2,3,4,3,4,3,4,3,2,1,0]","action_history":"[1,1,0,1,1,1,0,0,0,0,1,1,0]","mutagen_history":"[0,0,1,0,0,0,1,1,1,1,0,0,1]","location_rts":"[769,115,168,231,8,137,240,47,149,21,536,294,346]","trial_type":"fractal-mutation","trial_index":99,"time_elapsed":2507265,"internal_node_id":"0.0-5.0-45.0"},{"group":"hexagon_bi","fractal_assignment":["../images/org_blu.png","../images/gry_blk.png","../images/ylw_slt.png","../images/blu_wht.png","../images/pnk_blu.png","../images/cyn_red.png"],"mutagen_generator_assignment":[1,0],"goal":4,"start":0,"action_noise":0.15,"location_history":"[0,1,2,3,2,3,4]","action_history":"[1,0,1,1,1,0]","mutagen_history":"[0,1,0,0,0,1]","location_rts":"[1040,163,216,85,67,140]","trial_type":"fractal-mutation","trial_index":100,"time_elapsed":2518672,"internal_node_id":"0.0-5.0-46.0"},{"group":"hexagon_bi","fractal_assignment":["../images/org_blu.png","../images/gry_blk.png","../images/ylw_slt.png","../images/blu_wht.png","../images/pnk_blu.png","../images/cyn_red.png"],"mutagen_generator_assignment":[1,0],"goal":5,"start":4,"action_noise":0.15,"location_history":"[4,5]","action_history":"[1]","mutagen_history":"[0]","location_rts":"[1263]","trial_type":"fractal-mutation","trial_index":101,"time_elapsed":2524469,"internal_node_id":"0.0-5.0-47.0"},{"group":"hexagon_bi","fractal_assignment":["../images/org_blu.png","../images/gry_blk.png","../images/ylw_slt.png","../images/blu_wht.png","../images/pnk_blu.png","../images/cyn_red.png"],"mutagen_generator_assignment":[1,0],"goal":2,"start":5,"action_noise":0.15,"location_history":"[5,0,5,0,5,0,1,0,1,0,1,2]","action_history":"[0,0,0,0,0,1,1,1,1,1,0]","mutagen_history":"[1,1,1,1,1,0,0,0,0,0,1]","location_rts":"[609,73,150,29,25,47,126,130,64,169,139]","trial_type":"fractal-mutation","trial_index":102,"time_elapsed":2540882,"internal_node_id":"0.0-5.0-48.0"},{"group":"hexagon_bi","fractal_assignment":["../images/org_blu.png","../images/gry_blk.png","../images/ylw_slt.png","../images/blu_wht.png","../images/pnk_blu.png","../images/cyn_red.png"],"mutagen_generator_assignment":[1,0],"goal":1,"start":2,"action_noise":0.15,"location_history":"[2,1]","action_history":"[1]","mutagen_history":"[0]","location_rts":"[92]","trial_type":"fractal-mutation","trial_index":103,"time_elapsed":2545506,"internal_node_id":"0.0-5.0-49.0"},{"view_history":"[{\"page_index\":0,\"viewing_time\":5257}]","rt":5258,"trial_type":"instructions","trial_index":104,"time_elapsed":2551764,"internal_node_id":"0.0-6.0"},{"rt":25446,"responses":"{\"Q0\":\"HOW PATTERNS WERE REMEMBERED?\"}","trial_type":"survey-text","trial_index":105,"time_elapsed":2578217,"internal_node_id":"0.0-7.0-0.0"},{"rt":18342,"responses":"{\"Q0\":\"iF PATTERNS COULD BE RECALLED\"}","trial_type":"survey-text","trial_index":106,"time_elapsed":2597562,"internal_node_id":"0.0-7.0-1.0"},{"rt":13499,"responses":"{}","trial_type":"survey-multi-choice","trial_index":107,"time_elapsed":2612068,"internal_node_id":"0.0-7.0-2.0"},{"rt":36775,"assignments":["../images/org_blu.png","../images/cyn_red.png","../images/pnk_blu.png","../images/blu_wht.png","../images/ylw_slt.png","../images/gry_blk.png"],"trial_type":"drag-drop-on-image","trial_index":108,"time_elapsed":2649848,"internal_node_id":"0.0-7.0-3.0"},{"rt":8577,"responses":"{\"Q0\":\"0\"}","trial_type":"survey-likert","trial_index":109,"time_elapsed":2659432,"internal_node_id":"0.0-7.0-4.0"},{"rt":7084,"responses":"{\"Q0\":\"NOTHING\"}","trial_type":"survey-text","trial_index":110,"time_elapsed":2667518,"internal_node_id":"0.0-7.0-5.0"},{"rt":3567,"responses":"{\"Q0\":\"No\"}","trial_type":"survey-multi-choice","trial_index":111,"time_elapsed":2672088,"internal_node_id":"0.0-7.0-6.0"},{"rt":8207,"responses":"{\"Q0\":\"Did not notice\"}","trial_type":"survey-multi-choice","trial_index":112,"time_elapsed":2681300,"internal_node_id":"0.0-7.0-7.0"},{"rt":3567,"responses":"{\"Q0\":\"\"}","trial_type":"survey-text","trial_index":113,"time_elapsed":2685869,"internal_node_id":"0.0-7.0-8.0"},{"rt":8064,"responses":"{\"Q0\":\"0\"}","trial_type":"survey-likert","trial_index":114,"time_elapsed":2694937,"internal_node_id":"0.0-7.0-9.0"},{"rt":7141,"responses":"{\"Q0\":\"Different structure\"}","trial_type":"survey-multi-choice","trial_index":115,"time_elapsed":2703085,"internal_node_id":"0.0-7.0-10.0"},{"rt":33836,"responses":"{\"Q0\":\"left (white) door = ray, right (black) door = acid\",\"Q1\":\"Not at all confident\"}","trial_type":"survey-multi-choice","trial_index":116,"time_elapsed":2737928,"internal_node_id":"0.0-7.0-11.0"},{"rt":21490,"responses":"{\"Q0\":\"35-45\",\"Q1\":\"Some college\",\"Q2\":\"Female\",\"Q3\":\"White\"}","trial_type":"survey-multi-choice","trial_index":117,"time_elapsed":2760436,"internal_node_id":"0.0-8.0"},{"rt":4600,"responses":"{\"Q0\":\"NONE\"}","trial_type":"survey-text","trial_index":118,"time_elapsed":2766040,"internal_node_id":"0.0-9.0"}]