[{"view_history":"[{\"page_index\":0,\"viewing_time\":2777},{\"page_index\":1,\"viewing_time\":1105153}]","rt":1107933,"trial_type":"instructions","trial_index":0,"time_elapsed":1107935,"internal_node_id":"0.0-0.0"},{"view_history":"[{\"page_index\":0,\"viewing_time\":1443},{\"page_index\":1,\"viewing_time\":1400}]","rt":2845,"trial_type":"instructions","trial_index":1,"time_elapsed":1111782,"internal_node_id":"0.0-1.0"},{"group":"hexagon_bi","room_assignment":["purple","yellow","blue","red","grey","green"],"door_color_assignment":["white","black"],"door_generator_assignment":[0,1],"goal":2,"start":1,"action_noise":0.15,"location_history":"[1,2]","action_history":"[0]","door_history":"[0]","location_rts":"[1499]","trial_type":"two-door-navigation","trial_index":2,"time_elapsed":1117822,"internal_node_id":"0.0-2.0-0.0"},{"group":"hexagon_bi","room_assignment":["purple","yellow","blue","red","grey","green"],"door_color_assignment":["white","black"],"door_generator_assignment":[0,1],"goal":0,"start":2,"action_noise":0.15,"location_history":"[2,1,2,1,2,3,2,1,0]","action_history":"[1,0,0,1,1,1,1,1]","door_history":"[1,0,0,1,1,1,1,1]","location_rts":"[551,353,344,296,348,309,290,302]","trial_type":"two-door-navigation","trial_index":3,"time_elapsed":1132400,"internal_node_id":"0.0-2.0-1.0"},{"group":"hexagon_bi","room_assignment":["purple","yellow","blue","red","grey","green"],"door_color_assignment":["white","black"],"door_generator_assignment":[0,1],"goal":5,"start":0,"action_noise":0.15,"location_history":"[0,5]","action_history":"[0]","door_history":"[0]","location_rts":"[9857]","trial_type":"two-door-navigation","trial_index":4,"time_elapsed":1146788,"internal_node_id":"0.0-2.0-2.0"},{"group":"hexagon_bi","room_assignment":["purple","yellow","blue","red","grey","green"],"door_color_assignment":["white","black"],"door_generator_assignment":[0,1],"goal":1,"start":5,"action_noise":0.15,"location_history":"[5,4,3,4,5,4,3,2,3,4,3,4,5,4,5,4,3,4,3,4,3,4,3,2,1]","action_history":"[1,0,0,1,1,0,0,0,0,0,0,1,1,1,1,0,0,0,0,0,0,0,0,0]","door_history":"[1,0,0,1,1,0,0,0,0,0,0,1,1,1,1,0,0,0,0,0,0,0,0,0]","location_rts":"[445,552,298,462,352,140,294,281,259,331,273,598,350,314,295,237,331,372,371,267,315,104,741,344]","trial_type":"two-door-navigation","trial_index":5,"time_elapsed":1183467,"internal_node_id":"0.0-2.0-3.0"},{"group":"hexagon_bi","room_assignment":["purple","yellow","blue","red","grey","green"],"door_color_assignment":["white","black"],"door_generator_assignment":[0,1],"goal":3,"start":1,"action_noise":0.15,"location_history":"[1,0,1,0,1,2,1,2,3]","action_history":"[1,1,1,1,0,0,0,1]","door_history":"[1,1,1,1,0,0,0,1]","location_rts":"[555,305,353,280,78,225,260,367]","trial_type":"two-door-navigation","trial_index":6,"time_elapsed":1197665,"internal_node_id":"0.0-2.0-4.0"},{"group":"hexagon_bi","room_assignment":["purple","yellow","blue","red","grey","green"],"door_color_assignment":["white","black"],"door_generator_assignment":[0,1],"goal":5,"start":3,"action_noise":0.15,"location_history":"[3,2,1,2,3,2,3,2,3,2,3,2,1,2,1,2,1,2,3,4,3,4,3,4,3,4,5]","action_history":"[1,0,0,0,1,1,1,1,1,1,1,0,1,0,0,0,0,0,0,0,0,0,0,0,0,1]","door_history":"[1,0,0,0,1,1,1,1,1,1,1,0,1,0,0,0,0,0,0,0,0,0,0,0,0,1]","location_rts":"[461,72,290,461,156,440,324,208,16,126,251,158,15589,278,295,268,321,244,293,87,223,236,107,164,43,387]","trial_type":"two-door-navigation","trial_index":7,"time_elapsed":1249794,"internal_node_id":"0.0-2.0-5.0"},{"group":"hexagon_bi","room_assignment":["purple","yellow","blue","red","grey","green"],"door_color_assignment":["white","black"],"door_generator_assignment":[0,1],"goal":4,"start":5,"action_noise":0.15,"location_history":"[5,4]","action_history":"[1]","door_history":"[1]","location_rts":"[419]","trial_type":"two-door-navigation","trial_index":8,"time_elapsed":1254753,"internal_node_id":"0.0-2.0-6.0"},{"group":"hexagon_bi","room_assignment":["purple","yellow","blue","red","grey","green"],"door_color_assignment":["white","black"],"door_generator_assignment":[0,1],"goal":0,"start":4,"action_noise":0.15,"location_history":"[4,3,4,5,4,3,2,3,4,5,4,3,4,3,2,1,2,1,2,3,2,1,2,1,0]","action_history":"[0,1,1,1,0,1,0,0,1,1,0,0,1,1,0,0,0,1,1,1,0,0,0,1]","door_history":"[0,1,1,1,0,1,0,0,1,1,0,0,1,1,0,0,0,1,1,1,0,0,0,1]","location_rts":"[703,241,269,263,520,553,265,290,318,273,165,294,9,288,367,319,267,298,289,310,252,283,253,614]","trial_type":"two-door-navigation","trial_index":9,"time_elapsed":1290674,"internal_node_id":"0.0-2.0-7.0"},{"group":"hexagon_bi","room_assignment":["purple","yellow","blue","red","grey","green"],"door_color_assignment":["white","black"],"door_generator_assignment":[0,1],"goal":2,"start":0,"action_noise":0.15,"location_history":"[0,5,4,5,0,1,0,1,0,5,4,5,0,5,4,5,0,5,4,5,0,5,4,5,4,5,4,3,4,3,4,3,2]","action_history":"[0,1,1,1,1,1,1,1,1,1,1,0,0,1,0,0,0,1,1,0,0,1,1,1,1,1,0,0,0,0,0,0]","door_history":"[0,1,1,1,1,1,1,1,1,1,1,0,0,1,0,0,0,1,1,0,0,1,1,1,1,1,0,0,0,0,0,0]","location_rts":"[896,78,146,230,124,169,4,201,288,383,205,630,137,121,521,261,316,169,256,107,1197,38,268,382,726,544,438,304,530,291,281,318]","trial_type":"two-door-navigation","trial_index":10,"time_elapsed":1337697,"internal_node_id":"0.0-2.0-8.0"},{"group":"hexagon_bi","room_assignment":["purple","yellow","blue","red","grey","green"],"door_color_assignment":["white","black"],"door_generator_assignment":[0,1],"goal":4,"start":2,"action_noise":0.15,"location_history":"[2,1,2,3,4]","action_history":"[0,1,0,0]","door_history":"[0,1,0,0]","location_rts":"[338,802,113,55]","trial_type":"two-door-navigation","trial_index":11,"time_elapsed":1346960,"internal_node_id":"0.0-2.0-9.0"},{"group":"hexagon_bi","room_assignment":["purple","yellow","blue","red","grey","green"],"door_color_assignment":["white","black"],"door_generator_assignment":[0,1],"goal":2,"start":4,"action_noise":0.15,"location_history":"[4,3,4,3,4,5,4,3,4,3,4,3,4,5,4,3,2]","action_history":"[0,0,0,1,1,1,0,0,0,0,0,1,1,1,0,0]","door_history":"[0,0,0,1,1,1,0,0,0,0,0,1,1,1,0,0]","location_rts":"[8582,268,300,662,79,351,303,570,199,272,320,114,317,204,55,279]","trial_type":"two-door-navigation","trial_index":12,"time_elapsed":1379906,"internal_node_id":"0.0-2.0-10.0"},{"group":"hexagon_bi","room_assignment":["purple","yellow","blue","red","grey","green"],"door_color_assignment":["white","black"],"door_generator_assignment":[0,1],"goal":3,"start":2,"action_noise":0.15,"location_history":"[2,3]","action_history":"[1]","door_history":"[1]","location_rts":"[576]","trial_type":"two-door-navigation","trial_index":13,"time_elapsed":1385022,"internal_node_id":"0.0-2.0-11.0"},{"group":"hexagon_bi","room_assignment":["purple","yellow","blue","red","grey","green"],"door_color_assignment":["white","black"],"door_generator_assignment":[0,1],"goal":0,"start":3,"action_noise":0.15,"location_history":"[3,2,1,2,3,2,3,2,1,2,1,2,3,2,3,2,1,2,1,2,3,2,3,4,3,4,3,2,3,2,3,2,3,2,1,0]","action_history":"[0,0,0,1,1,1,1,1,0,0,0,0,1,1,1,1,0,0,0,1,1,1,0,0,0,0,1,1,1,1,1,1,1,1,1]","door_history":"[0,0,0,1,1,1,1,1,0,0,0,0,1,1,1,1,0,0,0,1,1,1,0,0,0,0,1,1,1,1,1,1,1,1,1]","location_rts":"[471,349,350,195,323,487,511,552,37,296,357,295,148,288,255,340,266,274,207,402,310,204,613,256,37,615,178,377,295,102,599,573,1311,250,300]","trial_type":"two-door-navigation","trial_index":14,"time_elapsed":1437032,"internal_node_id":"0.0-2.0-12.0"},{"group":"hexagon_bi","room_assignment":["purple","yellow","blue","red","grey","green"],"door_color_assignment":["white","black"],"door_generator_assignment":[0,1],"goal":5,"start":0,"action_noise":0.15,"location_history":"[0,5]","action_history":"[0]","door_history":"[0]","location_rts":"[6989]","trial_type":"two-door-navigation","trial_index":15,"time_elapsed":1448559,"internal_node_id":"0.0-2.0-13.0"},{"group":"hexagon_bi","room_assignment":["purple","yellow","blue","red","grey","green"],"door_color_assignment":["white","black"],"door_generator_assignment":[0,1],"goal":1,"start":5,"action_noise":0.15,"location_history":"[5,0,1]","action_history":"[0,1]","door_history":"[0,1]","location_rts":"[960,905]","trial_type":"two-door-navigation","trial_index":16,"time_elapsed":1456002,"internal_node_id":"0.0-2.0-14.0"},{"group":"hexagon_bi","room_assignment":["purple","yellow","blue","red","grey","green"],"door_color_assignment":["white","black"],"door_generator_assignment":[0,1],"goal":5,"start":1,"action_noise":0.15,"location_history":"[1,2,1,0,5]","action_history":"[0,1,1,0]","door_history":"[0,1,1,0]","location_rts":"[660,232,299,134]","trial_type":"two-door-navigation","trial_index":17,"time_elapsed":1464954,"internal_node_id":"0.0-2.0-15.0"},{"group":"hexagon_bi","room_assignment":["purple","yellow","blue","red","grey","green"],"door_color_assignment":["white","black"],"door_generator_assignment":[0,1],"goal":3,"start":5,"action_noise":0.15,"location_history":"[5,0,5,0,5,0,1,0,1,2,1,2,1,2,1,2,3]","action_history":"[1,0,0,0,1,1,1,1,0,0,0,0,0,0,0,1]","door_history":"[1,0,0,0,1,1,1,1,0,0,0,0,0,0,0,1]","location_rts":"[415,1394,399,333,294,434,475,271,309,413,244,300,294,895,366,900]","trial_type":"two-door-navigation","trial_index":18,"time_elapsed":1492641,"internal_node_id":"0.0-2.0-16.0"},{"group":"hexagon_bi","room_assignment":["purple","yellow","blue","red","grey","green"],"door_color_assignment":["white","black"],"door_generator_assignment":[0,1],"goal":2,"start":3,"action_noise":0.15,"location_history":"[3,4,5,4,3,4,3,4,3,4,5,4,3,4,5,4,3,2]","action_history":"[0,1,1,0,1,0,0,0,0,1,1,1,1,1,1,1,1]","door_history":"[0,1,1,0,1,0,0,0,0,1,1,1,1,1,1,1,1]","location_rts":"[465,190,261,338,257,572,646,488,655,833,269,303,302,143,723,288,493]","trial_type":"two-door-navigation","trial_index":19,"time_elapsed":1520841,"internal_node_id":"0.0-2.0-17.0"},{"group":"hexagon_bi","room_assignment":["purple","yellow","blue","red","grey","green"],"door_color_assignment":["white","black"],"door_generator_assignment":[0,1],"goal":1,"start":2,"action_noise":0.15,"location_history":"[2,1]","action_history":"[0]","door_history":"[0]","location_rts":"[419]","trial_type":"two-door-navigation","trial_index":20,"time_elapsed":1525786,"internal_node_id":"0.0-2.0-18.0"},{"group":"hexagon_bi","room_assignment":["purple","yellow","blue","red","grey","green"],"door_color_assignment":["white","black"],"door_generator_assignment":[0,1],"goal":4,"start":1,"action_noise":0.15,"location_history":"[1,0,5,0,5,0,5,0,1,0,1,0,1,2,1,0,5,4]","action_history":"[1,0,0,0,0,0,0,1,1,1,1,1,0,0,1,0,1]","door_history":"[1,0,0,0,0,0,0,1,1,1,1,1,0,0,1,0,1]","location_rts":"[473,103,356,321,250,427,437,279,203,150,129,241,614,418,548,473,719]","trial_type":"two-door-navigation","trial_index":21,"time_elapsed":1552996,"internal_node_id":"0.0-2.0-19.0"},{"group":"hexagon_bi","room_assignment":["purple","yellow","blue","red","grey","green"],"door_color_assignment":["white","black"],"door_generator_assignment":[0,1],"goal":0,"start":4,"action_noise":0.15,"location_history":"[4,3,2,3,4,3,4,5,0]","action_history":"[0,1,1,0,0,0,1,0]","door_history":"[0,1,1,0,0,0,1,0]","location_rts":"[308,66,236,63,93,295,83,1298]","trial_type":"two-door-navigation","trial_index":22,"time_elapsed":1567212,"internal_node_id":"0.0-2.0-20.0"},{"group":"hexagon_bi","room_assignment":["purple","yellow","blue","red","grey","green"],"door_color_assignment":["white","black"],"door_generator_assignment":[0,1],"goal":3,"start":0,"action_noise":0.15,"location_history":"[0,1,2,3]","action_history":"[1,0,1]","door_history":"[1,0,1]","location_rts":"[881,1740,212]","trial_type":"two-door-navigation","trial_index":23,"time_elapsed":1576622,"internal_node_id":"0.0-2.0-21.0"},{"group":"hexagon_bi","room_assignment":["purple","yellow","blue","red","grey","green"],"door_color_assignment":["white","black"],"door_generator_assignment":[0,1],"goal":1,"start":3,"action_noise":0.15,"location_history":"[3,4,5,0,5,4,3,2,1]","action_history":"[0,1,1,0,1,0,0,1]","door_history":"[0,1,1,0,1,0,0,1]","location_rts":"[777,296,843,101,156,1000,2583,224]","trial_type":"two-door-navigation","trial_index":24,"time_elapsed":1594437,"internal_node_id":"0.0-2.0-22.0"},{"group":"hexagon_bi","room_assignment":["purple","yellow","blue","red","grey","green"],"door_color_assignment":["white","black"],"door_generator_assignment":[0,1],"goal":0,"start":1,"action_noise":0.15,"location_history":"[1,2,1,0]","action_history":"[0,0,1]","door_history":"[0,0,1]","location_rts":"[658,425,118]","trial_type":"two-door-navigation","trial_index":25,"time_elapsed":1602208,"internal_node_id":"0.0-2.0-23.0"},{"group":"hexagon_bi","room_assignment":["purple","yellow","blue","red","grey","green"],"door_color_assignment":["white","black"],"door_generator_assignment":[0,1],"goal":2,"start":0,"action_noise":0.15,"location_history":"[0,1,2]","action_history":"[1,0]","door_history":"[1,0]","location_rts":"[659,356]","trial_type":"two-door-navigation","trial_index":26,"time_elapsed":1608777,"internal_node_id":"0.0-2.0-24.0"},{"group":"hexagon_bi","room_assignment":["purple","yellow","blue","red","grey","green"],"door_color_assignment":["white","black"],"door_generator_assignment":[0,1],"goal":4,"start":2,"action_noise":0.15,"location_history":"[2,1,0,1,0,5,0,1,2,3,4]","action_history":"[0,1,1,1,0,0,1,0,0,0]","door_history":"[0,1,1,1,0,0,1,0,0,0]","location_rts":"[649,413,870,1299,301,437,1769,292,231,443]","trial_type":"two-door-navigation","trial_index":27,"time_elapsed":1629342,"internal_node_id":"0.0-2.0-25.0"},{"group":"hexagon_bi","room_assignment":["purple","yellow","blue","red","grey","green"],"door_color_assignment":["white","black"],"door_generator_assignment":[0,1],"goal":5,"start":4,"action_noise":0.15,"location_history":"[4,5]","action_history":"[1]","door_history":"[1]","location_rts":"[348]","trial_type":"two-door-navigation","trial_index":28,"time_elapsed":1634286,"internal_node_id":"0.0-2.0-26.0"},{"group":"hexagon_bi","room_assignment":["purple","yellow","blue","red","grey","green"],"door_color_assignment":["white","black"],"door_generator_assignment":[0,1],"goal":2,"start":5,"action_noise":0.15,"location_history":"[5,0,1,2]","action_history":"[0,1,1]","door_history":"[0,1,1]","location_rts":"[707,369,257]","trial_type":"two-door-navigation","trial_index":29,"time_elapsed":1642203,"internal_node_id":"0.0-2.0-27.0"},{"group":"hexagon_bi","room_assignment":["purple","yellow","blue","red","grey","green"],"door_color_assignment":["white","black"],"door_generator_assignment":[0,1],"goal":3,"start":2,"action_noise":0.15,"location_history":"[2,1,2,1,2,3]","action_history":"[1,0,0,0,0]","door_history":"[1,0,0,0,0]","location_rts":"[570,688,289,386,391]","trial_type":"two-door-navigation","trial_index":30,"time_elapsed":1653170,"internal_node_id":"0.0-2.0-28.0"},{"group":"hexagon_bi","room_assignment":["purple","yellow","blue","red","grey","green"],"door_color_assignment":["white","black"],"door_generator_assignment":[0,1],"goal":1,"start":3,"action_noise":0.15,"location_history":"[3,2,3,2,1]","action_history":"[1,1,1,0]","door_history":"[1,1,1,0]","location_rts":"[761,361,249,459]","trial_type":"two-door-navigation","trial_index":31,"time_elapsed":1662623,"internal_node_id":"0.0-2.0-29.0"},{"group":"hexagon_bi","room_assignment":["purple","yellow","blue","red","grey","green"],"door_color_assignment":["white","black"],"door_generator_assignment":[0,1],"goal":4,"start":1,"action_noise":0.15,"location_history":"[1,2,1,2,3,2,3,4]","action_history":"[0,0,0,1,1,1,0]","door_history":"[0,0,0,1,1,1,0]","location_rts":"[412,331,244,658,302,253,245]","trial_type":"two-door-navigation","trial_index":32,"time_elapsed":1675769,"internal_node_id":"0.0-2.0-30.0"},{"group":"hexagon_bi","room_assignment":["purple","yellow","blue","red","grey","green"],"door_color_assignment":["white","black"],"door_generator_assignment":[0,1],"goal":5,"start":4,"action_noise":0.15,"location_history":"[4,5]","action_history":"[1]","door_history":"[1]","location_rts":"[1249]","trial_type":"two-door-navigation","trial_index":33,"time_elapsed":1681550,"internal_node_id":"0.0-2.0-31.0"},{"group":"hexagon_bi","room_assignment":["purple","yellow","blue","red","grey","green"],"door_color_assignment":["white","black"],"door_generator_assignment":[0,1],"goal":0,"start":5,"action_noise":0.15,"location_history":"[5,4,3,4,3,2,3,4,3,4,5,0]","action_history":"[1,0,0,0,1,1,0,0,0,0,0]","door_history":"[1,0,0,0,1,1,0,0,0,0,0]","location_rts":"[1549,482,265,327,346,229,19,261,204,290,205]","trial_type":"two-door-navigation","trial_index":34,"time_elapsed":1700517,"internal_node_id":"0.0-2.0-32.0"},{"group":"hexagon_bi","room_assignment":["purple","yellow","blue","red","grey","green"],"door_color_assignment":["white","black"],"door_generator_assignment":[0,1],"goal":2,"start":0,"action_noise":0.15,"location_history":"[0,5,0,1,2]","action_history":"[1,0,0,0]","door_history":"[1,0,0,0]","location_rts":"[683,25,222,403]","trial_type":"two-door-navigation","trial_index":35,"time_elapsed":1709541,"internal_node_id":"0.0-2.0-33.0"},{"group":"hexagon_bi","room_assignment":["purple","yellow","blue","red","grey","green"],"door_color_assignment":["white","black"],"door_generator_assignment":[0,1],"goal":0,"start":2,"action_noise":0.15,"location_history":"[2,1,0]","action_history":"[0,1]","door_history":"[0,1]","location_rts":"[627,172]","trial_type":"two-door-navigation","trial_index":36,"time_elapsed":1715899,"internal_node_id":"0.0-2.0-34.0"},{"group":"hexagon_bi","room_assignment":["purple","yellow","blue","red","grey","green"],"door_color_assignment":["white","black"],"door_generator_assignment":[0,1],"goal":5,"start":0,"action_noise":0.15,"location_history":"[0,5]","action_history":"[0]","door_history":"[0]","location_rts":"[698]","trial_type":"two-door-navigation","trial_index":37,"time_elapsed":1721140,"internal_node_id":"0.0-2.0-35.0"},{"group":"hexagon_bi","room_assignment":["purple","yellow","blue","red","grey","green"],"door_color_assignment":["white","black"],"door_generator_assignment":[0,1],"goal":1,"start":5,"action_noise":0.15,"location_history":"[5,4,3,4,5,4,5,0,5,4,5,0,1]","action_history":"[1,0,0,0,1,1,0,0,1,0,0,1]","door_history":"[1,0,0,0,1,1,0,0,1,0,0,1]","location_rts":"[562,263,473,473,622,417,204,333,458,724,331,417]","trial_type":"two-door-navigation","trial_index":38,"time_elapsed":1742258,"internal_node_id":"0.0-2.0-36.0"},{"group":"hexagon_bi","room_assignment":["purple","yellow","blue","red","grey","green"],"door_color_assignment":["white","black"],"door_generator_assignment":[0,1],"goal":4,"start":1,"action_noise":0.15,"location_history":"[1,0,5,0,1,0,1,0,5,0,5,0,5,4]","action_history":"[1,0,0,1,1,1,1,0,0,0,0,1,1]","door_history":"[1,0,0,1,1,1,1,0,0,0,0,1,1]","location_rts":"[4189,946,781,607,335,370,279,433,352,357,429,529,594]","trial_type":"two-door-navigation","trial_index":39,"time_elapsed":1769356,"internal_node_id":"0.0-2.0-37.0"},{"group":"hexagon_bi","room_assignment":["purple","yellow","blue","red","grey","green"],"door_color_assignment":["white","black"],"door_generator_assignment":[0,1],"goal":3,"start":4,"action_noise":0.15,"location_history":"[4,3]","action_history":"[0]","door_history":"[0]","location_rts":"[1217]","trial_type":"two-door-navigation","trial_index":40,"time_elapsed":1775111,"internal_node_id":"0.0-2.0-38.0"},{"group":"hexagon_bi","room_assignment":["purple","yellow","blue","red","grey","green"],"door_color_assignment":["white","black"],"door_generator_assignment":[0,1],"goal":5,"start":3,"action_noise":0.15,"location_history":"[3,2,1,2,1,0,1,0,5]","action_history":"[1,0,0,0,1,1,0,0]","door_history":"[1,0,0,0,1,1,0,0]","location_rts":"[3386,438,395,351,106,263,612,342]","trial_type":"two-door-navigation","trial_index":41,"time_elapsed":1792724,"internal_node_id":"0.0-2.0-39.0"},{"group":"hexagon_bi","room_assignment":["purple","yellow","blue","red","grey","green"],"door_color_assignment":["white","black"],"door_generator_assignment":[0,1],"goal":1,"start":5,"action_noise":0.15,"location_history":"[5,0,5,4,5,4,3,4,3,4,3,2,1]","action_history":"[0,1,1,1,1,0,0,0,0,0,1,1]","door_history":"[0,1,1,1,1,0,0,0,0,0,1,1]","location_rts":"[361,108,262,173,226,700,275,152,223,934,305,135]","trial_type":"two-door-navigation","trial_index":42,"time_elapsed":1812453,"internal_node_id":"0.0-2.0-40.0"},{"group":"hexagon_bi","room_assignment":["purple","yellow","blue","red","grey","green"],"door_color_assignment":["white","black"],"door_generator_assignment":[0,1],"goal":2,"start":1,"action_noise":0.15,"location_history":"[1,2]","action_history":"[0]","door_history":"[0]","location_rts":"[301]","trial_type":"two-door-navigation","trial_index":43,"time_elapsed":1817294,"internal_node_id":"0.0-2.0-41.0"},{"group":"hexagon_bi","room_assignment":["purple","yellow","blue","red","grey","green"],"door_color_assignment":["white","black"],"door_generator_assignment":[0,1],"goal":4,"start":2,"action_noise":0.15,"location_history":"[2,3,4]","action_history":"[1,0]","door_history":"[1,0]","location_rts":"[773,345]","trial_type":"two-door-navigation","trial_index":44,"time_elapsed":1823964,"internal_node_id":"0.0-2.0-42.0"},{"group":"hexagon_bi","room_assignment":["purple","yellow","blue","red","grey","green"],"door_color_assignment":["white","black"],"door_generator_assignment":[0,1],"goal":0,"start":4,"action_noise":0.15,"location_history":"[4,5,4,5,0]","action_history":"[0,1,1,0]","door_history":"[0,1,1,0]","location_rts":"[313,149,316,1041]","trial_type":"two-door-navigation","trial_index":45,"time_elapsed":1833390,"internal_node_id":"0.0-2.0-43.0"},{"group":"hexagon_bi","room_assignment":["purple","yellow","blue","red","grey","green"],"door_color_assignment":["white","black"],"door_generator_assignment":[0,1],"goal":3,"start":0,"action_noise":0.15,"location_history":"[0,1,2,1,2,3]","action_history":"[1,0,0,0,1]","door_history":"[1,0,0,0,1]","location_rts":"[2436,487,442,346,486]","trial_type":"two-door-navigation","trial_index":46,"time_elapsed":1846238,"internal_node_id":"0.0-2.0-44.0"},{"group":"hexagon_bi","room_assignment":["purple","yellow","blue","red","grey","green"],"door_color_assignment":["white","black"],"door_generator_assignment":[0,1],"goal":0,"start":3,"action_noise":0.15,"location_history":"[3,4,5,4,3,4,5,4,3,4,5,0]","action_history":"[0,1,1,0,0,1,1,0,0,0,0]","door_history":"[0,1,1,0,0,1,1,0,0,0,0]","location_rts":"[393,110,601,921,431,315,1671,301,440,1202,369]","trial_type":"two-door-navigation","trial_index":47,"time_elapsed":1867798,"internal_node_id":"0.0-2.0-45.0"},{"group":"hexagon_bi","room_assignment":["purple","yellow","blue","red","grey","green"],"door_color_assignment":["white","black"],"door_generator_assignment":[0,1],"goal":4,"start":0,"action_noise":0.15,"location_history":"[0,1,2,1,2,1,0,5,4]","action_history":"[1,0,0,0,0,1,0,0]","door_history":"[1,0,0,0,0,1,0,0]","location_rts":"[365,251,27,10,32,1174,233,698]","trial_type":"two-door-navigation","trial_index":48,"time_elapsed":1882304,"internal_node_id":"0.0-2.0-46.0"},{"group":"hexagon_bi","room_assignment":["purple","yellow","blue","red","grey","green"],"door_color_assignment":["white","black"],"door_generator_assignment":[0,1],"goal":5,"start":4,"action_noise":0.15,"location_history":"[4,3,4,3,4,3,2,1,2,1,2,1,0,5]","action_history":"[1,0,0,0,1,1,0,0,1,1,0,1,0]","door_history":"[1,0,0,0,1,1,0,0,1,1,0,1,0]","location_rts":"[363,654,392,723,589,375,210,343,190,368,2493,1275,464]","trial_type":"two-door-navigation","trial_index":49,"time_elapsed":1907595,"internal_node_id":"0.0-2.0-47.0"},{"group":"hexagon_bi","room_assignment":["purple","yellow","blue","red","grey","green"],"door_color_assignment":["white","black"],"door_generator_assignment":[0,1],"goal":2,"start":5,"action_noise":0.15,"location_history":"[5,4,3,4,5,4,5,4,3,2]","action_history":"[1,0,0,0,1,1,0,1,1]","door_history":"[1,0,0,0,1,1,0,1,1]","location_rts":"[343,427,298,475,402,519,492,519,1293]","trial_type":"two-door-navigation","trial_index":50,"time_elapsed":1925119,"internal_node_id":"0.0-2.0-48.0"},{"group":"hexagon_bi","room_assignment":["purple","yellow","blue","red","grey","green"],"door_color_assignment":["white","black"],"door_generator_assignment":[0,1],"goal":1,"start":2,"action_noise":0.15,"location_history":"[2,1]","action_history":"[0]","door_history":"[0]","location_rts":"[592]","trial_type":"two-door-navigation","trial_index":51,"time_elapsed":1930250,"internal_node_id":"0.0-2.0-49.0"},{"view_history":"[{\"page_index\":0,\"viewing_time\":766273}]","rt":766274,"trial_type":"instructions","trial_index":52,"time_elapsed":2697525,"internal_node_id":"0.0-3.0"},{"view_history":"[{\"page_index\":0,\"viewing_time\":818},{\"page_index\":1,\"viewing_time\":1334}]","rt":2154,"trial_type":"instructions","trial_index":53,"time_elapsed":2700680,"internal_node_id":"0.0-4.0"},{"group":"hexagon_tri","fractal_assignment":["../images/gry_blk.png","../images/blu_wht.png","../images/org_blu.png","../images/cyn_red.png","../images/ylw_slt.png","../images/pnk_blu.png"],"mutagen_generator_assignment":[0,1],"goal":2,"start":1,"action_noise":0.15,"location_history":"[1,3,2]","action_history":"[0,0]","mutagen_history":"[0,0]","location_rts":"[1204,1285]","trial_type":"fractal-mutation","trial_index":54,"time_elapsed":2709226,"internal_node_id":"0.0-5.0-0.0"},{"group":"hexagon_tri","fractal_assignment":["../images/gry_blk.png","../images/blu_wht.png","../images/org_blu.png","../images/cyn_red.png","../images/ylw_slt.png","../images/pnk_blu.png"],"mutagen_generator_assignment":[0,1],"goal":0,"start":2,"action_noise":0.15,"location_history":"[2,1,5,0]","action_history":"[0,1,1]","mutagen_history":"[0,1,1]","location_rts":"[838,1449,1407]","trial_type":"fractal-mutation","trial_index":55,"time_elapsed":2720228,"internal_node_id":"0.0-5.0-1.0"},{"group":"hexagon_tri","fractal_assignment":["../images/gry_blk.png","../images/blu_wht.png","../images/org_blu.png","../images/cyn_red.png","../images/ylw_slt.png","../images/pnk_blu.png"],"mutagen_generator_assignment":[0,1],"goal":5,"start":0,"action_noise":0.15,"location_history":"[0,1,5]","action_history":"[1,1]","mutagen_history":"[1,1]","location_rts":"[499,1059]","trial_type":"fractal-mutation","trial_index":56,"time_elapsed":2727979,"internal_node_id":"0.0-5.0-2.0"},{"group":"hexagon_tri","fractal_assignment":["../images/gry_blk.png","../images/blu_wht.png","../images/org_blu.png","../images/cyn_red.png","../images/ylw_slt.png","../images/pnk_blu.png"],"mutagen_generator_assignment":[0,1],"goal":1,"start":5,"action_noise":0.15,"location_history":"[5,4,0,1]","action_history":"[0,1,1]","mutagen_history":"[0,1,1]","location_rts":"[540,671,960]","trial_type":"fractal-mutation","trial_index":57,"time_elapsed":2737438,"internal_node_id":"0.0-5.0-3.0"},{"group":"hexagon_tri","fractal_assignment":["../images/gry_blk.png","../images/blu_wht.png","../images/org_blu.png","../images/cyn_red.png","../images/ylw_slt.png","../images/pnk_blu.png"],"mutagen_generator_assignment":[0,1],"goal":3,"start":1,"action_noise":0.15,"location_history":"[1,3]","action_history":"[0]","mutagen_history":"[0]","location_rts":"[1290]","trial_type":"fractal-mutation","trial_index":58,"time_elapsed":2743485,"internal_node_id":"0.0-5.0-4.0"},{"group":"hexagon_tri","fractal_assignment":["../images/gry_blk.png","../images/blu_wht.png","../images/org_blu.png","../images/cyn_red.png","../images/ylw_slt.png","../images/pnk_blu.png"],"mutagen_generator_assignment":[0,1],"goal":5,"start":3,"action_noise":0.15,"location_history":"[3,4,0,1,5]","action_history":"[1,1,1,1]","mutagen_history":"[1,1,1,1]","location_rts":"[130,713,696,903]","trial_type":"fractal-mutation","trial_index":59,"time_elapsed":2754715,"internal_node_id":"0.0-5.0-5.0"},{"group":"hexagon_tri","fractal_assignment":["../images/gry_blk.png","../images/blu_wht.png","../images/org_blu.png","../images/cyn_red.png","../images/ylw_slt.png","../images/pnk_blu.png"],"mutagen_generator_assignment":[0,1],"goal":4,"start":5,"action_noise":0.15,"location_history":"[5,4]","action_history":"[0]","mutagen_history":"[0]","location_rts":"[1165]","trial_type":"fractal-mutation","trial_index":60,"time_elapsed":2760699,"internal_node_id":"0.0-5.0-6.0"},{"group":"hexagon_tri","fractal_assignment":["../images/gry_blk.png","../images/blu_wht.png","../images/org_blu.png","../images/cyn_red.png","../images/ylw_slt.png","../images/pnk_blu.png"],"mutagen_generator_assignment":[0,1],"goal":0,"start":4,"action_noise":0.15,"location_history":"[4,2,1,3,2,3,4,2,3,4,0]","action_history":"[1,0,0,0,0,1,1,1,1,0]","mutagen_history":"[1,0,0,0,0,1,1,1,1,0]","location_rts":"[477,282,2072,277,717,990,1172,1374,1011,621]","trial_type":"fractal-mutation","trial_index":61,"time_elapsed":2785721,"internal_node_id":"0.0-5.0-7.0"},{"group":"hexagon_tri","fractal_assignment":["../images/gry_blk.png","../images/blu_wht.png","../images/org_blu.png","../images/cyn_red.png","../images/ylw_slt.png","../images/pnk_blu.png"],"mutagen_generator_assignment":[0,1],"goal":2,"start":0,"action_noise":0.15,"location_history":"[0,1,5,0,1,5,0,5,0,1,5,0,1,5,4,0,1,3,2]","action_history":"[1,1,1,1,1,1,0,1,0,1,1,1,1,0,1,1,0,0]","mutagen_history":"[1,1,1,1,1,1,0,1,0,1,1,1,1,0,1,1,0,0]","location_rts":"[2121,868,1042,10421,2219,2222,1635,715,44,796,1352,1556,183,674,1309,406,2319,78]","trial_type":"fractal-mutation","trial_index":62,"time_elapsed":2842243,"internal_node_id":"0.0-5.0-8.0"},{"group":"hexagon_tri","fractal_assignment":["../images/gry_blk.png","../images/blu_wht.png","../images/org_blu.png","../images/cyn_red.png","../images/ylw_slt.png","../images/pnk_blu.png"],"mutagen_generator_assignment":[0,1],"goal":4,"start":2,"action_noise":0.15,"location_history":"[2,1,3,2,1,3,4]","action_history":"[1,0,1,1,0,0]","mutagen_history":"[1,0,1,1,0,0]","location_rts":"[869,1275,2137,829,1609,1413]","trial_type":"fractal-mutation","trial_index":63,"time_elapsed":2861378,"internal_node_id":"0.0-5.0-9.0"},{"group":"hexagon_tri","fractal_assignment":["../images/gry_blk.png","../images/blu_wht.png","../images/org_blu.png","../images/cyn_red.png","../images/ylw_slt.png","../images/pnk_blu.png"],"mutagen_generator_assignment":[0,1],"goal":2,"start":4,"action_noise":0.15,"location_history":"[4,0,5,4,2]","action_history":"[0,0,0,1]","mutagen_history":"[0,0,0,1]","location_rts":"[974,415,364,52]","trial_type":"fractal-mutation","trial_index":64,"time_elapsed":2871617,"internal_node_id":"0.0-5.0-10.0"},{"group":"hexagon_tri","fractal_assignment":["../images/gry_blk.png","../images/blu_wht.png","../images/org_blu.png","../images/cyn_red.png","../images/ylw_slt.png","../images/pnk_blu.png"],"mutagen_generator_assignment":[0,1],"goal":3,"start":2,"action_noise":0.15,"location_history":"[2,3]","action_history":"[1]","mutagen_history":"[1]","location_rts":"[752]","trial_type":"fractal-mutation","trial_index":65,"time_elapsed":2877163,"internal_node_id":"0.0-5.0-11.0"},{"group":"hexagon_tri","fractal_assignment":["../images/gry_blk.png","../images/blu_wht.png","../images/org_blu.png","../images/cyn_red.png","../images/ylw_slt.png","../images/pnk_blu.png"],"mutagen_generator_assignment":[0,1],"goal":0,"start":3,"action_noise":0.15,"location_history":"[3,2,1,5,0]","action_history":"[0,0,0,1]","mutagen_history":"[0,0,0,1]","location_rts":"[744,450,242,125]","trial_type":"fractal-mutation","trial_index":66,"time_elapsed":2887046,"internal_node_id":"0.0-5.0-12.0"},{"group":"hexagon_tri","fractal_assignment":["../images/gry_blk.png","../images/blu_wht.png","../images/org_blu.png","../images/cyn_red.png","../images/ylw_slt.png","../images/pnk_blu.png"],"mutagen_generator_assignment":[0,1],"goal":5,"start":0,"action_noise":0.15,"location_history":"[0,5]","action_history":"[0]","mutagen_history":"[0]","location_rts":"[647]","trial_type":"fractal-mutation","trial_index":67,"time_elapsed":2892452,"internal_node_id":"0.0-5.0-13.0"},{"group":"hexagon_tri","fractal_assignment":["../images/gry_blk.png","../images/blu_wht.png","../images/org_blu.png","../images/cyn_red.png","../images/ylw_slt.png","../images/pnk_blu.png"],"mutagen_generator_assignment":[0,1],"goal":1,"start":5,"action_noise":0.15,"location_history":"[5,4,2,3,2,1]","action_history":"[1,1,1,0,0]","mutagen_history":"[1,1,1,0,0]","location_rts":"[495,114,604,118,753]","trial_type":"fractal-mutation","trial_index":68,"time_elapsed":2904826,"internal_node_id":"0.0-5.0-14.0"},{"group":"hexagon_tri","fractal_assignment":["../images/gry_blk.png","../images/blu_wht.png","../images/org_blu.png","../images/cyn_red.png","../images/ylw_slt.png","../images/pnk_blu.png"],"mutagen_generator_assignment":[0,1],"goal":5,"start":1,"action_noise":0.15,"location_history":"[1,3,4,2,3,2,3,4,0,5]","action_history":"[0,1,1,1,1,1,1,0,0]","mutagen_history":"[0,1,1,1,1,1,1,0,0]","location_rts":"[17797,476,358,345,357,864,709,160,354]","trial_type":"fractal-mutation","trial_index":69,"time_elapsed":2941584,"internal_node_id":"0.0-5.0-15.0"},{"group":"hexagon_tri","fractal_assignment":["../images/gry_blk.png","../images/blu_wht.png","../images/org_blu.png","../images/cyn_red.png","../images/ylw_slt.png","../images/pnk_blu.png"],"mutagen_generator_assignment":[0,1],"goal":3,"start":5,"action_noise":0.15,"location_history":"[5,4,0,5,0,5,0,1,5,0,1,5,4,0,5,4,2,1,3]","action_history":"[0,0,0,0,0,0,0,1,1,1,1,0,0,0,0,0,0,0]","mutagen_history":"[0,0,0,0,0,0,0,1,1,1,1,0,0,0,0,0,0,0]","location_rts":"[973,5127,876,891,750,438,592,737,1122,671,423,377,501,339,825,754,639,396]","trial_type":"fractal-mutation","trial_index":70,"time_elapsed":2983255,"internal_node_id":"0.0-5.0-16.0"},{"group":"hexagon_tri","fractal_assignment":["../images/gry_blk.png","../images/blu_wht.png","../images/org_blu.png","../images/cyn_red.png","../images/ylw_slt.png","../images/pnk_blu.png"],"mutagen_generator_assignment":[0,1],"goal":2,"start":3,"action_noise":0.15,"location_history":"[3,4,0,1,3,4,2]","action_history":"[1,1,1,1,1,1]","mutagen_history":"[1,1,1,1,1,1]","location_rts":"[2012,6207,600,673,2313,803]","trial_type":"fractal-mutation","trial_index":71,"time_elapsed":3007046,"internal_node_id":"0.0-5.0-17.0"},{"group":"hexagon_tri","fractal_assignment":["../images/gry_blk.png","../images/blu_wht.png","../images/org_blu.png","../images/cyn_red.png","../images/ylw_slt.png","../images/pnk_blu.png"],"mutagen_generator_assignment":[0,1],"goal":1,"start":2,"action_noise":0.15,"location_history":"[2,1]","action_history":"[0]","mutagen_history":"[0]","location_rts":"[106]","trial_type":"fractal-mutation","trial_index":72,"time_elapsed":3011932,"internal_node_id":"0.0-5.0-18.0"},{"group":"hexagon_tri","fractal_assignment":["../images/gry_blk.png","../images/blu_wht.png","../images/org_blu.png","../images/cyn_red.png","../images/ylw_slt.png","../images/pnk_blu.png"],"mutagen_generator_assignment":[0,1],"goal":4,"start":1,"action_noise":0.15,"location_history":"[1,3,2,1,5,0,1,5,0,5,4]","action_history":"[0,0,0,1,1,1,1,1,0,0]","mutagen_history":"[0,0,0,1,1,1,1,1,0,0]","location_rts":"[989,977,182,5680,995,535,454,647,355,432]","trial_type":"fractal-mutation","trial_index":73,"time_elapsed":3038969,"internal_node_id":"0.0-5.0-19.0"},{"group":"hexagon_tri","fractal_assignment":["../images/gry_blk.png","../images/blu_wht.png","../images/org_blu.png","../images/cyn_red.png","../images/ylw_slt.png","../images/pnk_blu.png"],"mutagen_generator_assignment":[0,1],"goal":0,"start":4,"action_noise":0.15,"location_history":"[4,2,1,3,4,2,3,2,3,2,3,4,0]","action_history":"[0,0,0,1,1,1,1,1,0,0,0,0]","mutagen_history":"[0,0,0,1,1,1,1,1,0,0,0,0]","location_rts":"[709,430,365,369,671,510,377,558,554,487,405,377]","trial_type":"fractal-mutation","trial_index":74,"time_elapsed":3062896,"internal_node_id":"0.0-5.0-20.0"},{"group":"hexagon_tri","fractal_assignment":["../images/gry_blk.png","../images/blu_wht.png","../images/org_blu.png","../images/cyn_red.png","../images/ylw_slt.png","../images/pnk_blu.png"],"mutagen_generator_assignment":[0,1],"goal":3,"start":0,"action_noise":0.15,"location_history":"[0,5,0,5,4,0,1,5,0,5,0,1,5,4,0,5,4,0,5,0,5,4,2,1,5,0,1,5,0,1,5,0,1,3]","action_history":"[0,0,0,0,0,1,1,1,1,1,1,0,0,0,0,0,0,0,0,0,1,1,1,1,1,1,1,1,1,0,0,0,0]","mutagen_history":"[0,0,0,0,0,1,1,1,1,1,1,0,0,0,0,0,0,0,0,0,1,1,1,1,1,1,1,1,1,0,0,0,0]","location_rts":"[360,657,833,1668,1857,915,901,1273,932,2511,1157,842,1054,488,1082,818,845,945,889,791,1293,643,359,463,296,242,154,633,393,241,234,245,541]","trial_type":"fractal-mutation","trial_index":75,"time_elapsed":3135449,"internal_node_id":"0.0-5.0-21.0"},{"group":"hexagon_tri","fractal_assignment":["../images/gry_blk.png","../images/blu_wht.png","../images/org_blu.png","../images/cyn_red.png","../images/ylw_slt.png","../images/pnk_blu.png"],"mutagen_generator_assignment":[0,1],"goal":1,"start":3,"action_noise":0.15,"location_history":"[3,2,3,2,1]","action_history":"[0,1,1,0]","mutagen_history":"[0,1,1,0]","location_rts":"[1511,449,365,177]","trial_type":"fractal-mutation","trial_index":76,"time_elapsed":3146393,"internal_node_id":"0.0-5.0-22.0"},{"group":"hexagon_tri","fractal_assignment":["../images/gry_blk.png","../images/blu_wht.png","../images/org_blu.png","../images/cyn_red.png","../images/ylw_slt.png","../images/pnk_blu.png"],"mutagen_generator_assignment":[0,1],"goal":0,"start":1,"action_noise":0.15,"location_history":"[1,3,4,0]","action_history":"[0,1,0]","mutagen_history":"[0,1,0]","location_rts":"[1158,114,0]","trial_type":"fractal-mutation","trial_index":77,"time_elapsed":3154897,"internal_node_id":"0.0-5.0-23.0"},{"group":"hexagon_tri","fractal_assignment":["../images/gry_blk.png","../images/blu_wht.png","../images/org_blu.png","../images/cyn_red.png","../images/ylw_slt.png","../images/pnk_blu.png"],"mutagen_generator_assignment":[0,1],"goal":2,"start":0,"action_noise":0.15,"location_history":"[0,5,0,5,4,2]","action_history":"[0,1,0,1,1]","mutagen_history":"[0,1,0,1,1]","location_rts":"[871,550,1075,634,781]","trial_type":"fractal-mutation","trial_index":78,"time_elapsed":3168591,"internal_node_id":"0.0-5.0-24.0"},{"group":"hexagon_tri","fractal_assignment":["../images/gry_blk.png","../images/blu_wht.png","../images/org_blu.png","../images/cyn_red.png","../images/ylw_slt.png","../images/pnk_blu.png"],"mutagen_generator_assignment":[0,1],"goal":4,"start":2,"action_noise":0.15,"location_history":"[2,1,5,0,1,5,4]","action_history":"[0,1,1,1,1,0]","mutagen_history":"[0,1,1,1,1,0]","location_rts":"[825,854,382,919,575,894]","trial_type":"fractal-mutation","trial_index":79,"time_elapsed":3183993,"internal_node_id":"0.0-5.0-25.0"},{"group":"hexagon_tri","fractal_assignment":["../images/gry_blk.png","../images/blu_wht.png","../images/org_blu.png","../images/cyn_red.png","../images/ylw_slt.png","../images/pnk_blu.png"],"mutagen_generator_assignment":[0,1],"goal":5,"start":4,"action_noise":0.15,"location_history":"[4,2,3,2,1,3,2,3,4,2,3,4,0,5]","action_history":"[1,1,0,0,0,1,1,1,1,1,1,0,0]","mutagen_history":"[1,1,0,0,0,1,1,1,1,1,1,0,0]","location_rts":"[1049,573,578,783,577,1159,539,456,396,313,54,77,1226]","trial_type":"fractal-mutation","trial_index":80,"time_elapsed":3211448,"internal_node_id":"0.0-5.0-26.0"},{"group":"hexagon_tri","fractal_assignment":["../images/gry_blk.png","../images/blu_wht.png","../images/org_blu.png","../images/cyn_red.png","../images/ylw_slt.png","../images/pnk_blu.png"],"mutagen_generator_assignment":[0,1],"goal":2,"start":5,"action_noise":0.15,"location_history":"[5,0,1,3,2]","action_history":"[1,1,0,0]","mutagen_history":"[1,1,0,0]","location_rts":"[2217,477,1416,613]","trial_type":"fractal-mutation","trial_index":81,"time_elapsed":3224583,"internal_node_id":"0.0-5.0-27.0"},{"group":"hexagon_tri","fractal_assignment":["../images/gry_blk.png","../images/blu_wht.png","../images/org_blu.png","../images/cyn_red.png","../images/ylw_slt.png","../images/pnk_blu.png"],"mutagen_generator_assignment":[0,1],"goal":3,"start":2,"action_noise":0.15,"location_history":"[2,1,3]","action_history":"[0,0]","mutagen_history":"[0,0]","location_rts":"[688,1766]","trial_type":"fractal-mutation","trial_index":82,"time_elapsed":3232994,"internal_node_id":"0.0-5.0-28.0"},{"group":"hexagon_tri","fractal_assignment":["../images/gry_blk.png","../images/blu_wht.png","../images/org_blu.png","../images/cyn_red.png","../images/ylw_slt.png","../images/pnk_blu.png"],"mutagen_generator_assignment":[0,1],"goal":1,"start":3,"action_noise":0.15,"location_history":"[3,4,2,3,2,1]","action_history":"[1,1,1,0,0]","mutagen_history":"[1,1,1,0,0]","location_rts":"[568,1268,490,877,876]","trial_type":"fractal-mutation","trial_index":83,"time_elapsed":3246762,"internal_node_id":"0.0-5.0-29.0"},{"group":"hexagon_tri","fractal_assignment":["../images/gry_blk.png","../images/blu_wht.png","../images/org_blu.png","../images/cyn_red.png","../images/ylw_slt.png","../images/pnk_blu.png"],"mutagen_generator_assignment":[0,1],"goal":4,"start":1,"action_noise":0.15,"location_history":"[1,5,0,5,4]","action_history":"[1,1,1,0]","mutagen_history":"[1,1,1,0]","location_rts":"[1742,653,652,2192]","trial_type":"fractal-mutation","trial_index":84,"time_elapsed":3260520,"internal_node_id":"0.0-5.0-30.0"},{"group":"hexagon_tri","fractal_assignment":["../images/gry_blk.png","../images/blu_wht.png","../images/org_blu.png","../images/cyn_red.png","../images/ylw_slt.png","../images/pnk_blu.png"],"mutagen_generator_assignment":[0,1],"goal":5,"start":4,"action_noise":0.15,"location_history":"[4,0,5]","action_history":"[0,0]","mutagen_history":"[0,0]","location_rts":"[936,832]","trial_type":"fractal-mutation","trial_index":85,"time_elapsed":3268223,"internal_node_id":"0.0-5.0-31.0"},{"group":"hexagon_tri","fractal_assignment":["../images/gry_blk.png","../images/blu_wht.png","../images/org_blu.png","../images/cyn_red.png","../images/ylw_slt.png","../images/pnk_blu.png"],"mutagen_generator_assignment":[0,1],"goal":0,"start":5,"action_noise":0.15,"location_history":"[5,0]","action_history":"[1]","mutagen_history":"[1]","location_rts":"[4704]","trial_type":"fractal-mutation","trial_index":86,"time_elapsed":3277740,"internal_node_id":"0.0-5.0-32.0"},{"group":"hexagon_tri","fractal_assignment":["../images/gry_blk.png","../images/blu_wht.png","../images/org_blu.png","../images/cyn_red.png","../images/ylw_slt.png","../images/pnk_blu.png"],"mutagen_generator_assignment":[0,1],"goal":2,"start":0,"action_noise":0.15,"location_history":"[0,1,3,2]","action_history":"[1,0,0]","mutagen_history":"[1,0,0]","location_rts":"[1660,696,828]","trial_type":"fractal-mutation","trial_index":87,"time_elapsed":3288131,"internal_node_id":"0.0-5.0-33.0"},{"group":"hexagon_tri","fractal_assignment":["../images/gry_blk.png","../images/blu_wht.png","../images/org_blu.png","../images/cyn_red.png","../images/ylw_slt.png","../images/pnk_blu.png"],"mutagen_generator_assignment":[0,1],"goal":0,"start":2,"action_noise":0.15,"location_history":"[2,3,4,2,1,3,2,1,5,0]","action_history":"[1,1,1,0,0,0,0,0,1]","mutagen_history":"[1,1,1,0,0,0,0,0,1]","location_rts":"[989,209,446,1512,752,809,1074,677,1105]","trial_type":"fractal-mutation","trial_index":88,"time_elapsed":3310154,"internal_node_id":"0.0-5.0-34.0"},{"group":"hexagon_tri","fractal_assignment":["../images/gry_blk.png","../images/blu_wht.png","../images/org_blu.png","../images/cyn_red.png","../images/ylw_slt.png","../images/pnk_blu.png"],"mutagen_generator_assignment":[0,1],"goal":5,"start":0,"action_noise":0.15,"location_history":"[0,5]","action_history":"[0]","mutagen_history":"[0]","location_rts":"[4351]","trial_type":"fractal-mutation","trial_index":89,"time_elapsed":3319287,"internal_node_id":"0.0-5.0-35.0"},{"group":"hexagon_tri","fractal_assignment":["../images/gry_blk.png","../images/blu_wht.png","../images/org_blu.png","../images/cyn_red.png","../images/ylw_slt.png","../images/pnk_blu.png"],"mutagen_generator_assignment":[0,1],"goal":1,"start":5,"action_noise":0.15,"location_history":"[5,4,0,1]","action_history":"[0,0,0]","mutagen_history":"[0,0,0]","location_rts":"[770,836,417]","trial_type":"fractal-mutation","trial_index":90,"time_elapsed":3328422,"internal_node_id":"0.0-5.0-36.0"},{"group":"hexagon_tri","fractal_assignment":["../images/gry_blk.png","../images/blu_wht.png","../images/org_blu.png","../images/cyn_red.png","../images/ylw_slt.png","../images/pnk_blu.png"],"mutagen_generator_assignment":[0,1],"goal":4,"start":1,"action_noise":0.15,"location_history":"[1,5,0,1,5,4]","action_history":"[1,1,1,1,1]","mutagen_history":"[1,1,1,1,1]","location_rts":"[863,385,240,251,214]","trial_type":"fractal-mutation","trial_index":91,"time_elapsed":3340222,"internal_node_id":"0.0-5.0-37.0"},{"group":"hexagon_tri","fractal_assignment":["../images/gry_blk.png","../images/blu_wht.png","../images/org_blu.png","../images/cyn_red.png","../images/ylw_slt.png","../images/pnk_blu.png"],"mutagen_generator_assignment":[0,1],"goal":3,"start":4,"action_noise":0.15,"location_history":"[4,0,5,0,5,4,2,3]","action_history":"[0,0,0,0,0,1,1]","mutagen_history":"[0,0,0,0,0,1,1]","location_rts":"[745,633,646,755,643,860,410]","trial_type":"fractal-mutation","trial_index":92,"time_elapsed":3357051,"internal_node_id":"0.0-5.0-38.0"},{"group":"hexagon_tri","fractal_assignment":["../images/gry_blk.png","../images/blu_wht.png","../images/org_blu.png","../images/cyn_red.png","../images/ylw_slt.png","../images/pnk_blu.png"],"mutagen_generator_assignment":[0,1],"goal":5,"start":3,"action_noise":0.15,"location_history":"[3,4,0,5]","action_history":"[1,0,0]","mutagen_history":"[1,0,0]","location_rts":"[1069,963,724]","trial_type":"fractal-mutation","trial_index":93,"time_elapsed":3367011,"internal_node_id":"0.0-5.0-39.0"},{"group":"hexagon_tri","fractal_assignment":["../images/gry_blk.png","../images/blu_wht.png","../images/org_blu.png","../images/cyn_red.png","../images/ylw_slt.png","../images/pnk_blu.png"],"mutagen_generator_assignment":[0,1],"goal":1,"start":5,"action_noise":0.15,"location_history":"[5,4,0,1]","action_history":"[0,0,1]","mutagen_history":"[0,0,1]","location_rts":"[994,1315,2984]","trial_type":"fractal-mutation","trial_index":94,"time_elapsed":3379588,"internal_node_id":"0.0-5.0-40.0"},{"group":"hexagon_tri","fractal_assignment":["../images/gry_blk.png","../images/blu_wht.png","../images/org_blu.png","../images/cyn_red.png","../images/ylw_slt.png","../images/pnk_blu.png"],"mutagen_generator_assignment":[0,1],"goal":2,"start":1,"action_noise":0.15,"location_history":"[1,5,0,1,5,4,0,5,0,1,5,4,0,5,4,0,5,4,0,5,0,1,5,0,1,5,4,2]","action_history":"[0,1,1,1,0,0,0,1,1,1,0,0,0,0,0,0,0,0,0,1,1,1,1,1,1,1,1]","mutagen_history":"[0,1,1,1,0,0,0,1,1,1,0,0,0,0,0,0,0,0,0,1,1,1,1,1,1,1,1]","location_rts":"[100557,1432,650,729,1333,1142,603,3746,2098,341,1523,412,133,563,438,102,197,20,354,578,549,481,349,370,566,494,580]","trial_type":"fractal-mutation","trial_index":95,"time_elapsed":3537994,"internal_node_id":"0.0-5.0-41.0"},{"group":"hexagon_tri","fractal_assignment":["../images/gry_blk.png","../images/blu_wht.png","../images/org_blu.png","../images/cyn_red.png","../images/ylw_slt.png","../images/pnk_blu.png"],"mutagen_generator_assignment":[0,1],"goal":4,"start":2,"action_noise":0.15,"location_history":"[2,3,4]","action_history":"[1,1]","mutagen_history":"[1,1]","location_rts":"[8988,414]","trial_type":"fractal-mutation","trial_index":96,"time_elapsed":3553509,"internal_node_id":"0.0-5.0-42.0"},{"group":"hexagon_tri","fractal_assignment":["../images/gry_blk.png","../images/blu_wht.png","../images/org_blu.png","../images/cyn_red.png","../images/ylw_slt.png","../images/pnk_blu.png"],"mutagen_generator_assignment":[0,1],"goal":0,"start":4,"action_noise":0.15,"location_history":"[4,0]","action_history":"[0]","mutagen_history":"[0]","location_rts":"[963]","trial_type":"fractal-mutation","trial_index":97,"time_elapsed":3559299,"internal_node_id":"0.0-5.0-43.0"},{"group":"hexagon_tri","fractal_assignment":["../images/gry_blk.png","../images/blu_wht.png","../images/org_blu.png","../images/cyn_red.png","../images/ylw_slt.png","../images/pnk_blu.png"],"mutagen_generator_assignment":[0,1],"goal":3,"start":0,"action_noise":0.15,"location_history":"[0,5,0,1,3]","action_history":"[0,1,1,0]","mutagen_history":"[0,1,1,0]","location_rts":"[864,1114,737,418]","trial_type":"fractal-mutation","trial_index":98,"time_elapsed":3570807,"internal_node_id":"0.0-5.0-44.0"},{"group":"hexagon_tri","fractal_assignment":["../images/gry_blk.png","../images/blu_wht.png","../images/org_blu.png","../images/cyn_red.png","../images/ylw_slt.png","../images/pnk_blu.png"],"mutagen_generator_assignment":[0,1],"goal":0,"start":3,"action_noise":0.15,"location_history":"[3,2,1,5,0]","action_history":"[0,1,1,1]","mutagen_history":"[0,1,1,1]","location_rts":"[728,1218,740,518]","trial_type":"fractal-mutation","trial_index":99,"time_elapsed":3582530,"internal_node_id":"0.0-5.0-45.0"},{"group":"hexagon_tri","fractal_assignment":["../images/gry_blk.png","../images/blu_wht.png","../images/org_blu.png","../images/cyn_red.png","../images/ylw_slt.png","../images/pnk_blu.png"],"mutagen_generator_assignment":[0,1],"goal":4,"start":0,"action_noise":0.15,"location_history":"[0,5,4]","action_history":"[0,0]","mutagen_history":"[0,0]","location_rts":"[461,613]","trial_type":"fractal-mutation","trial_index":100,"time_elapsed":3589539,"internal_node_id":"0.0-5.0-46.0"},{"group":"hexagon_tri","fractal_assignment":["../images/gry_blk.png","../images/blu_wht.png","../images/org_blu.png","../images/cyn_red.png","../images/ylw_slt.png","../images/pnk_blu.png"],"mutagen_generator_assignment":[0,1],"goal":5,"start":4,"action_noise":0.15,"location_history":"[4,0,5]","action_history":"[0,0]","mutagen_history":"[0,0]","location_rts":"[2229,4593]","trial_type":"fractal-mutation","trial_index":101,"time_elapsed":3602330,"internal_node_id":"0.0-5.0-47.0"},{"group":"hexagon_tri","fractal_assignment":["../images/gry_blk.png","../images/blu_wht.png","../images/org_blu.png","../images/cyn_red.png","../images/ylw_slt.png","../images/pnk_blu.png"],"mutagen_generator_assignment":[0,1],"goal":2,"start":5,"action_noise":0.15,"location_history":"[5,4,0,5,4,0,5,0,1,3,2]","action_history":"[0,0,0,0,0,0,1,1,1,1]","mutagen_history":"[0,0,0,0,0,0,1,1,1,1]","location_rts":"[1516,1883,1334,341,671,567,632,10128,1221,253]","trial_type":"fractal-mutation","trial_index":102,"time_elapsed":3637322,"internal_node_id":"0.0-5.0-48.0"},{"group":"hexagon_tri","fractal_assignment":["../images/gry_blk.png","../images/blu_wht.png","../images/org_blu.png","../images/cyn_red.png","../images/ylw_slt.png","../images/pnk_blu.png"],"mutagen_generator_assignment":[0,1],"goal":1,"start":2,"action_noise":0.15,"location_history":"[2,3,2,1]","action_history":"[1,0,0]","mutagen_history":"[1,0,0]","location_rts":"[1711,1300,1009]","trial_type":"fractal-mutation","trial_index":103,"time_elapsed":3648631,"internal_node_id":"0.0-5.0-49.0"},{"view_history":"[{\"page_index\":0,\"viewing_time\":2311}]","rt":2312,"trial_type":"instructions","trial_index":104,"time_elapsed":3651945,"internal_node_id":"0.0-6.0"},{"rt":19854,"responses":"{\"Q0\":\"attention to detail\"}","trial_type":"survey-text","trial_index":105,"time_elapsed":3672813,"internal_node_id":"0.0-7.0-0.0"},{"rt":30059,"responses":"{\"Q0\":\"the way to get the desired element wit the less amount of work\"}","trial_type":"survey-text","trial_index":106,"time_elapsed":3703878,"internal_node_id":"0.0-7.0-1.0"},{"rt":31268,"responses":"{\"Q0\":\"<img src='../images/diagrams/hexagon_bi.png'>\"}","trial_type":"survey-multi-choice","trial_index":107,"time_elapsed":3736192,"internal_node_id":"0.0-7.0-2.0"},{"rt":43226,"assignments":["../images/gry_blk.png","../images/ylw_slt.png","../images/blu_wht.png","../images/cyn_red.png","../images/pnk_blu.png","../images/org_blu.png"],"trial_type":"drag-drop-on-image","trial_index":108,"time_elapsed":3780457,"internal_node_id":"0.0-7.0-3.0"},{"rt":6053,"responses":"{\"Q0\":\"3\"}","trial_type":"survey-likert","trial_index":109,"time_elapsed":3787518,"internal_node_id":"0.0-7.0-4.0"},{"rt":51941,"responses":"{\"Q0\":\"it was the rythum of the pairs that showed up per click were similar to other set of objects\"}","trial_type":"survey-text","trial_index":110,"time_elapsed":3840466,"internal_node_id":"0.0-7.0-5.0"},{"rt":9712,"responses":"{\"Q0\":\"Yes\"}","trial_type":"survey-multi-choice","trial_index":111,"time_elapsed":3851194,"internal_node_id":"0.0-7.0-6.0"},{"rt":6883,"responses":"{\"Q0\":\"Between sessions 1 and 2\"}","trial_type":"survey-multi-choice","trial_index":112,"time_elapsed":3859089,"internal_node_id":"0.0-7.0-7.0"},{"rt":5839,"responses":"{\"Q0\":\"\"}","trial_type":"survey-text","trial_index":113,"time_elapsed":3865932,"internal_node_id":"0.0-7.0-8.0"},{"rt":5495,"responses":"{\"Q0\":\"3\"}","trial_type":"survey-likert","trial_index":114,"time_elapsed":3872433,"internal_node_id":"0.0-7.0-9.0"},{"rt":5106,"responses":"{\"Q0\":\"Same structure\"}","trial_type":"survey-multi-choice","trial_index":115,"time_elapsed":3878554,"internal_node_id":"0.0-7.0-10.0"},{"rt":9768,"responses":"{\"Q0\":\"left (white) door = acid, right (black) door = ray\",\"Q1\":\"Pretty confident\"}","trial_type":"survey-multi-choice","trial_index":116,"time_elapsed":3889407,"internal_node_id":"0.0-7.0-11.0"},{"rt":8313,"responses":"{\"Q0\":\"25-35\",\"Q1\":\"High school degree or GED\",\"Q2\":\"Female\",\"Q3\":\"White\"}","trial_type":"survey-multi-choice","trial_index":117,"time_elapsed":3898750,"internal_node_id":"0.0-8.0"},{"rt":25567,"responses":"{\"Q0\":\"interesting\"}","trial_type":"survey-text","trial_index":118,"time_elapsed":3925323,"internal_node_id":"0.0-9.0"}]