[{"view_history":"[{\"page_index\":0,\"viewing_time\":3954},{\"page_index\":1,\"viewing_time\":17286}]","rt":21241,"trial_type":"instructions","trial_index":0,"time_elapsed":21241,"internal_node_id":"0.0-0.0"},{"view_history":"[{\"page_index\":0,\"viewing_time\":3497},{\"page_index\":1,\"viewing_time\":2992}]","rt":6489,"trial_type":"instructions","trial_index":1,"time_elapsed":28736,"internal_node_id":"0.0-1.0"},{"group":"hexagon_bi","room_assignment":["yellow","green","purple","blue","grey","red"],"door_color_assignment":["black","white"],"door_generator_assignment":[1,0],"goal":2,"start":1,"action_noise":0.15,"location_history":"[1,2]","action_history":"[1]","door_history":"[0]","location_rts":"[1932]","trial_type":"two-door-navigation","trial_index":2,"time_elapsed":35197,"internal_node_id":"0.0-2.0-0.0"},{"group":"hexagon_bi","room_assignment":["yellow","green","purple","blue","grey","red"],"door_color_assignment":["black","white"],"door_generator_assignment":[1,0],"goal":0,"start":2,"action_noise":0.15,"location_history":"[2,3,4,3,4,3,4,3,4,3,2,1,0]","action_history":"[0,1,0,0,1,0,0,0,0,1,0,1]","door_history":"[1,0,1,1,0,1,1,1,1,0,1,0]","location_rts":"[689,563,428,307,662,205,140,140,131,524,436,635]","trial_type":"two-door-navigation","trial_index":3,"time_elapsed":55803,"internal_node_id":"0.0-2.0-1.0"},{"group":"hexagon_bi","room_assignment":["yellow","green","purple","blue","grey","red"],"door_color_assignment":["black","white"],"door_generator_assignment":[1,0],"goal":5,"start":0,"action_noise":0.15,"location_history":"[0,5]","action_history":"[0]","door_history":"[1]","location_rts":"[421]","trial_type":"two-door-navigation","trial_index":4,"time_elapsed":60748,"internal_node_id":"0.0-2.0-2.0"},{"group":"hexagon_bi","room_assignment":["yellow","green","purple","blue","grey","red"],"door_color_assignment":["black","white"],"door_generator_assignment":[1,0],"goal":1,"start":5,"action_noise":0.15,"location_history":"[5,4,5,0,5,4,5,4,3,2,1]","action_history":"[0,1,0,0,1,1,1,0,1,0]","door_history":"[1,0,1,1,0,0,0,1,0,1]","location_rts":"[413,215,365,474,321,99,131,156,69,38]","trial_type":"two-door-navigation","trial_index":5,"time_elapsed":76731,"internal_node_id":"0.0-2.0-3.0"},{"group":"hexagon_bi","room_assignment":["yellow","green","purple","blue","grey","red"],"door_color_assignment":["black","white"],"door_generator_assignment":[1,0],"goal":3,"start":1,"action_noise":0.15,"location_history":"[1,0,1,0,5,4,3]","action_history":"[1,0,1,0,1,1]","door_history":"[0,1,0,1,0,0]","location_rts":"[597,77,44,92,37,107]","trial_type":"two-door-navigation","trial_index":6,"time_elapsed":87306,"internal_node_id":"0.0-2.0-4.0"},{"group":"hexagon_bi","room_assignment":["yellow","green","purple","blue","grey","red"],"door_color_assignment":["black","white"],"door_generator_assignment":[1,0],"goal":5,"start":3,"action_noise":0.15,"location_history":"[3,4,5]","action_history":"[0,1]","door_history":"[1,0]","location_rts":"[357,84]","trial_type":"two-door-navigation","trial_index":7,"time_elapsed":93291,"internal_node_id":"0.0-2.0-5.0"},{"group":"hexagon_bi","room_assignment":["yellow","green","purple","blue","grey","red"],"door_color_assignment":["black","white"],"door_generator_assignment":[1,0],"goal":4,"start":5,"action_noise":0.15,"location_history":"[5,4]","action_history":"[1]","door_history":"[0]","location_rts":"[509]","trial_type":"two-door-navigation","trial_index":8,"time_elapsed":98321,"internal_node_id":"0.0-2.0-6.0"},{"group":"hexagon_bi","room_assignment":["yellow","green","purple","blue","grey","red"],"door_color_assignment":["black","white"],"door_generator_assignment":[1,0],"goal":0,"start":4,"action_noise":0.15,"location_history":"[4,3,2,3,4,3,2,1,0]","action_history":"[0,1,1,0,0,1,0,1]","door_history":"[1,0,0,1,1,0,1,0]","location_rts":"[311,147,124,365,220,123,189,53]","trial_type":"two-door-navigation","trial_index":9,"time_elapsed":111515,"internal_node_id":"0.0-2.0-7.0"},{"group":"hexagon_bi","room_assignment":["yellow","green","purple","blue","grey","red"],"door_color_assignment":["black","white"],"door_generator_assignment":[1,0],"goal":2,"start":0,"action_noise":0.15,"location_history":"[0,5,4,3,4,5,0,1,0,5,4,5,4,5,0,1,2]","action_history":"[0,1,0,0,1,0,1,1,0,0,1,0,1,0,0,0]","door_history":"[1,0,1,1,0,1,0,0,1,1,0,1,0,1,1,1]","location_rts":"[324,68,68,28,43,46,35,36,499,100,132,76,133,485,204,229]","trial_type":"two-door-navigation","trial_index":10,"time_elapsed":133843,"internal_node_id":"0.0-2.0-8.0"},{"group":"hexagon_bi","room_assignment":["yellow","green","purple","blue","grey","red"],"door_color_assignment":["black","white"],"door_generator_assignment":[1,0],"goal":4,"start":2,"action_noise":0.15,"location_history":"[2,3,2,1,0,5,0,1,2,3,2,1,0,1,2,1,0,1,0,5,4]","action_history":"[0,1,0,1,0,1,1,0,1,0,0,1,1,0,1,1,1,1,1,1]","door_history":"[1,0,1,0,1,0,0,1,0,1,1,0,0,1,0,0,0,0,0,0]","location_rts":"[324,51,45,44,68,7,236,235,131,84,187,180,108,842,310,139,99,244,147,211]","trial_type":"two-door-navigation","trial_index":11,"time_elapsed":161442,"internal_node_id":"0.0-2.0-9.0"},{"group":"hexagon_bi","room_assignment":["yellow","green","purple","blue","grey","red"],"door_color_assignment":["black","white"],"door_generator_assignment":[1,0],"goal":2,"start":4,"action_noise":0.15,"location_history":"[4,5,0,5,4,3,4,5,0,1,0,5,0,1,0,5,0,5,4,3,4,5,0,5,4,5,4,3,2]","action_history":"[1,0,0,1,0,0,1,0,1,1,0,0,1,1,0,1,0,0,1,0,1,1,1,1,1,1,0,1]","door_history":"[0,1,1,0,1,1,0,1,0,0,1,1,0,0,1,0,1,1,0,1,0,0,0,0,0,0,1,0]","location_rts":"[501,70,154,102,67,142,132,100,411,132,531,197,93,178,156,68,115,139,141,130,156,92,91,157,124,164,124,84]","trial_type":"two-door-navigation","trial_index":12,"time_elapsed":198059,"internal_node_id":"0.0-2.0-10.0"},{"group":"hexagon_bi","room_assignment":["yellow","green","purple","blue","grey","red"],"door_color_assignment":["black","white"],"door_generator_assignment":[1,0],"goal":3,"start":2,"action_noise":0.15,"location_history":"[2,3]","action_history":"[0]","door_history":"[1]","location_rts":"[340]","trial_type":"two-door-navigation","trial_index":13,"time_elapsed":202924,"internal_node_id":"0.0-2.0-11.0"},{"group":"hexagon_bi","room_assignment":["yellow","green","purple","blue","grey","red"],"door_color_assignment":["black","white"],"door_generator_assignment":[1,0],"goal":0,"start":3,"action_noise":0.15,"location_history":"[3,2,1,2,3,2,1,2,3,2,3,4,5,0]","action_history":"[1,0,0,1,1,1,0,1,1,1,0,1,0]","door_history":"[0,1,1,0,0,0,1,0,0,0,1,0,1]","location_rts":"[372,94,84,875,52,211,147,132,141,361,228,204,82]","trial_type":"two-door-navigation","trial_index":14,"time_elapsed":222675,"internal_node_id":"0.0-2.0-12.0"},{"group":"hexagon_bi","room_assignment":["yellow","green","purple","blue","grey","red"],"door_color_assignment":["black","white"],"door_generator_assignment":[1,0],"goal":5,"start":0,"action_noise":0.15,"location_history":"[0,1,0,5]","action_history":"[0,1,0]","door_history":"[1,0,1]","location_rts":"[1332,388,702]","trial_type":"two-door-navigation","trial_index":15,"time_elapsed":231660,"internal_node_id":"0.0-2.0-13.0"},{"group":"hexagon_bi","room_assignment":["yellow","green","purple","blue","grey","red"],"door_color_assignment":["black","white"],"door_generator_assignment":[1,0],"goal":1,"start":5,"action_noise":0.15,"location_history":"[5,4,5,0,5,0,5,4,5,0,5,0,1]","action_history":"[0,1,0,0,1,0,1,1,0,0,0,1]","door_history":"[1,0,1,1,0,1,0,0,1,1,1,0]","location_rts":"[1450,55,44,125,701,148,127,74,326,203,188,164]","trial_type":"two-door-navigation","trial_index":16,"time_elapsed":251001,"internal_node_id":"0.0-2.0-14.0"},{"group":"hexagon_bi","room_assignment":["yellow","green","purple","blue","grey","red"],"door_color_assignment":["black","white"],"door_generator_assignment":[1,0],"goal":5,"start":1,"action_noise":0.15,"location_history":"[1,2,1,0,1,2,3,2,1,2,3,2,3,2,3,2,1,2,1,0,5]","action_history":"[0,1,0,1,0,0,1,0,0,1,1,1,0,1,1,0,0,0,1,0]","door_history":"[1,0,1,0,1,1,0,1,1,0,0,0,1,0,0,1,1,1,0,1]","location_rts":"[384,11,83,28,109,181,125,123,565,317,235,709,126,100,979,156,405,277,172,267]","trial_type":"two-door-navigation","trial_index":17,"time_elapsed":280250,"internal_node_id":"0.0-2.0-15.0"},{"group":"hexagon_bi","room_assignment":["yellow","green","purple","blue","grey","red"],"door_color_assignment":["black","white"],"door_generator_assignment":[1,0],"goal":3,"start":5,"action_noise":0.15,"location_history":"[5,4,5,4,3]","action_history":"[1,0,1,0]","door_history":"[0,1,0,1]","location_rts":"[357,469,280,140]","trial_type":"two-door-navigation","trial_index":18,"time_elapsed":289082,"internal_node_id":"0.0-2.0-16.0"},{"group":"hexagon_bi","room_assignment":["yellow","green","purple","blue","grey","red"],"door_color_assignment":["black","white"],"door_generator_assignment":[1,0],"goal":2,"start":3,"action_noise":0.15,"location_history":"[3,2]","action_history":"[1]","door_history":"[0]","location_rts":"[301]","trial_type":"two-door-navigation","trial_index":19,"time_elapsed":293908,"internal_node_id":"0.0-2.0-17.0"},{"group":"hexagon_bi","room_assignment":["yellow","green","purple","blue","grey","red"],"door_color_assignment":["black","white"],"door_generator_assignment":[1,0],"goal":1,"start":2,"action_noise":0.15,"location_history":"[2,1]","action_history":"[0]","door_history":"[1]","location_rts":"[364]","trial_type":"two-door-navigation","trial_index":20,"time_elapsed":299076,"internal_node_id":"0.0-2.0-18.0"},{"group":"hexagon_bi","room_assignment":["yellow","green","purple","blue","grey","red"],"door_color_assignment":["black","white"],"door_generator_assignment":[1,0],"goal":4,"start":1,"action_noise":0.15,"location_history":"[1,2,1,0,5,0,5,4]","action_history":"[0,0,1,1,0,0,1]","door_history":"[1,1,0,0,1,1,0]","location_rts":"[1234,5677,930,157,156,148,29]","trial_type":"two-door-navigation","trial_index":21,"time_elapsed":318483,"internal_node_id":"0.0-2.0-19.0"},{"group":"hexagon_bi","room_assignment":["yellow","green","purple","blue","grey","red"],"door_color_assignment":["black","white"],"door_generator_assignment":[1,0],"goal":0,"start":4,"action_noise":0.15,"location_history":"[4,5,4,3,2,3,2,3,4,3,4,3,2,1,0]","action_history":"[0,1,0,1,0,1,1,0,0,1,0,0,0,1]","door_history":"[1,0,1,0,1,0,0,1,1,0,1,1,1,0]","location_rts":"[533,283,605,523,77,36,285,428,717,141,93,195,700,76]","trial_type":"two-door-navigation","trial_index":22,"time_elapsed":340955,"internal_node_id":"0.0-2.0-20.0"},{"group":"hexagon_bi","room_assignment":["yellow","green","purple","blue","grey","red"],"door_color_assignment":["black","white"],"door_generator_assignment":[1,0],"goal":3,"start":0,"action_noise":0.15,"location_history":"[0,5,4,5,0,1,2,3]","action_history":"[0,1,0,0,1,0,1]","door_history":"[1,0,1,1,0,1,0]","location_rts":"[732,341,104,222,67,221,61]","trial_type":"two-door-navigation","trial_index":23,"time_elapsed":353338,"internal_node_id":"0.0-2.0-21.0"},{"group":"hexagon_bi","room_assignment":["yellow","green","purple","blue","grey","red"],"door_color_assignment":["black","white"],"door_generator_assignment":[1,0],"goal":1,"start":3,"action_noise":0.15,"location_history":"[3,2,1]","action_history":"[1,0]","door_history":"[0,1]","location_rts":"[565,461]","trial_type":"two-door-navigation","trial_index":24,"time_elapsed":359905,"internal_node_id":"0.0-2.0-22.0"},{"group":"hexagon_bi","room_assignment":["yellow","green","purple","blue","grey","red"],"door_color_assignment":["black","white"],"door_generator_assignment":[1,0],"goal":0,"start":1,"action_noise":0.15,"location_history":"[1,0]","action_history":"[1]","door_history":"[0]","location_rts":"[1142]","trial_type":"two-door-navigation","trial_index":25,"time_elapsed":365570,"internal_node_id":"0.0-2.0-23.0"},{"group":"hexagon_bi","room_assignment":["yellow","green","purple","blue","grey","red"],"door_color_assignment":["black","white"],"door_generator_assignment":[1,0],"goal":2,"start":0,"action_noise":0.15,"location_history":"[0,5,4,3,2]","action_history":"[0,1,0,1]","door_history":"[1,0,1,0]","location_rts":"[374,461,380,140]","trial_type":"two-door-navigation","trial_index":26,"time_elapsed":374506,"internal_node_id":"0.0-2.0-24.0"},{"group":"hexagon_bi","room_assignment":["yellow","green","purple","blue","grey","red"],"door_color_assignment":["black","white"],"door_generator_assignment":[1,0],"goal":4,"start":2,"action_noise":0.15,"location_history":"[2,3,4]","action_history":"[1,0]","door_history":"[0,1]","location_rts":"[1428,54]","trial_type":"two-door-navigation","trial_index":27,"time_elapsed":381532,"internal_node_id":"0.0-2.0-25.0"},{"group":"hexagon_bi","room_assignment":["yellow","green","purple","blue","grey","red"],"door_color_assignment":["black","white"],"door_generator_assignment":[1,0],"goal":5,"start":4,"action_noise":0.15,"location_history":"[4,3,2,1,2,3,2,1,0,1,2,1,2,3,4,5]","action_history":"[0,1,0,0,1,0,0,1,1,1,0,0,1,0,1]","door_history":"[1,0,1,1,0,1,1,0,0,0,1,1,0,1,0]","location_rts":"[659,157,180,99,117,69,164,164,166,309,131,620,678,87,108]","trial_type":"two-door-navigation","trial_index":28,"time_elapsed":404033,"internal_node_id":"0.0-2.0-26.0"},{"group":"hexagon_bi","room_assignment":["yellow","green","purple","blue","grey","red"],"door_color_assignment":["black","white"],"door_generator_assignment":[1,0],"goal":2,"start":5,"action_noise":0.15,"location_history":"[5,4,5,4,3,4,5,0,1,0,5,4,3,2]","action_history":"[1,0,1,0,0,1,0,1,0,0,1,0,1]","door_history":"[0,1,0,1,1,0,1,0,1,1,0,1,0]","location_rts":"[382,77,53,75,69,51,21,43,52,84,69,67,37]","trial_type":"two-door-navigation","trial_index":29,"time_elapsed":421876,"internal_node_id":"0.0-2.0-27.0"},{"group":"hexagon_bi","room_assignment":["yellow","green","purple","blue","grey","red"],"door_color_assignment":["black","white"],"door_generator_assignment":[1,0],"goal":3,"start":2,"action_noise":0.15,"location_history":"[2,3]","action_history":"[1]","door_history":"[0]","location_rts":"[444]","trial_type":"two-door-navigation","trial_index":30,"time_elapsed":426842,"internal_node_id":"0.0-2.0-28.0"},{"group":"hexagon_bi","room_assignment":["yellow","green","purple","blue","grey","red"],"door_color_assignment":["black","white"],"door_generator_assignment":[1,0],"goal":1,"start":3,"action_noise":0.15,"location_history":"[3,4,5,0,5,4,3,2,1]","action_history":"[0,1,0,0,1,0,1,0]","door_history":"[1,0,1,1,0,1,0,1]","location_rts":"[502,100,277,228,117,51,4,52]","trial_type":"two-door-navigation","trial_index":31,"time_elapsed":439836,"internal_node_id":"0.0-2.0-29.0"},{"group":"hexagon_bi","room_assignment":["yellow","green","purple","blue","grey","red"],"door_color_assignment":["black","white"],"door_generator_assignment":[1,0],"goal":4,"start":1,"action_noise":0.15,"location_history":"[1,0,5,4]","action_history":"[1,0,1]","door_history":"[0,1,0]","location_rts":"[396,19,12]","trial_type":"two-door-navigation","trial_index":32,"time_elapsed":446827,"internal_node_id":"0.0-2.0-30.0"},{"group":"hexagon_bi","room_assignment":["yellow","green","purple","blue","grey","red"],"door_color_assignment":["black","white"],"door_generator_assignment":[1,0],"goal":5,"start":4,"action_noise":0.15,"location_history":"[4,3,2,1,2,3,4,3,2,1,0,5]","action_history":"[0,1,0,0,1,0,0,1,0,1,0]","door_history":"[1,0,1,1,0,1,1,0,1,0,1]","location_rts":"[444,334,390,227,38,60,86,35,90,45,3]","trial_type":"two-door-navigation","trial_index":33,"time_elapsed":463299,"internal_node_id":"0.0-2.0-31.0"},{"group":"hexagon_bi","room_assignment":["yellow","green","purple","blue","grey","red"],"door_color_assignment":["black","white"],"door_generator_assignment":[1,0],"goal":0,"start":5,"action_noise":0.15,"location_history":"[5,0]","action_history":"[0]","door_history":"[1]","location_rts":"[572]","trial_type":"two-door-navigation","trial_index":34,"time_elapsed":468394,"internal_node_id":"0.0-2.0-32.0"},{"group":"hexagon_bi","room_assignment":["yellow","green","purple","blue","grey","red"],"door_color_assignment":["black","white"],"door_generator_assignment":[1,0],"goal":2,"start":0,"action_noise":0.15,"location_history":"[0,1,2]","action_history":"[1,0]","door_history":"[0,1]","location_rts":"[1134,84]","trial_type":"two-door-navigation","trial_index":35,"time_elapsed":475154,"internal_node_id":"0.0-2.0-33.0"},{"group":"hexagon_bi","room_assignment":["yellow","green","purple","blue","grey","red"],"door_color_assignment":["black","white"],"door_generator_assignment":[1,0],"goal":0,"start":2,"action_noise":0.15,"location_history":"[2,3,2,3,4,3,2,1,2,3,4,3,4,5,0]","action_history":"[1,0,1,0,0,1,0,0,1,0,1,0,1,0]","door_history":"[0,1,0,1,1,0,1,1,0,1,0,1,0,1]","location_rts":"[341,83,52,60,82,5,110,139,84,83,46,139,35,204]","trial_type":"two-door-navigation","trial_index":36,"time_elapsed":494401,"internal_node_id":"0.0-2.0-34.0"},{"group":"hexagon_bi","room_assignment":["yellow","green","purple","blue","grey","red"],"door_color_assignment":["black","white"],"door_generator_assignment":[1,0],"goal":5,"start":0,"action_noise":0.15,"location_history":"[0,1,2,3,4,5]","action_history":"[1,0,1,0,1]","door_history":"[0,1,0,1,0]","location_rts":"[431,58,109,93,51]","trial_type":"two-door-navigation","trial_index":37,"time_elapsed":503744,"internal_node_id":"0.0-2.0-35.0"},{"group":"hexagon_bi","room_assignment":["yellow","green","purple","blue","grey","red"],"door_color_assignment":["black","white"],"door_generator_assignment":[1,0],"goal":1,"start":5,"action_noise":0.15,"location_history":"[5,0,5,0,5,4,5,4,5,0,1]","action_history":"[0,1,0,1,0,1,0,1,0,1]","door_history":"[1,0,1,0,1,0,1,0,1,0]","location_rts":"[327,1029,85,139,98,340,77,323,562,252]","trial_type":"two-door-navigation","trial_index":38,"time_elapsed":520683,"internal_node_id":"0.0-2.0-36.0"},{"group":"hexagon_bi","room_assignment":["yellow","green","purple","blue","grey","red"],"door_color_assignment":["black","white"],"door_generator_assignment":[1,0],"goal":4,"start":1,"action_noise":0.15,"location_history":"[1,2,3,4]","action_history":"[0,1,0]","door_history":"[1,0,1]","location_rts":"[419,59,93]","trial_type":"two-door-navigation","trial_index":39,"time_elapsed":527820,"internal_node_id":"0.0-2.0-37.0"},{"group":"hexagon_bi","room_assignment":["yellow","green","purple","blue","grey","red"],"door_color_assignment":["black","white"],"door_generator_assignment":[1,0],"goal":3,"start":4,"action_noise":0.15,"location_history":"[4,5,0,1,2,3]","action_history":"[1,0,1,0,1]","door_history":"[0,1,0,1,0]","location_rts":"[404,123,260,293,70]","trial_type":"two-door-navigation","trial_index":40,"time_elapsed":537573,"internal_node_id":"0.0-2.0-38.0"},{"group":"hexagon_bi","room_assignment":["yellow","green","purple","blue","grey","red"],"door_color_assignment":["black","white"],"door_generator_assignment":[1,0],"goal":5,"start":3,"action_noise":0.15,"location_history":"[3,2,1,0,5]","action_history":"[1,0,1,0]","door_history":"[0,1,0,1]","location_rts":"[594,638,610,621]","trial_type":"two-door-navigation","trial_index":41,"time_elapsed":547618,"internal_node_id":"0.0-2.0-39.0"},{"group":"hexagon_bi","room_assignment":["yellow","green","purple","blue","grey","red"],"door_color_assignment":["black","white"],"door_generator_assignment":[1,0],"goal":1,"start":5,"action_noise":0.15,"location_history":"[5,4,3,2,1]","action_history":"[1,0,1,0]","door_history":"[0,1,0,1]","location_rts":"[422,107,92,70]","trial_type":"two-door-navigation","trial_index":42,"time_elapsed":555892,"internal_node_id":"0.0-2.0-40.0"},{"group":"hexagon_bi","room_assignment":["yellow","green","purple","blue","grey","red"],"door_color_assignment":["black","white"],"door_generator_assignment":[1,0],"goal":2,"start":1,"action_noise":0.15,"location_history":"[1,0,5,0,1,2]","action_history":"[1,0,1,0,1]","door_history":"[0,1,0,1,0]","location_rts":"[459,4,11,12,20]","trial_type":"two-door-navigation","trial_index":43,"time_elapsed":565003,"internal_node_id":"0.0-2.0-41.0"},{"group":"hexagon_bi","room_assignment":["yellow","green","purple","blue","grey","red"],"door_color_assignment":["black","white"],"door_generator_assignment":[1,0],"goal":4,"start":2,"action_noise":0.15,"location_history":"[2,1,0,1,0,1,0,5,0,1,2,3,4]","action_history":"[0,1,0,1,0,1,0,0,1,0,1,0]","door_history":"[1,0,1,0,1,0,1,1,0,1,0,1]","location_rts":"[341,205,181,251,460,621,725,283,162,123,91,51]","trial_type":"two-door-navigation","trial_index":44,"time_elapsed":584242,"internal_node_id":"0.0-2.0-42.0"},{"group":"hexagon_bi","room_assignment":["yellow","green","purple","blue","grey","red"],"door_color_assignment":["black","white"],"door_generator_assignment":[1,0],"goal":0,"start":4,"action_noise":0.15,"location_history":"[4,5,0]","action_history":"[1,0]","door_history":"[0,1]","location_rts":"[454,13]","trial_type":"two-door-navigation","trial_index":45,"time_elapsed":590249,"internal_node_id":"0.0-2.0-43.0"},{"group":"hexagon_bi","room_assignment":["yellow","green","purple","blue","grey","red"],"door_color_assignment":["black","white"],"door_generator_assignment":[1,0],"goal":3,"start":0,"action_noise":0.15,"location_history":"[0,5,4,3]","action_history":"[0,1,0]","door_history":"[1,0,1]","location_rts":"[1200,51,90]","trial_type":"two-door-navigation","trial_index":46,"time_elapsed":598159,"internal_node_id":"0.0-2.0-44.0"},{"group":"hexagon_bi","room_assignment":["yellow","green","purple","blue","grey","red"],"door_color_assignment":["black","white"],"door_generator_assignment":[1,0],"goal":0,"start":3,"action_noise":0.15,"location_history":"[3,2,1,2,3,4,3,2,1,0]","action_history":"[1,0,1,0,1,0,1,0,1]","door_history":"[0,1,0,1,0,1,0,1,0]","location_rts":"[386,22,91,68,45,131,20,54,15]","trial_type":"two-door-navigation","trial_index":47,"time_elapsed":611668,"internal_node_id":"0.0-2.0-45.0"},{"group":"hexagon_bi","room_assignment":["yellow","green","purple","blue","grey","red"],"door_color_assignment":["black","white"],"door_generator_assignment":[1,0],"goal":4,"start":0,"action_noise":0.15,"location_history":"[0,5,4]","action_history":"[0,1]","door_history":"[1,0]","location_rts":"[428,43]","trial_type":"two-door-navigation","trial_index":48,"time_elapsed":617683,"internal_node_id":"0.0-2.0-46.0"},{"group":"hexagon_bi","room_assignment":["yellow","green","purple","blue","grey","red"],"door_color_assignment":["black","white"],"door_generator_assignment":[1,0],"goal":5,"start":4,"action_noise":0.15,"location_history":"[4,5]","action_history":"[0]","door_history":"[1]","location_rts":"[485]","trial_type":"two-door-navigation","trial_index":49,"time_elapsed":622692,"internal_node_id":"0.0-2.0-47.0"},{"group":"hexagon_bi","room_assignment":["yellow","green","purple","blue","grey","red"],"door_color_assignment":["black","white"],"door_generator_assignment":[1,0],"goal":2,"start":5,"action_noise":0.15,"location_history":"[5,4,3,2]","action_history":"[1,0,1]","door_history":"[0,1,0]","location_rts":"[420,20,53]","trial_type":"two-door-navigation","trial_index":50,"time_elapsed":629744,"internal_node_id":"0.0-2.0-48.0"},{"group":"hexagon_bi","room_assignment":["yellow","green","purple","blue","grey","red"],"door_color_assignment":["black","white"],"door_generator_assignment":[1,0],"goal":1,"start":2,"action_noise":0.15,"location_history":"[2,1]","action_history":"[0]","door_history":"[1]","location_rts":"[455]","trial_type":"two-door-navigation","trial_index":51,"time_elapsed":634723,"internal_node_id":"0.0-2.0-49.0"},{"view_history":"[{\"page_index\":0,\"viewing_time\":1870}]","rt":1870,"trial_type":"instructions","trial_index":52,"time_elapsed":637593,"internal_node_id":"0.0-3.0"},{"view_history":"[{\"page_index\":0,\"viewing_time\":543},{\"page_index\":1,\"viewing_time\":2439}]","rt":2983,"trial_type":"instructions","trial_index":53,"time_elapsed":641577,"internal_node_id":"0.0-4.0"},{"group":"hexagon_bi","fractal_assignment":["../images/blu_wht.png","../images/cyn_red.png","../images/pnk_blu.png","../images/gry_blk.png","../images/org_blu.png","../images/ylw_slt.png"],"mutagen_generator_assignment":[0,1],"goal":2,"start":1,"action_noise":0.15,"location_history":"[1,2]","action_history":"[0]","mutagen_history":"[0]","location_rts":"[5630]","trial_type":"fractal-mutation","trial_index":54,"time_elapsed":651735,"internal_node_id":"0.0-5.0-0.0"},{"group":"hexagon_bi","fractal_assignment":["../images/blu_wht.png","../images/cyn_red.png","../images/pnk_blu.png","../images/gry_blk.png","../images/org_blu.png","../images/ylw_slt.png"],"mutagen_generator_assignment":[0,1],"goal":0,"start":2,"action_noise":0.15,"location_history":"[2,3,4,3,4,3,4,5,0]","action_history":"[1,0,1,0,1,0,1,0]","mutagen_history":"[1,0,1,0,1,0,1,0]","location_rts":"[359,187,201,134,189,161,167,102]","trial_type":"fractal-mutation","trial_index":55,"time_elapsed":664971,"internal_node_id":"0.0-5.0-1.0"},{"group":"hexagon_bi","fractal_assignment":["../images/blu_wht.png","../images/cyn_red.png","../images/pnk_blu.png","../images/gry_blk.png","../images/org_blu.png","../images/ylw_slt.png"],"mutagen_generator_assignment":[0,1],"goal":5,"start":0,"action_noise":0.15,"location_history":"[0,1,0,5]","action_history":"[1,1,0]","mutagen_history":"[1,1,0]","location_rts":"[299,398,202]","trial_type":"fractal-mutation","trial_index":56,"time_elapsed":672443,"internal_node_id":"0.0-5.0-2.0"},{"group":"hexagon_bi","fractal_assignment":["../images/blu_wht.png","../images/cyn_red.png","../images/pnk_blu.png","../images/gry_blk.png","../images/org_blu.png","../images/ylw_slt.png"],"mutagen_generator_assignment":[0,1],"goal":1,"start":5,"action_noise":0.15,"location_history":"[5,4,3,2,1]","action_history":"[1,0,1,0]","mutagen_history":"[1,0,1,0]","location_rts":"[402,169,219,145]","trial_type":"fractal-mutation","trial_index":57,"time_elapsed":680978,"internal_node_id":"0.0-5.0-3.0"},{"group":"hexagon_bi","fractal_assignment":["../images/blu_wht.png","../images/cyn_red.png","../images/pnk_blu.png","../images/gry_blk.png","../images/org_blu.png","../images/ylw_slt.png"],"mutagen_generator_assignment":[0,1],"goal":3,"start":1,"action_noise":0.15,"location_history":"[1,0,5,4,3]","action_history":"[1,0,1,0]","mutagen_history":"[1,0,1,0]","location_rts":"[475,154,161,116]","trial_type":"fractal-mutation","trial_index":58,"time_elapsed":689491,"internal_node_id":"0.0-5.0-4.0"},{"group":"hexagon_bi","fractal_assignment":["../images/blu_wht.png","../images/cyn_red.png","../images/pnk_blu.png","../images/gry_blk.png","../images/org_blu.png","../images/ylw_slt.png"],"mutagen_generator_assignment":[0,1],"goal":5,"start":3,"action_noise":0.15,"location_history":"[3,2,3,2,1,0,5]","action_history":"[1,0,1,0,1,0]","mutagen_history":"[1,0,1,0,1,0]","location_rts":"[499,62,89,118,156,75]","trial_type":"fractal-mutation","trial_index":59,"time_elapsed":700139,"internal_node_id":"0.0-5.0-5.0"},{"group":"hexagon_bi","fractal_assignment":["../images/blu_wht.png","../images/cyn_red.png","../images/pnk_blu.png","../images/gry_blk.png","../images/org_blu.png","../images/ylw_slt.png"],"mutagen_generator_assignment":[0,1],"goal":4,"start":5,"action_noise":0.15,"location_history":"[5,0,5,4]","action_history":"[1,0,1]","mutagen_history":"[1,0,1]","location_rts":"[346,119,115]","trial_type":"fractal-mutation","trial_index":60,"time_elapsed":707294,"internal_node_id":"0.0-5.0-6.0"},{"group":"hexagon_bi","fractal_assignment":["../images/blu_wht.png","../images/cyn_red.png","../images/pnk_blu.png","../images/gry_blk.png","../images/org_blu.png","../images/ylw_slt.png"],"mutagen_generator_assignment":[0,1],"goal":0,"start":4,"action_noise":0.15,"location_history":"[4,5,0]","action_history":"[1,0]","mutagen_history":"[1,0]","location_rts":"[535,102]","trial_type":"fractal-mutation","trial_index":61,"time_elapsed":713483,"internal_node_id":"0.0-5.0-7.0"},{"group":"hexagon_bi","fractal_assignment":["../images/blu_wht.png","../images/cyn_red.png","../images/pnk_blu.png","../images/gry_blk.png","../images/org_blu.png","../images/ylw_slt.png"],"mutagen_generator_assignment":[0,1],"goal":2,"start":0,"action_noise":0.15,"location_history":"[0,1,2]","action_history":"[1,0]","mutagen_history":"[1,0]","location_rts":"[323,102]","trial_type":"fractal-mutation","trial_index":62,"time_elapsed":719459,"internal_node_id":"0.0-5.0-8.0"},{"group":"hexagon_bi","fractal_assignment":["../images/blu_wht.png","../images/cyn_red.png","../images/pnk_blu.png","../images/gry_blk.png","../images/org_blu.png","../images/ylw_slt.png"],"mutagen_generator_assignment":[0,1],"goal":4,"start":2,"action_noise":0.15,"location_history":"[2,1,2,3,4]","action_history":"[1,0,1,0]","mutagen_history":"[1,0,1,0]","location_rts":"[331,125,163,175]","trial_type":"fractal-mutation","trial_index":63,"time_elapsed":727851,"internal_node_id":"0.0-5.0-9.0"},{"group":"hexagon_bi","fractal_assignment":["../images/blu_wht.png","../images/cyn_red.png","../images/pnk_blu.png","../images/gry_blk.png","../images/org_blu.png","../images/ylw_slt.png"],"mutagen_generator_assignment":[0,1],"goal":2,"start":4,"action_noise":0.15,"location_history":"[4,5,0,5,0,1,2]","action_history":"[1,0,1,0,1,0]","mutagen_history":"[1,0,1,0,1,0]","location_rts":"[482,72,251,105,186,158]","trial_type":"fractal-mutation","trial_index":64,"time_elapsed":738747,"internal_node_id":"0.0-5.0-10.0"},{"group":"hexagon_bi","fractal_assignment":["../images/blu_wht.png","../images/cyn_red.png","../images/pnk_blu.png","../images/gry_blk.png","../images/org_blu.png","../images/ylw_slt.png"],"mutagen_generator_assignment":[0,1],"goal":3,"start":2,"action_noise":0.15,"location_history":"[2,3]","action_history":"[1]","mutagen_history":"[1]","location_rts":"[395]","trial_type":"fractal-mutation","trial_index":65,"time_elapsed":743668,"internal_node_id":"0.0-5.0-11.0"},{"group":"hexagon_bi","fractal_assignment":["../images/blu_wht.png","../images/cyn_red.png","../images/pnk_blu.png","../images/gry_blk.png","../images/org_blu.png","../images/ylw_slt.png"],"mutagen_generator_assignment":[0,1],"goal":0,"start":3,"action_noise":0.15,"location_history":"[3,4,3,2,3,4,3,2,1,0]","action_history":"[1,0,1,0,1,0,1,0,1]","mutagen_history":"[1,0,1,0,1,0,1,0,1]","location_rts":"[370,54,76,46,83,96,147,80,65]","trial_type":"fractal-mutation","trial_index":66,"time_elapsed":757395,"internal_node_id":"0.0-5.0-12.0"},{"group":"hexagon_bi","fractal_assignment":["../images/blu_wht.png","../images/cyn_red.png","../images/pnk_blu.png","../images/gry_blk.png","../images/org_blu.png","../images/ylw_slt.png"],"mutagen_generator_assignment":[0,1],"goal":5,"start":0,"action_noise":0.15,"location_history":"[0,1,2,3,2,1,0,1,2,3,4,5]","action_history":"[1,0,1,0,1,0,1,0,1,0,1]","mutagen_history":"[1,0,1,0,1,0,1,0,1,0,1]","location_rts":"[122,62,66,64,60,47,68,64,67,9,51]","trial_type":"fractal-mutation","trial_index":67,"time_elapsed":772831,"internal_node_id":"0.0-5.0-13.0"},{"group":"hexagon_bi","fractal_assignment":["../images/blu_wht.png","../images/cyn_red.png","../images/pnk_blu.png","../images/gry_blk.png","../images/org_blu.png","../images/ylw_slt.png"],"mutagen_generator_assignment":[0,1],"goal":1,"start":5,"action_noise":0.15,"location_history":"[5,4,3,4,3,2,1]","action_history":"[1,0,1,0,1,0]","mutagen_history":"[1,0,1,0,1,0]","location_rts":"[591,136,72,89,195,74]","trial_type":"fractal-mutation","trial_index":68,"time_elapsed":783628,"internal_node_id":"0.0-5.0-14.0"},{"group":"hexagon_bi","fractal_assignment":["../images/blu_wht.png","../images/cyn_red.png","../images/pnk_blu.png","../images/gry_blk.png","../images/org_blu.png","../images/ylw_slt.png"],"mutagen_generator_assignment":[0,1],"goal":5,"start":1,"action_noise":0.15,"location_history":"[1,0,5]","action_history":"[1,0]","mutagen_history":"[1,0]","location_rts":"[370,137]","trial_type":"fractal-mutation","trial_index":69,"time_elapsed":789683,"internal_node_id":"0.0-5.0-15.0"},{"group":"hexagon_bi","fractal_assignment":["../images/blu_wht.png","../images/cyn_red.png","../images/pnk_blu.png","../images/gry_blk.png","../images/org_blu.png","../images/ylw_slt.png"],"mutagen_generator_assignment":[0,1],"goal":3,"start":5,"action_noise":0.15,"location_history":"[5,4,3]","action_history":"[1,1]","mutagen_history":"[1,1]","location_rts":"[313,1472]","trial_type":"fractal-mutation","trial_index":70,"time_elapsed":797022,"internal_node_id":"0.0-5.0-16.0"},{"group":"hexagon_bi","fractal_assignment":["../images/blu_wht.png","../images/cyn_red.png","../images/pnk_blu.png","../images/gry_blk.png","../images/org_blu.png","../images/ylw_slt.png"],"mutagen_generator_assignment":[0,1],"goal":2,"start":3,"action_noise":0.15,"location_history":"[3,2]","action_history":"[1]","mutagen_history":"[1]","location_rts":"[1095]","trial_type":"fractal-mutation","trial_index":71,"time_elapsed":802645,"internal_node_id":"0.0-5.0-17.0"},{"group":"hexagon_bi","fractal_assignment":["../images/blu_wht.png","../images/cyn_red.png","../images/pnk_blu.png","../images/gry_blk.png","../images/org_blu.png","../images/ylw_slt.png"],"mutagen_generator_assignment":[0,1],"goal":1,"start":2,"action_noise":0.15,"location_history":"[2,3,4,5,0,1]","action_history":"[1,0,1,0,1]","mutagen_history":"[1,0,1,0,1]","location_rts":"[376,66,122,16,99]","trial_type":"fractal-mutation","trial_index":72,"time_elapsed":811939,"internal_node_id":"0.0-5.0-18.0"},{"group":"hexagon_bi","fractal_assignment":["../images/blu_wht.png","../images/cyn_red.png","../images/pnk_blu.png","../images/gry_blk.png","../images/org_blu.png","../images/ylw_slt.png"],"mutagen_generator_assignment":[0,1],"goal":4,"start":1,"action_noise":0.15,"location_history":"[1,0,5,4]","action_history":"[1,0,1]","mutagen_history":"[1,0,1]","location_rts":"[379,56,114]","trial_type":"fractal-mutation","trial_index":73,"time_elapsed":819060,"internal_node_id":"0.0-5.0-19.0"},{"group":"hexagon_bi","fractal_assignment":["../images/blu_wht.png","../images/cyn_red.png","../images/pnk_blu.png","../images/gry_blk.png","../images/org_blu.png","../images/ylw_slt.png"],"mutagen_generator_assignment":[0,1],"goal":0,"start":4,"action_noise":0.15,"location_history":"[4,5,4,5,0]","action_history":"[1,0,1,0]","mutagen_history":"[1,0,1,0]","location_rts":"[474,96,115,82]","trial_type":"fractal-mutation","trial_index":74,"time_elapsed":827419,"internal_node_id":"0.0-5.0-20.0"},{"group":"hexagon_bi","fractal_assignment":["../images/blu_wht.png","../images/cyn_red.png","../images/pnk_blu.png","../images/gry_blk.png","../images/org_blu.png","../images/ylw_slt.png"],"mutagen_generator_assignment":[0,1],"goal":3,"start":0,"action_noise":0.15,"location_history":"[0,1,2,3]","action_history":"[1,0,1]","mutagen_history":"[1,0,1]","location_rts":"[538,145,130]","trial_type":"fractal-mutation","trial_index":75,"time_elapsed":834813,"internal_node_id":"0.0-5.0-21.0"},{"group":"hexagon_bi","fractal_assignment":["../images/blu_wht.png","../images/cyn_red.png","../images/pnk_blu.png","../images/gry_blk.png","../images/org_blu.png","../images/ylw_slt.png"],"mutagen_generator_assignment":[0,1],"goal":1,"start":3,"action_noise":0.15,"location_history":"[3,2,1]","action_history":"[1,0]","mutagen_history":"[1,0]","location_rts":"[393,95]","trial_type":"fractal-mutation","trial_index":76,"time_elapsed":840861,"internal_node_id":"0.0-5.0-22.0"},{"group":"hexagon_bi","fractal_assignment":["../images/blu_wht.png","../images/cyn_red.png","../images/pnk_blu.png","../images/gry_blk.png","../images/org_blu.png","../images/ylw_slt.png"],"mutagen_generator_assignment":[0,1],"goal":0,"start":1,"action_noise":0.15,"location_history":"[1,0]","action_history":"[1]","mutagen_history":"[1]","location_rts":"[321]","trial_type":"fractal-mutation","trial_index":77,"time_elapsed":845717,"internal_node_id":"0.0-5.0-23.0"},{"group":"hexagon_bi","fractal_assignment":["../images/blu_wht.png","../images/cyn_red.png","../images/pnk_blu.png","../images/gry_blk.png","../images/org_blu.png","../images/ylw_slt.png"],"mutagen_generator_assignment":[0,1],"goal":2,"start":0,"action_noise":0.15,"location_history":"[0,5,4,5,4,5,0,1,2]","action_history":"[1,0,1,0,1,0,1,0]","mutagen_history":"[1,0,1,0,1,0,1,0]","location_rts":"[489,120,82,141,66,80,74,86]","trial_type":"fractal-mutation","trial_index":78,"time_elapsed":858555,"internal_node_id":"0.0-5.0-24.0"},{"group":"hexagon_bi","fractal_assignment":["../images/blu_wht.png","../images/cyn_red.png","../images/pnk_blu.png","../images/gry_blk.png","../images/org_blu.png","../images/ylw_slt.png"],"mutagen_generator_assignment":[0,1],"goal":4,"start":2,"action_noise":0.15,"location_history":"[2,3,4]","action_history":"[1,0]","mutagen_history":"[1,0]","location_rts":"[283,118]","trial_type":"fractal-mutation","trial_index":79,"time_elapsed":864508,"internal_node_id":"0.0-5.0-25.0"},{"group":"hexagon_bi","fractal_assignment":["../images/blu_wht.png","../images/cyn_red.png","../images/pnk_blu.png","../images/gry_blk.png","../images/org_blu.png","../images/ylw_slt.png"],"mutagen_generator_assignment":[0,1],"goal":5,"start":4,"action_noise":0.15,"location_history":"[4,5]","action_history":"[1]","mutagen_history":"[1]","location_rts":"[331]","trial_type":"fractal-mutation","trial_index":80,"time_elapsed":869368,"internal_node_id":"0.0-5.0-26.0"},{"group":"hexagon_bi","fractal_assignment":["../images/blu_wht.png","../images/cyn_red.png","../images/pnk_blu.png","../images/gry_blk.png","../images/org_blu.png","../images/ylw_slt.png"],"mutagen_generator_assignment":[0,1],"goal":2,"start":5,"action_noise":0.15,"location_history":"[5,4,3,4,3,2]","action_history":"[1,0,1,0,1]","mutagen_history":"[1,0,1,0,1]","location_rts":"[461,49,138,112,99]","trial_type":"fractal-mutation","trial_index":81,"time_elapsed":878860,"internal_node_id":"0.0-5.0-27.0"},{"group":"hexagon_bi","fractal_assignment":["../images/blu_wht.png","../images/cyn_red.png","../images/pnk_blu.png","../images/gry_blk.png","../images/org_blu.png","../images/ylw_slt.png"],"mutagen_generator_assignment":[0,1],"goal":3,"start":2,"action_noise":0.15,"location_history":"[2,3]","action_history":"[1]","mutagen_history":"[1]","location_rts":"[370]","trial_type":"fractal-mutation","trial_index":82,"time_elapsed":883758,"internal_node_id":"0.0-5.0-28.0"},{"group":"hexagon_bi","fractal_assignment":["../images/blu_wht.png","../images/cyn_red.png","../images/pnk_blu.png","../images/gry_blk.png","../images/org_blu.png","../images/ylw_slt.png"],"mutagen_generator_assignment":[0,1],"goal":1,"start":3,"action_noise":0.15,"location_history":"[3,2,1]","action_history":"[1,0]","mutagen_history":"[1,0]","location_rts":"[550,118]","trial_type":"fractal-mutation","trial_index":83,"time_elapsed":889978,"internal_node_id":"0.0-5.0-29.0"},{"group":"hexagon_bi","fractal_assignment":["../images/blu_wht.png","../images/cyn_red.png","../images/pnk_blu.png","../images/gry_blk.png","../images/org_blu.png","../images/ylw_slt.png"],"mutagen_generator_assignment":[0,1],"goal":4,"start":1,"action_noise":0.15,"location_history":"[1,0,5,4]","action_history":"[1,0,1]","mutagen_history":"[1,0,1]","location_rts":"[483,354,97]","trial_type":"fractal-mutation","trial_index":84,"time_elapsed":897484,"internal_node_id":"0.0-5.0-30.0"},{"group":"hexagon_bi","fractal_assignment":["../images/blu_wht.png","../images/cyn_red.png","../images/pnk_blu.png","../images/gry_blk.png","../images/org_blu.png","../images/ylw_slt.png"],"mutagen_generator_assignment":[0,1],"goal":5,"start":4,"action_noise":0.15,"location_history":"[4,5]","action_history":"[1]","mutagen_history":"[1]","location_rts":"[426]","trial_type":"fractal-mutation","trial_index":85,"time_elapsed":902437,"internal_node_id":"0.0-5.0-31.0"},{"group":"hexagon_bi","fractal_assignment":["../images/blu_wht.png","../images/cyn_red.png","../images/pnk_blu.png","../images/gry_blk.png","../images/org_blu.png","../images/ylw_slt.png"],"mutagen_generator_assignment":[0,1],"goal":0,"start":5,"action_noise":0.15,"location_history":"[5,0]","action_history":"[0]","mutagen_history":"[0]","location_rts":"[561]","trial_type":"fractal-mutation","trial_index":86,"time_elapsed":907524,"internal_node_id":"0.0-5.0-32.0"},{"group":"hexagon_bi","fractal_assignment":["../images/blu_wht.png","../images/cyn_red.png","../images/pnk_blu.png","../images/gry_blk.png","../images/org_blu.png","../images/ylw_slt.png"],"mutagen_generator_assignment":[0,1],"goal":2,"start":0,"action_noise":0.15,"location_history":"[0,1,2]","action_history":"[1,0]","mutagen_history":"[1,0]","location_rts":"[50,105]","trial_type":"fractal-mutation","trial_index":87,"time_elapsed":913227,"internal_node_id":"0.0-5.0-33.0"},{"group":"hexagon_bi","fractal_assignment":["../images/blu_wht.png","../images/cyn_red.png","../images/pnk_blu.png","../images/gry_blk.png","../images/org_blu.png","../images/ylw_slt.png"],"mutagen_generator_assignment":[0,1],"goal":0,"start":2,"action_noise":0.15,"location_history":"[2,1,0]","action_history":"[0,1]","mutagen_history":"[0,1]","location_rts":"[1196,170]","trial_type":"fractal-mutation","trial_index":88,"time_elapsed":920142,"internal_node_id":"0.0-5.0-34.0"},{"group":"hexagon_bi","fractal_assignment":["../images/blu_wht.png","../images/cyn_red.png","../images/pnk_blu.png","../images/gry_blk.png","../images/org_blu.png","../images/ylw_slt.png"],"mutagen_generator_assignment":[0,1],"goal":5,"start":0,"action_noise":0.15,"location_history":"[0,1,2,3,4,5]","action_history":"[1,0,1,0,1]","mutagen_history":"[1,0,1,0,1]","location_rts":"[863,54,90,130,106]","trial_type":"fractal-mutation","trial_index":89,"time_elapsed":930012,"internal_node_id":"0.0-5.0-35.0"},{"group":"hexagon_bi","fractal_assignment":["../images/blu_wht.png","../images/cyn_red.png","../images/pnk_blu.png","../images/gry_blk.png","../images/org_blu.png","../images/ylw_slt.png"],"mutagen_generator_assignment":[0,1],"goal":1,"start":5,"action_noise":0.15,"location_history":"[5,4,3,2,1]","action_history":"[1,0,1,0]","mutagen_history":"[1,0,1,0]","location_rts":"[905,176,138,126]","trial_type":"fractal-mutation","trial_index":90,"time_elapsed":938962,"internal_node_id":"0.0-5.0-36.0"},{"group":"hexagon_bi","fractal_assignment":["../images/blu_wht.png","../images/cyn_red.png","../images/pnk_blu.png","../images/gry_blk.png","../images/org_blu.png","../images/ylw_slt.png"],"mutagen_generator_assignment":[0,1],"goal":4,"start":1,"action_noise":0.15,"location_history":"[1,0,1,2,1,2,1,0,1,0,1,2,1,0,1,2,3,2,1,0,5,4]","action_history":"[0,1,0,1,0,0,1,1,0,1,0,0,1,1,0,1,1,0,1,0,1]","mutagen_history":"[0,1,0,1,0,0,1,1,0,1,0,0,1,1,0,1,1,0,1,0,1]","location_rts":"[978,179,163,122,145,475,195,215,188,163,118,65,203,151,208,145,150,190,99,150,91]","trial_type":"fractal-mutation","trial_index":91,"time_elapsed":968359,"internal_node_id":"0.0-5.0-37.0"},{"group":"hexagon_bi","fractal_assignment":["../images/blu_wht.png","../images/cyn_red.png","../images/pnk_blu.png","../images/gry_blk.png","../images/org_blu.png","../images/ylw_slt.png"],"mutagen_generator_assignment":[0,1],"goal":3,"start":4,"action_noise":0.15,"location_history":"[4,5,0,5,0,1,2,1,2,3]","action_history":"[1,0,1,0,1,0,1,0,1]","mutagen_history":"[1,0,1,0,1,0,1,0,1]","location_rts":"[393,110,83,111,84,97,115,57,130]","trial_type":"fractal-mutation","trial_index":92,"time_elapsed":982245,"internal_node_id":"0.0-5.0-38.0"},{"group":"hexagon_bi","fractal_assignment":["../images/blu_wht.png","../images/cyn_red.png","../images/pnk_blu.png","../images/gry_blk.png","../images/org_blu.png","../images/ylw_slt.png"],"mutagen_generator_assignment":[0,1],"goal":5,"start":3,"action_noise":0.15,"location_history":"[3,4,5]","action_history":"[0,1]","mutagen_history":"[0,1]","location_rts":"[720,138]","trial_type":"fractal-mutation","trial_index":93,"time_elapsed":988653,"internal_node_id":"0.0-5.0-39.0"},{"group":"hexagon_bi","fractal_assignment":["../images/blu_wht.png","../images/cyn_red.png","../images/pnk_blu.png","../images/gry_blk.png","../images/org_blu.png","../images/ylw_slt.png"],"mutagen_generator_assignment":[0,1],"goal":1,"start":5,"action_noise":0.15,"location_history":"[5,0,1]","action_history":"[0,1]","mutagen_history":"[0,1]","location_rts":"[399,123]","trial_type":"fractal-mutation","trial_index":94,"time_elapsed":994725,"internal_node_id":"0.0-5.0-40.0"},{"group":"hexagon_bi","fractal_assignment":["../images/blu_wht.png","../images/cyn_red.png","../images/pnk_blu.png","../images/gry_blk.png","../images/org_blu.png","../images/ylw_slt.png"],"mutagen_generator_assignment":[0,1],"goal":2,"start":1,"action_noise":0.15,"location_history":"[1,2]","action_history":"[0]","mutagen_history":"[0]","location_rts":"[465]","trial_type":"fractal-mutation","trial_index":95,"time_elapsed":999715,"internal_node_id":"0.0-5.0-41.0"},{"group":"hexagon_bi","fractal_assignment":["../images/blu_wht.png","../images/cyn_red.png","../images/pnk_blu.png","../images/gry_blk.png","../images/org_blu.png","../images/ylw_slt.png"],"mutagen_generator_assignment":[0,1],"goal":4,"start":2,"action_noise":0.15,"location_history":"[2,1,0,1,0,5,4]","action_history":"[0,1,0,1,0,1]","mutagen_history":"[0,1,0,1,0,1]","location_rts":"[851,226,169,106,264,588]","trial_type":"fractal-mutation","trial_index":96,"time_elapsed":1011558,"internal_node_id":"0.0-5.0-42.0"},{"group":"hexagon_bi","fractal_assignment":["../images/blu_wht.png","../images/cyn_red.png","../images/pnk_blu.png","../images/gry_blk.png","../images/org_blu.png","../images/ylw_slt.png"],"mutagen_generator_assignment":[0,1],"goal":0,"start":4,"action_noise":0.15,"location_history":"[4,3,2,1,0]","action_history":"[0,1,0,1]","mutagen_history":"[0,1,0,1]","location_rts":"[623,187,81,66]","trial_type":"fractal-mutation","trial_index":97,"time_elapsed":1020112,"internal_node_id":"0.0-5.0-43.0"},{"group":"hexagon_bi","fractal_assignment":["../images/blu_wht.png","../images/cyn_red.png","../images/pnk_blu.png","../images/gry_blk.png","../images/org_blu.png","../images/ylw_slt.png"],"mutagen_generator_assignment":[0,1],"goal":3,"start":0,"action_noise":0.15,"location_history":"[0,5,4,5,4,3]","action_history":"[0,1,0,1,0]","mutagen_history":"[0,1,0,1,0]","location_rts":"[1766,83,138,34,231]","trial_type":"fractal-mutation","trial_index":98,"time_elapsed":1030978,"internal_node_id":"0.0-5.0-44.0"},{"group":"hexagon_bi","fractal_assignment":["../images/blu_wht.png","../images/cyn_red.png","../images/pnk_blu.png","../images/gry_blk.png","../images/org_blu.png","../images/ylw_slt.png"],"mutagen_generator_assignment":[0,1],"goal":0,"start":3,"action_noise":0.15,"location_history":"[3,2,3,2,1,0]","action_history":"[1,0,1,0,1]","mutagen_history":"[1,0,1,0,1]","location_rts":"[708,147,99,168,115]","trial_type":"fractal-mutation","trial_index":99,"time_elapsed":1040828,"internal_node_id":"0.0-5.0-45.0"},{"group":"hexagon_bi","fractal_assignment":["../images/blu_wht.png","../images/cyn_red.png","../images/pnk_blu.png","../images/gry_blk.png","../images/org_blu.png","../images/ylw_slt.png"],"mutagen_generator_assignment":[0,1],"goal":4,"start":0,"action_noise":0.15,"location_history":"[0,1,2,3,4]","action_history":"[1,0,1,0]","mutagen_history":"[1,0,1,0]","location_rts":"[538,744,266,329]","trial_type":"fractal-mutation","trial_index":100,"time_elapsed":1050307,"internal_node_id":"0.0-5.0-46.0"},{"group":"hexagon_bi","fractal_assignment":["../images/blu_wht.png","../images/cyn_red.png","../images/pnk_blu.png","../images/gry_blk.png","../images/org_blu.png","../images/ylw_slt.png"],"mutagen_generator_assignment":[0,1],"goal":5,"start":4,"action_noise":0.15,"location_history":"[4,5]","action_history":"[1]","mutagen_history":"[1]","location_rts":"[506]","trial_type":"fractal-mutation","trial_index":101,"time_elapsed":1055354,"internal_node_id":"0.0-5.0-47.0"},{"group":"hexagon_bi","fractal_assignment":["../images/blu_wht.png","../images/cyn_red.png","../images/pnk_blu.png","../images/gry_blk.png","../images/org_blu.png","../images/ylw_slt.png"],"mutagen_generator_assignment":[0,1],"goal":2,"start":5,"action_noise":0.15,"location_history":"[5,0,1,2]","action_history":"[0,1,0]","mutagen_history":"[0,1,0]","location_rts":"[1172,113,176]","trial_type":"fractal-mutation","trial_index":102,"time_elapsed":1063388,"internal_node_id":"0.0-5.0-48.0"},{"group":"hexagon_bi","fractal_assignment":["../images/blu_wht.png","../images/cyn_red.png","../images/pnk_blu.png","../images/gry_blk.png","../images/org_blu.png","../images/ylw_slt.png"],"mutagen_generator_assignment":[0,1],"goal":1,"start":2,"action_noise":0.15,"location_history":"[2,1]","action_history":"[1]","mutagen_history":"[1]","location_rts":"[1394]","trial_type":"fractal-mutation","trial_index":103,"time_elapsed":1069310,"internal_node_id":"0.0-5.0-49.0"},{"view_history":"[{\"page_index\":0,\"viewing_time\":3483}]","rt":3484,"trial_type":"instructions","trial_index":104,"time_elapsed":1073794,"internal_node_id":"0.0-6.0"},{"rt":25717,"responses":"{\"Q0\":\"Thinking patterns and behavior when finding the correct colored door.\"}","trial_type":"survey-text","trial_index":105,"time_elapsed":1100515,"internal_node_id":"0.0-7.0-0.0"},{"rt":34204,"responses":"{\"Q0\":\"Using patterns and tools to find the correct outcome as quickly as possible.\"}","trial_type":"survey-text","trial_index":106,"time_elapsed":1135722,"internal_node_id":"0.0-7.0-1.0"},{"rt":43500,"responses":"{\"Q0\":\"<img src='../images/diagrams/hexagon_bi.png'>\"}","trial_type":"survey-multi-choice","trial_index":107,"time_elapsed":1180227,"internal_node_id":"0.0-7.0-2.0"},{"rt":59493,"assignments":["../images/blu_wht.png","../images/org_blu.png","../images/cyn_red.png","../images/pnk_blu.png","../images/ylw_slt.png","../images/gry_blk.png"],"trial_type":"drag-drop-on-image","trial_index":108,"time_elapsed":1240721,"internal_node_id":"0.0-7.0-3.0"},{"rt":9574,"responses":"{\"Q0\":\"1\"}","trial_type":"survey-likert","trial_index":109,"time_elapsed":1251298,"internal_node_id":"0.0-7.0-4.0"},{"rt":29646,"responses":"{\"Q0\":\"They had similar ways of getting to the correct destination when changing the way you wanted to go.\"}","trial_type":"survey-text","trial_index":110,"time_elapsed":1281945,"internal_node_id":"0.0-7.0-5.0"},{"rt":6133,"responses":"{\"Q0\":\"No\"}","trial_type":"survey-multi-choice","trial_index":111,"time_elapsed":1289082,"internal_node_id":"0.0-7.0-6.0"},{"rt":9682,"responses":"{\"Q0\":\"During these questions/I wasn't aware until you pointed it out\"}","trial_type":"survey-multi-choice","trial_index":112,"time_elapsed":1299769,"internal_node_id":"0.0-7.0-7.0"},{"rt":16222,"responses":"{\"Q0\":\"I did not find the correspondence. \"}","trial_type":"survey-text","trial_index":113,"time_elapsed":1316994,"internal_node_id":"0.0-7.0-8.0"},{"rt":9933,"responses":"{\"Q0\":\"2\"}","trial_type":"survey-likert","trial_index":114,"time_elapsed":1327929,"internal_node_id":"0.0-7.0-9.0"},{"rt":9805,"responses":"{\"Q0\":\"Same structure\"}","trial_type":"survey-multi-choice","trial_index":115,"time_elapsed":1338737,"internal_node_id":"0.0-7.0-10.0"},{"rt":43688,"responses":"{\"Q0\":\"left (black) door = acid, right (white) door = ray\",\"Q1\":\"Moderately confident\"}","trial_type":"survey-multi-choice","trial_index":116,"time_elapsed":1383434,"internal_node_id":"0.0-7.0-11.0"},{"rt":11524,"responses":"{\"Q0\":\"35-45\",\"Q1\":\"Bachelor's degree\",\"Q2\":\"Male\",\"Q3\":\"White\"}","trial_type":"survey-multi-choice","trial_index":117,"time_elapsed":1395969,"internal_node_id":"0.0-8.0"},{"rt":9525,"responses":"{\"Q0\":\"Thank you for having me today!\"}","trial_type":"survey-text","trial_index":118,"time_elapsed":1406497,"internal_node_id":"0.0-9.0"}]