[{"view_history":"[{\"page_index\":0,\"viewing_time\":4552},{\"page_index\":1,\"viewing_time\":9056}]","rt":13610,"trial_type":"instructions","trial_index":0,"time_elapsed":13612,"internal_node_id":"0.0-0.0"},{"view_history":"[{\"page_index\":0,\"viewing_time\":17310},{\"page_index\":1,\"viewing_time\":2708}]","rt":20018,"trial_type":"instructions","trial_index":1,"time_elapsed":34632,"internal_node_id":"0.0-1.0"},{"group":"hexagon_tri","room_assignment":["grey","red","green","purple","blue","yellow"],"door_color_assignment":["white","black"],"door_generator_assignment":[1,0],"goal":2,"start":1,"action_noise":0.15,"location_history":"[1,5,4,2]","action_history":"[1,0,1]","door_history":"[0,1,0]","location_rts":"[8088,1664,1148]","trial_type":"two-door-navigation","trial_index":2,"time_elapsed":52804,"internal_node_id":"0.0-2.0-0.0"},{"group":"hexagon_tri","room_assignment":["grey","red","green","purple","blue","yellow"],"door_color_assignment":["white","black"],"door_generator_assignment":[1,0],"goal":0,"start":2,"action_noise":0.15,"location_history":"[2,1,5,0]","action_history":"[0,1,1]","door_history":"[1,0,0]","location_rts":"[2302,1196,370]","trial_type":"two-door-navigation","trial_index":3,"time_elapsed":63278,"internal_node_id":"0.0-2.0-1.0"},{"group":"hexagon_tri","room_assignment":["grey","red","green","purple","blue","yellow"],"door_color_assignment":["white","black"],"door_generator_assignment":[1,0],"goal":5,"start":0,"action_noise":0.15,"location_history":"[0,5]","action_history":"[0]","door_history":"[1]","location_rts":"[7374]","trial_type":"two-door-navigation","trial_index":4,"time_elapsed":75200,"internal_node_id":"0.0-2.0-2.0"},{"group":"hexagon_tri","room_assignment":["grey","red","green","purple","blue","yellow"],"door_color_assignment":["white","black"],"door_generator_assignment":[1,0],"goal":1,"start":5,"action_noise":0.15,"location_history":"[5,0,5,4,0,5,4,0,5,0,5,4,2,1]","action_history":"[1,0,0,0,0,0,1,1,1,1,0,0,0]","door_history":"[0,1,1,1,1,1,0,0,0,0,1,1,1]","location_rts":"[1042,826,430,630,466,460,404,604,368,376,7450,6434,490]","trial_type":"two-door-navigation","trial_index":5,"time_elapsed":112400,"internal_node_id":"0.0-2.0-3.0"},{"group":"hexagon_tri","room_assignment":["grey","red","green","purple","blue","yellow"],"door_color_assignment":["white","black"],"door_generator_assignment":[1,0],"goal":3,"start":1,"action_noise":0.15,"location_history":"[1,3]","action_history":"[1]","door_history":"[0]","location_rts":"[4294]","trial_type":"two-door-navigation","trial_index":6,"time_elapsed":121242,"internal_node_id":"0.0-2.0-4.0"},{"group":"hexagon_tri","room_assignment":["grey","red","green","purple","blue","yellow"],"door_color_assignment":["white","black"],"door_generator_assignment":[1,0],"goal":5,"start":3,"action_noise":0.15,"location_history":"[3,2,1,3,4,2,3,4,0,1,3,2,1,3,4,0,5]","action_history":"[0,0,0,0,1,1,1,0,0,0,0,0,0,0,0,0]","door_history":"[1,1,1,1,0,0,0,1,1,1,1,1,1,1,1,1]","location_rts":"[3708,334,1600,3540,1746,12876,500,680,296,356,336,360,574,322,484,710]","trial_type":"two-door-navigation","trial_index":7,"time_elapsed":169684,"internal_node_id":"0.0-2.0-5.0"},{"group":"hexagon_tri","room_assignment":["grey","red","green","purple","blue","yellow"],"door_color_assignment":["white","black"],"door_generator_assignment":[1,0],"goal":4,"start":5,"action_noise":0.15,"location_history":"[5,4]","action_history":"[0]","door_history":"[1]","location_rts":"[16310]","trial_type":"two-door-navigation","trial_index":8,"time_elapsed":190552,"internal_node_id":"0.0-2.0-6.0"},{"group":"hexagon_tri","room_assignment":["grey","red","green","purple","blue","yellow"],"door_color_assignment":["white","black"],"door_generator_assignment":[1,0],"goal":0,"start":4,"action_noise":0.15,"location_history":"[4,2,3,4,2,3,2,1,3,2,3,2,1,5,4,0]","action_history":"[1,1,1,1,0,0,0,0,0,1,0,0,0,0,0]","door_history":"[0,0,0,0,1,1,1,1,1,0,1,1,1,1,1]","location_rts":"[1978,510,450,498,860,584,628,1202,1290,682,1092,8016,460,4036,2856]","trial_type":"two-door-navigation","trial_index":9,"time_elapsed":234830,"internal_node_id":"0.0-2.0-7.0"},{"group":"hexagon_tri","room_assignment":["grey","red","green","purple","blue","yellow"],"door_color_assignment":["white","black"],"door_generator_assignment":[1,0],"goal":2,"start":0,"action_noise":0.15,"location_history":"[0,5,4,0,5,4,0,1,5,0,1,3,2]","action_history":"[0,1,0,0,0,0,0,1,1,1,0,0]","door_history":"[1,0,1,1,1,1,1,0,0,0,1,1]","location_rts":"[5518,316,27590,1338,512,354,584,1204,1044,552,1440,486]","trial_type":"two-door-navigation","trial_index":10,"time_elapsed":292916,"internal_node_id":"0.0-2.0-8.0"},{"group":"hexagon_tri","room_assignment":["grey","red","green","purple","blue","yellow"],"door_color_assignment":["white","black"],"door_generator_assignment":[1,0],"goal":4,"start":2,"action_noise":0.15,"location_history":"[2,1,3,4]","action_history":"[0,0,1]","door_history":"[1,1,0]","location_rts":"[5554,480,442]","trial_type":"two-door-navigation","trial_index":11,"time_elapsed":306078,"internal_node_id":"0.0-2.0-9.0"},{"group":"hexagon_tri","room_assignment":["grey","red","green","purple","blue","yellow"],"door_color_assignment":["white","black"],"door_generator_assignment":[1,0],"goal":2,"start":4,"action_noise":0.15,"location_history":"[4,0,5,0,5,4,0,5,4,0,5,0,1,3,4,0,5,4,2]","action_history":"[0,1,1,0,0,0,0,1,0,1,1,1,1,1,0,0,0,1]","door_history":"[1,0,0,1,1,1,1,0,1,0,0,0,0,0,1,1,1,0]","location_rts":"[620,542,474,1150,304,730,456,208,322,742,294,700,830,372,522,538,456,1386]","trial_type":"two-door-navigation","trial_index":12,"time_elapsed":339464,"internal_node_id":"0.0-2.0-10.0"},{"group":"hexagon_tri","room_assignment":["grey","red","green","purple","blue","yellow"],"door_color_assignment":["white","black"],"door_generator_assignment":[1,0],"goal":3,"start":2,"action_noise":0.15,"location_history":"[2,1,5,0,1,3]","action_history":"[0,1,1,1,0]","door_history":"[1,0,0,0,1]","location_rts":"[2672,408,456,256,744]","trial_type":"two-door-navigation","trial_index":13,"time_elapsed":352652,"internal_node_id":"0.0-2.0-11.0"},{"group":"hexagon_tri","room_assignment":["grey","red","green","purple","blue","yellow"],"door_color_assignment":["white","black"],"door_generator_assignment":[1,0],"goal":0,"start":3,"action_noise":0.15,"location_history":"[3,2,3,4,0]","action_history":"[0,1,1,0]","door_history":"[1,0,0,1]","location_rts":"[2920,454,328,1176]","trial_type":"two-door-navigation","trial_index":14,"time_elapsed":365246,"internal_node_id":"0.0-2.0-12.0"},{"group":"hexagon_tri","room_assignment":["grey","red","green","purple","blue","yellow"],"door_color_assignment":["white","black"],"door_generator_assignment":[1,0],"goal":5,"start":0,"action_noise":0.15,"location_history":"[0,1,5]","action_history":"[1,0]","door_history":"[0,1]","location_rts":"[17606,628]","trial_type":"two-door-navigation","trial_index":15,"time_elapsed":389066,"internal_node_id":"0.0-2.0-13.0"},{"group":"hexagon_tri","room_assignment":["grey","red","green","purple","blue","yellow"],"door_color_assignment":["white","black"],"door_generator_assignment":[1,0],"goal":1,"start":5,"action_noise":0.15,"location_history":"[5,0,5,0,1]","action_history":"[0,0,1,1]","door_history":"[1,1,0,0]","location_rts":"[1744,424,512,20392]","trial_type":"two-door-navigation","trial_index":16,"time_elapsed":419792,"internal_node_id":"0.0-2.0-14.0"},{"group":"hexagon_tri","room_assignment":["grey","red","green","purple","blue","yellow"],"door_color_assignment":["white","black"],"door_generator_assignment":[1,0],"goal":5,"start":1,"action_noise":0.15,"location_history":"[1,5]","action_history":"[0]","door_history":"[1]","location_rts":"[18676]","trial_type":"two-door-navigation","trial_index":17,"time_elapsed":443024,"internal_node_id":"0.0-2.0-15.0"},{"group":"hexagon_tri","room_assignment":["grey","red","green","purple","blue","yellow"],"door_color_assignment":["white","black"],"door_generator_assignment":[1,0],"goal":3,"start":5,"action_noise":0.15,"location_history":"[5,0,1,3]","action_history":"[0,1,0]","door_history":"[1,0,1]","location_rts":"[17048,1286,470]","trial_type":"two-door-navigation","trial_index":18,"time_elapsed":468434,"internal_node_id":"0.0-2.0-16.0"},{"group":"hexagon_tri","room_assignment":["grey","red","green","purple","blue","yellow"],"door_color_assignment":["white","black"],"door_generator_assignment":[1,0],"goal":2,"start":3,"action_noise":0.15,"location_history":"[3,4,0,1,5,4,2]","action_history":"[1,0,1,1,0,1]","door_history":"[0,1,0,0,1,0]","location_rts":"[23366,444,464,524,472,462]","trial_type":"two-door-navigation","trial_index":19,"time_elapsed":503986,"internal_node_id":"0.0-2.0-17.0"},{"group":"hexagon_tri","room_assignment":["grey","red","green","purple","blue","yellow"],"door_color_assignment":["white","black"],"door_generator_assignment":[1,0],"goal":1,"start":2,"action_noise":0.15,"location_history":"[2,1]","action_history":"[0]","door_history":"[1]","location_rts":"[1460]","trial_type":"two-door-navigation","trial_index":20,"time_elapsed":509978,"internal_node_id":"0.0-2.0-18.0"},{"group":"hexagon_tri","room_assignment":["grey","red","green","purple","blue","yellow"],"door_color_assignment":["white","black"],"door_generator_assignment":[1,0],"goal":4,"start":1,"action_noise":0.15,"location_history":"[1,3,4]","action_history":"[0,1]","door_history":"[1,0]","location_rts":"[2992,278]","trial_type":"two-door-navigation","trial_index":21,"time_elapsed":518822,"internal_node_id":"0.0-2.0-19.0"},{"group":"hexagon_tri","room_assignment":["grey","red","green","purple","blue","yellow"],"door_color_assignment":["white","black"],"door_generator_assignment":[1,0],"goal":0,"start":4,"action_noise":0.15,"location_history":"[4,0]","action_history":"[0]","door_history":"[1]","location_rts":"[3464]","trial_type":"two-door-navigation","trial_index":22,"time_elapsed":526862,"internal_node_id":"0.0-2.0-20.0"},{"group":"hexagon_tri","room_assignment":["grey","red","green","purple","blue","yellow"],"door_color_assignment":["white","black"],"door_generator_assignment":[1,0],"goal":3,"start":0,"action_noise":0.15,"location_history":"[0,5,4,2,1,3]","action_history":"[0,0,1,0,0]","door_history":"[1,1,0,1,1]","location_rts":"[7052,402,66,18714,1542]","trial_type":"two-door-navigation","trial_index":23,"time_elapsed":563304,"internal_node_id":"0.0-2.0-21.0"},{"group":"hexagon_tri","room_assignment":["grey","red","green","purple","blue","yellow"],"door_color_assignment":["white","black"],"door_generator_assignment":[1,0],"goal":1,"start":3,"action_noise":0.15,"location_history":"[3,2,1]","action_history":"[0,0]","door_history":"[1,1]","location_rts":"[1642,9458]","trial_type":"two-door-navigation","trial_index":24,"time_elapsed":579968,"internal_node_id":"0.0-2.0-22.0"},{"group":"hexagon_tri","room_assignment":["grey","red","green","purple","blue","yellow"],"door_color_assignment":["white","black"],"door_generator_assignment":[1,0],"goal":0,"start":1,"action_noise":0.15,"location_history":"[1,3,2,1,3,4,2,1,3,2,3,4,2,3,2,1,3,2,1,5,0]","action_history":"[0,0,0,0,1,1,0,0,0,1,1,1,1,0,0,0,0,0,1,1]","door_history":"[1,1,1,1,0,0,1,1,1,0,0,0,0,1,1,1,1,1,0,0]","location_rts":"[4392,414,432,10610,382,878,884,36,1754,1072,874,8004,892,558,4160,674,412,12216,474,498]","trial_type":"two-door-navigation","trial_index":25,"time_elapsed":653738,"internal_node_id":"0.0-2.0-23.0"},{"group":"hexagon_tri","room_assignment":["grey","red","green","purple","blue","yellow"],"door_color_assignment":["white","black"],"door_generator_assignment":[1,0],"goal":2,"start":0,"action_noise":0.15,"location_history":"[0,5,0,1,3,2]","action_history":"[0,1,1,0,0]","door_history":"[1,0,0,1,1]","location_rts":"[55196,774,446,708,768]","trial_type":"two-door-navigation","trial_index":26,"time_elapsed":720334,"internal_node_id":"0.0-2.0-24.0"},{"group":"hexagon_tri","room_assignment":["grey","red","green","purple","blue","yellow"],"door_color_assignment":["white","black"],"door_generator_assignment":[1,0],"goal":4,"start":2,"action_noise":0.15,"location_history":"[2,3,4]","action_history":"[1,1]","door_history":"[0,0]","location_rts":"[6652,362]","trial_type":"two-door-navigation","trial_index":27,"time_elapsed":732906,"internal_node_id":"0.0-2.0-25.0"},{"group":"hexagon_tri","room_assignment":["grey","red","green","purple","blue","yellow"],"door_color_assignment":["white","black"],"door_generator_assignment":[1,0],"goal":5,"start":4,"action_noise":0.15,"location_history":"[4,0,5]","action_history":"[0,0]","door_history":"[1,1]","location_rts":"[11542,4894]","trial_type":"two-door-navigation","trial_index":28,"time_elapsed":754918,"internal_node_id":"0.0-2.0-26.0"},{"group":"hexagon_tri","room_assignment":["grey","red","green","purple","blue","yellow"],"door_color_assignment":["white","black"],"door_generator_assignment":[1,0],"goal":2,"start":5,"action_noise":0.15,"location_history":"[5,4,2]","action_history":"[0,0]","door_history":"[1,1]","location_rts":"[1042,1164]","trial_type":"two-door-navigation","trial_index":29,"time_elapsed":762678,"internal_node_id":"0.0-2.0-27.0"},{"group":"hexagon_tri","room_assignment":["grey","red","green","purple","blue","yellow"],"door_color_assignment":["white","black"],"door_generator_assignment":[1,0],"goal":3,"start":2,"action_noise":0.15,"location_history":"[2,1,5,4,0,5,4,2,3]","action_history":"[0,1,0,0,0,0,1,0]","door_history":"[1,0,1,1,1,1,0,1]","location_rts":"[1132,17164,754,544,1214,334,348,504]","trial_type":"two-door-navigation","trial_index":30,"time_elapsed":796424,"internal_node_id":"0.0-2.0-28.0"},{"group":"hexagon_tri","room_assignment":["grey","red","green","purple","blue","yellow"],"door_color_assignment":["white","black"],"door_generator_assignment":[1,0],"goal":1,"start":3,"action_noise":0.15,"location_history":"[3,2,1]","action_history":"[0,1]","door_history":"[1,0]","location_rts":"[6114,368]","trial_type":"two-door-navigation","trial_index":31,"time_elapsed":808496,"internal_node_id":"0.0-2.0-29.0"},{"group":"hexagon_tri","room_assignment":["grey","red","green","purple","blue","yellow"],"door_color_assignment":["white","black"],"door_generator_assignment":[1,0],"goal":4,"start":1,"action_noise":0.15,"location_history":"[1,3,4]","action_history":"[0,1]","door_history":"[1,0]","location_rts":"[91064,1474]","trial_type":"two-door-navigation","trial_index":32,"time_elapsed":906622,"internal_node_id":"0.0-2.0-30.0"},{"group":"hexagon_tri","room_assignment":["grey","red","green","purple","blue","yellow"],"door_color_assignment":["white","black"],"door_generator_assignment":[1,0],"goal":5,"start":4,"action_noise":0.15,"location_history":"[4,0,5]","action_history":"[0,1]","door_history":"[1,0]","location_rts":"[3954,2268]","trial_type":"two-door-navigation","trial_index":33,"time_elapsed":918416,"internal_node_id":"0.0-2.0-31.0"},{"group":"hexagon_tri","room_assignment":["grey","red","green","purple","blue","yellow"],"door_color_assignment":["white","black"],"door_generator_assignment":[1,0],"goal":0,"start":5,"action_noise":0.15,"location_history":"[5,4,0]","action_history":"[0,0]","door_history":"[1,1]","location_rts":"[558,2960]","trial_type":"two-door-navigation","trial_index":34,"time_elapsed":927508,"internal_node_id":"0.0-2.0-32.0"},{"group":"hexagon_tri","room_assignment":["grey","red","green","purple","blue","yellow"],"door_color_assignment":["white","black"],"door_generator_assignment":[1,0],"goal":2,"start":0,"action_noise":0.15,"location_history":"[0,5,4,0,5,0,5,0,5,4,0,5,4,0,1,3,2]","action_history":"[0,0,0,0,0,0,1,1,0,0,0,0,0,1,0,0]","door_history":"[1,1,1,1,1,1,0,0,1,1,1,1,1,0,1,1]","location_rts":"[1244,446,588,2140,626,616,658,6786,492,2490,736,2824,5248,876,552,894]","trial_type":"two-door-navigation","trial_index":35,"time_elapsed":974884,"internal_node_id":"0.0-2.0-33.0"},{"group":"hexagon_tri","room_assignment":["grey","red","green","purple","blue","yellow"],"door_color_assignment":["white","black"],"door_generator_assignment":[1,0],"goal":0,"start":2,"action_noise":0.15,"location_history":"[2,1,5,0]","action_history":"[0,1,1]","door_history":"[1,0,0]","location_rts":"[12428,634,432]","trial_type":"two-door-navigation","trial_index":36,"time_elapsed":995032,"internal_node_id":"0.0-2.0-34.0"},{"group":"hexagon_tri","room_assignment":["grey","red","green","purple","blue","yellow"],"door_color_assignment":["white","black"],"door_generator_assignment":[1,0],"goal":5,"start":0,"action_noise":0.15,"location_history":"[0,5]","action_history":"[0]","door_history":"[1]","location_rts":"[5940]","trial_type":"two-door-navigation","trial_index":37,"time_elapsed":1005516,"internal_node_id":"0.0-2.0-35.0"},{"group":"hexagon_tri","room_assignment":["grey","red","green","purple","blue","yellow"],"door_color_assignment":["white","black"],"door_generator_assignment":[1,0],"goal":1,"start":5,"action_noise":0.15,"location_history":"[5,0,1]","action_history":"[0,1]","door_history":"[1,0]","location_rts":"[2626,19672]","trial_type":"two-door-navigation","trial_index":38,"time_elapsed":1033378,"internal_node_id":"0.0-2.0-36.0"},{"group":"hexagon_tri","room_assignment":["grey","red","green","purple","blue","yellow"],"door_color_assignment":["white","black"],"door_generator_assignment":[1,0],"goal":4,"start":1,"action_noise":0.15,"location_history":"[1,5,0,5,0,5,4]","action_history":"[0,1,0,0,0,0]","door_history":"[1,0,1,1,1,1]","location_rts":"[1706,3158,436,306,722,904]","trial_type":"two-door-navigation","trial_index":39,"time_elapsed":1050460,"internal_node_id":"0.0-2.0-37.0"},{"group":"hexagon_tri","room_assignment":["grey","red","green","purple","blue","yellow"],"door_color_assignment":["white","black"],"door_generator_assignment":[1,0],"goal":3,"start":4,"action_noise":0.15,"location_history":"[4,0,5,0,5,4,2,1,5,0,5,4,2,1,3]","action_history":"[0,0,1,0,0,1,0,1,0,0,0,1,1,1]","door_history":"[1,1,0,1,1,0,1,0,1,1,1,0,0,0]","location_rts":"[14562,301018,226608,2592,1122,360,1816,2230,598,15460,374,306,306,122]","trial_type":"two-door-navigation","trial_index":40,"time_elapsed":2024908,"internal_node_id":"0.0-2.0-38.0"},{"group":"hexagon_tri","room_assignment":["grey","red","green","purple","blue","yellow"],"door_color_assignment":["white","black"],"door_generator_assignment":[1,0],"goal":5,"start":3,"action_noise":0.15,"location_history":"[3,2,3,4,2,3,2,1,3,4,2,3,4,0,1,5]","action_history":"[0,1,1,1,0,0,0,0,1,1,1,1,0,0,1]","door_history":"[1,0,0,0,1,1,1,1,0,0,0,0,1,1,0]","location_rts":"[414,64,42,58,60,158,132,74,880,172,104,210,126,730,394]","trial_type":"two-door-navigation","trial_index":41,"time_elapsed":2048180,"internal_node_id":"0.0-2.0-39.0"},{"group":"hexagon_tri","room_assignment":["grey","red","green","purple","blue","yellow"],"door_color_assignment":["white","black"],"door_generator_assignment":[1,0],"goal":1,"start":5,"action_noise":0.15,"location_history":"[5,4,2,1]","action_history":"[0,0,0]","door_history":"[1,1,1]","location_rts":"[934,164,192]","trial_type":"two-door-navigation","trial_index":42,"time_elapsed":2056062,"internal_node_id":"0.0-2.0-40.0"},{"group":"hexagon_tri","room_assignment":["grey","red","green","purple","blue","yellow"],"door_color_assignment":["white","black"],"door_generator_assignment":[1,0],"goal":2,"start":1,"action_noise":0.15,"location_history":"[1,5,0,1,5,0,1,3,4,0,5,0,1,3,2]","action_history":"[1,1,1,1,1,1,0,0,0,0,1,1,1,0]","door_history":"[0,0,0,0,0,0,1,1,1,1,0,0,0,1]","location_rts":"[682,26,104,122,192,40,84,162,54,164,140,20,138,2048]","trial_type":"two-door-navigation","trial_index":43,"time_elapsed":2078082,"internal_node_id":"0.0-2.0-41.0"},{"group":"hexagon_tri","room_assignment":["grey","red","green","purple","blue","yellow"],"door_color_assignment":["white","black"],"door_generator_assignment":[1,0],"goal":4,"start":2,"action_noise":0.15,"location_history":"[2,3,2,1,3,2,1,5,0,5,4]","action_history":"[0,0,0,0,0,0,1,1,0,0]","door_history":"[1,1,1,1,1,1,0,0,1,1]","location_rts":"[548,76,72,140,6,182,1268,118,232,74]","trial_type":"two-door-navigation","trial_index":44,"time_elapsed":2094742,"internal_node_id":"0.0-2.0-42.0"},{"group":"hexagon_tri","room_assignment":["grey","red","green","purple","blue","yellow"],"door_color_assignment":["white","black"],"door_generator_assignment":[1,0],"goal":0,"start":4,"action_noise":0.15,"location_history":"[4,2,1,3,2,1,3,2,1,5,4,0]","action_history":"[1,0,0,0,0,0,0,0,0,0,0]","door_history":"[0,1,1,1,1,1,1,1,1,1,1]","location_rts":"[1266,126,180,124,188,106,158,66,150,46,8]","trial_type":"two-door-navigation","trial_index":45,"time_elapsed":2112102,"internal_node_id":"0.0-2.0-43.0"},{"group":"hexagon_tri","room_assignment":["grey","red","green","purple","blue","yellow"],"door_color_assignment":["white","black"],"door_generator_assignment":[1,0],"goal":3,"start":0,"action_noise":0.15,"location_history":"[0,5,4,0,5,0,1,5,4,0,5,4,2,3]","action_history":"[0,0,0,0,1,1,1,0,0,0,0,1,1]","door_history":"[1,1,1,1,0,0,0,1,1,1,1,0,0]","location_rts":"[492,98,100,200,108,84,174,170,176,172,106,1226,30]","trial_type":"two-door-navigation","trial_index":46,"time_elapsed":2132232,"internal_node_id":"0.0-2.0-44.0"},{"group":"hexagon_tri","room_assignment":["grey","red","green","purple","blue","yellow"],"door_color_assignment":["white","black"],"door_generator_assignment":[1,0],"goal":0,"start":3,"action_noise":0.15,"location_history":"[3,2,1,3,2,3,2,3,2,1,3,2,3,4,0]","action_history":"[1,0,0,0,1,1,1,0,0,0,0,1,1,0]","door_history":"[0,1,1,1,0,0,0,1,1,1,1,0,0,1]","location_rts":"[448,76,212,192,140,212,200,446,118,8,200,420,206,140]","trial_type":"two-door-navigation","trial_index":47,"time_elapsed":2153212,"internal_node_id":"0.0-2.0-45.0"},{"group":"hexagon_tri","room_assignment":["grey","red","green","purple","blue","yellow"],"door_color_assignment":["white","black"],"door_generator_assignment":[1,0],"goal":4,"start":0,"action_noise":0.15,"location_history":"[0,1,5,4]","action_history":"[1,1,0]","door_history":"[0,0,1]","location_rts":"[724,336,96]","trial_type":"two-door-navigation","trial_index":48,"time_elapsed":2161016,"internal_node_id":"0.0-2.0-46.0"},{"group":"hexagon_tri","room_assignment":["grey","red","green","purple","blue","yellow"],"door_color_assignment":["white","black"],"door_generator_assignment":[1,0],"goal":5,"start":4,"action_noise":0.15,"location_history":"[4,0,1,3,2,1,5]","action_history":"[0,1,0,1,0,0]","door_history":"[1,0,1,0,1,1]","location_rts":"[462,48,138,4,190,158]","trial_type":"two-door-navigation","trial_index":49,"time_elapsed":2171700,"internal_node_id":"0.0-2.0-47.0"},{"group":"hexagon_tri","room_assignment":["grey","red","green","purple","blue","yellow"],"door_color_assignment":["white","black"],"door_generator_assignment":[1,0],"goal":2,"start":5,"action_noise":0.15,"location_history":"[5,4,0,1,3,2]","action_history":"[0,1,0,0,0]","door_history":"[1,0,1,1,1]","location_rts":"[464,84,150,62,52]","trial_type":"two-door-navigation","trial_index":50,"time_elapsed":2181234,"internal_node_id":"0.0-2.0-48.0"},{"group":"hexagon_tri","room_assignment":["grey","red","green","purple","blue","yellow"],"door_color_assignment":["white","black"],"door_generator_assignment":[1,0],"goal":1,"start":2,"action_noise":0.15,"location_history":"[2,3,2,3,4,2,1]","action_history":"[1,1,1,0,0,0]","door_history":"[0,0,0,1,1,1]","location_rts":"[580,82,132,504,52,6]","trial_type":"two-door-navigation","trial_index":51,"time_elapsed":2192382,"internal_node_id":"0.0-2.0-49.0"},{"view_history":"[{\"page_index\":0,\"viewing_time\":1904}]","rt":1904,"trial_type":"instructions","trial_index":52,"time_elapsed":2195286,"internal_node_id":"0.0-3.0"},{"view_history":"[{\"page_index\":0,\"viewing_time\":1128},{\"page_index\":1,\"viewing_time\":1302}]","rt":2432,"trial_type":"instructions","trial_index":53,"time_elapsed":2198720,"internal_node_id":"0.0-4.0"},{"group":"hexagon_tri","fractal_assignment":["../images/cyn_red.png","../images/org_blu.png","../images/ylw_slt.png","../images/pnk_blu.png","../images/gry_blk.png","../images/blu_wht.png"],"mutagen_generator_assignment":[0,1],"goal":2,"start":1,"action_noise":0.15,"location_history":"[1,3,4,2]","action_history":"[0,1,1]","mutagen_history":"[0,1,1]","location_rts":"[26770,122,116]","trial_type":"fractal-mutation","trial_index":54,"time_elapsed":2233774,"internal_node_id":"0.0-5.0-0.0"},{"group":"hexagon_tri","fractal_assignment":["../images/cyn_red.png","../images/org_blu.png","../images/ylw_slt.png","../images/pnk_blu.png","../images/gry_blk.png","../images/blu_wht.png"],"mutagen_generator_assignment":[0,1],"goal":0,"start":2,"action_noise":0.15,"location_history":"[2,1,3,4,0]","action_history":"[0,0,1,0]","mutagen_history":"[0,0,1,0]","location_rts":"[190,230,112,168]","trial_type":"fractal-mutation","trial_index":55,"time_elapsed":2242452,"internal_node_id":"0.0-5.0-1.0"},{"group":"hexagon_tri","fractal_assignment":["../images/cyn_red.png","../images/org_blu.png","../images/ylw_slt.png","../images/pnk_blu.png","../images/gry_blk.png","../images/blu_wht.png"],"mutagen_generator_assignment":[0,1],"goal":5,"start":0,"action_noise":0.15,"location_history":"[0,5]","action_history":"[1]","mutagen_history":"[1]","location_rts":"[228]","trial_type":"fractal-mutation","trial_index":56,"time_elapsed":2247314,"internal_node_id":"0.0-5.0-2.0"},{"group":"hexagon_tri","fractal_assignment":["../images/cyn_red.png","../images/org_blu.png","../images/ylw_slt.png","../images/pnk_blu.png","../images/gry_blk.png","../images/blu_wht.png"],"mutagen_generator_assignment":[0,1],"goal":1,"start":5,"action_noise":0.15,"location_history":"[5,4,2,1]","action_history":"[0,1,0]","mutagen_history":"[0,1,0]","location_rts":"[110,442,408]","trial_type":"fractal-mutation","trial_index":57,"time_elapsed":2255062,"internal_node_id":"0.0-5.0-3.0"},{"group":"hexagon_tri","fractal_assignment":["../images/cyn_red.png","../images/org_blu.png","../images/ylw_slt.png","../images/pnk_blu.png","../images/gry_blk.png","../images/blu_wht.png"],"mutagen_generator_assignment":[0,1],"goal":3,"start":1,"action_noise":0.15,"location_history":"[1,5,0,5,0,5,0,5,4,0,1,5,4,2,3]","action_history":"[0,1,0,1,0,1,0,1,0,1,1,0,1,1]","mutagen_history":"[0,1,0,1,0,1,0,1,0,1,1,0,1,1]","location_rts":"[346,318,192,198,270,162,12,56,10,98,324,80,230,268]","trial_type":"fractal-mutation","trial_index":58,"time_elapsed":2276428,"internal_node_id":"0.0-5.0-4.0"},{"group":"hexagon_tri","fractal_assignment":["../images/cyn_red.png","../images/org_blu.png","../images/ylw_slt.png","../images/pnk_blu.png","../images/gry_blk.png","../images/blu_wht.png"],"mutagen_generator_assignment":[0,1],"goal":5,"start":3,"action_noise":0.15,"location_history":"[3,2,1,3,4,0,5]","action_history":"[0,0,0,0,1,0]","mutagen_history":"[0,0,0,0,1,0]","location_rts":"[24,3492,780,1448,180,90]","trial_type":"fractal-mutation","trial_index":59,"time_elapsed":2292402,"internal_node_id":"0.0-5.0-5.0"},{"group":"hexagon_tri","fractal_assignment":["../images/cyn_red.png","../images/org_blu.png","../images/ylw_slt.png","../images/pnk_blu.png","../images/gry_blk.png","../images/blu_wht.png"],"mutagen_generator_assignment":[0,1],"goal":4,"start":5,"action_noise":0.15,"location_history":"[5,0,1,3,2,1,5,0,1,3,4]","action_history":"[0,1,0,0,0,1,1,1,0,1]","mutagen_history":"[0,1,0,0,0,1,1,1,0,1]","location_rts":"[11354,236,240,378,262,16,86,258,292,612]","trial_type":"fractal-mutation","trial_index":60,"time_elapsed":2320510,"internal_node_id":"0.0-5.0-6.0"},{"group":"hexagon_tri","fractal_assignment":["../images/cyn_red.png","../images/org_blu.png","../images/ylw_slt.png","../images/pnk_blu.png","../images/gry_blk.png","../images/blu_wht.png"],"mutagen_generator_assignment":[0,1],"goal":0,"start":4,"action_noise":0.15,"location_history":"[4,0]","action_history":"[0]","mutagen_history":"[0]","location_rts":"[380]","trial_type":"fractal-mutation","trial_index":61,"time_elapsed":2325484,"internal_node_id":"0.0-5.0-7.0"},{"group":"hexagon_tri","fractal_assignment":["../images/cyn_red.png","../images/org_blu.png","../images/ylw_slt.png","../images/pnk_blu.png","../images/gry_blk.png","../images/blu_wht.png"],"mutagen_generator_assignment":[0,1],"goal":2,"start":0,"action_noise":0.15,"location_history":"[0,5,0,1,3,4,0,5,4,0,5,0,5,0,1,3,4,2]","action_history":"[0,1,1,0,1,0,1,0,1,0,1,0,1,1,0,1,1]","mutagen_history":"[0,1,1,0,1,0,1,0,1,0,1,0,1,1,0,1,1]","location_rts":"[390,206,134,80,130,158,70,174,70,8,176,86,154,418,20,110,156]","trial_type":"fractal-mutation","trial_index":62,"time_elapsed":2349988,"internal_node_id":"0.0-5.0-8.0"},{"group":"hexagon_tri","fractal_assignment":["../images/cyn_red.png","../images/org_blu.png","../images/ylw_slt.png","../images/pnk_blu.png","../images/gry_blk.png","../images/blu_wht.png"],"mutagen_generator_assignment":[0,1],"goal":4,"start":2,"action_noise":0.15,"location_history":"[2,3,2,1,5,4]","action_history":"[1,0,0,1,0]","mutagen_history":"[1,0,0,1,0]","location_rts":"[376,120,320,50,64]","trial_type":"fractal-mutation","trial_index":63,"time_elapsed":2359872,"internal_node_id":"0.0-5.0-9.0"},{"group":"hexagon_tri","fractal_assignment":["../images/cyn_red.png","../images/org_blu.png","../images/ylw_slt.png","../images/pnk_blu.png","../images/gry_blk.png","../images/blu_wht.png"],"mutagen_generator_assignment":[0,1],"goal":2,"start":4,"action_noise":0.15,"location_history":"[4,0,1,5,0,1,5,4,2]","action_history":"[0,1,1,1,1,1,0,1]","mutagen_history":"[0,1,1,1,1,1,0,1]","location_rts":"[440,368,250,114,316,222,206,216]","trial_type":"fractal-mutation","trial_index":64,"time_elapsed":2374180,"internal_node_id":"0.0-5.0-10.0"},{"group":"hexagon_tri","fractal_assignment":["../images/cyn_red.png","../images/org_blu.png","../images/ylw_slt.png","../images/pnk_blu.png","../images/gry_blk.png","../images/blu_wht.png"],"mutagen_generator_assignment":[0,1],"goal":3,"start":2,"action_noise":0.15,"location_history":"[2,3]","action_history":"[1]","mutagen_history":"[1]","location_rts":"[700]","trial_type":"fractal-mutation","trial_index":65,"time_elapsed":2379496,"internal_node_id":"0.0-5.0-11.0"},{"group":"hexagon_tri","fractal_assignment":["../images/cyn_red.png","../images/org_blu.png","../images/ylw_slt.png","../images/pnk_blu.png","../images/gry_blk.png","../images/blu_wht.png"],"mutagen_generator_assignment":[0,1],"goal":0,"start":3,"action_noise":0.15,"location_history":"[3,4,2,1,3,2,1,5,0]","action_history":"[0,1,0,0,1,0,0,0]","mutagen_history":"[0,1,0,0,1,0,0,0]","location_rts":"[6792,186,78,112,266,416,3796,442]","trial_type":"fractal-mutation","trial_index":66,"time_elapsed":2403686,"internal_node_id":"0.0-5.0-12.0"},{"group":"hexagon_tri","fractal_assignment":["../images/cyn_red.png","../images/org_blu.png","../images/ylw_slt.png","../images/pnk_blu.png","../images/gry_blk.png","../images/blu_wht.png"],"mutagen_generator_assignment":[0,1],"goal":5,"start":0,"action_noise":0.15,"location_history":"[0,1,3,2,3,2,3,4,2,3,2,3,2,1,3,2,3,2,1,3,4,0,5]","action_history":"[0,0,0,0,0,1,1,0,1,1,1,1,0,0,1,1,0,0,0,1,0,0]","mutagen_history":"[0,0,0,0,0,1,1,0,1,1,1,1,0,0,1,1,0,0,0,1,0,0]","location_rts":"[4126,2426,1460,34,206,290,176,1910,328,72,200,240,494,3842,400,10,58,18,334,112,188,6]","trial_type":"fractal-mutation","trial_index":67,"time_elapsed":2447926,"internal_node_id":"0.0-5.0-13.0"},{"group":"hexagon_tri","fractal_assignment":["../images/cyn_red.png","../images/org_blu.png","../images/ylw_slt.png","../images/pnk_blu.png","../images/gry_blk.png","../images/blu_wht.png"],"mutagen_generator_assignment":[0,1],"goal":1,"start":5,"action_noise":0.15,"location_history":"[5,4,2,3,4,0,5,0,1]","action_history":"[0,1,1,1,1,0,0,1]","mutagen_history":"[0,1,1,1,1,0,0,1]","location_rts":"[792,696,136,542,32,100,354,738]","trial_type":"fractal-mutation","trial_index":68,"time_elapsed":2463586,"internal_node_id":"0.0-5.0-14.0"},{"group":"hexagon_tri","fractal_assignment":["../images/cyn_red.png","../images/org_blu.png","../images/ylw_slt.png","../images/pnk_blu.png","../images/gry_blk.png","../images/blu_wht.png"],"mutagen_generator_assignment":[0,1],"goal":5,"start":1,"action_noise":0.15,"location_history":"[1,3,4,2,1,5]","action_history":"[0,0,1,0,0]","mutagen_history":"[0,0,1,0,0]","location_rts":"[100,404,668,446,28]","trial_type":"fractal-mutation","trial_index":69,"time_elapsed":2474166,"internal_node_id":"0.0-5.0-15.0"},{"group":"hexagon_tri","fractal_assignment":["../images/cyn_red.png","../images/org_blu.png","../images/ylw_slt.png","../images/pnk_blu.png","../images/gry_blk.png","../images/blu_wht.png"],"mutagen_generator_assignment":[0,1],"goal":3,"start":5,"action_noise":0.15,"location_history":"[5,0,5,4,0,1,3]","action_history":"[1,0,0,0,1,0]","mutagen_history":"[1,0,0,0,1,0]","location_rts":"[496,258,604,390,312,434]","trial_type":"fractal-mutation","trial_index":70,"time_elapsed":2486592,"internal_node_id":"0.0-5.0-16.0"},{"group":"hexagon_tri","fractal_assignment":["../images/cyn_red.png","../images/org_blu.png","../images/ylw_slt.png","../images/pnk_blu.png","../images/gry_blk.png","../images/blu_wht.png"],"mutagen_generator_assignment":[0,1],"goal":2,"start":3,"action_noise":0.15,"location_history":"[3,2]","action_history":"[0]","mutagen_history":"[0]","location_rts":"[644]","trial_type":"fractal-mutation","trial_index":71,"time_elapsed":2491830,"internal_node_id":"0.0-5.0-17.0"},{"group":"hexagon_tri","fractal_assignment":["../images/cyn_red.png","../images/org_blu.png","../images/ylw_slt.png","../images/pnk_blu.png","../images/gry_blk.png","../images/blu_wht.png"],"mutagen_generator_assignment":[0,1],"goal":1,"start":2,"action_noise":0.15,"location_history":"[2,1]","action_history":"[0]","mutagen_history":"[0]","location_rts":"[504]","trial_type":"fractal-mutation","trial_index":72,"time_elapsed":2496898,"internal_node_id":"0.0-5.0-18.0"},{"group":"hexagon_tri","fractal_assignment":["../images/cyn_red.png","../images/org_blu.png","../images/ylw_slt.png","../images/pnk_blu.png","../images/gry_blk.png","../images/blu_wht.png"],"mutagen_generator_assignment":[0,1],"goal":4,"start":1,"action_noise":0.15,"location_history":"[1,3,4]","action_history":"[0,1]","mutagen_history":"[0,1]","location_rts":"[530,46]","trial_type":"fractal-mutation","trial_index":73,"time_elapsed":2503126,"internal_node_id":"0.0-5.0-19.0"},{"group":"hexagon_tri","fractal_assignment":["../images/cyn_red.png","../images/org_blu.png","../images/ylw_slt.png","../images/pnk_blu.png","../images/gry_blk.png","../images/blu_wht.png"],"mutagen_generator_assignment":[0,1],"goal":0,"start":4,"action_noise":0.15,"location_history":"[4,0]","action_history":"[0]","mutagen_history":"[0]","location_rts":"[832]","trial_type":"fractal-mutation","trial_index":74,"time_elapsed":2508568,"internal_node_id":"0.0-5.0-20.0"},{"group":"hexagon_tri","fractal_assignment":["../images/cyn_red.png","../images/org_blu.png","../images/ylw_slt.png","../images/pnk_blu.png","../images/gry_blk.png","../images/blu_wht.png"],"mutagen_generator_assignment":[0,1],"goal":3,"start":0,"action_noise":0.15,"location_history":"[0,5,0,1,3]","action_history":"[0,1,0,0]","mutagen_history":"[0,1,0,0]","location_rts":"[560,26,998,7182]","trial_type":"fractal-mutation","trial_index":75,"time_elapsed":2525186,"internal_node_id":"0.0-5.0-21.0"},{"group":"hexagon_tri","fractal_assignment":["../images/cyn_red.png","../images/org_blu.png","../images/ylw_slt.png","../images/pnk_blu.png","../images/gry_blk.png","../images/blu_wht.png"],"mutagen_generator_assignment":[0,1],"goal":1,"start":3,"action_noise":0.15,"location_history":"[3,2,1]","action_history":"[0,0]","mutagen_history":"[0,0]","location_rts":"[110,56]","trial_type":"fractal-mutation","trial_index":76,"time_elapsed":2530976,"internal_node_id":"0.0-5.0-22.0"},{"group":"hexagon_tri","fractal_assignment":["../images/cyn_red.png","../images/org_blu.png","../images/ylw_slt.png","../images/pnk_blu.png","../images/gry_blk.png","../images/blu_wht.png"],"mutagen_generator_assignment":[0,1],"goal":0,"start":1,"action_noise":0.15,"location_history":"[1,3,2,3,4,2,3,4,2,3,4,0]","action_history":"[1,0,1,1,1,1,1,0,1,1,0]","mutagen_history":"[1,0,1,1,1,1,1,0,1,1,0]","location_rts":"[198,792,380,338,326,450,114,830,522,126,434]","trial_type":"fractal-mutation","trial_index":77,"time_elapsed":2551138,"internal_node_id":"0.0-5.0-23.0"},{"group":"hexagon_tri","fractal_assignment":["../images/cyn_red.png","../images/org_blu.png","../images/ylw_slt.png","../images/pnk_blu.png","../images/gry_blk.png","../images/blu_wht.png"],"mutagen_generator_assignment":[0,1],"goal":2,"start":0,"action_noise":0.15,"location_history":"[0,1,5,0,1,5,0,5,4,0,1,3,4,2]","action_history":"[1,0,1,1,1,1,0,0,0,1,0,0,0]","mutagen_history":"[1,0,1,1,1,1,0,0,0,1,0,0,0]","location_rts":"[88,74,212,136,160,386,3882,106,648,384,88,976,214]","trial_type":"fractal-mutation","trial_index":78,"time_elapsed":2576106,"internal_node_id":"0.0-5.0-24.0"},{"group":"hexagon_tri","fractal_assignment":["../images/cyn_red.png","../images/org_blu.png","../images/ylw_slt.png","../images/pnk_blu.png","../images/gry_blk.png","../images/blu_wht.png"],"mutagen_generator_assignment":[0,1],"goal":4,"start":2,"action_noise":0.15,"location_history":"[2,1,5,0,5,4]","action_history":"[0,1,1,0,0]","mutagen_history":"[0,1,1,0,0]","location_rts":"[534,236,0,9340,22]","trial_type":"fractal-mutation","trial_index":79,"time_elapsed":2595174,"internal_node_id":"0.0-5.0-25.0"},{"group":"hexagon_tri","fractal_assignment":["../images/cyn_red.png","../images/org_blu.png","../images/ylw_slt.png","../images/pnk_blu.png","../images/gry_blk.png","../images/blu_wht.png"],"mutagen_generator_assignment":[0,1],"goal":5,"start":4,"action_noise":0.15,"location_history":"[4,0,5]","action_history":"[0,0]","mutagen_history":"[0,0]","location_rts":"[118,430]","trial_type":"fractal-mutation","trial_index":80,"time_elapsed":2601424,"internal_node_id":"0.0-5.0-26.0"},{"group":"hexagon_tri","fractal_assignment":["../images/cyn_red.png","../images/org_blu.png","../images/ylw_slt.png","../images/pnk_blu.png","../images/gry_blk.png","../images/blu_wht.png"],"mutagen_generator_assignment":[0,1],"goal":2,"start":5,"action_noise":0.15,"location_history":"[5,4,2]","action_history":"[0,1]","mutagen_history":"[0,1]","location_rts":"[590,294]","trial_type":"fractal-mutation","trial_index":81,"time_elapsed":2607996,"internal_node_id":"0.0-5.0-27.0"},{"group":"hexagon_tri","fractal_assignment":["../images/cyn_red.png","../images/org_blu.png","../images/ylw_slt.png","../images/pnk_blu.png","../images/gry_blk.png","../images/blu_wht.png"],"mutagen_generator_assignment":[0,1],"goal":3,"start":2,"action_noise":0.15,"location_history":"[2,1,3]","action_history":"[0,0]","mutagen_history":"[0,0]","location_rts":"[948,574]","trial_type":"fractal-mutation","trial_index":82,"time_elapsed":2615194,"internal_node_id":"0.0-5.0-28.0"},{"group":"hexagon_tri","fractal_assignment":["../images/cyn_red.png","../images/org_blu.png","../images/ylw_slt.png","../images/pnk_blu.png","../images/gry_blk.png","../images/blu_wht.png"],"mutagen_generator_assignment":[0,1],"goal":1,"start":3,"action_noise":0.15,"location_history":"[3,4,2,1]","action_history":"[0,1,0]","mutagen_history":"[0,1,0]","location_rts":"[598,676,430]","trial_type":"fractal-mutation","trial_index":83,"time_elapsed":2623724,"internal_node_id":"0.0-5.0-29.0"},{"group":"hexagon_tri","fractal_assignment":["../images/cyn_red.png","../images/org_blu.png","../images/ylw_slt.png","../images/pnk_blu.png","../images/gry_blk.png","../images/blu_wht.png"],"mutagen_generator_assignment":[0,1],"goal":4,"start":1,"action_noise":0.15,"location_history":"[1,3,2,3,4]","action_history":"[0,0,0,1]","mutagen_history":"[0,0,0,1]","location_rts":"[608,92,220,466]","trial_type":"fractal-mutation","trial_index":84,"time_elapsed":2632918,"internal_node_id":"0.0-5.0-30.0"},{"group":"hexagon_tri","fractal_assignment":["../images/cyn_red.png","../images/org_blu.png","../images/ylw_slt.png","../images/pnk_blu.png","../images/gry_blk.png","../images/blu_wht.png"],"mutagen_generator_assignment":[0,1],"goal":5,"start":4,"action_noise":0.15,"location_history":"[4,2,3,2,3,4,0,1,5]","action_history":"[0,1,0,1,1,0,1,1]","mutagen_history":"[0,1,0,1,1,0,1,1]","location_rts":"[7306,410,336,352,182,690,320,358]","trial_type":"fractal-mutation","trial_index":85,"time_elapsed":2655178,"internal_node_id":"0.0-5.0-31.0"},{"group":"hexagon_tri","fractal_assignment":["../images/cyn_red.png","../images/org_blu.png","../images/ylw_slt.png","../images/pnk_blu.png","../images/gry_blk.png","../images/blu_wht.png"],"mutagen_generator_assignment":[0,1],"goal":0,"start":5,"action_noise":0.15,"location_history":"[5,4,2,1,3,2,1,5,4,0]","action_history":"[0,1,0,0,1,0,0,0,0]","mutagen_history":"[0,1,0,0,1,0,0,0,0]","location_rts":"[650,316,682,5642,636,170,22944,2368,698]","trial_type":"fractal-mutation","trial_index":86,"time_elapsed":2702472,"internal_node_id":"0.0-5.0-32.0"},{"group":"hexagon_tri","fractal_assignment":["../images/cyn_red.png","../images/org_blu.png","../images/ylw_slt.png","../images/pnk_blu.png","../images/gry_blk.png","../images/blu_wht.png"],"mutagen_generator_assignment":[0,1],"goal":2,"start":0,"action_noise":0.15,"location_history":"[0,1,5,0,1,3,4,2]","action_history":"[1,1,1,1,1,1,1]","mutagen_history":"[1,1,1,1,1,1,1]","location_rts":"[768,1498,3360,236,16998,316,500]","trial_type":"fractal-mutation","trial_index":87,"time_elapsed":2737422,"internal_node_id":"0.0-5.0-33.0"},{"group":"hexagon_tri","fractal_assignment":["../images/cyn_red.png","../images/org_blu.png","../images/ylw_slt.png","../images/pnk_blu.png","../images/gry_blk.png","../images/blu_wht.png"],"mutagen_generator_assignment":[0,1],"goal":0,"start":2,"action_noise":0.15,"location_history":"[2,1,3,2,1,5,0]","action_history":"[0,1,0,0,1,0]","mutagen_history":"[0,1,0,0,1,0]","location_rts":"[676,464,8804,10648,816,122916]","trial_type":"fractal-mutation","trial_index":88,"time_elapsed":2891828,"internal_node_id":"0.0-5.0-34.0"},{"group":"hexagon_tri","fractal_assignment":["../images/cyn_red.png","../images/org_blu.png","../images/ylw_slt.png","../images/pnk_blu.png","../images/gry_blk.png","../images/blu_wht.png"],"mutagen_generator_assignment":[0,1],"goal":5,"start":0,"action_noise":0.15,"location_history":"[0,1,3,4,0,5]","action_history":"[1,0,0,1,0]","mutagen_history":"[1,0,0,1,0]","location_rts":"[378,540,360,18564,84]","trial_type":"fractal-mutation","trial_index":89,"time_elapsed":2920672,"internal_node_id":"0.0-5.0-35.0"},{"group":"hexagon_tri","fractal_assignment":["../images/cyn_red.png","../images/org_blu.png","../images/ylw_slt.png","../images/pnk_blu.png","../images/gry_blk.png","../images/blu_wht.png"],"mutagen_generator_assignment":[0,1],"goal":1,"start":5,"action_noise":0.15,"location_history":"[5,0,1]","action_history":"[0,1]","mutagen_history":"[0,1]","location_rts":"[356,200]","trial_type":"fractal-mutation","trial_index":90,"time_elapsed":2926932,"internal_node_id":"0.0-5.0-36.0"},{"group":"hexagon_tri","fractal_assignment":["../images/cyn_red.png","../images/org_blu.png","../images/ylw_slt.png","../images/pnk_blu.png","../images/gry_blk.png","../images/blu_wht.png"],"mutagen_generator_assignment":[0,1],"goal":4,"start":1,"action_noise":0.15,"location_history":"[1,5,0,1,5,4]","action_history":"[0,1,1,1,0]","mutagen_history":"[0,1,1,1,0]","location_rts":"[9562,496,846,382,298]","trial_type":"fractal-mutation","trial_index":91,"time_elapsed":2947470,"internal_node_id":"0.0-5.0-37.0"},{"group":"hexagon_tri","fractal_assignment":["../images/cyn_red.png","../images/org_blu.png","../images/ylw_slt.png","../images/pnk_blu.png","../images/gry_blk.png","../images/blu_wht.png"],"mutagen_generator_assignment":[0,1],"goal":3,"start":4,"action_noise":0.15,"location_history":"[4,0,1,5,0,5,4,0,1,5,4,2,1,3]","action_history":"[0,0,1,1,0,0,1,1,1,0,1,0,0]","mutagen_history":"[0,0,1,1,0,0,1,1,1,0,1,0,0]","location_rts":"[2090,11912,2654,3128,574,2954,748,3130,1686,338,38,290,348]","trial_type":"fractal-mutation","trial_index":92,"time_elapsed":2995026,"internal_node_id":"0.0-5.0-38.0"},{"group":"hexagon_tri","fractal_assignment":["../images/cyn_red.png","../images/org_blu.png","../images/ylw_slt.png","../images/pnk_blu.png","../images/gry_blk.png","../images/blu_wht.png"],"mutagen_generator_assignment":[0,1],"goal":5,"start":3,"action_noise":0.15,"location_history":"[3,4,2,3,2,3,2,3,2,1,3,4,2,1,5]","action_history":"[0,1,0,0,1,0,1,0,0,0,1,1,0,1]","mutagen_history":"[0,1,0,0,1,0,1,0,0,0,1,1,0,1]","location_rts":"[434,38,506,672,434,18,36,416,366,326,426,38,958,1170]","trial_type":"fractal-mutation","trial_index":93,"time_elapsed":3019896,"internal_node_id":"0.0-5.0-39.0"},{"group":"hexagon_tri","fractal_assignment":["../images/cyn_red.png","../images/org_blu.png","../images/ylw_slt.png","../images/pnk_blu.png","../images/gry_blk.png","../images/blu_wht.png"],"mutagen_generator_assignment":[0,1],"goal":1,"start":5,"action_noise":0.15,"location_history":"[5,4,2,3,2,3,2,1]","action_history":"[0,1,0,1,0,0,1]","mutagen_history":"[0,1,0,1,0,0,1]","location_rts":"[1024,1138,180,352,500,388,364]","trial_type":"fractal-mutation","trial_index":94,"time_elapsed":3034914,"internal_node_id":"0.0-5.0-40.0"},{"group":"hexagon_tri","fractal_assignment":["../images/cyn_red.png","../images/org_blu.png","../images/ylw_slt.png","../images/pnk_blu.png","../images/gry_blk.png","../images/blu_wht.png"],"mutagen_generator_assignment":[0,1],"goal":2,"start":1,"action_noise":0.15,"location_history":"[1,5,4,2]","action_history":"[1,0,0]","mutagen_history":"[1,0,0]","location_rts":"[494,884,632]","trial_type":"fractal-mutation","trial_index":95,"time_elapsed":3043724,"internal_node_id":"0.0-5.0-41.0"},{"group":"hexagon_tri","fractal_assignment":["../images/cyn_red.png","../images/org_blu.png","../images/ylw_slt.png","../images/pnk_blu.png","../images/gry_blk.png","../images/blu_wht.png"],"mutagen_generator_assignment":[0,1],"goal":4,"start":2,"action_noise":0.15,"location_history":"[2,1,5,0,5,0,1,3,4]","action_history":"[0,1,0,0,1,1,0,1]","mutagen_history":"[0,1,0,0,1,1,0,1]","location_rts":"[604,514,510,566,312,366,1096,648]","trial_type":"fractal-mutation","trial_index":96,"time_elapsed":3060534,"internal_node_id":"0.0-5.0-42.0"},{"group":"hexagon_tri","fractal_assignment":["../images/cyn_red.png","../images/org_blu.png","../images/ylw_slt.png","../images/pnk_blu.png","../images/gry_blk.png","../images/blu_wht.png"],"mutagen_generator_assignment":[0,1],"goal":0,"start":4,"action_noise":0.15,"location_history":"[4,0]","action_history":"[0]","mutagen_history":"[0]","location_rts":"[604]","trial_type":"fractal-mutation","trial_index":97,"time_elapsed":3065720,"internal_node_id":"0.0-5.0-43.0"},{"group":"hexagon_tri","fractal_assignment":["../images/cyn_red.png","../images/org_blu.png","../images/ylw_slt.png","../images/pnk_blu.png","../images/gry_blk.png","../images/blu_wht.png"],"mutagen_generator_assignment":[0,1],"goal":3,"start":0,"action_noise":0.15,"location_history":"[0,5,0,5,0,5,4,0,5,0,5,0,1,3]","action_history":"[0,1,0,0,0,0,1,0,1,0,1,1,0]","mutagen_history":"[0,1,0,0,0,0,1,0,1,0,1,1,0]","location_rts":"[716,212,3616,2018,2392,552,152,162,300,384,238,516,3086]","trial_type":"fractal-mutation","trial_index":98,"time_elapsed":3097708,"internal_node_id":"0.0-5.0-44.0"},{"group":"hexagon_tri","fractal_assignment":["../images/cyn_red.png","../images/org_blu.png","../images/ylw_slt.png","../images/pnk_blu.png","../images/gry_blk.png","../images/blu_wht.png"],"mutagen_generator_assignment":[0,1],"goal":0,"start":3,"action_noise":0.15,"location_history":"[3,2,3,2,3,2,1,5,0]","action_history":"[0,1,0,1,0,0,1,1]","mutagen_history":"[0,1,0,1,0,0,1,1]","location_rts":"[556,868,428,370,298,232,300,506]","trial_type":"fractal-mutation","trial_index":99,"time_elapsed":3113456,"internal_node_id":"0.0-5.0-45.0"},{"group":"hexagon_tri","fractal_assignment":["../images/cyn_red.png","../images/org_blu.png","../images/ylw_slt.png","../images/pnk_blu.png","../images/gry_blk.png","../images/blu_wht.png"],"mutagen_generator_assignment":[0,1],"goal":4,"start":0,"action_noise":0.15,"location_history":"[0,5,4]","action_history":"[0,0]","mutagen_history":"[0,0]","location_rts":"[544,5150]","trial_type":"fractal-mutation","trial_index":100,"time_elapsed":3124810,"internal_node_id":"0.0-5.0-46.0"},{"group":"hexagon_tri","fractal_assignment":["../images/cyn_red.png","../images/org_blu.png","../images/ylw_slt.png","../images/pnk_blu.png","../images/gry_blk.png","../images/blu_wht.png"],"mutagen_generator_assignment":[0,1],"goal":5,"start":4,"action_noise":0.15,"location_history":"[4,0,5]","action_history":"[0,0]","mutagen_history":"[0,0]","location_rts":"[2296,32188]","trial_type":"fractal-mutation","trial_index":101,"time_elapsed":3164950,"internal_node_id":"0.0-5.0-47.0"},{"group":"hexagon_tri","fractal_assignment":["../images/cyn_red.png","../images/org_blu.png","../images/ylw_slt.png","../images/pnk_blu.png","../images/gry_blk.png","../images/blu_wht.png"],"mutagen_generator_assignment":[0,1],"goal":2,"start":5,"action_noise":0.15,"location_history":"[5,0,1,5,0,5,4,0,1,5,0,5,4,2]","action_history":"[1,0,1,1,0,0,0,1,1,0,0,0,1]","mutagen_history":"[1,0,1,1,0,0,0,1,1,0,0,0,1]","location_rts":"[414,508,800,266,374,308,408,428,140,568,334,400,396]","trial_type":"fractal-mutation","trial_index":102,"time_elapsed":3187970,"internal_node_id":"0.0-5.0-48.0"},{"group":"hexagon_tri","fractal_assignment":["../images/cyn_red.png","../images/org_blu.png","../images/ylw_slt.png","../images/pnk_blu.png","../images/gry_blk.png","../images/blu_wht.png"],"mutagen_generator_assignment":[0,1],"goal":1,"start":2,"action_noise":0.15,"location_history":"[2,1]","action_history":"[0]","mutagen_history":"[0]","location_rts":"[486]","trial_type":"fractal-mutation","trial_index":103,"time_elapsed":3193032,"internal_node_id":"0.0-5.0-49.0"},{"view_history":"[{\"page_index\":0,\"viewing_time\":3050}]","rt":3050,"trial_type":"instructions","trial_index":104,"time_elapsed":3197088,"internal_node_id":"0.0-6.0"},{"rt":17780,"responses":"{\"Q0\":\"how well we can remember\"}","trial_type":"survey-text","trial_index":105,"time_elapsed":3215876,"internal_node_id":"0.0-7.0-0.0"},{"rt":26916,"responses":"{\"Q0\":\"How well we can tell the difference between patterns\"}","trial_type":"survey-text","trial_index":106,"time_elapsed":3243794,"internal_node_id":"0.0-7.0-1.0"},{"rt":28240,"responses":"{\"Q0\":\"<img src='../images/diagrams/hexagon_tri.png'>\"}","trial_type":"survey-multi-choice","trial_index":107,"time_elapsed":3273042,"internal_node_id":"0.0-7.0-2.0"},{"rt":27074,"assignments":["../images/cyn_red.png","../images/gry_blk.png","../images/ylw_slt.png","../images/blu_wht.png","../images/pnk_blu.png","../images/org_blu.png"],"trial_type":"drag-drop-on-image","trial_index":108,"time_elapsed":3301118,"internal_node_id":"0.0-7.0-3.0"},{"rt":6786,"responses":"{\"Q0\":\"3\"}","trial_type":"survey-likert","trial_index":109,"time_elapsed":3308908,"internal_node_id":"0.0-7.0-4.0"},{"rt":16690,"responses":"{\"Q0\":\"both had to remember specific patterns\"}","trial_type":"survey-text","trial_index":110,"time_elapsed":3326600,"internal_node_id":"0.0-7.0-5.0"},{"rt":4652,"responses":"{\"Q0\":\"Yes\"}","trial_type":"survey-multi-choice","trial_index":111,"time_elapsed":3332264,"internal_node_id":"0.0-7.0-6.0"},{"rt":4382,"responses":"{\"Q0\":\"During this session\"}","trial_type":"survey-multi-choice","trial_index":112,"time_elapsed":3337656,"internal_node_id":"0.0-7.0-7.0"},{"rt":2894,"responses":"{\"Q0\":\"\"}","trial_type":"survey-text","trial_index":113,"time_elapsed":3341550,"internal_node_id":"0.0-7.0-8.0"},{"rt":3876,"responses":"{\"Q0\":\"2\"}","trial_type":"survey-likert","trial_index":114,"time_elapsed":3346428,"internal_node_id":"0.0-7.0-9.0"},{"rt":8700,"responses":"{\"Q0\":\"Same structure\"}","trial_type":"survey-multi-choice","trial_index":115,"time_elapsed":3356134,"internal_node_id":"0.0-7.0-10.0"},{"rt":9752,"responses":"{\"Q0\":\"left (white) door = acid, right (black) door = ray\",\"Q1\":\"Moderately confident\"}","trial_type":"survey-multi-choice","trial_index":116,"time_elapsed":3366894,"internal_node_id":"0.0-7.0-11.0"},{"rt":6938,"responses":"{\"Q0\":\"25-35\",\"Q1\":\"Associates or other two-year degree\",\"Q2\":\"Female\",\"Q3\":\"Hispanic\"}","trial_type":"survey-multi-choice","trial_index":117,"time_elapsed":3374854,"internal_node_id":"0.0-8.0"},{"rt":3776,"responses":"{\"Q0\":\"none\"}","trial_type":"survey-text","trial_index":118,"time_elapsed":3379632,"internal_node_id":"0.0-9.0"}]