[{"view_history":"[{\"page_index\":0,\"viewing_time\":4876019},{\"page_index\":1,\"viewing_time\":9738}]","rt":4885757,"trial_type":"instructions","trial_index":0,"time_elapsed":4885757,"internal_node_id":"0.0-0.0"},{"view_history":"[{\"page_index\":0,\"viewing_time\":3150},{\"page_index\":1,\"viewing_time\":4212}]","rt":7362,"trial_type":"instructions","trial_index":1,"time_elapsed":4894120,"internal_node_id":"0.0-1.0"},{"group":"hexagon_tri","room_assignment":["yellow","green","grey","blue","red","purple"],"door_color_assignment":["white","black"],"door_generator_assignment":[0,1],"goal":2,"start":1,"action_noise":0.15,"location_history":"[1,3,4,2]","action_history":"[0,1,1]","door_history":"[0,1,1]","location_rts":"[704,338,295]","trial_type":"two-door-navigation","trial_index":2,"time_elapsed":4902026,"internal_node_id":"0.0-2.0-0.0"},{"group":"hexagon_tri","room_assignment":["yellow","green","grey","blue","red","purple"],"door_color_assignment":["white","black"],"door_generator_assignment":[0,1],"goal":0,"start":2,"action_noise":0.15,"location_history":"[2,3,4,2,1,3,2,3,2,1,3,4,2,3,4,0]","action_history":"[1,1,1,0,0,0,1,0,0,0,1,1,1,1,0]","door_history":"[1,1,1,0,0,0,1,0,0,0,1,1,1,1,0]","location_rts":"[4,208,156,231,195,114,242,528,307,260,146,136,225,243,17]","trial_type":"two-door-navigation","trial_index":3,"time_elapsed":4923845,"internal_node_id":"0.0-2.0-1.0"},{"group":"hexagon_tri","room_assignment":["yellow","green","grey","blue","red","purple"],"door_color_assignment":["white","black"],"door_generator_assignment":[0,1],"goal":5,"start":0,"action_noise":0.15,"location_history":"[0,5]","action_history":"[0]","door_history":"[0]","location_rts":"[425]","trial_type":"two-door-navigation","trial_index":4,"time_elapsed":4928794,"internal_node_id":"0.0-2.0-2.0"},{"group":"hexagon_tri","room_assignment":["yellow","green","grey","blue","red","purple"],"door_color_assignment":["white","black"],"door_generator_assignment":[0,1],"goal":1,"start":5,"action_noise":0.15,"location_history":"[5,0,5,0,5,0,1]","action_history":"[0,0,1,1,1,1]","door_history":"[0,0,1,1,1,1]","location_rts":"[218,376,399,185,205,243]","trial_type":"two-door-navigation","trial_index":5,"time_elapsed":4940046,"internal_node_id":"0.0-2.0-3.0"},{"group":"hexagon_tri","room_assignment":["yellow","green","grey","blue","red","purple"],"door_color_assignment":["white","black"],"door_generator_assignment":[0,1],"goal":3,"start":1,"action_noise":0.15,"location_history":"[1,3]","action_history":"[0]","door_history":"[0]","location_rts":"[153]","trial_type":"two-door-navigation","trial_index":6,"time_elapsed":4944721,"internal_node_id":"0.0-2.0-4.0"},{"group":"hexagon_tri","room_assignment":["yellow","green","grey","blue","red","purple"],"door_color_assignment":["white","black"],"door_generator_assignment":[0,1],"goal":5,"start":3,"action_noise":0.15,"location_history":"[3,2,1,5]","action_history":"[0,0,1]","door_history":"[0,0,1]","location_rts":"[335,29,199]","trial_type":"two-door-navigation","trial_index":7,"time_elapsed":4951849,"internal_node_id":"0.0-2.0-5.0"},{"group":"hexagon_tri","room_assignment":["yellow","green","grey","blue","red","purple"],"door_color_assignment":["white","black"],"door_generator_assignment":[0,1],"goal":4,"start":5,"action_noise":0.15,"location_history":"[5,4]","action_history":"[0]","door_history":"[0]","location_rts":"[251]","trial_type":"two-door-navigation","trial_index":8,"time_elapsed":4956623,"internal_node_id":"0.0-2.0-6.0"},{"group":"hexagon_tri","room_assignment":["yellow","green","grey","blue","red","purple"],"door_color_assignment":["white","black"],"door_generator_assignment":[0,1],"goal":0,"start":4,"action_noise":0.15,"location_history":"[4,0]","action_history":"[0]","door_history":"[0]","location_rts":"[327]","trial_type":"two-door-navigation","trial_index":9,"time_elapsed":4961479,"internal_node_id":"0.0-2.0-7.0"},{"group":"hexagon_tri","room_assignment":["yellow","green","grey","blue","red","purple"],"door_color_assignment":["white","black"],"door_generator_assignment":[0,1],"goal":2,"start":0,"action_noise":0.15,"location_history":"[0,5,0,1,5,4,2]","action_history":"[0,0,1,1,0,1]","door_history":"[0,0,1,1,0,1]","location_rts":"[4469,294,355,293,187,262]","trial_type":"two-door-navigation","trial_index":10,"time_elapsed":4976967,"internal_node_id":"0.0-2.0-8.0"},{"group":"hexagon_tri","room_assignment":["yellow","green","grey","blue","red","purple"],"door_color_assignment":["white","black"],"door_generator_assignment":[0,1],"goal":4,"start":2,"action_noise":0.15,"location_history":"[2,1,5,0,1,5,4]","action_history":"[0,0,1,1,1,0]","door_history":"[0,0,1,1,1,0]","location_rts":"[1897,307,253,207,74,51]","trial_type":"two-door-navigation","trial_index":11,"time_elapsed":4989378,"internal_node_id":"0.0-2.0-9.0"},{"group":"hexagon_tri","room_assignment":["yellow","green","grey","blue","red","purple"],"door_color_assignment":["white","black"],"door_generator_assignment":[0,1],"goal":2,"start":4,"action_noise":0.15,"location_history":"[4,0,5,4,2]","action_history":"[0,0,0,1]","door_history":"[0,0,0,1]","location_rts":"[1346,427,649,367]","trial_type":"two-door-navigation","trial_index":12,"time_elapsed":4999753,"internal_node_id":"0.0-2.0-10.0"},{"group":"hexagon_tri","room_assignment":["yellow","green","grey","blue","red","purple"],"door_color_assignment":["white","black"],"door_generator_assignment":[0,1],"goal":3,"start":2,"action_noise":0.15,"location_history":"[2,1,5,0,1,5,0,5,4,2,3]","action_history":"[1,1,0,0,1,1,0,0,1,1]","door_history":"[1,1,0,0,1,1,0,0,1,1]","location_rts":"[638,559,175,62,205,413,367,274,366,55]","trial_type":"two-door-navigation","trial_index":13,"time_elapsed":5016579,"internal_node_id":"0.0-2.0-11.0"},{"group":"hexagon_tri","room_assignment":["yellow","green","grey","blue","red","purple"],"door_color_assignment":["white","black"],"door_generator_assignment":[0,1],"goal":0,"start":3,"action_noise":0.15,"location_history":"[3,2,1,5,0]","action_history":"[0,0,1,1]","door_history":"[0,0,1,1]","location_rts":"[721,251,52,214]","trial_type":"two-door-navigation","trial_index":14,"time_elapsed":5025402,"internal_node_id":"0.0-2.0-12.0"},{"group":"hexagon_tri","room_assignment":["yellow","green","grey","blue","red","purple"],"door_color_assignment":["white","black"],"door_generator_assignment":[0,1],"goal":5,"start":0,"action_noise":0.15,"location_history":"[0,1,5]","action_history":"[1,1]","door_history":"[1,1]","location_rts":"[144,269]","trial_type":"two-door-navigation","trial_index":15,"time_elapsed":5031360,"internal_node_id":"0.0-2.0-13.0"},{"group":"hexagon_tri","room_assignment":["yellow","green","grey","blue","red","purple"],"door_color_assignment":["white","black"],"door_generator_assignment":[0,1],"goal":1,"start":5,"action_noise":0.15,"location_history":"[5,4,0,5,0,5,0,1]","action_history":"[0,0,0,0,0,1,1]","door_history":"[0,0,0,0,0,1,1]","location_rts":"[6,434,133,5,327,324,250]","trial_type":"two-door-navigation","trial_index":16,"time_elapsed":5043483,"internal_node_id":"0.0-2.0-14.0"},{"group":"hexagon_tri","room_assignment":["yellow","green","grey","blue","red","purple"],"door_color_assignment":["white","black"],"door_generator_assignment":[0,1],"goal":5,"start":1,"action_noise":0.15,"location_history":"[1,5]","action_history":"[0]","door_history":"[0]","location_rts":"[556]","trial_type":"two-door-navigation","trial_index":17,"time_elapsed":5048563,"internal_node_id":"0.0-2.0-15.0"},{"group":"hexagon_tri","room_assignment":["yellow","green","grey","blue","red","purple"],"door_color_assignment":["white","black"],"door_generator_assignment":[0,1],"goal":3,"start":5,"action_noise":0.15,"location_history":"[5,4,0,1,3]","action_history":"[0,1,1,0]","door_history":"[0,1,1,0]","location_rts":"[299,341,587,416]","trial_type":"two-door-navigation","trial_index":18,"time_elapsed":5057793,"internal_node_id":"0.0-2.0-16.0"},{"group":"hexagon_tri","room_assignment":["yellow","green","grey","blue","red","purple"],"door_color_assignment":["white","black"],"door_generator_assignment":[0,1],"goal":2,"start":3,"action_noise":0.15,"location_history":"[3,4,2]","action_history":"[1,1]","door_history":"[1,1]","location_rts":"[430,194]","trial_type":"two-door-navigation","trial_index":19,"time_elapsed":5063960,"internal_node_id":"0.0-2.0-17.0"},{"group":"hexagon_tri","room_assignment":["yellow","green","grey","blue","red","purple"],"door_color_assignment":["white","black"],"door_generator_assignment":[0,1],"goal":1,"start":2,"action_noise":0.15,"location_history":"[2,1]","action_history":"[0]","door_history":"[0]","location_rts":"[223]","trial_type":"two-door-navigation","trial_index":20,"time_elapsed":5068707,"internal_node_id":"0.0-2.0-18.0"},{"group":"hexagon_tri","room_assignment":["yellow","green","grey","blue","red","purple"],"door_color_assignment":["white","black"],"door_generator_assignment":[0,1],"goal":4,"start":1,"action_noise":0.15,"location_history":"[1,3,2,3,2,1,5,0,1,5,0,1,3,4]","action_history":"[1,1,1,0,0,1,1,0,0,0,1,1,1]","door_history":"[1,1,1,0,0,1,1,0,0,0,1,1,1]","location_rts":"[249,266,364,212,221,57,452,228,907,424,95,532,875]","trial_type":"two-door-navigation","trial_index":21,"time_elapsed":5090356,"internal_node_id":"0.0-2.0-19.0"},{"group":"hexagon_tri","room_assignment":["yellow","green","grey","blue","red","purple"],"door_color_assignment":["white","black"],"door_generator_assignment":[0,1],"goal":0,"start":4,"action_noise":0.15,"location_history":"[4,0]","action_history":"[0]","door_history":"[0]","location_rts":"[267]","trial_type":"two-door-navigation","trial_index":22,"time_elapsed":5095148,"internal_node_id":"0.0-2.0-20.0"},{"group":"hexagon_tri","room_assignment":["yellow","green","grey","blue","red","purple"],"door_color_assignment":["white","black"],"door_generator_assignment":[0,1],"goal":3,"start":0,"action_noise":0.15,"location_history":"[0,1,3]","action_history":"[1,0]","door_history":"[1,0]","location_rts":"[459,727]","trial_type":"two-door-navigation","trial_index":23,"time_elapsed":5101879,"internal_node_id":"0.0-2.0-21.0"},{"group":"hexagon_tri","room_assignment":["yellow","green","grey","blue","red","purple"],"door_color_assignment":["white","black"],"door_generator_assignment":[0,1],"goal":1,"start":3,"action_noise":0.15,"location_history":"[3,2,3,4,2,1]","action_history":"[0,1,1,1,0]","door_history":"[0,1,1,1,0]","location_rts":"[790,1177,706,353,59]","trial_type":"two-door-navigation","trial_index":24,"time_elapsed":5113566,"internal_node_id":"0.0-2.0-22.0"},{"group":"hexagon_tri","room_assignment":["yellow","green","grey","blue","red","purple"],"door_color_assignment":["white","black"],"door_generator_assignment":[0,1],"goal":0,"start":1,"action_noise":0.15,"location_history":"[1,3,2,3,2,1,3,2,3,4,2,3,4,2,3,4,2,1,3,2,1,5,0]","action_history":"[1,1,1,0,0,0,0,0,0,0,1,1,1,1,1,1,0,0,0,1,1,1]","door_history":"[1,1,1,0,0,0,0,0,0,0,1,1,1,1,1,1,0,0,0,1,1,1]","location_rts":"[830,254,250,488,258,336,299,1100,1376,409,184,460,526,294,394,39,603,245,334,491,197,158]","trial_type":"two-door-navigation","trial_index":25,"time_elapsed":5149041,"internal_node_id":"0.0-2.0-23.0"},{"group":"hexagon_tri","room_assignment":["yellow","green","grey","blue","red","purple"],"door_color_assignment":["white","black"],"door_generator_assignment":[0,1],"goal":2,"start":0,"action_noise":0.15,"location_history":"[0,1,3,2]","action_history":"[1,0,0]","door_history":"[1,0,0]","location_rts":"[323,371,240]","trial_type":"two-door-navigation","trial_index":26,"time_elapsed":5156539,"internal_node_id":"0.0-2.0-24.0"},{"group":"hexagon_tri","room_assignment":["yellow","green","grey","blue","red","purple"],"door_color_assignment":["white","black"],"door_generator_assignment":[0,1],"goal":4,"start":2,"action_noise":0.15,"location_history":"[2,3,4]","action_history":"[1,1]","door_history":"[1,1]","location_rts":"[515,204]","trial_type":"two-door-navigation","trial_index":27,"time_elapsed":5162803,"internal_node_id":"0.0-2.0-25.0"},{"group":"hexagon_tri","room_assignment":["yellow","green","grey","blue","red","purple"],"door_color_assignment":["white","black"],"door_generator_assignment":[0,1],"goal":5,"start":4,"action_noise":0.15,"location_history":"[4,0,1,5]","action_history":"[0,1,1]","door_history":"[0,1,1]","location_rts":"[290,61,273]","trial_type":"two-door-navigation","trial_index":28,"time_elapsed":5169991,"internal_node_id":"0.0-2.0-26.0"},{"group":"hexagon_tri","room_assignment":["yellow","green","grey","blue","red","purple"],"door_color_assignment":["white","black"],"door_generator_assignment":[0,1],"goal":2,"start":5,"action_noise":0.15,"location_history":"[5,0,1,5,0,5,0,1,5,4,0,5,0,1,3,4,0,5,4,2]","action_history":"[0,1,1,0,0,1,1,1,0,0,0,1,1,1,1,0,0,0,1]","door_history":"[0,1,1,0,0,1,1,1,0,0,0,1,1,1,1,0,0,0,1]","location_rts":"[356,625,422,437,230,71,585,2,139,200,528,597,248,1,247,1002,344,251,508]","trial_type":"two-door-navigation","trial_index":29,"time_elapsed":5199668,"internal_node_id":"0.0-2.0-27.0"},{"group":"hexagon_tri","room_assignment":["yellow","green","grey","blue","red","purple"],"door_color_assignment":["white","black"],"door_generator_assignment":[0,1],"goal":3,"start":2,"action_noise":0.15,"location_history":"[2,3]","action_history":"[1]","door_history":"[1]","location_rts":"[128]","trial_type":"two-door-navigation","trial_index":30,"time_elapsed":5204319,"internal_node_id":"0.0-2.0-28.0"},{"group":"hexagon_tri","room_assignment":["yellow","green","grey","blue","red","purple"],"door_color_assignment":["white","black"],"door_generator_assignment":[0,1],"goal":1,"start":3,"action_noise":0.15,"location_history":"[3,2,1]","action_history":"[0,0]","door_history":"[0,0]","location_rts":"[268,112]","trial_type":"two-door-navigation","trial_index":31,"time_elapsed":5210242,"internal_node_id":"0.0-2.0-29.0"},{"group":"hexagon_tri","room_assignment":["yellow","green","grey","blue","red","purple"],"door_color_assignment":["white","black"],"door_generator_assignment":[0,1],"goal":4,"start":1,"action_noise":0.15,"location_history":"[1,3,4]","action_history":"[0,1]","door_history":"[0,1]","location_rts":"[97,17]","trial_type":"two-door-navigation","trial_index":32,"time_elapsed":5215899,"internal_node_id":"0.0-2.0-30.0"},{"group":"hexagon_tri","room_assignment":["yellow","green","grey","blue","red","purple"],"door_color_assignment":["white","black"],"door_generator_assignment":[0,1],"goal":5,"start":4,"action_noise":0.15,"location_history":"[4,0,5]","action_history":"[0,0]","door_history":"[0,0]","location_rts":"[303,493]","trial_type":"two-door-navigation","trial_index":33,"time_elapsed":5222236,"internal_node_id":"0.0-2.0-31.0"},{"group":"hexagon_tri","room_assignment":["yellow","green","grey","blue","red","purple"],"door_color_assignment":["white","black"],"door_generator_assignment":[0,1],"goal":0,"start":5,"action_noise":0.15,"location_history":"[5,4,2,3,4,2,1,5,0]","action_history":"[0,1,1,1,1,0,1,1]","door_history":"[0,1,1,1,1,0,1,1]","location_rts":"[403,325,375,264,297,240,252,403]","trial_type":"two-door-navigation","trial_index":34,"time_elapsed":5236461,"internal_node_id":"0.0-2.0-32.0"},{"group":"hexagon_tri","room_assignment":["yellow","green","grey","blue","red","purple"],"door_color_assignment":["white","black"],"door_generator_assignment":[0,1],"goal":2,"start":0,"action_noise":0.15,"location_history":"[0,5,0,1,5,0,1,3,2]","action_history":"[0,1,1,1,1,1,0,0]","door_history":"[0,1,1,1,1,1,0,0]","location_rts":"[263,199,271,401,257,462,271,89]","trial_type":"two-door-navigation","trial_index":35,"time_elapsed":5250342,"internal_node_id":"0.0-2.0-33.0"},{"group":"hexagon_tri","room_assignment":["yellow","green","grey","blue","red","purple"],"door_color_assignment":["white","black"],"door_generator_assignment":[0,1],"goal":0,"start":2,"action_noise":0.15,"location_history":"[2,3,4,2,1,5,4,2,1,3,4,2,3,4,0]","action_history":"[1,1,1,0,1,0,1,0,0,1,1,1,1,0]","door_history":"[1,1,1,0,1,0,1,0,0,1,1,1,1,0]","location_rts":"[471,154,487,165,560,445,792,30,6,76,367,300,647,563]","trial_type":"two-door-navigation","trial_index":36,"time_elapsed":5273187,"internal_node_id":"0.0-2.0-34.0"},{"group":"hexagon_tri","room_assignment":["yellow","green","grey","blue","red","purple"],"door_color_assignment":["white","black"],"door_generator_assignment":[0,1],"goal":5,"start":0,"action_noise":0.15,"location_history":"[0,1,5]","action_history":"[1,0]","door_history":"[1,0]","location_rts":"[252,411]","trial_type":"two-door-navigation","trial_index":37,"time_elapsed":5279395,"internal_node_id":"0.0-2.0-35.0"},{"group":"hexagon_tri","room_assignment":["yellow","green","grey","blue","red","purple"],"door_color_assignment":["white","black"],"door_generator_assignment":[0,1],"goal":1,"start":5,"action_noise":0.15,"location_history":"[5,0,5,4,2,3,2,1]","action_history":"[1,0,0,1,1,0,0]","door_history":"[1,0,0,1,1,0,0]","location_rts":"[204,411,496,389,798,301,1]","trial_type":"two-door-navigation","trial_index":38,"time_elapsed":5292639,"internal_node_id":"0.0-2.0-36.0"},{"group":"hexagon_tri","room_assignment":["yellow","green","grey","blue","red","purple"],"door_color_assignment":["white","black"],"door_generator_assignment":[0,1],"goal":4,"start":1,"action_noise":0.15,"location_history":"[1,3,2,3,4]","action_history":"[1,0,0,1]","door_history":"[1,0,0,1]","location_rts":"[465,20,196,147]","trial_type":"two-door-navigation","trial_index":39,"time_elapsed":5301051,"internal_node_id":"0.0-2.0-37.0"},{"group":"hexagon_tri","room_assignment":["yellow","green","grey","blue","red","purple"],"door_color_assignment":["white","black"],"door_generator_assignment":[0,1],"goal":3,"start":4,"action_noise":0.15,"location_history":"[4,2,3]","action_history":"[1,1]","door_history":"[1,1]","location_rts":"[241,276]","trial_type":"two-door-navigation","trial_index":40,"time_elapsed":5307111,"internal_node_id":"0.0-2.0-38.0"},{"group":"hexagon_tri","room_assignment":["yellow","green","grey","blue","red","purple"],"door_color_assignment":["white","black"],"door_generator_assignment":[0,1],"goal":5,"start":3,"action_noise":0.15,"location_history":"[3,2,1,3,2,1,5]","action_history":"[0,0,0,0,0,1]","door_history":"[0,0,0,0,0,1]","location_rts":"[272,387,216,164,242,280]","trial_type":"two-door-navigation","trial_index":41,"time_elapsed":5318296,"internal_node_id":"0.0-2.0-39.0"},{"group":"hexagon_tri","room_assignment":["yellow","green","grey","blue","red","purple"],"door_color_assignment":["white","black"],"door_generator_assignment":[0,1],"goal":1,"start":5,"action_noise":0.15,"location_history":"[5,0,5,0,5,0,1]","action_history":"[1,0,0,0,1,1]","door_history":"[1,0,0,0,1,1]","location_rts":"[352,446,261,218,426,392]","trial_type":"two-door-navigation","trial_index":42,"time_elapsed":5330015,"internal_node_id":"0.0-2.0-40.0"},{"group":"hexagon_tri","room_assignment":["yellow","green","grey","blue","red","purple"],"door_color_assignment":["white","black"],"door_generator_assignment":[0,1],"goal":2,"start":1,"action_noise":0.15,"location_history":"[1,5,0,5,0,1,3,2]","action_history":"[1,1,1,1,1,0,0]","door_history":"[1,1,1,1,1,0,0]","location_rts":"[347,617,393,34,323,23,509]","trial_type":"two-door-navigation","trial_index":43,"time_elapsed":5342906,"internal_node_id":"0.0-2.0-41.0"},{"group":"hexagon_tri","room_assignment":["yellow","green","grey","blue","red","purple"],"door_color_assignment":["white","black"],"door_generator_assignment":[0,1],"goal":4,"start":2,"action_noise":0.15,"location_history":"[2,1,5,4]","action_history":"[1,1,0]","door_history":"[1,1,0]","location_rts":"[298,311,399]","trial_type":"two-door-navigation","trial_index":44,"time_elapsed":5350479,"internal_node_id":"0.0-2.0-42.0"},{"group":"hexagon_tri","room_assignment":["yellow","green","grey","blue","red","purple"],"door_color_assignment":["white","black"],"door_generator_assignment":[0,1],"goal":0,"start":4,"action_noise":0.15,"location_history":"[4,2,1,3,4,2,1,5,4,2,3,2,3,4,2,1,3,4,2,3,4,0]","action_history":"[1,0,0,1,1,1,1,0,1,1,0,1,1,1,0,0,1,1,1,1,0]","door_history":"[1,0,0,1,1,1,1,0,1,1,0,1,1,1,0,0,1,1,1,1,0]","location_rts":"[619,958,470,731,469,420,64,321,450,270,24,402,278,274,280,205,91,202,455,190,27]","trial_type":"two-door-navigation","trial_index":45,"time_elapsed":5382608,"internal_node_id":"0.0-2.0-43.0"},{"group":"hexagon_tri","room_assignment":["yellow","green","grey","blue","red","purple"],"door_color_assignment":["white","black"],"door_generator_assignment":[0,1],"goal":3,"start":0,"action_noise":0.15,"location_history":"[0,1,5,4,2,3]","action_history":"[1,1,0,1,1]","door_history":"[1,1,0,1,1]","location_rts":"[261,182,195,147,347]","trial_type":"two-door-navigation","trial_index":46,"time_elapsed":5392344,"internal_node_id":"0.0-2.0-44.0"},{"group":"hexagon_tri","room_assignment":["yellow","green","grey","blue","red","purple"],"door_color_assignment":["white","black"],"door_generator_assignment":[0,1],"goal":0,"start":3,"action_noise":0.15,"location_history":"[3,4,0]","action_history":"[1,0]","door_history":"[1,0]","location_rts":"[562,421]","trial_type":"two-door-navigation","trial_index":47,"time_elapsed":5398872,"internal_node_id":"0.0-2.0-45.0"},{"group":"hexagon_tri","room_assignment":["yellow","green","grey","blue","red","purple"],"door_color_assignment":["white","black"],"door_generator_assignment":[0,1],"goal":4,"start":0,"action_noise":0.15,"location_history":"[0,5,0,1,3,4]","action_history":"[0,1,1,1,1]","door_history":"[0,1,1,1,1]","location_rts":"[1102,249,497,260,227]","trial_type":"two-door-navigation","trial_index":48,"time_elapsed":5409814,"internal_node_id":"0.0-2.0-46.0"},{"group":"hexagon_tri","room_assignment":["yellow","green","grey","blue","red","purple"],"door_color_assignment":["white","black"],"door_generator_assignment":[0,1],"goal":5,"start":4,"action_noise":0.15,"location_history":"[4,0,5]","action_history":"[1,1]","door_history":"[1,1]","location_rts":"[232,370]","trial_type":"two-door-navigation","trial_index":49,"time_elapsed":5415961,"internal_node_id":"0.0-2.0-47.0"},{"group":"hexagon_tri","room_assignment":["yellow","green","grey","blue","red","purple"],"door_color_assignment":["white","black"],"door_generator_assignment":[0,1],"goal":2,"start":5,"action_noise":0.15,"location_history":"[5,0,5,4,0,1,3,2]","action_history":"[1,0,0,0,0,0,0]","door_history":"[1,0,0,0,0,0,0]","location_rts":"[409,696,326,253,271,269,298]","trial_type":"two-door-navigation","trial_index":50,"time_elapsed":5429127,"internal_node_id":"0.0-2.0-48.0"},{"group":"hexagon_tri","room_assignment":["yellow","green","grey","blue","red","purple"],"door_color_assignment":["white","black"],"door_generator_assignment":[0,1],"goal":1,"start":2,"action_noise":0.15,"location_history":"[2,3,2,1]","action_history":"[1,1,1]","door_history":"[1,1,1]","location_rts":"[498,450,213]","trial_type":"two-door-navigation","trial_index":51,"time_elapsed":5436854,"internal_node_id":"0.0-2.0-49.0"},{"view_history":"[{\"page_index\":0,\"viewing_time\":2613}]","rt":2613,"trial_type":"instructions","trial_index":52,"time_elapsed":5440468,"internal_node_id":"0.0-3.0"},{"view_history":"[{\"page_index\":0,\"viewing_time\":2200},{\"page_index\":1,\"viewing_time\":9883}]","rt":12083,"trial_type":"instructions","trial_index":53,"time_elapsed":5453552,"internal_node_id":"0.0-4.0"},{"group":"hexagon_tri","fractal_assignment":["../images/blu_wht.png","../images/pnk_blu.png","../images/org_blu.png","../images/ylw_slt.png","../images/cyn_red.png","../images/gry_blk.png"],"mutagen_generator_assignment":[1,0],"goal":2,"start":1,"action_noise":0.15,"location_history":"[1,5,4,2]","action_history":"[0,0,1]","mutagen_history":"[1,1,0]","location_rts":"[3054,398,495]","trial_type":"fractal-mutation","trial_index":54,"time_elapsed":5464070,"internal_node_id":"0.0-5.0-0.0"},{"group":"hexagon_tri","fractal_assignment":["../images/blu_wht.png","../images/pnk_blu.png","../images/org_blu.png","../images/ylw_slt.png","../images/cyn_red.png","../images/gry_blk.png"],"mutagen_generator_assignment":[1,0],"goal":0,"start":2,"action_noise":0.15,"location_history":"[2,1,3,4,2,1,3,2,1,5,0]","action_history":"[0,0,1,1,0,0,0,0,1,1]","mutagen_history":"[1,1,0,0,1,1,1,1,0,0]","location_rts":"[544,260,253,185,294,145,152,347,343,196]","trial_type":"fractal-mutation","trial_index":55,"time_elapsed":5480513,"internal_node_id":"0.0-5.0-1.0"},{"group":"hexagon_tri","fractal_assignment":["../images/blu_wht.png","../images/pnk_blu.png","../images/org_blu.png","../images/ylw_slt.png","../images/cyn_red.png","../images/gry_blk.png"],"mutagen_generator_assignment":[1,0],"goal":5,"start":0,"action_noise":0.15,"location_history":"[0,5]","action_history":"[0]","mutagen_history":"[1]","location_rts":"[450]","trial_type":"fractal-mutation","trial_index":56,"time_elapsed":5485488,"internal_node_id":"0.0-5.0-2.0"},{"group":"hexagon_tri","fractal_assignment":["../images/blu_wht.png","../images/pnk_blu.png","../images/org_blu.png","../images/ylw_slt.png","../images/cyn_red.png","../images/gry_blk.png"],"mutagen_generator_assignment":[1,0],"goal":1,"start":5,"action_noise":0.15,"location_history":"[5,4,2,1]","action_history":"[0,0,1]","mutagen_history":"[1,1,0]","location_rts":"[906,996,809]","trial_type":"fractal-mutation","trial_index":57,"time_elapsed":5494765,"internal_node_id":"0.0-5.0-3.0"},{"group":"hexagon_tri","fractal_assignment":["../images/blu_wht.png","../images/pnk_blu.png","../images/org_blu.png","../images/ylw_slt.png","../images/cyn_red.png","../images/gry_blk.png"],"mutagen_generator_assignment":[1,0],"goal":3,"start":1,"action_noise":0.15,"location_history":"[1,3]","action_history":"[0]","mutagen_history":"[1]","location_rts":"[306]","trial_type":"fractal-mutation","trial_index":58,"time_elapsed":5499595,"internal_node_id":"0.0-5.0-4.0"},{"group":"hexagon_tri","fractal_assignment":["../images/blu_wht.png","../images/pnk_blu.png","../images/org_blu.png","../images/ylw_slt.png","../images/cyn_red.png","../images/gry_blk.png"],"mutagen_generator_assignment":[1,0],"goal":5,"start":3,"action_noise":0.15,"location_history":"[3,4,2,1,5]","action_history":"[1,1,0,1]","mutagen_history":"[0,0,1,0]","location_rts":"[315,526,747,407]","trial_type":"fractal-mutation","trial_index":59,"time_elapsed":5509180,"internal_node_id":"0.0-5.0-5.0"},{"group":"hexagon_tri","fractal_assignment":["../images/blu_wht.png","../images/pnk_blu.png","../images/org_blu.png","../images/ylw_slt.png","../images/cyn_red.png","../images/gry_blk.png"],"mutagen_generator_assignment":[1,0],"goal":4,"start":5,"action_noise":0.15,"location_history":"[5,4]","action_history":"[0]","mutagen_history":"[1]","location_rts":"[341]","trial_type":"fractal-mutation","trial_index":60,"time_elapsed":5514044,"internal_node_id":"0.0-5.0-6.0"},{"group":"hexagon_tri","fractal_assignment":["../images/blu_wht.png","../images/pnk_blu.png","../images/org_blu.png","../images/ylw_slt.png","../images/cyn_red.png","../images/gry_blk.png"],"mutagen_generator_assignment":[1,0],"goal":0,"start":4,"action_noise":0.15,"location_history":"[4,0]","action_history":"[0]","mutagen_history":"[1]","location_rts":"[262]","trial_type":"fractal-mutation","trial_index":61,"time_elapsed":5518830,"internal_node_id":"0.0-5.0-7.0"},{"group":"hexagon_tri","fractal_assignment":["../images/blu_wht.png","../images/pnk_blu.png","../images/org_blu.png","../images/ylw_slt.png","../images/cyn_red.png","../images/gry_blk.png"],"mutagen_generator_assignment":[1,0],"goal":2,"start":0,"action_noise":0.15,"location_history":"[0,5,4,2]","action_history":"[0,0,1]","mutagen_history":"[1,1,0]","location_rts":"[283,10,93]","trial_type":"fractal-mutation","trial_index":62,"time_elapsed":5525782,"internal_node_id":"0.0-5.0-8.0"},{"group":"hexagon_tri","fractal_assignment":["../images/blu_wht.png","../images/pnk_blu.png","../images/org_blu.png","../images/ylw_slt.png","../images/cyn_red.png","../images/gry_blk.png"],"mutagen_generator_assignment":[1,0],"goal":4,"start":2,"action_noise":0.15,"location_history":"[2,3,4]","action_history":"[0,1]","mutagen_history":"[1,0]","location_rts":"[850,251]","trial_type":"fractal-mutation","trial_index":63,"time_elapsed":5532428,"internal_node_id":"0.0-5.0-9.0"},{"group":"hexagon_tri","fractal_assignment":["../images/blu_wht.png","../images/pnk_blu.png","../images/org_blu.png","../images/ylw_slt.png","../images/cyn_red.png","../images/gry_blk.png"],"mutagen_generator_assignment":[1,0],"goal":2,"start":4,"action_noise":0.15,"location_history":"[4,2]","action_history":"[0]","mutagen_history":"[1]","location_rts":"[2137]","trial_type":"fractal-mutation","trial_index":64,"time_elapsed":5539088,"internal_node_id":"0.0-5.0-10.0"},{"group":"hexagon_tri","fractal_assignment":["../images/blu_wht.png","../images/pnk_blu.png","../images/org_blu.png","../images/ylw_slt.png","../images/cyn_red.png","../images/gry_blk.png"],"mutagen_generator_assignment":[1,0],"goal":3,"start":2,"action_noise":0.15,"location_history":"[2,1,3]","action_history":"[0,0]","mutagen_history":"[1,1]","location_rts":"[455,2019]","trial_type":"fractal-mutation","trial_index":65,"time_elapsed":5547110,"internal_node_id":"0.0-5.0-11.0"},{"group":"hexagon_tri","fractal_assignment":["../images/blu_wht.png","../images/pnk_blu.png","../images/org_blu.png","../images/ylw_slt.png","../images/cyn_red.png","../images/gry_blk.png"],"mutagen_generator_assignment":[1,0],"goal":0,"start":3,"action_noise":0.15,"location_history":"[3,4,0]","action_history":"[1,0]","mutagen_history":"[0,1]","location_rts":"[756,430]","trial_type":"fractal-mutation","trial_index":66,"time_elapsed":5553841,"internal_node_id":"0.0-5.0-12.0"},{"group":"hexagon_tri","fractal_assignment":["../images/blu_wht.png","../images/pnk_blu.png","../images/org_blu.png","../images/ylw_slt.png","../images/cyn_red.png","../images/gry_blk.png"],"mutagen_generator_assignment":[1,0],"goal":5,"start":0,"action_noise":0.15,"location_history":"[0,5]","action_history":"[0]","mutagen_history":"[1]","location_rts":"[1576]","trial_type":"fractal-mutation","trial_index":67,"time_elapsed":5559943,"internal_node_id":"0.0-5.0-13.0"},{"group":"hexagon_tri","fractal_assignment":["../images/blu_wht.png","../images/pnk_blu.png","../images/org_blu.png","../images/ylw_slt.png","../images/cyn_red.png","../images/gry_blk.png"],"mutagen_generator_assignment":[1,0],"goal":1,"start":5,"action_noise":0.15,"location_history":"[5,0,1]","action_history":"[0,1]","mutagen_history":"[1,0]","location_rts":"[1020,341]","trial_type":"fractal-mutation","trial_index":68,"time_elapsed":5566850,"internal_node_id":"0.0-5.0-14.0"},{"group":"hexagon_tri","fractal_assignment":["../images/blu_wht.png","../images/pnk_blu.png","../images/org_blu.png","../images/ylw_slt.png","../images/cyn_red.png","../images/gry_blk.png"],"mutagen_generator_assignment":[1,0],"goal":5,"start":1,"action_noise":0.15,"location_history":"[1,3,4,2,3,2,3,2,1,3,2,1,5]","action_history":"[0,1,1,1,0,0,0,0,0,0,0,1]","mutagen_history":"[1,0,0,0,1,1,1,1,1,1,1,0]","location_rts":"[772,330,335,315,240,261,284,301,305,318,313,339]","trial_type":"fractal-mutation","trial_index":69,"time_elapsed":5586726,"internal_node_id":"0.0-5.0-15.0"},{"group":"hexagon_tri","fractal_assignment":["../images/blu_wht.png","../images/pnk_blu.png","../images/org_blu.png","../images/ylw_slt.png","../images/cyn_red.png","../images/gry_blk.png"],"mutagen_generator_assignment":[1,0],"goal":3,"start":5,"action_noise":0.15,"location_history":"[5,4,0,1,5,4,0,1,3]","action_history":"[0,0,1,1,0,0,1,0]","mutagen_history":"[1,1,0,0,1,1,0,1]","location_rts":"[231,344,459,355,655,133,192,532]","trial_type":"fractal-mutation","trial_index":70,"time_elapsed":5601302,"internal_node_id":"0.0-5.0-16.0"},{"group":"hexagon_tri","fractal_assignment":["../images/blu_wht.png","../images/pnk_blu.png","../images/org_blu.png","../images/ylw_slt.png","../images/cyn_red.png","../images/gry_blk.png"],"mutagen_generator_assignment":[1,0],"goal":2,"start":3,"action_noise":0.15,"location_history":"[3,4,2]","action_history":"[1,0]","mutagen_history":"[0,1]","location_rts":"[482,538]","trial_type":"fractal-mutation","trial_index":71,"time_elapsed":5607868,"internal_node_id":"0.0-5.0-17.0"},{"group":"hexagon_tri","fractal_assignment":["../images/blu_wht.png","../images/pnk_blu.png","../images/org_blu.png","../images/ylw_slt.png","../images/cyn_red.png","../images/gry_blk.png"],"mutagen_generator_assignment":[1,0],"goal":1,"start":2,"action_noise":0.15,"location_history":"[2,1]","action_history":"[0]","mutagen_history":"[1]","location_rts":"[338]","trial_type":"fractal-mutation","trial_index":72,"time_elapsed":5612730,"internal_node_id":"0.0-5.0-18.0"},{"group":"hexagon_tri","fractal_assignment":["../images/blu_wht.png","../images/pnk_blu.png","../images/org_blu.png","../images/ylw_slt.png","../images/cyn_red.png","../images/gry_blk.png"],"mutagen_generator_assignment":[1,0],"goal":4,"start":1,"action_noise":0.15,"location_history":"[1,5,0,5,0,1,3,2,3,2,1,3,4]","action_history":"[1,1,0,0,0,0,0,1,0,0,0,1]","mutagen_history":"[0,0,1,1,1,1,1,0,1,1,1,0]","location_rts":"[465,617,13,665,501,122,514,586,457,69,179,810]","trial_type":"fractal-mutation","trial_index":73,"time_elapsed":5633489,"internal_node_id":"0.0-5.0-19.0"},{"group":"hexagon_tri","fractal_assignment":["../images/blu_wht.png","../images/pnk_blu.png","../images/org_blu.png","../images/ylw_slt.png","../images/cyn_red.png","../images/gry_blk.png"],"mutagen_generator_assignment":[1,0],"goal":0,"start":4,"action_noise":0.15,"location_history":"[4,0]","action_history":"[0]","mutagen_history":"[1]","location_rts":"[1221]","trial_type":"fractal-mutation","trial_index":74,"time_elapsed":5639233,"internal_node_id":"0.0-5.0-20.0"},{"group":"hexagon_tri","fractal_assignment":["../images/blu_wht.png","../images/pnk_blu.png","../images/org_blu.png","../images/ylw_slt.png","../images/cyn_red.png","../images/gry_blk.png"],"mutagen_generator_assignment":[1,0],"goal":3,"start":0,"action_noise":0.15,"location_history":"[0,1,5,0,1,5,4,2,1,5,0,1,5,0,5,4,2,1,3]","action_history":"[0,0,1,1,1,0,0,0,1,1,1,1,1,0,0,1,1,0]","mutagen_history":"[1,1,0,0,0,1,1,1,0,0,0,0,0,1,1,0,0,1]","location_rts":"[1001,825,354,378,348,256,384,139,93,168,203,410,325,408,259,1269,586,496]","trial_type":"fractal-mutation","trial_index":75,"time_elapsed":5669019,"internal_node_id":"0.0-5.0-21.0"},{"group":"hexagon_tri","fractal_assignment":["../images/blu_wht.png","../images/pnk_blu.png","../images/org_blu.png","../images/ylw_slt.png","../images/cyn_red.png","../images/gry_blk.png"],"mutagen_generator_assignment":[1,0],"goal":1,"start":3,"action_noise":0.15,"location_history":"[3,2,3,4,0,5,4,2,3,4,2,3,2,1]","action_history":"[0,1,1,0,0,0,1,1,1,1,1,0,0]","mutagen_history":"[1,0,0,1,1,1,0,0,0,0,0,1,1]","location_rts":"[1023,535,430,472,359,85,1287,245,62,226,28,291,59]","trial_type":"fractal-mutation","trial_index":76,"time_elapsed":5690902,"internal_node_id":"0.0-5.0-22.0"},{"group":"hexagon_tri","fractal_assignment":["../images/blu_wht.png","../images/pnk_blu.png","../images/org_blu.png","../images/ylw_slt.png","../images/cyn_red.png","../images/gry_blk.png"],"mutagen_generator_assignment":[1,0],"goal":0,"start":1,"action_noise":0.15,"location_history":"[1,3,2,1,3,2,1,3,4,2,3,2,1,5,4,0]","action_history":"[0,0,0,0,0,1,1,1,1,1,0,0,0,1,0]","mutagen_history":"[1,1,1,1,1,0,0,0,0,0,1,1,1,0,1]","location_rts":"[257,411,2925,831,1474,546,616,426,446,429,279,254,178,366,311]","trial_type":"fractal-mutation","trial_index":77,"time_elapsed":5719488,"internal_node_id":"0.0-5.0-23.0"},{"group":"hexagon_tri","fractal_assignment":["../images/blu_wht.png","../images/pnk_blu.png","../images/org_blu.png","../images/ylw_slt.png","../images/cyn_red.png","../images/gry_blk.png"],"mutagen_generator_assignment":[1,0],"goal":2,"start":0,"action_noise":0.15,"location_history":"[0,5,0,5,4,2]","action_history":"[0,0,0,0,1]","mutagen_history":"[1,1,1,1,0]","location_rts":"[1017,361,320,387,395]","trial_type":"fractal-mutation","trial_index":78,"time_elapsed":5730577,"internal_node_id":"0.0-5.0-24.0"},{"group":"hexagon_tri","fractal_assignment":["../images/blu_wht.png","../images/pnk_blu.png","../images/org_blu.png","../images/ylw_slt.png","../images/cyn_red.png","../images/gry_blk.png"],"mutagen_generator_assignment":[1,0],"goal":4,"start":2,"action_noise":0.15,"location_history":"[2,3,2,1,5,4]","action_history":"[0,0,0,0,0]","mutagen_history":"[1,1,1,1,1]","location_rts":"[608,338,275,339,551]","trial_type":"fractal-mutation","trial_index":79,"time_elapsed":5741296,"internal_node_id":"0.0-5.0-25.0"},{"group":"hexagon_tri","fractal_assignment":["../images/blu_wht.png","../images/pnk_blu.png","../images/org_blu.png","../images/ylw_slt.png","../images/cyn_red.png","../images/gry_blk.png"],"mutagen_generator_assignment":[1,0],"goal":5,"start":4,"action_noise":0.15,"location_history":"[4,0,1,5]","action_history":"[0,1,1]","mutagen_history":"[1,0,0]","location_rts":"[972,429,363]","trial_type":"fractal-mutation","trial_index":80,"time_elapsed":5749628,"internal_node_id":"0.0-5.0-26.0"},{"group":"hexagon_tri","fractal_assignment":["../images/blu_wht.png","../images/pnk_blu.png","../images/org_blu.png","../images/ylw_slt.png","../images/cyn_red.png","../images/gry_blk.png"],"mutagen_generator_assignment":[1,0],"goal":2,"start":5,"action_noise":0.15,"location_history":"[5,0,5,4,2]","action_history":"[0,0,0,1]","mutagen_history":"[1,1,1,0]","location_rts":"[803,290,264,543]","trial_type":"fractal-mutation","trial_index":81,"time_elapsed":5759119,"internal_node_id":"0.0-5.0-27.0"},{"group":"hexagon_tri","fractal_assignment":["../images/blu_wht.png","../images/pnk_blu.png","../images/org_blu.png","../images/ylw_slt.png","../images/cyn_red.png","../images/gry_blk.png"],"mutagen_generator_assignment":[1,0],"goal":3,"start":2,"action_noise":0.15,"location_history":"[2,1,5,0,1,3]","action_history":"[0,1,1,0,0]","mutagen_history":"[1,0,0,1,1]","location_rts":"[2349,66,362,277,385]","trial_type":"fractal-mutation","trial_index":82,"time_elapsed":5771168,"internal_node_id":"0.0-5.0-28.0"},{"group":"hexagon_tri","fractal_assignment":["../images/blu_wht.png","../images/pnk_blu.png","../images/org_blu.png","../images/ylw_slt.png","../images/cyn_red.png","../images/gry_blk.png"],"mutagen_generator_assignment":[1,0],"goal":1,"start":3,"action_noise":0.15,"location_history":"[3,2,1]","action_history":"[0,0]","mutagen_history":"[1,1]","location_rts":"[5274,344]","trial_type":"fractal-mutation","trial_index":83,"time_elapsed":5782333,"internal_node_id":"0.0-5.0-29.0"},{"group":"hexagon_tri","fractal_assignment":["../images/blu_wht.png","../images/pnk_blu.png","../images/org_blu.png","../images/ylw_slt.png","../images/cyn_red.png","../images/gry_blk.png"],"mutagen_generator_assignment":[1,0],"goal":4,"start":1,"action_noise":0.15,"location_history":"[1,5,0,1,3,2,1,5,4]","action_history":"[1,1,0,0,0,0,0,0]","mutagen_history":"[0,0,1,1,1,1,1,1]","location_rts":"[1031,463,1396,408,325,715,311,305]","trial_type":"fractal-mutation","trial_index":84,"time_elapsed":5798963,"internal_node_id":"0.0-5.0-30.0"},{"group":"hexagon_tri","fractal_assignment":["../images/blu_wht.png","../images/pnk_blu.png","../images/org_blu.png","../images/ylw_slt.png","../images/cyn_red.png","../images/gry_blk.png"],"mutagen_generator_assignment":[1,0],"goal":5,"start":4,"action_noise":0.15,"location_history":"[4,2,3,4,2,3,4,2,1,3,4,0,5]","action_history":"[0,1,1,1,1,1,1,1,0,0,0,0]","mutagen_history":"[1,0,0,0,0,0,0,0,1,1,1,1]","location_rts":"[640,491,671,338,356,275,289,225,277,65,328,88]","trial_type":"fractal-mutation","trial_index":85,"time_elapsed":5818768,"internal_node_id":"0.0-5.0-31.0"},{"group":"hexagon_tri","fractal_assignment":["../images/blu_wht.png","../images/pnk_blu.png","../images/org_blu.png","../images/ylw_slt.png","../images/cyn_red.png","../images/gry_blk.png"],"mutagen_generator_assignment":[1,0],"goal":0,"start":5,"action_noise":0.15,"location_history":"[5,4,0]","action_history":"[0,0]","mutagen_history":"[1,1]","location_rts":"[1258,529]","trial_type":"fractal-mutation","trial_index":86,"time_elapsed":5826103,"internal_node_id":"0.0-5.0-32.0"},{"group":"hexagon_tri","fractal_assignment":["../images/blu_wht.png","../images/pnk_blu.png","../images/org_blu.png","../images/ylw_slt.png","../images/cyn_red.png","../images/gry_blk.png"],"mutagen_generator_assignment":[1,0],"goal":2,"start":0,"action_noise":0.15,"location_history":"[0,5,4,2]","action_history":"[0,0,1]","mutagen_history":"[1,1,0]","location_rts":"[550,128,473]","trial_type":"fractal-mutation","trial_index":87,"time_elapsed":5833819,"internal_node_id":"0.0-5.0-33.0"},{"group":"hexagon_tri","fractal_assignment":["../images/blu_wht.png","../images/pnk_blu.png","../images/org_blu.png","../images/ylw_slt.png","../images/cyn_red.png","../images/gry_blk.png"],"mutagen_generator_assignment":[1,0],"goal":0,"start":2,"action_noise":0.15,"location_history":"[2,1,5,0]","action_history":"[0,1,1]","mutagen_history":"[1,0,0]","location_rts":"[1059,137,138]","trial_type":"fractal-mutation","trial_index":88,"time_elapsed":5841719,"internal_node_id":"0.0-5.0-34.0"},{"group":"hexagon_tri","fractal_assignment":["../images/blu_wht.png","../images/pnk_blu.png","../images/org_blu.png","../images/ylw_slt.png","../images/cyn_red.png","../images/gry_blk.png"],"mutagen_generator_assignment":[1,0],"goal":5,"start":0,"action_noise":0.15,"location_history":"[0,5]","action_history":"[0]","mutagen_history":"[1]","location_rts":"[424]","trial_type":"fractal-mutation","trial_index":89,"time_elapsed":5846670,"internal_node_id":"0.0-5.0-35.0"},{"group":"hexagon_tri","fractal_assignment":["../images/blu_wht.png","../images/pnk_blu.png","../images/org_blu.png","../images/ylw_slt.png","../images/cyn_red.png","../images/gry_blk.png"],"mutagen_generator_assignment":[1,0],"goal":1,"start":5,"action_noise":0.15,"location_history":"[5,4,0,1]","action_history":"[0,0,1]","mutagen_history":"[1,1,0]","location_rts":"[606,206,844]","trial_type":"fractal-mutation","trial_index":90,"time_elapsed":5854891,"internal_node_id":"0.0-5.0-36.0"},{"group":"hexagon_tri","fractal_assignment":["../images/blu_wht.png","../images/pnk_blu.png","../images/org_blu.png","../images/ylw_slt.png","../images/cyn_red.png","../images/gry_blk.png"],"mutagen_generator_assignment":[1,0],"goal":4,"start":1,"action_noise":0.15,"location_history":"[1,3,4]","action_history":"[0,0]","mutagen_history":"[1,1]","location_rts":"[701,479]","trial_type":"fractal-mutation","trial_index":91,"time_elapsed":5861616,"internal_node_id":"0.0-5.0-37.0"},{"group":"hexagon_tri","fractal_assignment":["../images/blu_wht.png","../images/pnk_blu.png","../images/org_blu.png","../images/ylw_slt.png","../images/cyn_red.png","../images/gry_blk.png"],"mutagen_generator_assignment":[1,0],"goal":3,"start":4,"action_noise":0.15,"location_history":"[4,2,3]","action_history":"[0,0]","mutagen_history":"[1,1]","location_rts":"[1176,307]","trial_type":"fractal-mutation","trial_index":92,"time_elapsed":5868646,"internal_node_id":"0.0-5.0-38.0"},{"group":"hexagon_tri","fractal_assignment":["../images/blu_wht.png","../images/pnk_blu.png","../images/org_blu.png","../images/ylw_slt.png","../images/cyn_red.png","../images/gry_blk.png"],"mutagen_generator_assignment":[1,0],"goal":5,"start":3,"action_noise":0.15,"location_history":"[3,2,3,4,2,3,4,2,1,5]","action_history":"[0,1,1,1,1,1,1,1,1]","mutagen_history":"[1,0,0,0,0,0,0,0,0]","location_rts":"[807,1161,546,339,382,358,341,314,492]","trial_type":"fractal-mutation","trial_index":93,"time_elapsed":5886081,"internal_node_id":"0.0-5.0-39.0"},{"group":"hexagon_tri","fractal_assignment":["../images/blu_wht.png","../images/pnk_blu.png","../images/org_blu.png","../images/ylw_slt.png","../images/cyn_red.png","../images/gry_blk.png"],"mutagen_generator_assignment":[1,0],"goal":1,"start":5,"action_noise":0.15,"location_history":"[5,4,0,1]","action_history":"[0,1,1]","mutagen_history":"[1,0,0]","location_rts":"[842,386,136]","trial_type":"fractal-mutation","trial_index":94,"time_elapsed":5894011,"internal_node_id":"0.0-5.0-40.0"},{"group":"hexagon_tri","fractal_assignment":["../images/blu_wht.png","../images/pnk_blu.png","../images/org_blu.png","../images/ylw_slt.png","../images/cyn_red.png","../images/gry_blk.png"],"mutagen_generator_assignment":[1,0],"goal":2,"start":1,"action_noise":0.15,"location_history":"[1,5,4,2]","action_history":"[1,0,1]","mutagen_history":"[0,1,0]","location_rts":"[1633,586,490]","trial_type":"fractal-mutation","trial_index":95,"time_elapsed":5903286,"internal_node_id":"0.0-5.0-41.0"},{"group":"hexagon_tri","fractal_assignment":["../images/blu_wht.png","../images/pnk_blu.png","../images/org_blu.png","../images/ylw_slt.png","../images/cyn_red.png","../images/gry_blk.png"],"mutagen_generator_assignment":[1,0],"goal":4,"start":2,"action_noise":0.15,"location_history":"[2,1,3,2,1,3,2,1,3,2,1,3,2,1,5,4]","action_history":"[0,0,0,0,0,0,0,0,0,0,0,0,0,1,0]","mutagen_history":"[1,1,1,1,1,1,1,1,1,1,1,1,1,0,1]","location_rts":"[1056,333,286,276,307,271,270,317,252,255,379,278,420,282,231]","trial_type":"fractal-mutation","trial_index":96,"time_elapsed":5927334,"internal_node_id":"0.0-5.0-42.0"},{"group":"hexagon_tri","fractal_assignment":["../images/blu_wht.png","../images/pnk_blu.png","../images/org_blu.png","../images/ylw_slt.png","../images/cyn_red.png","../images/gry_blk.png"],"mutagen_generator_assignment":[1,0],"goal":0,"start":4,"action_noise":0.15,"location_history":"[4,2,3,4,2,1,5,4,0]","action_history":"[1,1,1,1,0,0,0,0]","mutagen_history":"[0,0,0,0,1,1,1,1]","location_rts":"[955,312,370,418,314,209,380,700]","trial_type":"fractal-mutation","trial_index":97,"time_elapsed":5942664,"internal_node_id":"0.0-5.0-43.0"},{"group":"hexagon_tri","fractal_assignment":["../images/blu_wht.png","../images/pnk_blu.png","../images/org_blu.png","../images/ylw_slt.png","../images/cyn_red.png","../images/gry_blk.png"],"mutagen_generator_assignment":[1,0],"goal":3,"start":0,"action_noise":0.15,"location_history":"[0,1,5,4,2,3]","action_history":"[1,1,1,1,1]","mutagen_history":"[0,0,0,0,0]","location_rts":"[1015,369,296,321,429]","trial_type":"fractal-mutation","trial_index":98,"time_elapsed":5953706,"internal_node_id":"0.0-5.0-44.0"},{"group":"hexagon_tri","fractal_assignment":["../images/blu_wht.png","../images/pnk_blu.png","../images/org_blu.png","../images/ylw_slt.png","../images/cyn_red.png","../images/gry_blk.png"],"mutagen_generator_assignment":[1,0],"goal":0,"start":3,"action_noise":0.15,"location_history":"[3,4,0]","action_history":"[1,0]","mutagen_history":"[0,1]","location_rts":"[950,236]","trial_type":"fractal-mutation","trial_index":99,"time_elapsed":5960438,"internal_node_id":"0.0-5.0-45.0"},{"group":"hexagon_tri","fractal_assignment":["../images/blu_wht.png","../images/pnk_blu.png","../images/org_blu.png","../images/ylw_slt.png","../images/cyn_red.png","../images/gry_blk.png"],"mutagen_generator_assignment":[1,0],"goal":4,"start":0,"action_noise":0.15,"location_history":"[0,5,4]","action_history":"[0,0]","mutagen_history":"[1,1]","location_rts":"[709,326]","trial_type":"fractal-mutation","trial_index":100,"time_elapsed":5967018,"internal_node_id":"0.0-5.0-46.0"},{"group":"hexagon_tri","fractal_assignment":["../images/blu_wht.png","../images/pnk_blu.png","../images/org_blu.png","../images/ylw_slt.png","../images/cyn_red.png","../images/gry_blk.png"],"mutagen_generator_assignment":[1,0],"goal":5,"start":4,"action_noise":0.15,"location_history":"[4,2,1,5]","action_history":"[1,1,1]","mutagen_history":"[0,0,0]","location_rts":"[911,303,452]","trial_type":"fractal-mutation","trial_index":101,"time_elapsed":5975252,"internal_node_id":"0.0-5.0-47.0"},{"group":"hexagon_tri","fractal_assignment":["../images/blu_wht.png","../images/pnk_blu.png","../images/org_blu.png","../images/ylw_slt.png","../images/cyn_red.png","../images/gry_blk.png"],"mutagen_generator_assignment":[1,0],"goal":2,"start":5,"action_noise":0.15,"location_history":"[5,0,5,4,2]","action_history":"[1,0,0,1]","mutagen_history":"[0,1,1,0]","location_rts":"[6772,928,2061,547]","trial_type":"fractal-mutation","trial_index":102,"time_elapsed":5993150,"internal_node_id":"0.0-5.0-48.0"},{"group":"hexagon_tri","fractal_assignment":["../images/blu_wht.png","../images/pnk_blu.png","../images/org_blu.png","../images/ylw_slt.png","../images/cyn_red.png","../images/gry_blk.png"],"mutagen_generator_assignment":[1,0],"goal":1,"start":2,"action_noise":0.15,"location_history":"[2,1]","action_history":"[0]","mutagen_history":"[1]","location_rts":"[280]","trial_type":"fractal-mutation","trial_index":103,"time_elapsed":5997956,"internal_node_id":"0.0-5.0-49.0"},{"view_history":"[{\"page_index\":0,\"viewing_time\":3662}]","rt":3662,"trial_type":"instructions","trial_index":104,"time_elapsed":6002618,"internal_node_id":"0.0-6.0"},{"rt":60090,"responses":"{\"Q0\":\"It seemed like it was testing to see if I could memorize the general layout of the rooms while being thrown the occasional curve ball.\"}","trial_type":"survey-text","trial_index":105,"time_elapsed":6063711,"internal_node_id":"0.0-7.0-0.0"},{"rt":94876,"responses":"{\"Q0\":\"It seemed similar to the first experiment, trying to learn which sort of path to take to best get to the requested final outcome. It was similar to the first one but more visual.\"}","trial_type":"survey-text","trial_index":106,"time_elapsed":6159589,"internal_node_id":"0.0-7.0-1.0"},{"rt":33445,"responses":"{\"Q0\":\"<img src='../images/diagrams/hexagon_tri.png'>\"}","trial_type":"survey-multi-choice","trial_index":107,"time_elapsed":6194037,"internal_node_id":"0.0-7.0-2.0"},{"rt":52128,"assignments":["../images/blu_wht.png","../images/cyn_red.png","../images/gry_blk.png","../images/pnk_blu.png","../images/ylw_slt.png","../images/org_blu.png"],"trial_type":"drag-drop-on-image","trial_index":108,"time_elapsed":6247166,"internal_node_id":"0.0-7.0-3.0"},{"rt":7949,"responses":"{\"Q0\":\"3\"}","trial_type":"survey-likert","trial_index":109,"time_elapsed":6256119,"internal_node_id":"0.0-7.0-4.0"},{"rt":57643,"responses":"{\"Q0\":\"They were both just taking a specific path to get to the room or picture you wanted, it wasn't 100% but generally it got easier once I learned some of the connections.\"}","trial_type":"survey-text","trial_index":110,"time_elapsed":6314763,"internal_node_id":"0.0-7.0-5.0"},{"rt":25345,"responses":"{\"Q0\":\"No\"}","trial_type":"survey-multi-choice","trial_index":111,"time_elapsed":6341111,"internal_node_id":"0.0-7.0-6.0"},{"rt":22000,"responses":"{\"Q0\":\"During this session\"}","trial_type":"survey-multi-choice","trial_index":112,"time_elapsed":6364116,"internal_node_id":"0.0-7.0-7.0"},{"rt":32181,"responses":"{\"Q0\":\"I felt like they were related by the way I already mentioned, but other than that I didn't notice anything.\"}","trial_type":"survey-text","trial_index":113,"time_elapsed":6397298,"internal_node_id":"0.0-7.0-8.0"},{"rt":7507,"responses":"{\"Q0\":\"1\"}","trial_type":"survey-likert","trial_index":114,"time_elapsed":6405807,"internal_node_id":"0.0-7.0-9.0"},{"rt":18142,"responses":"{\"Q0\":\"Different structure\"}","trial_type":"survey-multi-choice","trial_index":115,"time_elapsed":6424951,"internal_node_id":"0.0-7.0-10.0"},{"rt":35037,"responses":"{\"Q0\":\"left (white) door = acid, right (black) door = ray\",\"Q1\":\"Slightly confident\"}","trial_type":"survey-multi-choice","trial_index":116,"time_elapsed":6460992,"internal_node_id":"0.0-7.0-11.0"},{"rt":8601,"responses":"{\"Q0\":\"25-35\",\"Q1\":\"Bachelor's degree\",\"Q2\":\"Male\",\"Q3\":\"White\"}","trial_type":"survey-multi-choice","trial_index":117,"time_elapsed":6470602,"internal_node_id":"0.0-8.0"},{"rt":17525,"responses":"{\"Q0\":\"Nice study, I had fun with this!\"}","trial_type":"survey-text","trial_index":118,"time_elapsed":6489128,"internal_node_id":"0.0-9.0"}]