[{"view_history":"[{\"page_index\":0,\"viewing_time\":1310967},{\"page_index\":1,\"viewing_time\":10653}]","rt":1321620,"trial_type":"instructions","trial_index":0,"time_elapsed":1321622,"internal_node_id":"0.0-0.0"},{"view_history":"[{\"page_index\":0,\"viewing_time\":1655},{\"page_index\":1,\"viewing_time\":41960}]","rt":43615,"trial_type":"instructions","trial_index":1,"time_elapsed":1366237,"internal_node_id":"0.0-1.0"},{"group":"hexagon_tri","room_assignment":["blue","purple","green","yellow","red","grey"],"door_color_assignment":["black","white"],"door_generator_assignment":[0,1],"goal":2,"start":1,"action_noise":0.15,"location_history":"[1,3,4,2]","action_history":"[0,1,1]","door_history":"[0,1,1]","location_rts":"[1349,597,303]","trial_type":"two-door-navigation","trial_index":2,"time_elapsed":1375055,"internal_node_id":"0.0-2.0-0.0"},{"group":"hexagon_tri","room_assignment":["blue","purple","green","yellow","red","grey"],"door_color_assignment":["black","white"],"door_generator_assignment":[0,1],"goal":0,"start":2,"action_noise":0.15,"location_history":"[2,1,3,2,3,2,1,5,0]","action_history":"[0,1,1,1,0,0,1,1]","door_history":"[0,1,1,1,0,0,1,1]","location_rts":"[2600,323,302,344,258,599,541,29]","trial_type":"two-door-navigation","trial_index":3,"time_elapsed":1391715,"internal_node_id":"0.0-2.0-1.0"},{"group":"hexagon_tri","room_assignment":["blue","purple","green","yellow","red","grey"],"door_color_assignment":["black","white"],"door_generator_assignment":[0,1],"goal":5,"start":0,"action_noise":0.15,"location_history":"[0,1,5]","action_history":"[1,1]","door_history":"[1,1]","location_rts":"[1653,331]","trial_type":"two-door-navigation","trial_index":4,"time_elapsed":1399235,"internal_node_id":"0.0-2.0-2.0"},{"group":"hexagon_tri","room_assignment":["blue","purple","green","yellow","red","grey"],"door_color_assignment":["black","white"],"door_generator_assignment":[0,1],"goal":1,"start":5,"action_noise":0.15,"location_history":"[5,0,5,0,1]","action_history":"[1,1,1,1]","door_history":"[1,1,1,1]","location_rts":"[47751,355,406,952]","trial_type":"two-door-navigation","trial_index":5,"time_elapsed":1456283,"internal_node_id":"0.0-2.0-3.0"},{"group":"hexagon_tri","room_assignment":["blue","purple","green","yellow","red","grey"],"door_color_assignment":["black","white"],"door_generator_assignment":[0,1],"goal":3,"start":1,"action_noise":0.15,"location_history":"[1,3]","action_history":"[0]","door_history":"[0]","location_rts":"[1217]","trial_type":"two-door-navigation","trial_index":6,"time_elapsed":1462020,"internal_node_id":"0.0-2.0-4.0"},{"group":"hexagon_tri","room_assignment":["blue","purple","green","yellow","red","grey"],"door_color_assignment":["black","white"],"door_generator_assignment":[0,1],"goal":5,"start":3,"action_noise":0.15,"location_history":"[3,2,3,2,1,3,4,2,1,3,2,1,5]","action_history":"[0,1,0,0,1,1,1,0,0,0,0,1]","door_history":"[0,1,0,0,1,1,1,0,0,0,0,1]","location_rts":"[3429,850,707,487,502,524,450,320,373,382,448,564]","trial_type":"two-door-navigation","trial_index":7,"time_elapsed":1486805,"internal_node_id":"0.0-2.0-5.0"},{"group":"hexagon_tri","room_assignment":["blue","purple","green","yellow","red","grey"],"door_color_assignment":["black","white"],"door_generator_assignment":[0,1],"goal":4,"start":5,"action_noise":0.15,"location_history":"[5,4]","action_history":"[0]","door_history":"[0]","location_rts":"[7485]","trial_type":"two-door-navigation","trial_index":8,"time_elapsed":1498813,"internal_node_id":"0.0-2.0-6.0"},{"group":"hexagon_tri","room_assignment":["blue","purple","green","yellow","red","grey"],"door_color_assignment":["black","white"],"door_generator_assignment":[0,1],"goal":0,"start":4,"action_noise":0.15,"location_history":"[4,0]","action_history":"[1]","door_history":"[1]","location_rts":"[7070]","trial_type":"two-door-navigation","trial_index":9,"time_elapsed":1510406,"internal_node_id":"0.0-2.0-7.0"},{"group":"hexagon_tri","room_assignment":["blue","purple","green","yellow","red","grey"],"door_color_assignment":["black","white"],"door_generator_assignment":[0,1],"goal":2,"start":0,"action_noise":0.15,"location_history":"[0,1,3,2]","action_history":"[0,1,0]","door_history":"[0,1,0]","location_rts":"[1873,364,46]","trial_type":"two-door-navigation","trial_index":10,"time_elapsed":1519241,"internal_node_id":"0.0-2.0-8.0"},{"group":"hexagon_tri","room_assignment":["blue","purple","green","yellow","red","grey"],"door_color_assignment":["black","white"],"door_generator_assignment":[0,1],"goal":4,"start":2,"action_noise":0.15,"location_history":"[2,3,4]","action_history":"[1,1]","door_history":"[1,1]","location_rts":"[7026,408]","trial_type":"two-door-navigation","trial_index":11,"time_elapsed":1532213,"internal_node_id":"0.0-2.0-9.0"},{"group":"hexagon_tri","room_assignment":["blue","purple","green","yellow","red","grey"],"door_color_assignment":["black","white"],"door_generator_assignment":[0,1],"goal":2,"start":4,"action_noise":0.15,"location_history":"[4,2]","action_history":"[1]","door_history":"[1]","location_rts":"[4541]","trial_type":"two-door-navigation","trial_index":12,"time_elapsed":1541274,"internal_node_id":"0.0-2.0-10.0"},{"group":"hexagon_tri","room_assignment":["blue","purple","green","yellow","red","grey"],"door_color_assignment":["black","white"],"door_generator_assignment":[0,1],"goal":3,"start":2,"action_noise":0.15,"location_history":"[2,1,5,0,1,3]","action_history":"[1,1,1,1,0]","door_history":"[1,1,1,1,0]","location_rts":"[2468,330,369,895,867]","trial_type":"two-door-navigation","trial_index":13,"time_elapsed":1554793,"internal_node_id":"0.0-2.0-11.0"},{"group":"hexagon_tri","room_assignment":["blue","purple","green","yellow","red","grey"],"door_color_assignment":["black","white"],"door_generator_assignment":[0,1],"goal":0,"start":3,"action_noise":0.15,"location_history":"[3,4,2,3,4,2,3,2,1,5,0]","action_history":"[1,1,1,1,1,1,0,0,1,1]","door_history":"[1,1,1,1,1,1,0,0,1,1]","location_rts":"[32713,332,329,1037,314,527,257,677,511,411]","trial_type":"two-door-navigation","trial_index":14,"time_elapsed":1605602,"internal_node_id":"0.0-2.0-12.0"},{"group":"hexagon_tri","room_assignment":["blue","purple","green","yellow","red","grey"],"door_color_assignment":["black","white"],"door_generator_assignment":[0,1],"goal":5,"start":0,"action_noise":0.15,"location_history":"[0,1,5]","action_history":"[1,1]","door_history":"[1,1]","location_rts":"[2061,504]","trial_type":"two-door-navigation","trial_index":15,"time_elapsed":1613709,"internal_node_id":"0.0-2.0-13.0"},{"group":"hexagon_tri","room_assignment":["blue","purple","green","yellow","red","grey"],"door_color_assignment":["black","white"],"door_generator_assignment":[0,1],"goal":1,"start":5,"action_noise":0.15,"location_history":"[5,0,1]","action_history":"[1,1]","door_history":"[1,1]","location_rts":"[1415,363]","trial_type":"two-door-navigation","trial_index":16,"time_elapsed":1621030,"internal_node_id":"0.0-2.0-14.0"},{"group":"hexagon_tri","room_assignment":["blue","purple","green","yellow","red","grey"],"door_color_assignment":["black","white"],"door_generator_assignment":[0,1],"goal":5,"start":1,"action_noise":0.15,"location_history":"[1,5]","action_history":"[1]","door_history":"[1]","location_rts":"[3555]","trial_type":"two-door-navigation","trial_index":17,"time_elapsed":1629103,"internal_node_id":"0.0-2.0-15.0"},{"group":"hexagon_tri","room_assignment":["blue","purple","green","yellow","red","grey"],"door_color_assignment":["black","white"],"door_generator_assignment":[0,1],"goal":3,"start":5,"action_noise":0.15,"location_history":"[5,4,2,3]","action_history":"[0,1,1]","door_history":"[0,1,1]","location_rts":"[2545,404,349]","trial_type":"two-door-navigation","trial_index":18,"time_elapsed":1638964,"internal_node_id":"0.0-2.0-16.0"},{"group":"hexagon_tri","room_assignment":["blue","purple","green","yellow","red","grey"],"door_color_assignment":["black","white"],"door_generator_assignment":[0,1],"goal":2,"start":3,"action_noise":0.15,"location_history":"[3,2]","action_history":"[1]","door_history":"[1]","location_rts":"[1559]","trial_type":"two-door-navigation","trial_index":19,"time_elapsed":1645047,"internal_node_id":"0.0-2.0-17.0"},{"group":"hexagon_tri","room_assignment":["blue","purple","green","yellow","red","grey"],"door_color_assignment":["black","white"],"door_generator_assignment":[0,1],"goal":1,"start":2,"action_noise":0.15,"location_history":"[2,3,2,3,4,0,1]","action_history":"[1,1,1,1,0,1]","door_history":"[1,1,1,1,0,1]","location_rts":"[1862,447,454,959,312,587]","trial_type":"two-door-navigation","trial_index":20,"time_elapsed":1659286,"internal_node_id":"0.0-2.0-18.0"},{"group":"hexagon_tri","room_assignment":["blue","purple","green","yellow","red","grey"],"door_color_assignment":["black","white"],"door_generator_assignment":[0,1],"goal":4,"start":1,"action_noise":0.15,"location_history":"[1,5,4]","action_history":"[0,0]","door_history":"[0,0]","location_rts":"[1390,897]","trial_type":"two-door-navigation","trial_index":21,"time_elapsed":1667110,"internal_node_id":"0.0-2.0-19.0"},{"group":"hexagon_tri","room_assignment":["blue","purple","green","yellow","red","grey"],"door_color_assignment":["black","white"],"door_generator_assignment":[0,1],"goal":0,"start":4,"action_noise":0.15,"location_history":"[4,2,1,5,4,0]","action_history":"[1,1,1,0,0]","door_history":"[1,1,1,0,0]","location_rts":"[1463,354,584,678,1501]","trial_type":"two-door-navigation","trial_index":22,"time_elapsed":1680278,"internal_node_id":"0.0-2.0-20.0"},{"group":"hexagon_tri","room_assignment":["blue","purple","green","yellow","red","grey"],"door_color_assignment":["black","white"],"door_generator_assignment":[0,1],"goal":3,"start":0,"action_noise":0.15,"location_history":"[0,1,5,4,2,3]","action_history":"[1,1,1,1,1]","door_history":"[1,1,1,1,1]","location_rts":"[914,416,438,378,423]","trial_type":"two-door-navigation","trial_index":23,"time_elapsed":1691451,"internal_node_id":"0.0-2.0-21.0"},{"group":"hexagon_tri","room_assignment":["blue","purple","green","yellow","red","grey"],"door_color_assignment":["black","white"],"door_generator_assignment":[0,1],"goal":1,"start":3,"action_noise":0.15,"location_history":"[3,2,1]","action_history":"[0,0]","door_history":"[0,0]","location_rts":"[1831,848]","trial_type":"two-door-navigation","trial_index":24,"time_elapsed":1699677,"internal_node_id":"0.0-2.0-22.0"},{"group":"hexagon_tri","room_assignment":["blue","purple","green","yellow","red","grey"],"door_color_assignment":["black","white"],"door_generator_assignment":[0,1],"goal":0,"start":1,"action_noise":0.15,"location_history":"[1,5,0]","action_history":"[1,1]","door_history":"[1,1]","location_rts":"[1397,237]","trial_type":"two-door-navigation","trial_index":25,"time_elapsed":1706850,"internal_node_id":"0.0-2.0-23.0"},{"group":"hexagon_tri","room_assignment":["blue","purple","green","yellow","red","grey"],"door_color_assignment":["black","white"],"door_generator_assignment":[0,1],"goal":2,"start":0,"action_noise":0.15,"location_history":"[0,1,3,4,2]","action_history":"[1,0,1,1]","door_history":"[1,0,1,1]","location_rts":"[6677,572,413,332]","trial_type":"two-door-navigation","trial_index":26,"time_elapsed":1722424,"internal_node_id":"0.0-2.0-24.0"},{"group":"hexagon_tri","room_assignment":["blue","purple","green","yellow","red","grey"],"door_color_assignment":["black","white"],"door_generator_assignment":[0,1],"goal":4,"start":2,"action_noise":0.15,"location_history":"[2,3,4]","action_history":"[1,1]","door_history":"[1,1]","location_rts":"[30773,378]","trial_type":"two-door-navigation","trial_index":27,"time_elapsed":1759115,"internal_node_id":"0.0-2.0-25.0"},{"group":"hexagon_tri","room_assignment":["blue","purple","green","yellow","red","grey"],"door_color_assignment":["black","white"],"door_generator_assignment":[0,1],"goal":5,"start":4,"action_noise":0.15,"location_history":"[4,0,1,5]","action_history":"[0,1,1]","door_history":"[0,1,1]","location_rts":"[1944,1404,13183]","trial_type":"two-door-navigation","trial_index":28,"time_elapsed":1782204,"internal_node_id":"0.0-2.0-26.0"},{"group":"hexagon_tri","room_assignment":["blue","purple","green","yellow","red","grey"],"door_color_assignment":["black","white"],"door_generator_assignment":[0,1],"goal":2,"start":5,"action_noise":0.15,"location_history":"[5,4,2]","action_history":"[0,1]","door_history":"[0,1]","location_rts":"[1754,389]","trial_type":"two-door-navigation","trial_index":29,"time_elapsed":1789882,"internal_node_id":"0.0-2.0-27.0"},{"group":"hexagon_tri","room_assignment":["blue","purple","green","yellow","red","grey"],"door_color_assignment":["black","white"],"door_generator_assignment":[0,1],"goal":3,"start":2,"action_noise":0.15,"location_history":"[2,3]","action_history":"[1]","door_history":"[1]","location_rts":"[1295]","trial_type":"two-door-navigation","trial_index":30,"time_elapsed":1795697,"internal_node_id":"0.0-2.0-28.0"},{"group":"hexagon_tri","room_assignment":["blue","purple","green","yellow","red","grey"],"door_color_assignment":["black","white"],"door_generator_assignment":[0,1],"goal":1,"start":3,"action_noise":0.15,"location_history":"[3,4,0,5,0,5,0,1]","action_history":"[0,1,0,1,1,1,1]","door_history":"[0,1,0,1,1,1,1]","location_rts":"[2367,775,61,613,382,351,1216]","trial_type":"two-door-navigation","trial_index":31,"time_elapsed":1812085,"internal_node_id":"0.0-2.0-29.0"},{"group":"hexagon_tri","room_assignment":["blue","purple","green","yellow","red","grey"],"door_color_assignment":["black","white"],"door_generator_assignment":[0,1],"goal":4,"start":1,"action_noise":0.15,"location_history":"[1,5,4]","action_history":"[1,0]","door_history":"[1,0]","location_rts":"[8044,827]","trial_type":"two-door-navigation","trial_index":32,"time_elapsed":1826497,"internal_node_id":"0.0-2.0-30.0"},{"group":"hexagon_tri","room_assignment":["blue","purple","green","yellow","red","grey"],"door_color_assignment":["black","white"],"door_generator_assignment":[0,1],"goal":5,"start":4,"action_noise":0.15,"location_history":"[4,0,1,5]","action_history":"[0,1,1]","door_history":"[0,1,1]","location_rts":"[1457,572,311]","trial_type":"two-door-navigation","trial_index":33,"time_elapsed":1835391,"internal_node_id":"0.0-2.0-31.0"},{"group":"hexagon_tri","room_assignment":["blue","purple","green","yellow","red","grey"],"door_color_assignment":["black","white"],"door_generator_assignment":[0,1],"goal":0,"start":5,"action_noise":0.15,"location_history":"[5,0]","action_history":"[1]","door_history":"[1]","location_rts":"[2181]","trial_type":"two-door-navigation","trial_index":34,"time_elapsed":1842091,"internal_node_id":"0.0-2.0-32.0"},{"group":"hexagon_tri","room_assignment":["blue","purple","green","yellow","red","grey"],"door_color_assignment":["black","white"],"door_generator_assignment":[0,1],"goal":2,"start":0,"action_noise":0.15,"location_history":"[0,1,3,2]","action_history":"[0,0,1]","door_history":"[0,0,1]","location_rts":"[2056,920,408]","trial_type":"two-door-navigation","trial_index":35,"time_elapsed":1852029,"internal_node_id":"0.0-2.0-33.0"},{"group":"hexagon_tri","room_assignment":["blue","purple","green","yellow","red","grey"],"door_color_assignment":["black","white"],"door_generator_assignment":[0,1],"goal":0,"start":2,"action_noise":0.15,"location_history":"[2,1,5,0]","action_history":"[0,1,1]","door_history":"[0,1,1]","location_rts":"[1659,2701,65]","trial_type":"two-door-navigation","trial_index":36,"time_elapsed":1863004,"internal_node_id":"0.0-2.0-34.0"},{"group":"hexagon_tri","room_assignment":["blue","purple","green","yellow","red","grey"],"door_color_assignment":["black","white"],"door_generator_assignment":[0,1],"goal":5,"start":0,"action_noise":0.15,"location_history":"[0,5]","action_history":"[1]","door_history":"[1]","location_rts":"[1287]","trial_type":"two-door-navigation","trial_index":37,"time_elapsed":1868813,"internal_node_id":"0.0-2.0-35.0"},{"group":"hexagon_tri","room_assignment":["blue","purple","green","yellow","red","grey"],"door_color_assignment":["black","white"],"door_generator_assignment":[0,1],"goal":1,"start":5,"action_noise":0.15,"location_history":"[5,0,1]","action_history":"[1,1]","door_history":"[1,1]","location_rts":"[2320,1094]","trial_type":"two-door-navigation","trial_index":38,"time_elapsed":1877769,"internal_node_id":"0.0-2.0-36.0"},{"group":"hexagon_tri","room_assignment":["blue","purple","green","yellow","red","grey"],"door_color_assignment":["black","white"],"door_generator_assignment":[0,1],"goal":4,"start":1,"action_noise":0.15,"location_history":"[1,3,4]","action_history":"[0,1]","door_history":"[0,1]","location_rts":"[4278,524]","trial_type":"two-door-navigation","trial_index":39,"time_elapsed":1888106,"internal_node_id":"0.0-2.0-37.0"},{"group":"hexagon_tri","room_assignment":["blue","purple","green","yellow","red","grey"],"door_color_assignment":["black","white"],"door_generator_assignment":[0,1],"goal":3,"start":4,"action_noise":0.15,"location_history":"[4,0,5,4,2,3]","action_history":"[0,0,0,1,1]","door_history":"[0,0,0,1,1]","location_rts":"[1245,652,675,745,398]","trial_type":"two-door-navigation","trial_index":40,"time_elapsed":1900413,"internal_node_id":"0.0-2.0-38.0"},{"group":"hexagon_tri","room_assignment":["blue","purple","green","yellow","red","grey"],"door_color_assignment":["black","white"],"door_generator_assignment":[0,1],"goal":5,"start":3,"action_noise":0.15,"location_history":"[3,2,1,5]","action_history":"[0,0,1]","door_history":"[0,0,1]","location_rts":"[2393,1506,873]","trial_type":"two-door-navigation","trial_index":41,"time_elapsed":1911741,"internal_node_id":"0.0-2.0-39.0"},{"group":"hexagon_tri","room_assignment":["blue","purple","green","yellow","red","grey"],"door_color_assignment":["black","white"],"door_generator_assignment":[0,1],"goal":1,"start":5,"action_noise":0.15,"location_history":"[5,0,5,0,5,0,1]","action_history":"[1,1,1,1,1,1]","door_history":"[1,1,1,1,1,1]","location_rts":"[1525,368,698,574,576,404]","trial_type":"two-door-navigation","trial_index":42,"time_elapsed":1925498,"internal_node_id":"0.0-2.0-40.0"},{"group":"hexagon_tri","room_assignment":["blue","purple","green","yellow","red","grey"],"door_color_assignment":["black","white"],"door_generator_assignment":[0,1],"goal":2,"start":1,"action_noise":0.15,"location_history":"[1,3,2]","action_history":"[0,1]","door_history":"[0,1]","location_rts":"[4304,878]","trial_type":"two-door-navigation","trial_index":43,"time_elapsed":1936219,"internal_node_id":"0.0-2.0-41.0"},{"group":"hexagon_tri","room_assignment":["blue","purple","green","yellow","red","grey"],"door_color_assignment":["black","white"],"door_generator_assignment":[0,1],"goal":4,"start":2,"action_noise":0.15,"location_history":"[2,3,4]","action_history":"[1,1]","door_history":"[1,1]","location_rts":"[18476,366]","trial_type":"two-door-navigation","trial_index":44,"time_elapsed":1960602,"internal_node_id":"0.0-2.0-42.0"},{"group":"hexagon_tri","room_assignment":["blue","purple","green","yellow","red","grey"],"door_color_assignment":["black","white"],"door_generator_assignment":[0,1],"goal":0,"start":4,"action_noise":0.15,"location_history":"[4,0]","action_history":"[0]","door_history":"[0]","location_rts":"[5693]","trial_type":"two-door-navigation","trial_index":45,"time_elapsed":1970812,"internal_node_id":"0.0-2.0-43.0"},{"group":"hexagon_tri","room_assignment":["blue","purple","green","yellow","red","grey"],"door_color_assignment":["black","white"],"door_generator_assignment":[0,1],"goal":3,"start":0,"action_noise":0.15,"location_history":"[0,5,0,5,4,2,3]","action_history":"[0,1,0,0,1,1]","door_history":"[0,1,0,0,1,1]","location_rts":"[3278,749,427,577,903,558]","trial_type":"two-door-navigation","trial_index":46,"time_elapsed":1986926,"internal_node_id":"0.0-2.0-44.0"},{"group":"hexagon_tri","room_assignment":["blue","purple","green","yellow","red","grey"],"door_color_assignment":["black","white"],"door_generator_assignment":[0,1],"goal":0,"start":3,"action_noise":0.15,"location_history":"[3,2,3,4,0]","action_history":"[0,1,1,0]","door_history":"[0,1,1,0]","location_rts":"[10101,635,430,352]","trial_type":"two-door-navigation","trial_index":47,"time_elapsed":2006017,"internal_node_id":"0.0-2.0-45.0"},{"group":"hexagon_tri","room_assignment":["blue","purple","green","yellow","red","grey"],"door_color_assignment":["black","white"],"door_generator_assignment":[0,1],"goal":4,"start":0,"action_noise":0.15,"location_history":"[0,1,3,4]","action_history":"[1,0,1]","door_history":"[1,0,1]","location_rts":"[4924,862,700]","trial_type":"two-door-navigation","trial_index":48,"time_elapsed":2019059,"internal_node_id":"0.0-2.0-46.0"},{"group":"hexagon_tri","room_assignment":["blue","purple","green","yellow","red","grey"],"door_color_assignment":["black","white"],"door_generator_assignment":[0,1],"goal":5,"start":4,"action_noise":0.15,"location_history":"[4,0,5]","action_history":"[0,1]","door_history":"[0,1]","location_rts":"[1651,560]","trial_type":"two-door-navigation","trial_index":49,"time_elapsed":2026809,"internal_node_id":"0.0-2.0-47.0"},{"group":"hexagon_tri","room_assignment":["blue","purple","green","yellow","red","grey"],"door_color_assignment":["black","white"],"door_generator_assignment":[0,1],"goal":2,"start":5,"action_noise":0.15,"location_history":"[5,4,2]","action_history":"[0,1]","door_history":"[0,1]","location_rts":"[4306,417]","trial_type":"two-door-navigation","trial_index":50,"time_elapsed":2037073,"internal_node_id":"0.0-2.0-48.0"},{"group":"hexagon_tri","room_assignment":["blue","purple","green","yellow","red","grey"],"door_color_assignment":["black","white"],"door_generator_assignment":[0,1],"goal":1,"start":2,"action_noise":0.15,"location_history":"[2,1]","action_history":"[0]","door_history":"[0]","location_rts":"[3727]","trial_type":"two-door-navigation","trial_index":51,"time_elapsed":2045316,"internal_node_id":"0.0-2.0-49.0"},{"view_history":"[{\"page_index\":0,\"viewing_time\":5737}]","rt":5737,"trial_type":"instructions","trial_index":52,"time_elapsed":2052054,"internal_node_id":"0.0-3.0"},{"view_history":"[{\"page_index\":0,\"viewing_time\":997},{\"page_index\":1,\"viewing_time\":4299}]","rt":5296,"trial_type":"instructions","trial_index":53,"time_elapsed":2058350,"internal_node_id":"0.0-4.0"},{"group":"hexagon_tri","fractal_assignment":["../images/ylw_slt.png","../images/cyn_red.png","../images/pnk_blu.png","../images/gry_blk.png","../images/org_blu.png","../images/blu_wht.png"],"mutagen_generator_assignment":[0,1],"goal":2,"start":1,"action_noise":0.15,"location_history":"[1,5,4,2]","action_history":"[0,0,1]","mutagen_history":"[0,0,1]","location_rts":"[1888,883,46]","trial_type":"fractal-mutation","trial_index":54,"time_elapsed":2067770,"internal_node_id":"0.0-5.0-0.0"},{"group":"hexagon_tri","fractal_assignment":["../images/ylw_slt.png","../images/cyn_red.png","../images/pnk_blu.png","../images/gry_blk.png","../images/org_blu.png","../images/blu_wht.png"],"mutagen_generator_assignment":[0,1],"goal":0,"start":2,"action_noise":0.15,"location_history":"[2,3,2,1,3,2,3,4,2,3,2,1,5,0]","action_history":"[0,0,0,1,0,1,1,1,1,0,1,1,1]","mutagen_history":"[0,0,0,1,0,1,1,1,1,0,1,1,1]","location_rts":"[531,402,482,636,610,466,219,423,466,408,35,503,429]","trial_type":"fractal-mutation","trial_index":55,"time_elapsed":2090254,"internal_node_id":"0.0-5.0-1.0"},{"group":"hexagon_tri","fractal_assignment":["../images/ylw_slt.png","../images/cyn_red.png","../images/pnk_blu.png","../images/gry_blk.png","../images/org_blu.png","../images/blu_wht.png"],"mutagen_generator_assignment":[0,1],"goal":5,"start":0,"action_noise":0.15,"location_history":"[0,5]","action_history":"[0]","mutagen_history":"[0]","location_rts":"[1852]","trial_type":"fractal-mutation","trial_index":56,"time_elapsed":2096630,"internal_node_id":"0.0-5.0-2.0"},{"group":"hexagon_tri","fractal_assignment":["../images/ylw_slt.png","../images/cyn_red.png","../images/pnk_blu.png","../images/gry_blk.png","../images/org_blu.png","../images/blu_wht.png"],"mutagen_generator_assignment":[0,1],"goal":1,"start":5,"action_noise":0.15,"location_history":"[5,0,1]","action_history":"[1,1]","mutagen_history":"[1,1]","location_rts":"[1061,104]","trial_type":"fractal-mutation","trial_index":57,"time_elapsed":2103353,"internal_node_id":"0.0-5.0-3.0"},{"group":"hexagon_tri","fractal_assignment":["../images/ylw_slt.png","../images/cyn_red.png","../images/pnk_blu.png","../images/gry_blk.png","../images/org_blu.png","../images/blu_wht.png"],"mutagen_generator_assignment":[0,1],"goal":3,"start":1,"action_noise":0.15,"location_history":"[1,3]","action_history":"[0]","mutagen_history":"[0]","location_rts":"[1110]","trial_type":"fractal-mutation","trial_index":58,"time_elapsed":2108997,"internal_node_id":"0.0-5.0-4.0"},{"group":"hexagon_tri","fractal_assignment":["../images/ylw_slt.png","../images/cyn_red.png","../images/pnk_blu.png","../images/gry_blk.png","../images/org_blu.png","../images/blu_wht.png"],"mutagen_generator_assignment":[0,1],"goal":5,"start":3,"action_noise":0.15,"location_history":"[3,2,1,5]","action_history":"[0,1,1]","mutagen_history":"[0,1,1]","location_rts":"[1004,500,643]","trial_type":"fractal-mutation","trial_index":59,"time_elapsed":2117732,"internal_node_id":"0.0-5.0-5.0"},{"group":"hexagon_tri","fractal_assignment":["../images/ylw_slt.png","../images/cyn_red.png","../images/pnk_blu.png","../images/gry_blk.png","../images/org_blu.png","../images/blu_wht.png"],"mutagen_generator_assignment":[0,1],"goal":4,"start":5,"action_noise":0.15,"location_history":"[5,4]","action_history":"[0]","mutagen_history":"[0]","location_rts":"[1706]","trial_type":"fractal-mutation","trial_index":60,"time_elapsed":2123966,"internal_node_id":"0.0-5.0-6.0"},{"group":"hexagon_tri","fractal_assignment":["../images/ylw_slt.png","../images/cyn_red.png","../images/pnk_blu.png","../images/gry_blk.png","../images/org_blu.png","../images/blu_wht.png"],"mutagen_generator_assignment":[0,1],"goal":0,"start":4,"action_noise":0.15,"location_history":"[4,2,3,2,3,2,1,5,0]","action_history":"[1,1,0,1,1,1,1,1]","mutagen_history":"[1,1,0,1,1,1,1,1]","location_rts":"[960,410,370,38,434,436,398,423]","trial_type":"fractal-mutation","trial_index":61,"time_elapsed":2139210,"internal_node_id":"0.0-5.0-7.0"},{"group":"hexagon_tri","fractal_assignment":["../images/ylw_slt.png","../images/cyn_red.png","../images/pnk_blu.png","../images/gry_blk.png","../images/org_blu.png","../images/blu_wht.png"],"mutagen_generator_assignment":[0,1],"goal":2,"start":0,"action_noise":0.15,"location_history":"[0,1,5,0,1,5,0,5,0,5,0,1,5,0,1,3,4,2]","action_history":"[1,1,1,0,1,1,0,1,0,1,1,1,1,1,0,1,1]","mutagen_history":"[1,1,1,0,1,1,0,1,0,1,1,1,1,1,0,1,1]","location_rts":"[2766,330,443,429,370,68,472,132,629,330,358,465,329,434,716,57,71]","trial_type":"fractal-mutation","trial_index":62,"time_elapsed":2168652,"internal_node_id":"0.0-5.0-8.0"},{"group":"hexagon_tri","fractal_assignment":["../images/ylw_slt.png","../images/cyn_red.png","../images/pnk_blu.png","../images/gry_blk.png","../images/org_blu.png","../images/blu_wht.png"],"mutagen_generator_assignment":[0,1],"goal":4,"start":2,"action_noise":0.15,"location_history":"[2,1,5,4]","action_history":"[0,1,1]","mutagen_history":"[0,1,1]","location_rts":"[1414,63,492]","trial_type":"fractal-mutation","trial_index":63,"time_elapsed":2177201,"internal_node_id":"0.0-5.0-9.0"},{"group":"hexagon_tri","fractal_assignment":["../images/ylw_slt.png","../images/cyn_red.png","../images/pnk_blu.png","../images/gry_blk.png","../images/org_blu.png","../images/blu_wht.png"],"mutagen_generator_assignment":[0,1],"goal":2,"start":4,"action_noise":0.15,"location_history":"[4,2]","action_history":"[0]","mutagen_history":"[0]","location_rts":"[1190]","trial_type":"fractal-mutation","trial_index":64,"time_elapsed":2182923,"internal_node_id":"0.0-5.0-10.0"},{"group":"hexagon_tri","fractal_assignment":["../images/ylw_slt.png","../images/cyn_red.png","../images/pnk_blu.png","../images/gry_blk.png","../images/org_blu.png","../images/blu_wht.png"],"mutagen_generator_assignment":[0,1],"goal":3,"start":2,"action_noise":0.15,"location_history":"[2,3]","action_history":"[1]","mutagen_history":"[1]","location_rts":"[5200]","trial_type":"fractal-mutation","trial_index":65,"time_elapsed":2192650,"internal_node_id":"0.0-5.0-11.0"},{"group":"hexagon_tri","fractal_assignment":["../images/ylw_slt.png","../images/cyn_red.png","../images/pnk_blu.png","../images/gry_blk.png","../images/org_blu.png","../images/blu_wht.png"],"mutagen_generator_assignment":[0,1],"goal":0,"start":3,"action_noise":0.15,"location_history":"[3,2,1,3,2,1,5,0]","action_history":"[0,1,1,1,0,1,1]","mutagen_history":"[0,1,1,1,0,1,1]","location_rts":"[6989,88,469,1249,399,58,422]","trial_type":"fractal-mutation","trial_index":66,"time_elapsed":2213068,"internal_node_id":"0.0-5.0-12.0"},{"group":"hexagon_tri","fractal_assignment":["../images/ylw_slt.png","../images/cyn_red.png","../images/pnk_blu.png","../images/gry_blk.png","../images/org_blu.png","../images/blu_wht.png"],"mutagen_generator_assignment":[0,1],"goal":5,"start":0,"action_noise":0.15,"location_history":"[0,5]","action_history":"[0]","mutagen_history":"[0]","location_rts":"[1555]","trial_type":"fractal-mutation","trial_index":67,"time_elapsed":2219153,"internal_node_id":"0.0-5.0-13.0"},{"group":"hexagon_tri","fractal_assignment":["../images/ylw_slt.png","../images/cyn_red.png","../images/pnk_blu.png","../images/gry_blk.png","../images/org_blu.png","../images/blu_wht.png"],"mutagen_generator_assignment":[0,1],"goal":1,"start":5,"action_noise":0.15,"location_history":"[5,0,1]","action_history":"[1,0]","mutagen_history":"[1,0]","location_rts":"[1384,403]","trial_type":"fractal-mutation","trial_index":68,"time_elapsed":2226490,"internal_node_id":"0.0-5.0-14.0"},{"group":"hexagon_tri","fractal_assignment":["../images/ylw_slt.png","../images/cyn_red.png","../images/pnk_blu.png","../images/gry_blk.png","../images/org_blu.png","../images/blu_wht.png"],"mutagen_generator_assignment":[0,1],"goal":5,"start":1,"action_noise":0.15,"location_history":"[1,5]","action_history":"[1]","mutagen_history":"[1]","location_rts":"[398]","trial_type":"fractal-mutation","trial_index":69,"time_elapsed":2231422,"internal_node_id":"0.0-5.0-15.0"},{"group":"hexagon_tri","fractal_assignment":["../images/ylw_slt.png","../images/cyn_red.png","../images/pnk_blu.png","../images/gry_blk.png","../images/org_blu.png","../images/blu_wht.png"],"mutagen_generator_assignment":[0,1],"goal":3,"start":5,"action_noise":0.15,"location_history":"[5,4,2,3]","action_history":"[0,1,1]","mutagen_history":"[0,1,1]","location_rts":"[1285,833,388]","trial_type":"fractal-mutation","trial_index":70,"time_elapsed":2240522,"internal_node_id":"0.0-5.0-16.0"},{"group":"hexagon_tri","fractal_assignment":["../images/ylw_slt.png","../images/cyn_red.png","../images/pnk_blu.png","../images/gry_blk.png","../images/org_blu.png","../images/blu_wht.png"],"mutagen_generator_assignment":[0,1],"goal":2,"start":3,"action_noise":0.15,"location_history":"[3,2]","action_history":"[0]","mutagen_history":"[0]","location_rts":"[3255]","trial_type":"fractal-mutation","trial_index":71,"time_elapsed":2248707,"internal_node_id":"0.0-5.0-17.0"},{"group":"hexagon_tri","fractal_assignment":["../images/ylw_slt.png","../images/cyn_red.png","../images/pnk_blu.png","../images/gry_blk.png","../images/org_blu.png","../images/blu_wht.png"],"mutagen_generator_assignment":[0,1],"goal":1,"start":2,"action_noise":0.15,"location_history":"[2,3,4,2,1]","action_history":"[1,1,1,0]","mutagen_history":"[1,1,1,0]","location_rts":"[3213,331,524,345]","trial_type":"fractal-mutation","trial_index":72,"time_elapsed":2260779,"internal_node_id":"0.0-5.0-18.0"},{"group":"hexagon_tri","fractal_assignment":["../images/ylw_slt.png","../images/cyn_red.png","../images/pnk_blu.png","../images/gry_blk.png","../images/org_blu.png","../images/blu_wht.png"],"mutagen_generator_assignment":[0,1],"goal":4,"start":1,"action_noise":0.15,"location_history":"[1,3,4]","action_history":"[0,1]","mutagen_history":"[0,1]","location_rts":"[1689,499]","trial_type":"fractal-mutation","trial_index":73,"time_elapsed":2268517,"internal_node_id":"0.0-5.0-19.0"},{"group":"hexagon_tri","fractal_assignment":["../images/ylw_slt.png","../images/cyn_red.png","../images/pnk_blu.png","../images/gry_blk.png","../images/org_blu.png","../images/blu_wht.png"],"mutagen_generator_assignment":[0,1],"goal":0,"start":4,"action_noise":0.15,"location_history":"[4,2,3,4,2,1,5,0]","action_history":"[1,1,1,1,0,1,1]","mutagen_history":"[1,1,1,1,0,1,1]","location_rts":"[1506,348,356,398,503,307,350]","trial_type":"fractal-mutation","trial_index":74,"time_elapsed":2283003,"internal_node_id":"0.0-5.0-20.0"},{"group":"hexagon_tri","fractal_assignment":["../images/ylw_slt.png","../images/cyn_red.png","../images/pnk_blu.png","../images/gry_blk.png","../images/org_blu.png","../images/blu_wht.png"],"mutagen_generator_assignment":[0,1],"goal":3,"start":0,"action_noise":0.15,"location_history":"[0,5,0,1,5,0,5,4,2,3]","action_history":"[0,1,1,1,1,1,0,1,1]","mutagen_history":"[0,1,1,1,1,1,0,1,1]","location_rts":"[1390,228,461,497,860,590,535,25,361]","trial_type":"fractal-mutation","trial_index":75,"time_elapsed":2300711,"internal_node_id":"0.0-5.0-21.0"},{"group":"hexagon_tri","fractal_assignment":["../images/ylw_slt.png","../images/cyn_red.png","../images/pnk_blu.png","../images/gry_blk.png","../images/org_blu.png","../images/blu_wht.png"],"mutagen_generator_assignment":[0,1],"goal":1,"start":3,"action_noise":0.15,"location_history":"[3,2,3,2,1]","action_history":"[0,1,0,1]","mutagen_history":"[0,1,0,1]","location_rts":"[490,81,122,36]","trial_type":"fractal-mutation","trial_index":76,"time_elapsed":2309065,"internal_node_id":"0.0-5.0-22.0"},{"group":"hexagon_tri","fractal_assignment":["../images/ylw_slt.png","../images/cyn_red.png","../images/pnk_blu.png","../images/gry_blk.png","../images/org_blu.png","../images/blu_wht.png"],"mutagen_generator_assignment":[0,1],"goal":0,"start":1,"action_noise":0.15,"location_history":"[1,5,0]","action_history":"[1,1]","mutagen_history":"[1,1]","location_rts":"[2089,514]","trial_type":"fractal-mutation","trial_index":77,"time_elapsed":2317250,"internal_node_id":"0.0-5.0-23.0"},{"group":"hexagon_tri","fractal_assignment":["../images/ylw_slt.png","../images/cyn_red.png","../images/pnk_blu.png","../images/gry_blk.png","../images/org_blu.png","../images/blu_wht.png"],"mutagen_generator_assignment":[0,1],"goal":2,"start":0,"action_noise":0.15,"location_history":"[0,1,5,4,0,5,0,5,4,2]","action_history":"[1,0,1,0,0,1,0,0,1]","mutagen_history":"[1,0,1,0,0,1,0,0,1]","location_rts":"[1017,88,374,449,545,362,389,447,399]","trial_type":"fractal-mutation","trial_index":78,"time_elapsed":2334060,"internal_node_id":"0.0-5.0-24.0"},{"group":"hexagon_tri","fractal_assignment":["../images/ylw_slt.png","../images/cyn_red.png","../images/pnk_blu.png","../images/gry_blk.png","../images/org_blu.png","../images/blu_wht.png"],"mutagen_generator_assignment":[0,1],"goal":4,"start":2,"action_noise":0.15,"location_history":"[2,3,2,3,4]","action_history":"[1,1,1,1]","mutagen_history":"[1,1,1,1]","location_rts":"[1156,390,352,399]","trial_type":"fractal-mutation","trial_index":79,"time_elapsed":2343962,"internal_node_id":"0.0-5.0-25.0"},{"group":"hexagon_tri","fractal_assignment":["../images/ylw_slt.png","../images/cyn_red.png","../images/pnk_blu.png","../images/gry_blk.png","../images/org_blu.png","../images/blu_wht.png"],"mutagen_generator_assignment":[0,1],"goal":5,"start":4,"action_noise":0.15,"location_history":"[4,2,3,2,1,5]","action_history":"[0,1,0,0,1]","mutagen_history":"[0,1,0,0,1]","location_rts":"[1715,414,29,508,647]","trial_type":"fractal-mutation","trial_index":80,"time_elapsed":2355909,"internal_node_id":"0.0-5.0-26.0"},{"group":"hexagon_tri","fractal_assignment":["../images/ylw_slt.png","../images/cyn_red.png","../images/pnk_blu.png","../images/gry_blk.png","../images/org_blu.png","../images/blu_wht.png"],"mutagen_generator_assignment":[0,1],"goal":2,"start":5,"action_noise":0.15,"location_history":"[5,4,2]","action_history":"[0,1]","mutagen_history":"[0,1]","location_rts":"[1050,560]","trial_type":"fractal-mutation","trial_index":81,"time_elapsed":2363084,"internal_node_id":"0.0-5.0-27.0"},{"group":"hexagon_tri","fractal_assignment":["../images/ylw_slt.png","../images/cyn_red.png","../images/pnk_blu.png","../images/gry_blk.png","../images/org_blu.png","../images/blu_wht.png"],"mutagen_generator_assignment":[0,1],"goal":3,"start":2,"action_noise":0.15,"location_history":"[2,1,5,4,2,3]","action_history":"[1,0,0,1,1]","mutagen_history":"[1,0,0,1,1]","location_rts":"[1979,999,672,835,616]","trial_type":"fractal-mutation","trial_index":82,"time_elapsed":2376834,"internal_node_id":"0.0-5.0-28.0"},{"group":"hexagon_tri","fractal_assignment":["../images/ylw_slt.png","../images/cyn_red.png","../images/pnk_blu.png","../images/gry_blk.png","../images/org_blu.png","../images/blu_wht.png"],"mutagen_generator_assignment":[0,1],"goal":1,"start":3,"action_noise":0.15,"location_history":"[3,2,3,4,0,1]","action_history":"[0,1,1,1,0]","mutagen_history":"[0,1,1,1,0]","location_rts":"[1518,794,640,536,364]","trial_type":"fractal-mutation","trial_index":83,"time_elapsed":2389312,"internal_node_id":"0.0-5.0-29.0"},{"group":"hexagon_tri","fractal_assignment":["../images/ylw_slt.png","../images/cyn_red.png","../images/pnk_blu.png","../images/gry_blk.png","../images/org_blu.png","../images/blu_wht.png"],"mutagen_generator_assignment":[0,1],"goal":4,"start":1,"action_noise":0.15,"location_history":"[1,3,4]","action_history":"[0,1]","mutagen_history":"[0,1]","location_rts":"[1324,620]","trial_type":"fractal-mutation","trial_index":84,"time_elapsed":2396807,"internal_node_id":"0.0-5.0-30.0"},{"group":"hexagon_tri","fractal_assignment":["../images/ylw_slt.png","../images/cyn_red.png","../images/pnk_blu.png","../images/gry_blk.png","../images/org_blu.png","../images/blu_wht.png"],"mutagen_generator_assignment":[0,1],"goal":5,"start":4,"action_noise":0.15,"location_history":"[4,0,1,5]","action_history":"[0,1,1]","mutagen_history":"[0,1,1]","location_rts":"[3429,576,541]","trial_type":"fractal-mutation","trial_index":85,"time_elapsed":2407935,"internal_node_id":"0.0-5.0-31.0"},{"group":"hexagon_tri","fractal_assignment":["../images/ylw_slt.png","../images/cyn_red.png","../images/pnk_blu.png","../images/gry_blk.png","../images/org_blu.png","../images/blu_wht.png"],"mutagen_generator_assignment":[0,1],"goal":0,"start":5,"action_noise":0.15,"location_history":"[5,4,2,1,5,0]","action_history":"[0,1,0,1,1]","mutagen_history":"[0,1,0,1,1]","location_rts":"[1737,389,338,43,365]","trial_type":"fractal-mutation","trial_index":86,"time_elapsed":2419442,"internal_node_id":"0.0-5.0-32.0"},{"group":"hexagon_tri","fractal_assignment":["../images/ylw_slt.png","../images/cyn_red.png","../images/pnk_blu.png","../images/gry_blk.png","../images/org_blu.png","../images/blu_wht.png"],"mutagen_generator_assignment":[0,1],"goal":2,"start":0,"action_noise":0.15,"location_history":"[0,1,5,4,2]","action_history":"[0,1,0,1]","mutagen_history":"[0,1,0,1]","location_rts":"[998,667,180,557]","trial_type":"fractal-mutation","trial_index":87,"time_elapsed":2429462,"internal_node_id":"0.0-5.0-33.0"},{"group":"hexagon_tri","fractal_assignment":["../images/ylw_slt.png","../images/cyn_red.png","../images/pnk_blu.png","../images/gry_blk.png","../images/org_blu.png","../images/blu_wht.png"],"mutagen_generator_assignment":[0,1],"goal":0,"start":2,"action_noise":0.15,"location_history":"[2,3,4,2,1,5,0]","action_history":"[1,0,1,0,1,1]","mutagen_history":"[1,0,1,0,1,1]","location_rts":"[4502,57,448,630,522,220]","trial_type":"fractal-mutation","trial_index":88,"time_elapsed":2445499,"internal_node_id":"0.0-5.0-34.0"},{"group":"hexagon_tri","fractal_assignment":["../images/ylw_slt.png","../images/cyn_red.png","../images/pnk_blu.png","../images/gry_blk.png","../images/org_blu.png","../images/blu_wht.png"],"mutagen_generator_assignment":[0,1],"goal":5,"start":0,"action_noise":0.15,"location_history":"[0,1,5]","action_history":"[1,1]","mutagen_history":"[1,1]","location_rts":"[4040,394]","trial_type":"fractal-mutation","trial_index":89,"time_elapsed":2455488,"internal_node_id":"0.0-5.0-35.0"},{"group":"hexagon_tri","fractal_assignment":["../images/ylw_slt.png","../images/cyn_red.png","../images/pnk_blu.png","../images/gry_blk.png","../images/org_blu.png","../images/blu_wht.png"],"mutagen_generator_assignment":[0,1],"goal":1,"start":5,"action_noise":0.15,"location_history":"[5,0,1]","action_history":"[1,1]","mutagen_history":"[1,1]","location_rts":"[803,319]","trial_type":"fractal-mutation","trial_index":90,"time_elapsed":2462167,"internal_node_id":"0.0-5.0-36.0"},{"group":"hexagon_tri","fractal_assignment":["../images/ylw_slt.png","../images/cyn_red.png","../images/pnk_blu.png","../images/gry_blk.png","../images/org_blu.png","../images/blu_wht.png"],"mutagen_generator_assignment":[0,1],"goal":4,"start":1,"action_noise":0.15,"location_history":"[1,5,4]","action_history":"[0,0]","mutagen_history":"[0,0]","location_rts":"[6043,619]","trial_type":"fractal-mutation","trial_index":91,"time_elapsed":2474377,"internal_node_id":"0.0-5.0-37.0"},{"group":"hexagon_tri","fractal_assignment":["../images/ylw_slt.png","../images/cyn_red.png","../images/pnk_blu.png","../images/gry_blk.png","../images/org_blu.png","../images/blu_wht.png"],"mutagen_generator_assignment":[0,1],"goal":3,"start":4,"action_noise":0.15,"location_history":"[4,2,3]","action_history":"[1,1]","mutagen_history":"[1,1]","location_rts":"[3480,388]","trial_type":"fractal-mutation","trial_index":92,"time_elapsed":2483806,"internal_node_id":"0.0-5.0-38.0"},{"group":"hexagon_tri","fractal_assignment":["../images/ylw_slt.png","../images/cyn_red.png","../images/pnk_blu.png","../images/gry_blk.png","../images/org_blu.png","../images/blu_wht.png"],"mutagen_generator_assignment":[0,1],"goal":5,"start":3,"action_noise":0.15,"location_history":"[3,2,1,5]","action_history":"[0,0,1]","mutagen_history":"[0,0,1]","location_rts":"[983,750,454]","trial_type":"fractal-mutation","trial_index":93,"time_elapsed":2492579,"internal_node_id":"0.0-5.0-39.0"},{"group":"hexagon_tri","fractal_assignment":["../images/ylw_slt.png","../images/cyn_red.png","../images/pnk_blu.png","../images/gry_blk.png","../images/org_blu.png","../images/blu_wht.png"],"mutagen_generator_assignment":[0,1],"goal":1,"start":5,"action_noise":0.15,"location_history":"[5,4,2,3,2,1]","action_history":"[1,1,0,0,0]","mutagen_history":"[1,1,0,0,0]","location_rts":"[2506,419,37,819,482]","trial_type":"fractal-mutation","trial_index":94,"time_elapsed":2505472,"internal_node_id":"0.0-5.0-40.0"},{"group":"hexagon_tri","fractal_assignment":["../images/ylw_slt.png","../images/cyn_red.png","../images/pnk_blu.png","../images/gry_blk.png","../images/org_blu.png","../images/blu_wht.png"],"mutagen_generator_assignment":[0,1],"goal":2,"start":1,"action_noise":0.15,"location_history":"[1,3,2]","action_history":"[0,1]","mutagen_history":"[0,1]","location_rts":"[1531,393]","trial_type":"fractal-mutation","trial_index":95,"time_elapsed":2512949,"internal_node_id":"0.0-5.0-41.0"},{"group":"hexagon_tri","fractal_assignment":["../images/ylw_slt.png","../images/cyn_red.png","../images/pnk_blu.png","../images/gry_blk.png","../images/org_blu.png","../images/blu_wht.png"],"mutagen_generator_assignment":[0,1],"goal":4,"start":2,"action_noise":0.15,"location_history":"[2,1,3,2,1,3,4]","action_history":"[0,0,0,0,1,1]","mutagen_history":"[0,0,0,0,1,1]","location_rts":"[5674,552,458,996,480,567]","trial_type":"fractal-mutation","trial_index":96,"time_elapsed":2531332,"internal_node_id":"0.0-5.0-42.0"},{"group":"hexagon_tri","fractal_assignment":["../images/ylw_slt.png","../images/cyn_red.png","../images/pnk_blu.png","../images/gry_blk.png","../images/org_blu.png","../images/blu_wht.png"],"mutagen_generator_assignment":[0,1],"goal":0,"start":4,"action_noise":0.15,"location_history":"[4,0]","action_history":"[0]","mutagen_history":"[0]","location_rts":"[4384]","trial_type":"fractal-mutation","trial_index":97,"time_elapsed":2540242,"internal_node_id":"0.0-5.0-43.0"},{"group":"hexagon_tri","fractal_assignment":["../images/ylw_slt.png","../images/cyn_red.png","../images/pnk_blu.png","../images/gry_blk.png","../images/org_blu.png","../images/blu_wht.png"],"mutagen_generator_assignment":[0,1],"goal":3,"start":0,"action_noise":0.15,"location_history":"[0,1,5,4,2,3]","action_history":"[0,1,0,1,1]","mutagen_history":"[0,1,0,1,1]","location_rts":"[1675,725,119,659,424]","trial_type":"fractal-mutation","trial_index":98,"time_elapsed":2552499,"internal_node_id":"0.0-5.0-44.0"},{"group":"hexagon_tri","fractal_assignment":["../images/ylw_slt.png","../images/cyn_red.png","../images/pnk_blu.png","../images/gry_blk.png","../images/org_blu.png","../images/blu_wht.png"],"mutagen_generator_assignment":[0,1],"goal":0,"start":3,"action_noise":0.15,"location_history":"[3,4,0]","action_history":"[1,0]","mutagen_history":"[1,0]","location_rts":"[1235,747]","trial_type":"fractal-mutation","trial_index":99,"time_elapsed":2560026,"internal_node_id":"0.0-5.0-45.0"},{"group":"hexagon_tri","fractal_assignment":["../images/ylw_slt.png","../images/cyn_red.png","../images/pnk_blu.png","../images/gry_blk.png","../images/org_blu.png","../images/blu_wht.png"],"mutagen_generator_assignment":[0,1],"goal":4,"start":0,"action_noise":0.15,"location_history":"[0,1,3,2,1,3,4]","action_history":"[1,0,0,0,0,1]","mutagen_history":"[1,0,0,0,0,1]","location_rts":"[955,949,458,433,490,652]","trial_type":"fractal-mutation","trial_index":100,"time_elapsed":2573641,"internal_node_id":"0.0-5.0-46.0"},{"group":"hexagon_tri","fractal_assignment":["../images/ylw_slt.png","../images/cyn_red.png","../images/pnk_blu.png","../images/gry_blk.png","../images/org_blu.png","../images/blu_wht.png"],"mutagen_generator_assignment":[0,1],"goal":5,"start":4,"action_noise":0.15,"location_history":"[4,0,5]","action_history":"[0,0]","mutagen_history":"[0,0]","location_rts":"[1423,435]","trial_type":"fractal-mutation","trial_index":101,"time_elapsed":2581049,"internal_node_id":"0.0-5.0-47.0"},{"group":"hexagon_tri","fractal_assignment":["../images/ylw_slt.png","../images/cyn_red.png","../images/pnk_blu.png","../images/gry_blk.png","../images/org_blu.png","../images/blu_wht.png"],"mutagen_generator_assignment":[0,1],"goal":2,"start":5,"action_noise":0.15,"location_history":"[5,4,0,1,5,0,1,5,0,5,4,0,5,0,5,4,2]","action_history":"[0,1,1,1,1,1,0,0,0,0,1,1,1,0,0,1]","mutagen_history":"[0,1,1,1,1,1,0,0,0,0,1,1,1,0,0,1]","location_rts":"[5368,2508,789,484,725,446,101,691,499,670,433,410,548,395,525,580]","trial_type":"fractal-mutation","trial_index":102,"time_elapsed":2616204,"internal_node_id":"0.0-5.0-48.0"},{"group":"hexagon_tri","fractal_assignment":["../images/ylw_slt.png","../images/cyn_red.png","../images/pnk_blu.png","../images/gry_blk.png","../images/org_blu.png","../images/blu_wht.png"],"mutagen_generator_assignment":[0,1],"goal":1,"start":2,"action_noise":0.15,"location_history":"[2,1]","action_history":"[0]","mutagen_history":"[0]","location_rts":"[1008]","trial_type":"fractal-mutation","trial_index":103,"time_elapsed":2621742,"internal_node_id":"0.0-5.0-49.0"},{"view_history":"[{\"page_index\":0,\"viewing_time\":3355}]","rt":3355,"trial_type":"instructions","trial_index":104,"time_elapsed":2626098,"internal_node_id":"0.0-6.0"},{"rt":24280,"responses":"{\"Q0\":\"How well we can memorize patterns and how to navigate through them.\"}","trial_type":"survey-text","trial_index":105,"time_elapsed":2651384,"internal_node_id":"0.0-7.0-0.0"},{"rt":33955,"responses":"{\"Q0\":\"If we can find similarities between the first experiment in terms of how to navigate through the patterns.\"}","trial_type":"survey-text","trial_index":106,"time_elapsed":2686340,"internal_node_id":"0.0-7.0-1.0"},{"rt":42675,"responses":"{\"Q0\":\"<img src='../images/diagrams/hexagon_tri.png'>\"}","trial_type":"survey-multi-choice","trial_index":107,"time_elapsed":2730019,"internal_node_id":"0.0-7.0-2.0"},{"rt":71330,"assignments":["../images/ylw_slt.png","../images/cyn_red.png","../images/org_blu.png","../images/pnk_blu.png","../images/gry_blk.png","../images/blu_wht.png"],"trial_type":"drag-drop-on-image","trial_index":108,"time_elapsed":2802354,"internal_node_id":"0.0-7.0-3.0"},{"rt":9186,"responses":"{\"Q0\":\"4\"}","trial_type":"survey-likert","trial_index":109,"time_elapsed":2812543,"internal_node_id":"0.0-7.0-4.0"},{"rt":65971,"responses":"{\"Q0\":\"There were 2 sets of circular patterns, which keeps rotating while I'm selecting white door and gamma ray. The pattern switches to the other rotation whenever I picked black door or acid.\"}","trial_type":"survey-text","trial_index":110,"time_elapsed":2879514,"internal_node_id":"0.0-7.0-5.0"},{"rt":5454,"responses":"{\"Q0\":\"Yes\"}","trial_type":"survey-multi-choice","trial_index":111,"time_elapsed":2885974,"internal_node_id":"0.0-7.0-6.0"},{"rt":25703,"responses":"{\"Q0\":\"During session 1\"}","trial_type":"survey-multi-choice","trial_index":112,"time_elapsed":2912681,"internal_node_id":"0.0-7.0-7.0"},{"rt":57116,"responses":"{\"Q0\":\"The black door acted like the acid, and white door acted like gamma rays. White door and gamma rays rotated through one set of rotation, and the black door/acid switched the rotation to the other set of pattern.\"}","trial_type":"survey-text","trial_index":113,"time_elapsed":2970799,"internal_node_id":"0.0-7.0-8.0"},{"rt":6553,"responses":"{\"Q0\":\"3\"}","trial_type":"survey-likert","trial_index":114,"time_elapsed":2978356,"internal_node_id":"0.0-7.0-9.0"},{"rt":15837,"responses":"{\"Q0\":\"Same structure\"}","trial_type":"survey-multi-choice","trial_index":115,"time_elapsed":2995197,"internal_node_id":"0.0-7.0-10.0"},{"rt":57513,"responses":"{\"Q0\":\"left (black) door = acid, right (white) door = ray\",\"Q1\":\"Completely confident\"}","trial_type":"survey-multi-choice","trial_index":116,"time_elapsed":3053713,"internal_node_id":"0.0-7.0-11.0"},{"rt":14953,"responses":"{\"Q0\":\"25-35\",\"Q1\":\"Bachelor's degree\",\"Q2\":\"Female\",\"Q3\":\"Asian\"}","trial_type":"survey-multi-choice","trial_index":117,"time_elapsed":3069684,"internal_node_id":"0.0-8.0"},{"rt":28061,"responses":"{\"Q0\":\"This was an interesting HIT and I enjoyed it a lot. Thank you.\"}","trial_type":"survey-text","trial_index":118,"time_elapsed":3098747,"internal_node_id":"0.0-9.0"}]