[{"view_history":"[{\"page_index\":0,\"viewing_time\":7995},{\"page_index\":1,\"viewing_time\":16598}]","rt":24594,"trial_type":"instructions","trial_index":0,"time_elapsed":24595,"internal_node_id":"0.0-0.0"},{"view_history":"[{\"page_index\":0,\"viewing_time\":6655},{\"page_index\":1,\"viewing_time\":20207}]","rt":26862,"trial_type":"instructions","trial_index":1,"time_elapsed":52457,"internal_node_id":"0.0-1.0"},{"group":"hexagon_tri","room_assignment":["purple","green","yellow","red","grey","blue"],"door_color_assignment":["black","white"],"door_generator_assignment":[1,0],"goal":2,"start":1,"action_noise":0.15,"location_history":"[1,3,2]","action_history":"[0,0]","door_history":"[1,1]","location_rts":"[10407,840]","trial_type":"two-door-navigation","trial_index":2,"time_elapsed":69243,"internal_node_id":"0.0-2.0-0.0"},{"group":"hexagon_tri","room_assignment":["purple","green","yellow","red","grey","blue"],"door_color_assignment":["black","white"],"door_generator_assignment":[1,0],"goal":0,"start":2,"action_noise":0.15,"location_history":"[2,3,4,2,1,5,0]","action_history":"[1,1,1,1,1,1]","door_history":"[0,0,0,0,0,0]","location_rts":"[369,409,416,361,449,573]","trial_type":"two-door-navigation","trial_index":3,"time_elapsed":81323,"internal_node_id":"0.0-2.0-1.0"},{"group":"hexagon_tri","room_assignment":["purple","green","yellow","red","grey","blue"],"door_color_assignment":["black","white"],"door_generator_assignment":[1,0],"goal":5,"start":0,"action_noise":0.15,"location_history":"[0,1,5]","action_history":"[1,1]","door_history":"[0,0]","location_rts":"[1546,327]","trial_type":"two-door-navigation","trial_index":4,"time_elapsed":88699,"internal_node_id":"0.0-2.0-2.0"},{"group":"hexagon_tri","room_assignment":["purple","green","yellow","red","grey","blue"],"door_color_assignment":["black","white"],"door_generator_assignment":[1,0],"goal":1,"start":5,"action_noise":0.15,"location_history":"[5,4,0,5,4,2,3,2,3,4,2,1]","action_history":"[0,0,0,0,1,1,1,1,1,1,0]","door_history":"[1,1,1,1,0,0,0,0,0,0,1]","location_rts":"[2834,399,359,428,1066,303,319,415,375,389,1216]","trial_type":"two-door-navigation","trial_index":5,"time_elapsed":111559,"internal_node_id":"0.0-2.0-3.0"},{"group":"hexagon_tri","room_assignment":["purple","green","yellow","red","grey","blue"],"door_color_assignment":["black","white"],"door_generator_assignment":[1,0],"goal":3,"start":1,"action_noise":0.15,"location_history":"[1,5,0,1,5,0,5,0,5,4,0,5,0,1,5,4,2,3]","action_history":"[1,1,1,1,1,1,0,0,0,0,0,0,1,1,1,1,1]","door_history":"[0,0,0,0,0,0,1,1,1,1,1,1,0,0,0,0,0]","location_rts":"[4668,299,374,327,429,424,1217,448,353,354,397,1553,416,319,311,312,449]","trial_type":"two-door-navigation","trial_index":6,"time_elapsed":145768,"internal_node_id":"0.0-2.0-4.0"},{"group":"hexagon_tri","room_assignment":["purple","green","yellow","red","grey","blue"],"door_color_assignment":["black","white"],"door_generator_assignment":[1,0],"goal":5,"start":3,"action_noise":0.15,"location_history":"[3,4,2,3,2,3,2,3,4,2,3,4,0,5]","action_history":"[1,1,1,1,1,0,1,1,1,1,0,0,0]","door_history":"[0,0,0,0,0,1,0,0,0,0,1,1,1]","location_rts":"[1380,298,332,368,377,774,910,336,399,320,866,379,398]","trial_type":"two-door-navigation","trial_index":7,"time_elapsed":169464,"internal_node_id":"0.0-2.0-5.0"},{"group":"hexagon_tri","room_assignment":["purple","green","yellow","red","grey","blue"],"door_color_assignment":["black","white"],"door_generator_assignment":[1,0],"goal":4,"start":5,"action_noise":0.15,"location_history":"[5,0,1,5,4]","action_history":"[1,1,1,1]","door_history":"[0,0,0,0]","location_rts":"[1044,272,376,321]","trial_type":"two-door-navigation","trial_index":8,"time_elapsed":178984,"internal_node_id":"0.0-2.0-6.0"},{"group":"hexagon_tri","room_assignment":["purple","green","yellow","red","grey","blue"],"door_color_assignment":["black","white"],"door_generator_assignment":[1,0],"goal":0,"start":4,"action_noise":0.15,"location_history":"[4,2,1,5,0]","action_history":"[1,0,0,0]","door_history":"[0,1,1,1]","location_rts":"[1814,775,351,374]","trial_type":"two-door-navigation","trial_index":9,"time_elapsed":189818,"internal_node_id":"0.0-2.0-7.0"},{"group":"hexagon_tri","room_assignment":["purple","green","yellow","red","grey","blue"],"door_color_assignment":["black","white"],"door_generator_assignment":[1,0],"goal":2,"start":0,"action_noise":0.15,"location_history":"[0,1,3,2]","action_history":"[1,0,0]","door_history":"[0,1,1]","location_rts":"[491,1505,366]","trial_type":"two-door-navigation","trial_index":10,"time_elapsed":199558,"internal_node_id":"0.0-2.0-8.0"},{"group":"hexagon_tri","room_assignment":["purple","green","yellow","red","grey","blue"],"door_color_assignment":["black","white"],"door_generator_assignment":[1,0],"goal":4,"start":2,"action_noise":0.15,"location_history":"[2,3,2,3,2,1,5,0,1,5,0,5,4]","action_history":"[1,1,1,1,1,1,1,1,1,1,0,0]","door_history":"[0,0,0,0,0,0,0,0,0,0,1,1]","location_rts":"[33601,244,327,293,375,331,305,792,328,672,984,392]","trial_type":"two-door-navigation","trial_index":11,"time_elapsed":254559,"internal_node_id":"0.0-2.0-9.0"},{"group":"hexagon_tri","room_assignment":["purple","green","yellow","red","grey","blue"],"door_color_assignment":["black","white"],"door_generator_assignment":[1,0],"goal":2,"start":4,"action_noise":0.15,"location_history":"[4,2]","action_history":"[1]","door_history":"[0]","location_rts":"[67460]","trial_type":"two-door-navigation","trial_index":12,"time_elapsed":326524,"internal_node_id":"0.0-2.0-10.0"},{"group":"hexagon_tri","room_assignment":["purple","green","yellow","red","grey","blue"],"door_color_assignment":["black","white"],"door_generator_assignment":[1,0],"goal":3,"start":2,"action_noise":0.15,"location_history":"[2,3]","action_history":"[1]","door_history":"[0]","location_rts":"[403]","trial_type":"two-door-navigation","trial_index":13,"time_elapsed":331426,"internal_node_id":"0.0-2.0-11.0"},{"group":"hexagon_tri","room_assignment":["purple","green","yellow","red","grey","blue"],"door_color_assignment":["black","white"],"door_generator_assignment":[1,0],"goal":0,"start":3,"action_noise":0.15,"location_history":"[3,4,2,3,4,2,1,5,4,0]","action_history":"[1,1,1,1,1,1,1,0,0]","door_history":"[0,0,0,0,0,0,0,1,1]","location_rts":"[1211,256,256,271,440,868,738,797,456]","trial_type":"two-door-navigation","trial_index":14,"time_elapsed":349226,"internal_node_id":"0.0-2.0-12.0"},{"group":"hexagon_tri","room_assignment":["purple","green","yellow","red","grey","blue"],"door_color_assignment":["black","white"],"door_generator_assignment":[1,0],"goal":5,"start":0,"action_noise":0.15,"location_history":"[0,1,5]","action_history":"[1,1]","door_history":"[0,0]","location_rts":"[335,315]","trial_type":"two-door-navigation","trial_index":15,"time_elapsed":355377,"internal_node_id":"0.0-2.0-13.0"},{"group":"hexagon_tri","room_assignment":["purple","green","yellow","red","grey","blue"],"door_color_assignment":["black","white"],"door_generator_assignment":[1,0],"goal":1,"start":5,"action_noise":0.15,"location_history":"[5,0,1]","action_history":"[1,1]","door_history":"[0,0]","location_rts":"[372,305]","trial_type":"two-door-navigation","trial_index":16,"time_elapsed":361577,"internal_node_id":"0.0-2.0-14.0"},{"group":"hexagon_tri","room_assignment":["purple","green","yellow","red","grey","blue"],"door_color_assignment":["black","white"],"door_generator_assignment":[1,0],"goal":5,"start":1,"action_noise":0.15,"location_history":"[1,5]","action_history":"[1]","door_history":"[0]","location_rts":"[357]","trial_type":"two-door-navigation","trial_index":17,"time_elapsed":366455,"internal_node_id":"0.0-2.0-15.0"},{"group":"hexagon_tri","room_assignment":["purple","green","yellow","red","grey","blue"],"door_color_assignment":["black","white"],"door_generator_assignment":[1,0],"goal":3,"start":5,"action_noise":0.15,"location_history":"[5,4,2,3]","action_history":"[1,1,1]","door_history":"[0,0,0]","location_rts":"[1479,303,321]","trial_type":"two-door-navigation","trial_index":18,"time_elapsed":375083,"internal_node_id":"0.0-2.0-16.0"},{"group":"hexagon_tri","room_assignment":["purple","green","yellow","red","grey","blue"],"door_color_assignment":["black","white"],"door_generator_assignment":[1,0],"goal":2,"start":3,"action_noise":0.15,"location_history":"[3,4,2]","action_history":"[1,1]","door_history":"[0,0]","location_rts":"[897,278]","trial_type":"two-door-navigation","trial_index":19,"time_elapsed":381772,"internal_node_id":"0.0-2.0-17.0"},{"group":"hexagon_tri","room_assignment":["purple","green","yellow","red","grey","blue"],"door_color_assignment":["black","white"],"door_generator_assignment":[1,0],"goal":1,"start":2,"action_noise":0.15,"location_history":"[2,3,4,0,1]","action_history":"[1,1,1,1]","door_history":"[0,0,0,0]","location_rts":"[714,281,310,357]","trial_type":"two-door-navigation","trial_index":20,"time_elapsed":390942,"internal_node_id":"0.0-2.0-18.0"},{"group":"hexagon_tri","room_assignment":["purple","green","yellow","red","grey","blue"],"door_color_assignment":["black","white"],"door_generator_assignment":[1,0],"goal":4,"start":1,"action_noise":0.15,"location_history":"[1,5,0,1,5,0,1,5,4]","action_history":"[1,1,1,1,1,1,1,1]","door_history":"[0,0,0,0,0,0,0,0]","location_rts":"[424,328,296,389,426,457,468,1270]","trial_type":"two-door-navigation","trial_index":21,"time_elapsed":406560,"internal_node_id":"0.0-2.0-19.0"},{"group":"hexagon_tri","room_assignment":["purple","green","yellow","red","grey","blue"],"door_color_assignment":["black","white"],"door_generator_assignment":[1,0],"goal":0,"start":4,"action_noise":0.15,"location_history":"[4,2,3,4,2,3,2,1,5,0]","action_history":"[1,1,1,1,1,1,1,1,1]","door_history":"[0,0,0,0,0,0,0,0,0]","location_rts":"[85916,255,258,304,308,309,321,333,374]","trial_type":"two-door-navigation","trial_index":22,"time_elapsed":507517,"internal_node_id":"0.0-2.0-20.0"},{"group":"hexagon_tri","room_assignment":["purple","green","yellow","red","grey","blue"],"door_color_assignment":["black","white"],"door_generator_assignment":[1,0],"goal":3,"start":0,"action_noise":0.15,"location_history":"[0,1,3]","action_history":"[1,1]","door_history":"[0,0]","location_rts":"[940,244]","trial_type":"two-door-navigation","trial_index":23,"time_elapsed":514210,"internal_node_id":"0.0-2.0-21.0"},{"group":"hexagon_tri","room_assignment":["purple","green","yellow","red","grey","blue"],"door_color_assignment":["black","white"],"door_generator_assignment":[1,0],"goal":1,"start":3,"action_noise":0.15,"location_history":"[3,2,3,4,2,3,4,2,3,4,2,1]","action_history":"[1,1,1,1,1,1,1,1,1,1,1]","door_history":"[0,0,0,0,0,0,0,0,0,0,0]","location_rts":"[244,371,209,306,265,279,296,319,317,392,396]","trial_type":"two-door-navigation","trial_index":24,"time_elapsed":532130,"internal_node_id":"0.0-2.0-22.0"},{"group":"hexagon_tri","room_assignment":["purple","green","yellow","red","grey","blue"],"door_color_assignment":["black","white"],"door_generator_assignment":[1,0],"goal":0,"start":1,"action_noise":0.15,"location_history":"[1,5,0]","action_history":"[1,1]","door_history":"[0,0]","location_rts":"[333,302]","trial_type":"two-door-navigation","trial_index":25,"time_elapsed":538275,"internal_node_id":"0.0-2.0-23.0"},{"group":"hexagon_tri","room_assignment":["purple","green","yellow","red","grey","blue"],"door_color_assignment":["black","white"],"door_generator_assignment":[1,0],"goal":2,"start":0,"action_noise":0.15,"location_history":"[0,5,0,1,5,0,1,5,4,2]","action_history":"[1,1,1,1,1,1,1,1,1]","door_history":"[0,0,0,0,0,0,0,0,0]","location_rts":"[435,313,288,369,279,282,308,683,352]","trial_type":"two-door-navigation","trial_index":26,"time_elapsed":554561,"internal_node_id":"0.0-2.0-24.0"},{"group":"hexagon_tri","room_assignment":["purple","green","yellow","red","grey","blue"],"door_color_assignment":["black","white"],"door_generator_assignment":[1,0],"goal":4,"start":2,"action_noise":0.15,"location_history":"[2,3,4]","action_history":"[1,1]","door_history":"[0,0]","location_rts":"[1916,291]","trial_type":"two-door-navigation","trial_index":27,"time_elapsed":562275,"internal_node_id":"0.0-2.0-25.0"},{"group":"hexagon_tri","room_assignment":["purple","green","yellow","red","grey","blue"],"door_color_assignment":["black","white"],"door_generator_assignment":[1,0],"goal":5,"start":4,"action_noise":0.15,"location_history":"[4,0,1,5]","action_history":"[1,1,1]","door_history":"[0,0,0]","location_rts":"[273,261,200]","trial_type":"two-door-navigation","trial_index":28,"time_elapsed":569514,"internal_node_id":"0.0-2.0-26.0"},{"group":"hexagon_tri","room_assignment":["purple","green","yellow","red","grey","blue"],"door_color_assignment":["black","white"],"door_generator_assignment":[1,0],"goal":2,"start":5,"action_noise":0.15,"location_history":"[5,0,1,5,0,1,5,0,1,5,0,1,5,4,2]","action_history":"[1,1,1,1,1,1,1,1,1,1,1,1,1,1]","door_history":"[0,0,0,0,0,0,0,0,0,0,0,0,0,0]","location_rts":"[301,208,207,201,199,260,288,286,376,370,342,336,1489,900]","trial_type":"two-door-navigation","trial_index":29,"time_elapsed":592819,"internal_node_id":"0.0-2.0-27.0"},{"group":"hexagon_tri","room_assignment":["purple","green","yellow","red","grey","blue"],"door_color_assignment":["black","white"],"door_generator_assignment":[1,0],"goal":3,"start":2,"action_noise":0.15,"location_history":"[2,3]","action_history":"[1]","door_history":"[0]","location_rts":"[829]","trial_type":"two-door-navigation","trial_index":30,"time_elapsed":598148,"internal_node_id":"0.0-2.0-28.0"},{"group":"hexagon_tri","room_assignment":["purple","green","yellow","red","grey","blue"],"door_color_assignment":["black","white"],"door_generator_assignment":[1,0],"goal":1,"start":3,"action_noise":0.15,"location_history":"[3,4,2,3,2,1]","action_history":"[1,1,1,1,1]","door_history":"[0,0,0,0,0]","location_rts":"[329,229,200,183,233]","trial_type":"two-door-navigation","trial_index":31,"time_elapsed":607836,"internal_node_id":"0.0-2.0-29.0"},{"group":"hexagon_tri","room_assignment":["purple","green","yellow","red","grey","blue"],"door_color_assignment":["black","white"],"door_generator_assignment":[1,0],"goal":4,"start":1,"action_noise":0.15,"location_history":"[1,5,0,5,0,1,5,0,1,5,0,1,5,0,1,5,0,1,3,2,1,3,2,1,3,4]","action_history":"[1,1,1,1,1,1,1,1,1,1,1,1,1,1,1,1,1,0,0,0,0,0,0,0,1]","door_history":"[0,0,0,0,0,0,0,0,0,0,0,0,0,0,0,0,0,1,1,1,1,1,1,1,0]","location_rts":"[282,250,184,173,120,192,217,344,1006,376,336,288,311,286,343,401,425,1104,384,472,352,368,376,959,336]","trial_type":"two-door-navigation","trial_index":32,"time_elapsed":646560,"internal_node_id":"0.0-2.0-30.0"},{"group":"hexagon_tri","room_assignment":["purple","green","yellow","red","grey","blue"],"door_color_assignment":["black","white"],"door_generator_assignment":[1,0],"goal":5,"start":4,"action_noise":0.15,"location_history":"[4,0,1,3,4,0,1,5]","action_history":"[1,1,1,1,1,1,1]","door_history":"[0,0,0,0,0,0,0]","location_rts":"[163167,199,184,232,340,535,232]","trial_type":"two-door-navigation","trial_index":33,"time_elapsed":822962,"internal_node_id":"0.0-2.0-31.0"},{"group":"hexagon_tri","room_assignment":["purple","green","yellow","red","grey","blue"],"door_color_assignment":["black","white"],"door_generator_assignment":[1,0],"goal":0,"start":5,"action_noise":0.15,"location_history":"[5,0]","action_history":"[1]","door_history":"[0]","location_rts":"[251]","trial_type":"two-door-navigation","trial_index":34,"time_elapsed":827722,"internal_node_id":"0.0-2.0-32.0"},{"group":"hexagon_tri","room_assignment":["purple","green","yellow","red","grey","blue"],"door_color_assignment":["black","white"],"door_generator_assignment":[1,0],"goal":2,"start":0,"action_noise":0.15,"location_history":"[0,1,5,0,5,0,1,5,0,1,5,0,5,4,2]","action_history":"[1,1,1,1,1,1,1,1,1,1,1,1,1,1]","door_history":"[0,0,0,0,0,0,0,0,0,0,0,0,0,0]","location_rts":"[298,399,226,456,242,213,152,164,241,209,189,272,358,372]","trial_type":"two-door-navigation","trial_index":35,"time_elapsed":849069,"internal_node_id":"0.0-2.0-33.0"},{"group":"hexagon_tri","room_assignment":["purple","green","yellow","red","grey","blue"],"door_color_assignment":["black","white"],"door_generator_assignment":[1,0],"goal":0,"start":2,"action_noise":0.15,"location_history":"[2,3,4,2,3,4,2,3,4,2,3,2,3,4,0]","action_history":"[1,1,1,1,1,1,1,1,1,1,1,1,1,1]","door_history":"[0,0,0,0,0,0,0,0,0,0,0,0,0,0]","location_rts":"[303,256,221,231,116,187,199,180,240,250,216,214,329,257]","trial_type":"two-door-navigation","trial_index":36,"time_elapsed":869848,"internal_node_id":"0.0-2.0-34.0"},{"group":"hexagon_tri","room_assignment":["purple","green","yellow","red","grey","blue"],"door_color_assignment":["black","white"],"door_generator_assignment":[1,0],"goal":5,"start":0,"action_noise":0.15,"location_history":"[0,1,5]","action_history":"[1,1]","door_history":"[0,0]","location_rts":"[421,254]","trial_type":"two-door-navigation","trial_index":37,"time_elapsed":876026,"internal_node_id":"0.0-2.0-35.0"},{"group":"hexagon_tri","room_assignment":["purple","green","yellow","red","grey","blue"],"door_color_assignment":["black","white"],"door_generator_assignment":[1,0],"goal":1,"start":5,"action_noise":0.15,"location_history":"[5,0,1]","action_history":"[1,1]","door_history":"[0,0]","location_rts":"[275,296]","trial_type":"two-door-navigation","trial_index":38,"time_elapsed":882102,"internal_node_id":"0.0-2.0-36.0"},{"group":"hexagon_tri","room_assignment":["purple","green","yellow","red","grey","blue"],"door_color_assignment":["black","white"],"door_generator_assignment":[1,0],"goal":4,"start":1,"action_noise":0.15,"location_history":"[1,3,2,1,5,4]","action_history":"[1,1,1,1,1]","door_history":"[0,0,0,0,0]","location_rts":"[256,221,211,224,161]","trial_type":"two-door-navigation","trial_index":39,"time_elapsed":891708,"internal_node_id":"0.0-2.0-37.0"},{"group":"hexagon_tri","room_assignment":["purple","green","yellow","red","grey","blue"],"door_color_assignment":["black","white"],"door_generator_assignment":[1,0],"goal":3,"start":4,"action_noise":0.15,"location_history":"[4,2,3]","action_history":"[1,1]","door_history":"[0,0]","location_rts":"[217,304]","trial_type":"two-door-navigation","trial_index":40,"time_elapsed":897763,"internal_node_id":"0.0-2.0-38.0"},{"group":"hexagon_tri","room_assignment":["purple","green","yellow","red","grey","blue"],"door_color_assignment":["black","white"],"door_generator_assignment":[1,0],"goal":5,"start":3,"action_noise":0.15,"location_history":"[3,4,2,3,4,2,3,4,2,3,4,0,1,5]","action_history":"[1,1,1,1,1,1,1,1,1,1,1,1,1]","door_history":"[0,0,0,0,0,0,0,0,0,0,0,0,0]","location_rts":"[331,737,223,182,218,409,102,240,256,271,366,364,318]","trial_type":"two-door-navigation","trial_index":41,"time_elapsed":918347,"internal_node_id":"0.0-2.0-39.0"},{"group":"hexagon_tri","room_assignment":["purple","green","yellow","red","grey","blue"],"door_color_assignment":["black","white"],"door_generator_assignment":[1,0],"goal":1,"start":5,"action_noise":0.15,"location_history":"[5,0,1]","action_history":"[1,1]","door_history":"[0,0]","location_rts":"[700,298]","trial_type":"two-door-navigation","trial_index":42,"time_elapsed":924849,"internal_node_id":"0.0-2.0-40.0"},{"group":"hexagon_tri","room_assignment":["purple","green","yellow","red","grey","blue"],"door_color_assignment":["black","white"],"door_generator_assignment":[1,0],"goal":2,"start":1,"action_noise":0.15,"location_history":"[1,3,4,2]","action_history":"[1,1,1]","door_history":"[0,0,0]","location_rts":"[237,182,240]","trial_type":"two-door-navigation","trial_index":43,"time_elapsed":932018,"internal_node_id":"0.0-2.0-41.0"},{"group":"hexagon_tri","room_assignment":["purple","green","yellow","red","grey","blue"],"door_color_assignment":["black","white"],"door_generator_assignment":[1,0],"goal":4,"start":2,"action_noise":0.15,"location_history":"[2,3,4]","action_history":"[1,1]","door_history":"[0,0]","location_rts":"[324,238]","trial_type":"two-door-navigation","trial_index":44,"time_elapsed":938094,"internal_node_id":"0.0-2.0-42.0"},{"group":"hexagon_tri","room_assignment":["purple","green","yellow","red","grey","blue"],"door_color_assignment":["black","white"],"door_generator_assignment":[1,0],"goal":0,"start":4,"action_noise":0.15,"location_history":"[4,2,3,4,2,3,4,2,3,4,0]","action_history":"[1,1,1,1,1,1,1,1,1,1]","door_history":"[0,0,0,0,0,0,0,0,0,0]","location_rts":"[309,251,200,292,240,127,14,199,188,192]","trial_type":"two-door-navigation","trial_index":45,"time_elapsed":953660,"internal_node_id":"0.0-2.0-43.0"},{"group":"hexagon_tri","room_assignment":["purple","green","yellow","red","grey","blue"],"door_color_assignment":["black","white"],"door_generator_assignment":[1,0],"goal":3,"start":0,"action_noise":0.15,"location_history":"[0,1,5,0,1,5,0,1,3]","action_history":"[1,1,1,1,1,1,1,1]","door_history":"[0,0,0,0,0,0,0,0]","location_rts":"[249,289,227,223,310,263,280,261]","trial_type":"two-door-navigation","trial_index":46,"time_elapsed":967289,"internal_node_id":"0.0-2.0-44.0"},{"group":"hexagon_tri","room_assignment":["purple","green","yellow","red","grey","blue"],"door_color_assignment":["black","white"],"door_generator_assignment":[1,0],"goal":0,"start":3,"action_noise":0.15,"location_history":"[3,2,3,2,3,4,2,3,4,0]","action_history":"[1,1,1,1,1,1,1,1,1]","door_history":"[0,0,0,0,0,0,0,0,0]","location_rts":"[516,226,248,203,216,426,117,336,575]","trial_type":"two-door-navigation","trial_index":47,"time_elapsed":982665,"internal_node_id":"0.0-2.0-45.0"},{"group":"hexagon_tri","room_assignment":["purple","green","yellow","red","grey","blue"],"door_color_assignment":["black","white"],"door_generator_assignment":[1,0],"goal":4,"start":0,"action_noise":0.15,"location_history":"[0,1,5,0,1,5,4]","action_history":"[1,1,1,1,1,1]","door_history":"[0,0,0,0,0,0]","location_rts":"[355,295,185,185,432,314]","trial_type":"two-door-navigation","trial_index":48,"time_elapsed":993956,"internal_node_id":"0.0-2.0-46.0"},{"group":"hexagon_tri","room_assignment":["purple","green","yellow","red","grey","blue"],"door_color_assignment":["black","white"],"door_generator_assignment":[1,0],"goal":5,"start":4,"action_noise":0.15,"location_history":"[4,2,3,4,2,3,2,3,2,3,2,3,4,0,1,5]","action_history":"[1,1,1,1,1,1,1,0,0,0,1,1,1,1,1]","door_history":"[0,0,0,0,0,0,0,1,1,1,0,0,0,0,0]","location_rts":"[259,249,196,89,122,56,274,1110,431,342,758,295,354,230,493]","trial_type":"two-door-navigation","trial_index":49,"time_elapsed":1017736,"internal_node_id":"0.0-2.0-47.0"},{"group":"hexagon_tri","room_assignment":["purple","green","yellow","red","grey","blue"],"door_color_assignment":["black","white"],"door_generator_assignment":[1,0],"goal":2,"start":5,"action_noise":0.15,"location_history":"[5,4,2]","action_history":"[1,1]","door_history":"[0,0]","location_rts":"[253,259]","trial_type":"two-door-navigation","trial_index":50,"time_elapsed":1023749,"internal_node_id":"0.0-2.0-48.0"},{"group":"hexagon_tri","room_assignment":["purple","green","yellow","red","grey","blue"],"door_color_assignment":["black","white"],"door_generator_assignment":[1,0],"goal":1,"start":2,"action_noise":0.15,"location_history":"[2,1]","action_history":"[1]","door_history":"[0]","location_rts":"[361]","trial_type":"two-door-navigation","trial_index":51,"time_elapsed":1028618,"internal_node_id":"0.0-2.0-49.0"},{"view_history":"[{\"page_index\":0,\"viewing_time\":26023}]","rt":26023,"trial_type":"instructions","trial_index":52,"time_elapsed":1055641,"internal_node_id":"0.0-3.0"},{"view_history":"[{\"page_index\":0,\"viewing_time\":2993},{\"page_index\":1,\"viewing_time\":3192}]","rt":6185,"trial_type":"instructions","trial_index":53,"time_elapsed":1062826,"internal_node_id":"0.0-4.0"},{"group":"hexagon_tri","fractal_assignment":["../images/pnk_blu.png","../images/org_blu.png","../images/ylw_slt.png","../images/gry_blk.png","../images/cyn_red.png","../images/blu_wht.png"],"mutagen_generator_assignment":[0,1],"goal":2,"start":1,"action_noise":0.15,"location_history":"[1,3,2]","action_history":"[0,0]","mutagen_history":"[0,0]","location_rts":"[87699,687]","trial_type":"fractal-mutation","trial_index":54,"time_elapsed":1156744,"internal_node_id":"0.0-5.0-0.0"},{"group":"hexagon_tri","fractal_assignment":["../images/pnk_blu.png","../images/org_blu.png","../images/ylw_slt.png","../images/gry_blk.png","../images/cyn_red.png","../images/blu_wht.png"],"mutagen_generator_assignment":[0,1],"goal":0,"start":2,"action_noise":0.15,"location_history":"[2,3,4,0]","action_history":"[1,1,1]","mutagen_history":"[1,1,1]","location_rts":"[1427,283,382]","trial_type":"fractal-mutation","trial_index":55,"time_elapsed":1165464,"internal_node_id":"0.0-5.0-1.0"},{"group":"hexagon_tri","fractal_assignment":["../images/pnk_blu.png","../images/org_blu.png","../images/ylw_slt.png","../images/gry_blk.png","../images/cyn_red.png","../images/blu_wht.png"],"mutagen_generator_assignment":[0,1],"goal":5,"start":0,"action_noise":0.15,"location_history":"[0,5]","action_history":"[0]","mutagen_history":"[0]","location_rts":"[65039]","trial_type":"fractal-mutation","trial_index":56,"time_elapsed":1235105,"internal_node_id":"0.0-5.0-2.0"},{"group":"hexagon_tri","fractal_assignment":["../images/pnk_blu.png","../images/org_blu.png","../images/ylw_slt.png","../images/gry_blk.png","../images/cyn_red.png","../images/blu_wht.png"],"mutagen_generator_assignment":[0,1],"goal":1,"start":5,"action_noise":0.15,"location_history":"[5,0,5,0,5,0,1]","action_history":"[1,0,0,0,1,1]","mutagen_history":"[1,0,0,0,1,1]","location_rts":"[2502,534,856,598,968,460]","trial_type":"fractal-mutation","trial_index":57,"time_elapsed":1250810,"internal_node_id":"0.0-5.0-3.0"},{"group":"hexagon_tri","fractal_assignment":["../images/pnk_blu.png","../images/org_blu.png","../images/ylw_slt.png","../images/gry_blk.png","../images/cyn_red.png","../images/blu_wht.png"],"mutagen_generator_assignment":[0,1],"goal":3,"start":1,"action_noise":0.15,"location_history":"[1,3]","action_history":"[0]","mutagen_history":"[0]","location_rts":"[1111]","trial_type":"fractal-mutation","trial_index":58,"time_elapsed":1256428,"internal_node_id":"0.0-5.0-4.0"},{"group":"hexagon_tri","fractal_assignment":["../images/pnk_blu.png","../images/org_blu.png","../images/ylw_slt.png","../images/gry_blk.png","../images/cyn_red.png","../images/blu_wht.png"],"mutagen_generator_assignment":[0,1],"goal":5,"start":3,"action_noise":0.15,"location_history":"[3,4,2,3,4,2,3,2,1,5]","action_history":"[1,1,1,1,1,1,0,1,0]","mutagen_history":"[1,1,1,1,1,1,0,1,0]","location_rts":"[1447,321,375,491,807,635,658,847,701]","trial_type":"fractal-mutation","trial_index":59,"time_elapsed":1275520,"internal_node_id":"0.0-5.0-5.0"},{"group":"hexagon_tri","fractal_assignment":["../images/pnk_blu.png","../images/org_blu.png","../images/ylw_slt.png","../images/gry_blk.png","../images/cyn_red.png","../images/blu_wht.png"],"mutagen_generator_assignment":[0,1],"goal":4,"start":5,"action_noise":0.15,"location_history":"[5,0,5,4]","action_history":"[1,1,1]","mutagen_history":"[1,1,1]","location_rts":"[1306,475,288]","trial_type":"fractal-mutation","trial_index":60,"time_elapsed":1284216,"internal_node_id":"0.0-5.0-6.0"},{"group":"hexagon_tri","fractal_assignment":["../images/pnk_blu.png","../images/org_blu.png","../images/ylw_slt.png","../images/gry_blk.png","../images/cyn_red.png","../images/blu_wht.png"],"mutagen_generator_assignment":[0,1],"goal":0,"start":4,"action_noise":0.15,"location_history":"[4,2,3,4,2,1,5,0]","action_history":"[1,1,1,1,1,1,1]","mutagen_history":"[1,1,1,1,1,1,1]","location_rts":"[1205,339,336,431,682,580,497]","trial_type":"fractal-mutation","trial_index":61,"time_elapsed":1299562,"internal_node_id":"0.0-5.0-7.0"},{"group":"hexagon_tri","fractal_assignment":["../images/pnk_blu.png","../images/org_blu.png","../images/ylw_slt.png","../images/gry_blk.png","../images/cyn_red.png","../images/blu_wht.png"],"mutagen_generator_assignment":[0,1],"goal":2,"start":0,"action_noise":0.15,"location_history":"[0,5,4,0,1,3,2]","action_history":"[0,0,0,0,0,0]","mutagen_history":"[0,0,0,0,0,0]","location_rts":"[87484,368,389,483,653,351]","trial_type":"fractal-mutation","trial_index":62,"time_elapsed":1400040,"internal_node_id":"0.0-5.0-8.0"},{"group":"hexagon_tri","fractal_assignment":["../images/pnk_blu.png","../images/org_blu.png","../images/ylw_slt.png","../images/gry_blk.png","../images/cyn_red.png","../images/blu_wht.png"],"mutagen_generator_assignment":[0,1],"goal":4,"start":2,"action_noise":0.15,"location_history":"[2,3,4]","action_history":"[1,1]","mutagen_history":"[1,1]","location_rts":"[893,343]","trial_type":"fractal-mutation","trial_index":63,"time_elapsed":1406878,"internal_node_id":"0.0-5.0-9.0"},{"group":"hexagon_tri","fractal_assignment":["../images/pnk_blu.png","../images/org_blu.png","../images/ylw_slt.png","../images/gry_blk.png","../images/cyn_red.png","../images/blu_wht.png"],"mutagen_generator_assignment":[0,1],"goal":2,"start":4,"action_noise":0.15,"location_history":"[4,0,5,4,0,5,4,0,1,3,2]","action_history":"[0,0,0,0,0,0,0,1,0,0]","mutagen_history":"[0,0,0,0,0,0,0,1,0,0]","location_rts":"[1905,298,103,719,234,424,464,405,500,669]","trial_type":"fractal-mutation","trial_index":64,"time_elapsed":1426360,"internal_node_id":"0.0-5.0-10.0"},{"group":"hexagon_tri","fractal_assignment":["../images/pnk_blu.png","../images/org_blu.png","../images/ylw_slt.png","../images/gry_blk.png","../images/cyn_red.png","../images/blu_wht.png"],"mutagen_generator_assignment":[0,1],"goal":3,"start":2,"action_noise":0.15,"location_history":"[2,1,3]","action_history":"[0,0]","mutagen_history":"[0,0]","location_rts":"[1092,636]","trial_type":"fractal-mutation","trial_index":65,"time_elapsed":1434560,"internal_node_id":"0.0-5.0-11.0"},{"group":"hexagon_tri","fractal_assignment":["../images/pnk_blu.png","../images/org_blu.png","../images/ylw_slt.png","../images/gry_blk.png","../images/cyn_red.png","../images/blu_wht.png"],"mutagen_generator_assignment":[0,1],"goal":0,"start":3,"action_noise":0.15,"location_history":"[3,2,3,4,2,3,4,0]","action_history":"[0,1,1,1,1,1,1]","mutagen_history":"[0,1,1,1,1,1,1]","location_rts":"[120596,381,393,290,382,315,306]","trial_type":"fractal-mutation","trial_index":66,"time_elapsed":1568018,"internal_node_id":"0.0-5.0-12.0"},{"group":"hexagon_tri","fractal_assignment":["../images/pnk_blu.png","../images/org_blu.png","../images/ylw_slt.png","../images/gry_blk.png","../images/cyn_red.png","../images/blu_wht.png"],"mutagen_generator_assignment":[0,1],"goal":5,"start":0,"action_noise":0.15,"location_history":"[0,1,5]","action_history":"[1,1]","mutagen_history":"[1,1]","location_rts":"[1042,389]","trial_type":"fractal-mutation","trial_index":67,"time_elapsed":1575073,"internal_node_id":"0.0-5.0-13.0"},{"group":"hexagon_tri","fractal_assignment":["../images/pnk_blu.png","../images/org_blu.png","../images/ylw_slt.png","../images/gry_blk.png","../images/cyn_red.png","../images/blu_wht.png"],"mutagen_generator_assignment":[0,1],"goal":1,"start":5,"action_noise":0.15,"location_history":"[5,4,0,5,4,0,1]","action_history":"[0,0,0,0,0,1]","mutagen_history":"[0,0,0,0,0,1]","location_rts":"[1502,473,1108,604,527,439]","trial_type":"fractal-mutation","trial_index":68,"time_elapsed":1589422,"internal_node_id":"0.0-5.0-14.0"},{"group":"hexagon_tri","fractal_assignment":["../images/pnk_blu.png","../images/org_blu.png","../images/ylw_slt.png","../images/gry_blk.png","../images/cyn_red.png","../images/blu_wht.png"],"mutagen_generator_assignment":[0,1],"goal":5,"start":1,"action_noise":0.15,"location_history":"[1,5]","action_history":"[1]","mutagen_history":"[1]","location_rts":"[1088]","trial_type":"fractal-mutation","trial_index":69,"time_elapsed":1595036,"internal_node_id":"0.0-5.0-15.0"},{"group":"hexagon_tri","fractal_assignment":["../images/pnk_blu.png","../images/org_blu.png","../images/ylw_slt.png","../images/gry_blk.png","../images/cyn_red.png","../images/blu_wht.png"],"mutagen_generator_assignment":[0,1],"goal":3,"start":5,"action_noise":0.15,"location_history":"[5,0,5,4,0,5,4,2,1,3]","action_history":"[0,0,0,0,0,0,1,0,0]","mutagen_history":"[0,0,0,0,0,0,1,0,0]","location_rts":"[3136,417,355,517,326,361,374,679,696]","trial_type":"fractal-mutation","trial_index":70,"time_elapsed":1614805,"internal_node_id":"0.0-5.0-16.0"},{"group":"hexagon_tri","fractal_assignment":["../images/pnk_blu.png","../images/org_blu.png","../images/ylw_slt.png","../images/gry_blk.png","../images/cyn_red.png","../images/blu_wht.png"],"mutagen_generator_assignment":[0,1],"goal":2,"start":3,"action_noise":0.15,"location_history":"[3,4,0,5,4,0,5,4,2]","action_history":"[1,0,0,0,0,0,0,1]","mutagen_history":"[1,0,0,0,0,0,0,1]","location_rts":"[2448,629,512,499,422,344,375,411]","trial_type":"fractal-mutation","trial_index":71,"time_elapsed":1632426,"internal_node_id":"0.0-5.0-17.0"},{"group":"hexagon_tri","fractal_assignment":["../images/pnk_blu.png","../images/org_blu.png","../images/ylw_slt.png","../images/gry_blk.png","../images/cyn_red.png","../images/blu_wht.png"],"mutagen_generator_assignment":[0,1],"goal":1,"start":2,"action_noise":0.15,"location_history":"[2,1]","action_history":"[0]","mutagen_history":"[0]","location_rts":"[2327]","trial_type":"fractal-mutation","trial_index":72,"time_elapsed":1639294,"internal_node_id":"0.0-5.0-18.0"},{"group":"hexagon_tri","fractal_assignment":["../images/pnk_blu.png","../images/org_blu.png","../images/ylw_slt.png","../images/gry_blk.png","../images/cyn_red.png","../images/blu_wht.png"],"mutagen_generator_assignment":[0,1],"goal":4,"start":1,"action_noise":0.15,"location_history":"[1,5,0,5,0,1,3,4]","action_history":"[1,1,1,1,1,1,1]","mutagen_history":"[1,1,1,1,1,1,1]","location_rts":"[928,354,369,327,378,611,359]","trial_type":"fractal-mutation","trial_index":73,"time_elapsed":1653480,"internal_node_id":"0.0-5.0-19.0"},{"group":"hexagon_tri","fractal_assignment":["../images/pnk_blu.png","../images/org_blu.png","../images/ylw_slt.png","../images/gry_blk.png","../images/cyn_red.png","../images/blu_wht.png"],"mutagen_generator_assignment":[0,1],"goal":0,"start":4,"action_noise":0.15,"location_history":"[4,2,3,4,2,3,4,2,3,4,0]","action_history":"[1,1,1,1,1,1,1,1,1,0]","mutagen_history":"[1,1,1,1,1,1,1,1,1,0]","location_rts":"[2851,337,305,278,320,326,347,459,744,505]","trial_type":"fractal-mutation","trial_index":74,"time_elapsed":1674563,"internal_node_id":"0.0-5.0-20.0"},{"group":"hexagon_tri","fractal_assignment":["../images/pnk_blu.png","../images/org_blu.png","../images/ylw_slt.png","../images/gry_blk.png","../images/cyn_red.png","../images/blu_wht.png"],"mutagen_generator_assignment":[0,1],"goal":3,"start":0,"action_noise":0.15,"location_history":"[0,5,4,0,5,0,5,0,5,0,5,4,0,5,4,0,5,0,5,4,0,5,4,0,5,4,2,3]","action_history":"[0,0,0,0,1,1,1,0,1,0,0,0,0,0,0,0,0,0,0,0,0,0,0,0,0,1,0]","mutagen_history":"[0,0,0,0,1,1,1,0,1,0,0,0,0,0,0,0,0,0,0,0,0,0,0,0,0,1,0]","location_rts":"[65898,308,276,397,410,759,366,540,357,378,341,385,318,366,291,329,141,474,380,628,425,363,1247,435,306,612,706]","trial_type":"fractal-mutation","trial_index":75,"time_elapsed":1784384,"internal_node_id":"0.0-5.0-21.0"},{"group":"hexagon_tri","fractal_assignment":["../images/pnk_blu.png","../images/org_blu.png","../images/ylw_slt.png","../images/gry_blk.png","../images/cyn_red.png","../images/blu_wht.png"],"mutagen_generator_assignment":[0,1],"goal":1,"start":3,"action_noise":0.15,"location_history":"[3,4,0,5,4,0,5,4,0,1]","action_history":"[1,0,0,0,0,0,0,1,1]","mutagen_history":"[1,0,0,0,0,0,0,1,1]","location_rts":"[1189,581,472,1126,379,341,456,317,1282]","trial_type":"fractal-mutation","trial_index":76,"time_elapsed":1803464,"internal_node_id":"0.0-5.0-22.0"},{"group":"hexagon_tri","fractal_assignment":["../images/pnk_blu.png","../images/org_blu.png","../images/ylw_slt.png","../images/gry_blk.png","../images/cyn_red.png","../images/blu_wht.png"],"mutagen_generator_assignment":[0,1],"goal":0,"start":1,"action_noise":0.15,"location_history":"[1,5,0]","action_history":"[1,1]","mutagen_history":"[1,1]","location_rts":"[1155,428]","trial_type":"fractal-mutation","trial_index":77,"time_elapsed":1810646,"internal_node_id":"0.0-5.0-23.0"},{"group":"hexagon_tri","fractal_assignment":["../images/pnk_blu.png","../images/org_blu.png","../images/ylw_slt.png","../images/gry_blk.png","../images/cyn_red.png","../images/blu_wht.png"],"mutagen_generator_assignment":[0,1],"goal":2,"start":0,"action_noise":0.15,"location_history":"[0,1,3,2]","action_history":"[1,0,0]","mutagen_history":"[1,0,0]","location_rts":"[2026,347,720]","trial_type":"fractal-mutation","trial_index":78,"time_elapsed":1820302,"internal_node_id":"0.0-5.0-24.0"},{"group":"hexagon_tri","fractal_assignment":["../images/pnk_blu.png","../images/org_blu.png","../images/ylw_slt.png","../images/gry_blk.png","../images/cyn_red.png","../images/blu_wht.png"],"mutagen_generator_assignment":[0,1],"goal":4,"start":2,"action_noise":0.15,"location_history":"[2,1,3,2,3,2,3,4]","action_history":"[1,1,1,1,1,1,1]","mutagen_history":"[1,1,1,1,1,1,1]","location_rts":"[966,302,245,301,398,367,333]","trial_type":"fractal-mutation","trial_index":79,"time_elapsed":1833984,"internal_node_id":"0.0-5.0-25.0"},{"group":"hexagon_tri","fractal_assignment":["../images/pnk_blu.png","../images/org_blu.png","../images/ylw_slt.png","../images/gry_blk.png","../images/cyn_red.png","../images/blu_wht.png"],"mutagen_generator_assignment":[0,1],"goal":5,"start":4,"action_noise":0.15,"location_history":"[4,2,3,4,2,1,3,4,2,1,5]","action_history":"[1,1,1,1,1,1,1,1,1,1]","mutagen_history":"[1,1,1,1,1,1,1,1,1,1]","location_rts":"[924,232,220,179,191,259,311,193,276,293]","trial_type":"fractal-mutation","trial_index":80,"time_elapsed":1851558,"internal_node_id":"0.0-5.0-26.0"},{"group":"hexagon_tri","fractal_assignment":["../images/pnk_blu.png","../images/org_blu.png","../images/ylw_slt.png","../images/gry_blk.png","../images/cyn_red.png","../images/blu_wht.png"],"mutagen_generator_assignment":[0,1],"goal":2,"start":5,"action_noise":0.15,"location_history":"[5,0,1,3,2]","action_history":"[0,1,0,0]","mutagen_history":"[0,1,0,0]","location_rts":"[103654,606,757,551]","trial_type":"fractal-mutation","trial_index":81,"time_elapsed":1964752,"internal_node_id":"0.0-5.0-27.0"},{"group":"hexagon_tri","fractal_assignment":["../images/pnk_blu.png","../images/org_blu.png","../images/ylw_slt.png","../images/gry_blk.png","../images/cyn_red.png","../images/blu_wht.png"],"mutagen_generator_assignment":[0,1],"goal":3,"start":2,"action_noise":0.15,"location_history":"[2,1,3]","action_history":"[0,0]","mutagen_history":"[0,0]","location_rts":"[997,355]","trial_type":"fractal-mutation","trial_index":82,"time_elapsed":1971629,"internal_node_id":"0.0-5.0-28.0"},{"group":"hexagon_tri","fractal_assignment":["../images/pnk_blu.png","../images/org_blu.png","../images/ylw_slt.png","../images/gry_blk.png","../images/cyn_red.png","../images/blu_wht.png"],"mutagen_generator_assignment":[0,1],"goal":1,"start":3,"action_noise":0.15,"location_history":"[3,2,3,2,1]","action_history":"[0,0,0,0]","mutagen_history":"[0,0,0,0]","location_rts":"[865,311,277,287]","trial_type":"fractal-mutation","trial_index":83,"time_elapsed":1981073,"internal_node_id":"0.0-5.0-29.0"},{"group":"hexagon_tri","fractal_assignment":["../images/pnk_blu.png","../images/org_blu.png","../images/ylw_slt.png","../images/gry_blk.png","../images/cyn_red.png","../images/blu_wht.png"],"mutagen_generator_assignment":[0,1],"goal":4,"start":1,"action_noise":0.15,"location_history":"[1,5,0,1,3,4]","action_history":"[1,1,1,1,1]","mutagen_history":"[1,1,1,1,1]","location_rts":"[1338,236,368,354,340]","trial_type":"fractal-mutation","trial_index":84,"time_elapsed":1992274,"internal_node_id":"0.0-5.0-30.0"},{"group":"hexagon_tri","fractal_assignment":["../images/pnk_blu.png","../images/org_blu.png","../images/ylw_slt.png","../images/gry_blk.png","../images/cyn_red.png","../images/blu_wht.png"],"mutagen_generator_assignment":[0,1],"goal":5,"start":4,"action_noise":0.15,"location_history":"[4,2,3,4,0,1,3,4,2,3,2,3,4,2,3,4,2,1,5]","action_history":"[1,1,1,1,1,1,1,1,1,1,1,1,1,1,1,1,0,1]","mutagen_history":"[1,1,1,1,1,1,1,1,1,1,1,1,1,1,1,1,0,1]","location_rts":"[1003,221,6,192,384,309,294,50,295,6,957,310,642,604,383,208,586,429]","trial_type":"fractal-mutation","trial_index":85,"time_elapsed":2020979,"internal_node_id":"0.0-5.0-31.0"},{"group":"hexagon_tri","fractal_assignment":["../images/pnk_blu.png","../images/org_blu.png","../images/ylw_slt.png","../images/gry_blk.png","../images/cyn_red.png","../images/blu_wht.png"],"mutagen_generator_assignment":[0,1],"goal":0,"start":5,"action_noise":0.15,"location_history":"[5,0]","action_history":"[1]","mutagen_history":"[1]","location_rts":"[1111]","trial_type":"fractal-mutation","trial_index":86,"time_elapsed":2026600,"internal_node_id":"0.0-5.0-32.0"},{"group":"hexagon_tri","fractal_assignment":["../images/pnk_blu.png","../images/org_blu.png","../images/ylw_slt.png","../images/gry_blk.png","../images/cyn_red.png","../images/blu_wht.png"],"mutagen_generator_assignment":[0,1],"goal":2,"start":0,"action_noise":0.15,"location_history":"[0,5,4,2]","action_history":"[0,0,0]","mutagen_history":"[0,0,0]","location_rts":"[2946,449,1032]","trial_type":"fractal-mutation","trial_index":87,"time_elapsed":2037571,"internal_node_id":"0.0-5.0-33.0"},{"group":"hexagon_tri","fractal_assignment":["../images/pnk_blu.png","../images/org_blu.png","../images/ylw_slt.png","../images/gry_blk.png","../images/cyn_red.png","../images/blu_wht.png"],"mutagen_generator_assignment":[0,1],"goal":0,"start":2,"action_noise":0.15,"location_history":"[2,3,4,2,3,2,3,4,2,1,5,4,2,1,5,0]","action_history":"[1,1,1,1,1,1,1,1,0,1,1,1,1,1,1]","mutagen_history":"[1,1,1,1,1,1,1,1,0,1,1,1,1,1,1]","location_rts":"[841,141,14,109,282,280,276,408,592,412,451,399,502,546,1150]","trial_type":"fractal-mutation","trial_index":88,"time_elapsed":2063004,"internal_node_id":"0.0-5.0-34.0"},{"group":"hexagon_tri","fractal_assignment":["../images/pnk_blu.png","../images/org_blu.png","../images/ylw_slt.png","../images/gry_blk.png","../images/cyn_red.png","../images/blu_wht.png"],"mutagen_generator_assignment":[0,1],"goal":5,"start":0,"action_noise":0.15,"location_history":"[0,1,5]","action_history":"[1,1]","mutagen_history":"[1,1]","location_rts":"[1330,281]","trial_type":"fractal-mutation","trial_index":89,"time_elapsed":2070165,"internal_node_id":"0.0-5.0-35.0"},{"group":"hexagon_tri","fractal_assignment":["../images/pnk_blu.png","../images/org_blu.png","../images/ylw_slt.png","../images/gry_blk.png","../images/cyn_red.png","../images/blu_wht.png"],"mutagen_generator_assignment":[0,1],"goal":1,"start":5,"action_noise":0.15,"location_history":"[5,0,1]","action_history":"[1,1]","mutagen_history":"[1,1]","location_rts":"[3484,391]","trial_type":"fractal-mutation","trial_index":90,"time_elapsed":2079565,"internal_node_id":"0.0-5.0-36.0"},{"group":"hexagon_tri","fractal_assignment":["../images/pnk_blu.png","../images/org_blu.png","../images/ylw_slt.png","../images/gry_blk.png","../images/cyn_red.png","../images/blu_wht.png"],"mutagen_generator_assignment":[0,1],"goal":4,"start":1,"action_noise":0.15,"location_history":"[1,3,2,3,4]","action_history":"[1,1,1,1]","mutagen_history":"[1,1,1,1]","location_rts":"[1190,330,98,439]","trial_type":"fractal-mutation","trial_index":91,"time_elapsed":2089279,"internal_node_id":"0.0-5.0-37.0"},{"group":"hexagon_tri","fractal_assignment":["../images/pnk_blu.png","../images/org_blu.png","../images/ylw_slt.png","../images/gry_blk.png","../images/cyn_red.png","../images/blu_wht.png"],"mutagen_generator_assignment":[0,1],"goal":3,"start":4,"action_noise":0.15,"location_history":"[4,0,1,3]","action_history":"[0,1,0]","mutagen_history":"[0,1,0]","location_rts":"[2210,618,896]","trial_type":"fractal-mutation","trial_index":92,"time_elapsed":2099662,"internal_node_id":"0.0-5.0-38.0"},{"group":"hexagon_tri","fractal_assignment":["../images/pnk_blu.png","../images/org_blu.png","../images/ylw_slt.png","../images/gry_blk.png","../images/cyn_red.png","../images/blu_wht.png"],"mutagen_generator_assignment":[0,1],"goal":5,"start":3,"action_noise":0.15,"location_history":"[3,4,2,1,5]","action_history":"[1,1,1,1]","mutagen_history":"[1,1,1,1]","location_rts":"[16055,1061,414,322]","trial_type":"fractal-mutation","trial_index":93,"time_elapsed":2126001,"internal_node_id":"0.0-5.0-39.0"},{"group":"hexagon_tri","fractal_assignment":["../images/pnk_blu.png","../images/org_blu.png","../images/ylw_slt.png","../images/gry_blk.png","../images/cyn_red.png","../images/blu_wht.png"],"mutagen_generator_assignment":[0,1],"goal":1,"start":5,"action_noise":0.15,"location_history":"[5,0,1]","action_history":"[1,1]","mutagen_history":"[1,1]","location_rts":"[2213,453]","trial_type":"fractal-mutation","trial_index":94,"time_elapsed":2134230,"internal_node_id":"0.0-5.0-40.0"},{"group":"hexagon_tri","fractal_assignment":["../images/pnk_blu.png","../images/org_blu.png","../images/ylw_slt.png","../images/gry_blk.png","../images/cyn_red.png","../images/blu_wht.png"],"mutagen_generator_assignment":[0,1],"goal":2,"start":1,"action_noise":0.15,"location_history":"[1,3,2]","action_history":"[0,0]","mutagen_history":"[0,0]","location_rts":"[2789,355]","trial_type":"fractal-mutation","trial_index":95,"time_elapsed":2142961,"internal_node_id":"0.0-5.0-41.0"},{"group":"hexagon_tri","fractal_assignment":["../images/pnk_blu.png","../images/org_blu.png","../images/ylw_slt.png","../images/gry_blk.png","../images/cyn_red.png","../images/blu_wht.png"],"mutagen_generator_assignment":[0,1],"goal":4,"start":2,"action_noise":0.15,"location_history":"[2,1,5,0,1,3,4]","action_history":"[0,1,1,1,1,1]","mutagen_history":"[0,1,1,1,1,1]","location_rts":"[1600,455,523,326,319,345]","trial_type":"fractal-mutation","trial_index":96,"time_elapsed":2156353,"internal_node_id":"0.0-5.0-42.0"},{"group":"hexagon_tri","fractal_assignment":["../images/pnk_blu.png","../images/org_blu.png","../images/ylw_slt.png","../images/gry_blk.png","../images/cyn_red.png","../images/blu_wht.png"],"mutagen_generator_assignment":[0,1],"goal":0,"start":4,"action_noise":0.15,"location_history":"[4,2,3,2,3,4,2,3,2,3,4,2,1,5,0]","action_history":"[1,1,1,1,1,1,1,1,1,1,1,0,1,1]","mutagen_history":"[1,1,1,1,1,1,1,1,1,1,1,0,1,1]","location_rts":"[2304,268,81,134,183,359,299,351,458,446,700,792,425,466]","trial_type":"fractal-mutation","trial_index":97,"time_elapsed":2181401,"internal_node_id":"0.0-5.0-43.0"},{"group":"hexagon_tri","fractal_assignment":["../images/pnk_blu.png","../images/org_blu.png","../images/ylw_slt.png","../images/gry_blk.png","../images/cyn_red.png","../images/blu_wht.png"],"mutagen_generator_assignment":[0,1],"goal":3,"start":0,"action_noise":0.15,"location_history":"[0,5,4,2,1,5,0,1,5,0,1,3]","action_history":"[0,1,1,1,1,1,1,1,1,1,0]","mutagen_history":"[0,1,1,1,1,1,1,1,1,1,0]","location_rts":"[2173,236,284,328,308,348,401,289,378,636,916]","trial_type":"fractal-mutation","trial_index":98,"time_elapsed":2202386,"internal_node_id":"0.0-5.0-44.0"},{"group":"hexagon_tri","fractal_assignment":["../images/pnk_blu.png","../images/org_blu.png","../images/ylw_slt.png","../images/gry_blk.png","../images/cyn_red.png","../images/blu_wht.png"],"mutagen_generator_assignment":[0,1],"goal":0,"start":3,"action_noise":0.15,"location_history":"[3,4,2,3,4,2,1,5,4,2,3,4,2,1,5,0]","action_history":"[1,1,1,1,1,0,1,1,1,1,1,1,0,1,1]","mutagen_history":"[1,1,1,1,1,0,1,1,1,1,1,1,0,1,1]","location_rts":"[15504,580,774,436,391,491,346,392,526,313,395,361,489,553,539]","trial_type":"fractal-mutation","trial_index":99,"time_elapsed":2243734,"internal_node_id":"0.0-5.0-45.0"},{"group":"hexagon_tri","fractal_assignment":["../images/pnk_blu.png","../images/org_blu.png","../images/ylw_slt.png","../images/gry_blk.png","../images/cyn_red.png","../images/blu_wht.png"],"mutagen_generator_assignment":[0,1],"goal":4,"start":0,"action_noise":0.15,"location_history":"[0,5,4]","action_history":"[0,1]","mutagen_history":"[0,1]","location_rts":"[2325,354]","trial_type":"fractal-mutation","trial_index":100,"time_elapsed":2251938,"internal_node_id":"0.0-5.0-46.0"},{"group":"hexagon_tri","fractal_assignment":["../images/pnk_blu.png","../images/org_blu.png","../images/ylw_slt.png","../images/gry_blk.png","../images/cyn_red.png","../images/blu_wht.png"],"mutagen_generator_assignment":[0,1],"goal":5,"start":4,"action_noise":0.15,"location_history":"[4,2,1,5]","action_history":"[1,0,1]","mutagen_history":"[1,0,1]","location_rts":"[1770,576,370]","trial_type":"fractal-mutation","trial_index":101,"time_elapsed":2261293,"internal_node_id":"0.0-5.0-47.0"},{"group":"hexagon_tri","fractal_assignment":["../images/pnk_blu.png","../images/org_blu.png","../images/ylw_slt.png","../images/gry_blk.png","../images/cyn_red.png","../images/blu_wht.png"],"mutagen_generator_assignment":[0,1],"goal":2,"start":5,"action_noise":0.15,"location_history":"[5,4,0,1,3,4,0,1,5,0,1,3,2]","action_history":"[0,0,0,1,1,1,1,1,1,1,0,0]","mutagen_history":"[0,0,0,1,1,1,1,1,1,1,0,0]","location_rts":"[2136,917,820,910,491,319,348,372,343,348,459,593]","trial_type":"fractal-mutation","trial_index":102,"time_elapsed":2285248,"internal_node_id":"0.0-5.0-48.0"},{"group":"hexagon_tri","fractal_assignment":["../images/pnk_blu.png","../images/org_blu.png","../images/ylw_slt.png","../images/gry_blk.png","../images/cyn_red.png","../images/blu_wht.png"],"mutagen_generator_assignment":[0,1],"goal":1,"start":2,"action_noise":0.15,"location_history":"[2,3,4,0,1]","action_history":"[1,1,1,1]","mutagen_history":"[1,1,1,1]","location_rts":"[2784,406,456,320]","trial_type":"fractal-mutation","trial_index":103,"time_elapsed":2296768,"internal_node_id":"0.0-5.0-49.0"},{"view_history":"[{\"page_index\":0,\"viewing_time\":2408}]","rt":2409,"trial_type":"instructions","trial_index":104,"time_elapsed":2300178,"internal_node_id":"0.0-6.0"},{"rt":15117,"responses":"{\"Q0\":\"how you associate color and learn\"}","trial_type":"survey-text","trial_index":105,"time_elapsed":2316300,"internal_node_id":"0.0-7.0-0.0"},{"rt":15156,"responses":"{\"Q0\":\"how you associate shapes and colors and learn\"}","trial_type":"survey-text","trial_index":106,"time_elapsed":2332457,"internal_node_id":"0.0-7.0-1.0"},{"rt":12732,"responses":"{\"Q0\":\"<img src='../images/diagrams/hexagon_tri.png'>\"}","trial_type":"survey-multi-choice","trial_index":107,"time_elapsed":2346227,"internal_node_id":"0.0-7.0-2.0"},{"rt":28270,"assignments":["../images/pnk_blu.png","../images/org_blu.png","../images/cyn_red.png","../images/blu_wht.png","../images/gry_blk.png","../images/ylw_slt.png"],"trial_type":"drag-drop-on-image","trial_index":108,"time_elapsed":2375499,"internal_node_id":"0.0-7.0-3.0"},{"rt":4191,"responses":"{\"Q0\":\"0\"}","trial_type":"survey-likert","trial_index":109,"time_elapsed":2380691,"internal_node_id":"0.0-7.0-4.0"},{"rt":11125,"responses":"{\"Q0\":\"none\"}","trial_type":"survey-text","trial_index":110,"time_elapsed":2392817,"internal_node_id":"0.0-7.0-5.0"},{"rt":5293,"responses":"{\"Q0\":\"No\"}","trial_type":"survey-multi-choice","trial_index":111,"time_elapsed":2399115,"internal_node_id":"0.0-7.0-6.0"},{"rt":4986,"responses":"{\"Q0\":\"Did not notice\"}","trial_type":"survey-multi-choice","trial_index":112,"time_elapsed":2405106,"internal_node_id":"0.0-7.0-7.0"},{"rt":7030,"responses":"{\"Q0\":\"\"}","trial_type":"survey-text","trial_index":113,"time_elapsed":2413137,"internal_node_id":"0.0-7.0-8.0"},{"rt":4694,"responses":"{\"Q0\":\"2\"}","trial_type":"survey-likert","trial_index":114,"time_elapsed":2418833,"internal_node_id":"0.0-7.0-9.0"},{"rt":12149,"responses":"{\"Q0\":\"Different structure\"}","trial_type":"survey-multi-choice","trial_index":115,"time_elapsed":2431986,"internal_node_id":"0.0-7.0-10.0"},{"rt":25411,"responses":"{\"Q0\":\"left (black) door = ray, right (white) door = acid\",\"Q1\":\"Moderately confident\"}","trial_type":"survey-multi-choice","trial_index":116,"time_elapsed":2458403,"internal_node_id":"0.0-7.0-11.0"},{"rt":9238,"responses":"{\"Q0\":\"35-45\",\"Q1\":\"Bachelor's degree\",\"Q2\":\"Female\",\"Q3\":\"White\"}","trial_type":"survey-multi-choice","trial_index":117,"time_elapsed":2468683,"internal_node_id":"0.0-8.0"},{"rt":7292,"responses":"{\"Q0\":\"lot of fun thank you\"}","trial_type":"survey-text","trial_index":118,"time_elapsed":2476978,"internal_node_id":"0.0-9.0"}]