[{"view_history":"[{\"page_index\":0,\"viewing_time\":2765},{\"page_index\":1,\"viewing_time\":17117}]","rt":19883,"trial_type":"instructions","trial_index":0,"time_elapsed":19884,"internal_node_id":"0.0-0.0"},{"view_history":"[{\"page_index\":0,\"viewing_time\":2347},{\"page_index\":1,\"viewing_time\":14998}]","rt":17346,"trial_type":"instructions","trial_index":1,"time_elapsed":38232,"internal_node_id":"0.0-1.0"},{"group":"hexagon_bi","room_assignment":["purple","blue","green","red","grey","yellow"],"door_color_assignment":["white","black"],"door_generator_assignment":[1,0],"goal":2,"start":1,"action_noise":0.15,"location_history":"[1,2]","action_history":"[0]","door_history":"[1]","location_rts":"[1985]","trial_type":"two-door-navigation","trial_index":2,"time_elapsed":44753,"internal_node_id":"0.0-2.0-0.0"},{"group":"hexagon_bi","room_assignment":["purple","blue","green","red","grey","yellow"],"door_color_assignment":["white","black"],"door_generator_assignment":[1,0],"goal":0,"start":2,"action_noise":0.15,"location_history":"[2,1,2,3,4,3,2,3,2,3,4,3,4,3,2,1,0]","action_history":"[0,1,1,0,0,1,0,1,1,0,1,0,0,1,0,1]","door_history":"[1,0,0,1,1,0,1,0,0,1,0,1,1,0,1,0]","location_rts":"[3082,1497,1309,1523,1146,891,1363,894,259,1141,1410,1001,1164,965,4386,1255]","trial_type":"two-door-navigation","trial_index":3,"time_elapsed":87867,"internal_node_id":"0.0-2.0-1.0"},{"group":"hexagon_bi","room_assignment":["purple","blue","green","red","grey","yellow"],"door_color_assignment":["white","black"],"door_generator_assignment":[1,0],"goal":5,"start":0,"action_noise":0.15,"location_history":"[0,1,2,1,0,5]","action_history":"[1,0,0,1,0]","door_history":"[0,1,1,0,1]","location_rts":"[1846,2232,1334,496,461]","trial_type":"two-door-navigation","trial_index":4,"time_elapsed":102844,"internal_node_id":"0.0-2.0-2.0"},{"group":"hexagon_bi","room_assignment":["purple","blue","green","red","grey","yellow"],"door_color_assignment":["white","black"],"door_generator_assignment":[1,0],"goal":1,"start":5,"action_noise":0.15,"location_history":"[5,0,5,0,5,0,5,0,1]","action_history":"[0,0,0,1,0,0,0,1]","door_history":"[1,1,1,0,1,1,1,0]","location_rts":"[1823,883,849,308,1803,366,537,724]","trial_type":"two-door-navigation","trial_index":5,"time_elapsed":121786,"internal_node_id":"0.0-2.0-3.0"},{"group":"hexagon_bi","room_assignment":["purple","blue","green","red","grey","yellow"],"door_color_assignment":["white","black"],"door_generator_assignment":[1,0],"goal":3,"start":1,"action_noise":0.15,"location_history":"[1,0,5,0,5,4,3]","action_history":"[1,0,0,0,1,0]","door_history":"[0,1,1,1,0,1]","location_rts":"[1499,1358,742,1598,261,1356]","trial_type":"two-door-navigation","trial_index":6,"time_elapsed":138208,"internal_node_id":"0.0-2.0-4.0"},{"group":"hexagon_bi","room_assignment":["purple","blue","green","red","grey","yellow"],"door_color_assignment":["white","black"],"door_generator_assignment":[1,0],"goal":5,"start":3,"action_noise":0.15,"location_history":"[3,4,5]","action_history":"[0,1]","door_history":"[1,0]","location_rts":"[3263,451]","trial_type":"two-door-navigation","trial_index":7,"time_elapsed":147463,"internal_node_id":"0.0-2.0-5.0"},{"group":"hexagon_bi","room_assignment":["purple","blue","green","red","grey","yellow"],"door_color_assignment":["white","black"],"door_generator_assignment":[1,0],"goal":4,"start":5,"action_noise":0.15,"location_history":"[5,0,1,0,5,0,1,0,1,0,5,4]","action_history":"[1,1,0,0,0,0,1,1,1,0,1]","door_history":"[0,0,1,1,1,1,0,0,0,1,0]","location_rts":"[1342,1899,272,682,499,1102,749,411,354,520,1640]","trial_type":"two-door-navigation","trial_index":8,"time_elapsed":171634,"internal_node_id":"0.0-2.0-6.0"},{"group":"hexagon_bi","room_assignment":["purple","blue","green","red","grey","yellow"],"door_color_assignment":["white","black"],"door_generator_assignment":[1,0],"goal":0,"start":4,"action_noise":0.15,"location_history":"[4,5,0]","action_history":"[1,0]","door_history":"[0,1]","location_rts":"[2586,1082]","trial_type":"two-door-navigation","trial_index":9,"time_elapsed":180845,"internal_node_id":"0.0-2.0-7.0"},{"group":"hexagon_bi","room_assignment":["purple","blue","green","red","grey","yellow"],"door_color_assignment":["white","black"],"door_generator_assignment":[1,0],"goal":2,"start":0,"action_noise":0.15,"location_history":"[0,1,0,5,0,1,0,1,0,1,2]","action_history":"[1,0,0,0,1,1,1,1,1,0]","door_history":"[0,1,1,1,0,0,0,0,0,1]","location_rts":"[4268,1304,1472,1834,524,723,1094,390,625,262]","trial_type":"two-door-navigation","trial_index":10,"time_elapsed":207026,"internal_node_id":"0.0-2.0-8.0"},{"group":"hexagon_bi","room_assignment":["purple","blue","green","red","grey","yellow"],"door_color_assignment":["white","black"],"door_generator_assignment":[1,0],"goal":4,"start":2,"action_noise":0.15,"location_history":"[2,3,4]","action_history":"[1,0]","door_history":"[0,1]","location_rts":"[2046,1767]","trial_type":"two-door-navigation","trial_index":11,"time_elapsed":216379,"internal_node_id":"0.0-2.0-9.0"},{"group":"hexagon_bi","room_assignment":["purple","blue","green","red","grey","yellow"],"door_color_assignment":["white","black"],"door_generator_assignment":[1,0],"goal":2,"start":4,"action_noise":0.15,"location_history":"[4,3,4,3,2]","action_history":"[0,0,0,1]","door_history":"[1,1,1,0]","location_rts":"[2010,719,855,324]","trial_type":"two-door-navigation","trial_index":12,"time_elapsed":227866,"internal_node_id":"0.0-2.0-10.0"},{"group":"hexagon_bi","room_assignment":["purple","blue","green","red","grey","yellow"],"door_color_assignment":["white","black"],"door_generator_assignment":[1,0],"goal":3,"start":2,"action_noise":0.15,"location_history":"[2,3]","action_history":"[1]","door_history":"[0]","location_rts":"[1643]","trial_type":"two-door-navigation","trial_index":13,"time_elapsed":234035,"internal_node_id":"0.0-2.0-11.0"},{"group":"hexagon_bi","room_assignment":["purple","blue","green","red","grey","yellow"],"door_color_assignment":["white","black"],"door_generator_assignment":[1,0],"goal":0,"start":3,"action_noise":0.15,"location_history":"[3,4,3,2,1,0]","action_history":"[0,0,1,0,1]","door_history":"[1,1,0,1,0]","location_rts":"[2552,924,813,782,1539]","trial_type":"two-door-navigation","trial_index":14,"time_elapsed":249239,"internal_node_id":"0.0-2.0-12.0"},{"group":"hexagon_bi","room_assignment":["purple","blue","green","red","grey","yellow"],"door_color_assignment":["white","black"],"door_generator_assignment":[1,0],"goal":5,"start":0,"action_noise":0.15,"location_history":"[0,1,0,5]","action_history":"[1,1,0]","door_history":"[0,0,1]","location_rts":"[1534,998,345]","trial_type":"two-door-navigation","trial_index":15,"time_elapsed":258674,"internal_node_id":"0.0-2.0-13.0"},{"group":"hexagon_bi","room_assignment":["purple","blue","green","red","grey","yellow"],"door_color_assignment":["white","black"],"door_generator_assignment":[1,0],"goal":1,"start":5,"action_noise":0.15,"location_history":"[5,0,1]","action_history":"[0,1]","door_history":"[1,0]","location_rts":"[2042,800]","trial_type":"two-door-navigation","trial_index":16,"time_elapsed":267055,"internal_node_id":"0.0-2.0-14.0"},{"group":"hexagon_bi","room_assignment":["purple","blue","green","red","grey","yellow"],"door_color_assignment":["white","black"],"door_generator_assignment":[1,0],"goal":5,"start":1,"action_noise":0.15,"location_history":"[1,0,1,0,1,0,1,2,1,0,1,0,1,2,1,2,1,0,1,0,5]","action_history":"[1,0,0,1,1,0,0,0,1,1,1,1,0,0,0,0,1,1,1,0]","door_history":"[0,1,1,0,0,1,1,1,0,0,0,0,1,1,1,1,0,0,0,1]","location_rts":"[1749,413,1149,957,444,863,857,1650,681,968,785,706,458,1767,3120,738,100,1114,811,493]","trial_type":"two-door-navigation","trial_index":17,"time_elapsed":310765,"internal_node_id":"0.0-2.0-15.0"},{"group":"hexagon_bi","room_assignment":["purple","blue","green","red","grey","yellow"],"door_color_assignment":["white","black"],"door_generator_assignment":[1,0],"goal":3,"start":5,"action_noise":0.15,"location_history":"[5,4,3]","action_history":"[1,0]","door_history":"[0,1]","location_rts":"[2568,766]","trial_type":"two-door-navigation","trial_index":18,"time_elapsed":319638,"internal_node_id":"0.0-2.0-16.0"},{"group":"hexagon_bi","room_assignment":["purple","blue","green","red","grey","yellow"],"door_color_assignment":["white","black"],"door_generator_assignment":[1,0],"goal":2,"start":3,"action_noise":0.15,"location_history":"[3,4,3,2]","action_history":"[0,0,1]","door_history":"[1,1,0]","location_rts":"[2413,1052,379]","trial_type":"two-door-navigation","trial_index":19,"time_elapsed":330040,"internal_node_id":"0.0-2.0-17.0"},{"group":"hexagon_bi","room_assignment":["purple","blue","green","red","grey","yellow"],"door_color_assignment":["white","black"],"door_generator_assignment":[1,0],"goal":1,"start":2,"action_noise":0.15,"location_history":"[2,1]","action_history":"[0]","door_history":"[1]","location_rts":"[2120]","trial_type":"two-door-navigation","trial_index":20,"time_elapsed":336681,"internal_node_id":"0.0-2.0-18.0"},{"group":"hexagon_bi","room_assignment":["purple","blue","green","red","grey","yellow"],"door_color_assignment":["white","black"],"door_generator_assignment":[1,0],"goal":4,"start":1,"action_noise":0.15,"location_history":"[1,0,1,2,3,2,3,2,1,2,1,0,5,4]","action_history":"[1,0,0,1,0,1,1,1,0,0,1,0,1]","door_history":"[0,1,1,0,1,0,0,0,1,1,0,1,0]","location_rts":"[3188,1406,934,1712,2188,1025,621,750,439,418,908,1859,2159]","trial_type":"two-door-navigation","trial_index":21,"time_elapsed":371039,"internal_node_id":"0.0-2.0-19.0"},{"group":"hexagon_bi","room_assignment":["purple","blue","green","red","grey","yellow"],"door_color_assignment":["white","black"],"door_generator_assignment":[1,0],"goal":0,"start":4,"action_noise":0.15,"location_history":"[4,3,4,5,4,5,4,5,0]","action_history":"[0,0,0,1,1,0,1,0]","door_history":"[1,1,1,0,0,1,0,1]","location_rts":"[3172,1136,832,849,1349,647,1568,440]","trial_type":"two-door-navigation","trial_index":22,"time_elapsed":392693,"internal_node_id":"0.0-2.0-20.0"},{"group":"hexagon_bi","room_assignment":["purple","blue","green","red","grey","yellow"],"door_color_assignment":["white","black"],"door_generator_assignment":[1,0],"goal":3,"start":0,"action_noise":0.15,"location_history":"[0,5,0,5,4,5,0,1,2,3]","action_history":"[0,0,0,0,1,0,1,0,1]","door_history":"[1,1,1,1,0,1,0,1,0]","location_rts":"[2208,676,317,650,322,1109,2099,809,1121]","trial_type":"two-door-navigation","trial_index":23,"time_elapsed":414659,"internal_node_id":"0.0-2.0-21.0"},{"group":"hexagon_bi","room_assignment":["purple","blue","green","red","grey","yellow"],"door_color_assignment":["white","black"],"door_generator_assignment":[1,0],"goal":1,"start":3,"action_noise":0.15,"location_history":"[3,2,1]","action_history":"[1,0]","door_history":"[0,1]","location_rts":"[2247,1409]","trial_type":"two-door-navigation","trial_index":24,"time_elapsed":423857,"internal_node_id":"0.0-2.0-22.0"},{"group":"hexagon_bi","room_assignment":["purple","blue","green","red","grey","yellow"],"door_color_assignment":["white","black"],"door_generator_assignment":[1,0],"goal":0,"start":1,"action_noise":0.15,"location_history":"[1,0]","action_history":"[1]","door_history":"[0]","location_rts":"[2858]","trial_type":"two-door-navigation","trial_index":25,"time_elapsed":431236,"internal_node_id":"0.0-2.0-23.0"},{"group":"hexagon_bi","room_assignment":["purple","blue","green","red","grey","yellow"],"door_color_assignment":["white","black"],"door_generator_assignment":[1,0],"goal":2,"start":0,"action_noise":0.15,"location_history":"[0,1,2]","action_history":"[1,0]","door_history":"[0,1]","location_rts":"[2939,556]","trial_type":"two-door-navigation","trial_index":26,"time_elapsed":440273,"internal_node_id":"0.0-2.0-24.0"},{"group":"hexagon_bi","room_assignment":["purple","blue","green","red","grey","yellow"],"door_color_assignment":["white","black"],"door_generator_assignment":[1,0],"goal":4,"start":2,"action_noise":0.15,"location_history":"[2,1,2,3,2,3,4]","action_history":"[1,1,1,1,1,0]","door_history":"[0,0,0,0,0,1]","location_rts":"[3428,1569,741,243,813,1168]","trial_type":"two-door-navigation","trial_index":27,"time_elapsed":457842,"internal_node_id":"0.0-2.0-25.0"},{"group":"hexagon_bi","room_assignment":["purple","blue","green","red","grey","yellow"],"door_color_assignment":["white","black"],"door_generator_assignment":[1,0],"goal":5,"start":4,"action_noise":0.15,"location_history":"[4,3,4,5]","action_history":"[0,0,1]","door_history":"[1,1,0]","location_rts":"[2262,975,373]","trial_type":"two-door-navigation","trial_index":28,"time_elapsed":468008,"internal_node_id":"0.0-2.0-26.0"},{"group":"hexagon_bi","room_assignment":["purple","blue","green","red","grey","yellow"],"door_color_assignment":["white","black"],"door_generator_assignment":[1,0],"goal":2,"start":5,"action_noise":0.15,"location_history":"[5,4,3,2]","action_history":"[0,0,0]","door_history":"[1,1,1]","location_rts":"[2821,733,1217]","trial_type":"two-door-navigation","trial_index":29,"time_elapsed":479341,"internal_node_id":"0.0-2.0-27.0"},{"group":"hexagon_bi","room_assignment":["purple","blue","green","red","grey","yellow"],"door_color_assignment":["white","black"],"door_generator_assignment":[1,0],"goal":3,"start":2,"action_noise":0.15,"location_history":"[2,3]","action_history":"[0]","door_history":"[1]","location_rts":"[1728]","trial_type":"two-door-navigation","trial_index":30,"time_elapsed":485591,"internal_node_id":"0.0-2.0-28.0"},{"group":"hexagon_bi","room_assignment":["purple","blue","green","red","grey","yellow"],"door_color_assignment":["white","black"],"door_generator_assignment":[1,0],"goal":1,"start":3,"action_noise":0.15,"location_history":"[3,4,3,4,3,2,3,2,3,2,1]","action_history":"[0,0,0,0,1,1,1,0,0,0]","door_history":"[1,1,1,1,0,0,0,1,1,1]","location_rts":"[2083,1165,265,424,53,1133,1077,329,769,297]","trial_type":"two-door-navigation","trial_index":31,"time_elapsed":506870,"internal_node_id":"0.0-2.0-29.0"},{"group":"hexagon_bi","room_assignment":["purple","blue","green","red","grey","yellow"],"door_color_assignment":["white","black"],"door_generator_assignment":[1,0],"goal":4,"start":1,"action_noise":0.15,"location_history":"[1,0,5,4]","action_history":"[1,0,1]","door_history":"[0,1,0]","location_rts":"[3686,1522,2036]","trial_type":"two-door-navigation","trial_index":32,"time_elapsed":520676,"internal_node_id":"0.0-2.0-30.0"},{"group":"hexagon_bi","room_assignment":["purple","blue","green","red","grey","yellow"],"door_color_assignment":["white","black"],"door_generator_assignment":[1,0],"goal":5,"start":4,"action_noise":0.15,"location_history":"[4,5]","action_history":"[1]","door_history":"[0]","location_rts":"[1650]","trial_type":"two-door-navigation","trial_index":33,"time_elapsed":526849,"internal_node_id":"0.0-2.0-31.0"},{"group":"hexagon_bi","room_assignment":["purple","blue","green","red","grey","yellow"],"door_color_assignment":["white","black"],"door_generator_assignment":[1,0],"goal":0,"start":5,"action_noise":0.15,"location_history":"[5,0]","action_history":"[1]","door_history":"[0]","location_rts":"[1639]","trial_type":"two-door-navigation","trial_index":34,"time_elapsed":533010,"internal_node_id":"0.0-2.0-32.0"},{"group":"hexagon_bi","room_assignment":["purple","blue","green","red","grey","yellow"],"door_color_assignment":["white","black"],"door_generator_assignment":[1,0],"goal":2,"start":0,"action_noise":0.15,"location_history":"[0,1,2]","action_history":"[0,0]","door_history":"[1,1]","location_rts":"[1619,2235]","trial_type":"two-door-navigation","trial_index":35,"time_elapsed":542399,"internal_node_id":"0.0-2.0-33.0"},{"group":"hexagon_bi","room_assignment":["purple","blue","green","red","grey","yellow"],"door_color_assignment":["white","black"],"door_generator_assignment":[1,0],"goal":0,"start":2,"action_noise":0.15,"location_history":"[2,1,0]","action_history":"[0,1]","door_history":"[1,0]","location_rts":"[2170,490]","trial_type":"two-door-navigation","trial_index":36,"time_elapsed":550600,"internal_node_id":"0.0-2.0-34.0"},{"group":"hexagon_bi","room_assignment":["purple","blue","green","red","grey","yellow"],"door_color_assignment":["white","black"],"door_generator_assignment":[1,0],"goal":5,"start":0,"action_noise":0.15,"location_history":"[0,1,2,3,2,3,4,3,2,3,2,3,4,3,4,3,4,3,2,1,0,5]","action_history":"[1,0,1,1,1,0,1,1,1,1,1,0,1,0,0,0,1,1,0,1,0]","door_history":"[0,1,0,0,0,1,0,0,0,0,0,1,0,1,1,1,0,0,1,0,1]","location_rts":"[2111,1013,711,5027,659,112,1971,1339,259,660,593,534,801,1641,342,745,812,1045,1095,1078,1120]","trial_type":"two-door-navigation","trial_index":37,"time_elapsed":599154,"internal_node_id":"0.0-2.0-35.0"},{"group":"hexagon_bi","room_assignment":["purple","blue","green","red","grey","yellow"],"door_color_assignment":["white","black"],"door_generator_assignment":[1,0],"goal":1,"start":5,"action_noise":0.15,"location_history":"[5,0,1]","action_history":"[0,1]","door_history":"[1,0]","location_rts":"[3079,2917]","trial_type":"two-door-navigation","trial_index":38,"time_elapsed":610692,"internal_node_id":"0.0-2.0-36.0"},{"group":"hexagon_bi","room_assignment":["purple","blue","green","red","grey","yellow"],"door_color_assignment":["white","black"],"door_generator_assignment":[1,0],"goal":4,"start":1,"action_noise":0.15,"location_history":"[1,0,1,0,1,2,1,2,3,2,3,2,3,4]","action_history":"[1,0,1,1,0,0,0,1,0,1,1,1,0]","door_history":"[0,1,0,0,1,1,1,0,1,0,0,0,1]","location_rts":"[4374,1546,2289,1147,1192,325,843,512,3065,1086,595,753,329]","trial_type":"two-door-navigation","trial_index":39,"time_elapsed":645484,"internal_node_id":"0.0-2.0-37.0"},{"group":"hexagon_bi","room_assignment":["purple","blue","green","red","grey","yellow"],"door_color_assignment":["white","black"],"door_generator_assignment":[1,0],"goal":3,"start":4,"action_noise":0.15,"location_history":"[4,5,4,3]","action_history":"[1,1,0]","door_history":"[0,0,1]","location_rts":"[2105,1925,355]","trial_type":"two-door-navigation","trial_index":40,"time_elapsed":656427,"internal_node_id":"0.0-2.0-38.0"},{"group":"hexagon_bi","room_assignment":["purple","blue","green","red","grey","yellow"],"door_color_assignment":["white","black"],"door_generator_assignment":[1,0],"goal":5,"start":3,"action_noise":0.15,"location_history":"[3,4,5]","action_history":"[0,1]","door_history":"[1,0]","location_rts":"[1881,401]","trial_type":"two-door-navigation","trial_index":41,"time_elapsed":664251,"internal_node_id":"0.0-2.0-39.0"},{"group":"hexagon_bi","room_assignment":["purple","blue","green","red","grey","yellow"],"door_color_assignment":["white","black"],"door_generator_assignment":[1,0],"goal":1,"start":5,"action_noise":0.15,"location_history":"[5,0,5,4,5,0,5,0,5,0,1]","action_history":"[0,1,1,1,0,0,0,1,0,0]","door_history":"[1,0,0,0,1,1,1,0,1,1]","location_rts":"[2962,798,744,529,791,352,697,843,1049,771]","trial_type":"two-door-navigation","trial_index":42,"time_elapsed":687473,"internal_node_id":"0.0-2.0-40.0"},{"group":"hexagon_bi","room_assignment":["purple","blue","green","red","grey","yellow"],"door_color_assignment":["white","black"],"door_generator_assignment":[1,0],"goal":2,"start":1,"action_noise":0.15,"location_history":"[1,0,5,0,5,0,1,2]","action_history":"[0,0,0,0,0,1,0]","door_history":"[1,1,1,1,1,0,1]","location_rts":"[3269,1187,1058,683,488,827,1388]","trial_type":"two-door-navigation","trial_index":43,"time_elapsed":707015,"internal_node_id":"0.0-2.0-41.0"},{"group":"hexagon_bi","room_assignment":["purple","blue","green","red","grey","yellow"],"door_color_assignment":["white","black"],"door_generator_assignment":[1,0],"goal":4,"start":2,"action_noise":0.15,"location_history":"[2,3,4]","action_history":"[1,0]","door_history":"[0,1]","location_rts":"[2686,1626]","trial_type":"two-door-navigation","trial_index":44,"time_elapsed":716875,"internal_node_id":"0.0-2.0-42.0"},{"group":"hexagon_bi","room_assignment":["purple","blue","green","red","grey","yellow"],"door_color_assignment":["white","black"],"door_generator_assignment":[1,0],"goal":0,"start":4,"action_noise":0.15,"location_history":"[4,3,2,1,2,1,0]","action_history":"[0,1,0,0,0,1]","door_history":"[1,0,1,1,1,0]","location_rts":"[2015,1166,964,725,531,294]","trial_type":"two-door-navigation","trial_index":45,"time_elapsed":732185,"internal_node_id":"0.0-2.0-43.0"},{"group":"hexagon_bi","room_assignment":["purple","blue","green","red","grey","yellow"],"door_color_assignment":["white","black"],"door_generator_assignment":[1,0],"goal":3,"start":0,"action_noise":0.15,"location_history":"[0,1,2,1,2,3]","action_history":"[1,0,0,0,1]","door_history":"[0,1,1,1,0]","location_rts":"[2153,1430,700,374,287]","trial_type":"two-door-navigation","trial_index":46,"time_elapsed":745730,"internal_node_id":"0.0-2.0-44.0"},{"group":"hexagon_bi","room_assignment":["purple","blue","green","red","grey","yellow"],"door_color_assignment":["white","black"],"door_generator_assignment":[1,0],"goal":0,"start":3,"action_noise":0.15,"location_history":"[3,4,3,4,3,4,5,0]","action_history":"[0,0,1,0,0,1,0]","door_history":"[1,1,0,1,1,0,1]","location_rts":"[1947,1295,312,1497,254,1490,408]","trial_type":"two-door-navigation","trial_index":47,"time_elapsed":763568,"internal_node_id":"0.0-2.0-45.0"},{"group":"hexagon_bi","room_assignment":["purple","blue","green","red","grey","yellow"],"door_color_assignment":["white","black"],"door_generator_assignment":[1,0],"goal":4,"start":0,"action_noise":0.15,"location_history":"[0,5,4]","action_history":"[0,1]","door_history":"[1,0]","location_rts":"[2761,304]","trial_type":"two-door-navigation","trial_index":48,"time_elapsed":772172,"internal_node_id":"0.0-2.0-46.0"},{"group":"hexagon_bi","room_assignment":["purple","blue","green","red","grey","yellow"],"door_color_assignment":["white","black"],"door_generator_assignment":[1,0],"goal":5,"start":4,"action_noise":0.15,"location_history":"[4,5]","action_history":"[1]","door_history":"[0]","location_rts":"[1408]","trial_type":"two-door-navigation","trial_index":49,"time_elapsed":778102,"internal_node_id":"0.0-2.0-47.0"},{"group":"hexagon_bi","room_assignment":["purple","blue","green","red","grey","yellow"],"door_color_assignment":["white","black"],"door_generator_assignment":[1,0],"goal":2,"start":5,"action_noise":0.15,"location_history":"[5,0,1,2]","action_history":"[0,1,0]","door_history":"[1,0,1]","location_rts":"[2159,625,1153]","trial_type":"two-door-navigation","trial_index":50,"time_elapsed":788598,"internal_node_id":"0.0-2.0-48.0"},{"group":"hexagon_bi","room_assignment":["purple","blue","green","red","grey","yellow"],"door_color_assignment":["white","black"],"door_generator_assignment":[1,0],"goal":1,"start":2,"action_noise":0.15,"location_history":"[2,1]","action_history":"[0]","door_history":"[1]","location_rts":"[1812]","trial_type":"two-door-navigation","trial_index":51,"time_elapsed":794932,"internal_node_id":"0.0-2.0-49.0"},{"view_history":"[{\"page_index\":0,\"viewing_time\":3543}]","rt":3543,"trial_type":"instructions","trial_index":52,"time_elapsed":799476,"internal_node_id":"0.0-3.0"},{"view_history":"[{\"page_index\":0,\"viewing_time\":2442},{\"page_index\":1,\"viewing_time\":1560}]","rt":4003,"trial_type":"instructions","trial_index":53,"time_elapsed":804480,"internal_node_id":"0.0-4.0"},{"group":"hexagon_tri","fractal_assignment":["../images/gry_blk.png","../images/blu_wht.png","../images/cyn_red.png","../images/org_blu.png","../images/pnk_blu.png","../images/ylw_slt.png"],"mutagen_generator_assignment":[0,1],"goal":2,"start":1,"action_noise":0.15,"location_history":"[1,3,4,2]","action_history":"[1,1,1]","mutagen_history":"[1,1,1]","location_rts":"[6317,648,583]","trial_type":"fractal-mutation","trial_index":54,"time_elapsed":818684,"internal_node_id":"0.0-5.0-0.0"},{"group":"hexagon_tri","fractal_assignment":["../images/gry_blk.png","../images/blu_wht.png","../images/cyn_red.png","../images/org_blu.png","../images/pnk_blu.png","../images/ylw_slt.png"],"mutagen_generator_assignment":[0,1],"goal":0,"start":2,"action_noise":0.15,"location_history":"[2,1,3,2,3,2,1,5,4,0]","action_history":"[0,0,0,1,0,0,1,0,0]","mutagen_history":"[0,0,0,1,0,0,1,0,0]","location_rts":"[1905,840,603,573,444,942,730,404,677]","trial_type":"fractal-mutation","trial_index":55,"time_elapsed":838611,"internal_node_id":"0.0-5.0-1.0"},{"group":"hexagon_tri","fractal_assignment":["../images/gry_blk.png","../images/blu_wht.png","../images/cyn_red.png","../images/org_blu.png","../images/pnk_blu.png","../images/ylw_slt.png"],"mutagen_generator_assignment":[0,1],"goal":5,"start":0,"action_noise":0.15,"location_history":"[0,1,5]","action_history":"[1,1]","mutagen_history":"[1,1]","location_rts":"[3779,639]","trial_type":"fractal-mutation","trial_index":56,"time_elapsed":848605,"internal_node_id":"0.0-5.0-2.0"},{"group":"hexagon_tri","fractal_assignment":["../images/gry_blk.png","../images/blu_wht.png","../images/cyn_red.png","../images/org_blu.png","../images/pnk_blu.png","../images/ylw_slt.png"],"mutagen_generator_assignment":[0,1],"goal":1,"start":5,"action_noise":0.15,"location_history":"[5,4,2,3,2,1]","action_history":"[0,0,1,0,0]","mutagen_history":"[0,0,1,0,0]","location_rts":"[2534,1214,611,761,686]","trial_type":"fractal-mutation","trial_index":57,"time_elapsed":863073,"internal_node_id":"0.0-5.0-3.0"},{"group":"hexagon_tri","fractal_assignment":["../images/gry_blk.png","../images/blu_wht.png","../images/cyn_red.png","../images/org_blu.png","../images/pnk_blu.png","../images/ylw_slt.png"],"mutagen_generator_assignment":[0,1],"goal":3,"start":1,"action_noise":0.15,"location_history":"[1,3]","action_history":"[0]","mutagen_history":"[0]","location_rts":"[1660]","trial_type":"fractal-mutation","trial_index":58,"time_elapsed":869273,"internal_node_id":"0.0-5.0-4.0"},{"group":"hexagon_tri","fractal_assignment":["../images/gry_blk.png","../images/blu_wht.png","../images/cyn_red.png","../images/org_blu.png","../images/pnk_blu.png","../images/ylw_slt.png"],"mutagen_generator_assignment":[0,1],"goal":5,"start":3,"action_noise":0.15,"location_history":"[3,2,1,5]","action_history":"[0,0,1]","mutagen_history":"[0,0,1]","location_rts":"[2090,866,635]","trial_type":"fractal-mutation","trial_index":59,"time_elapsed":879458,"internal_node_id":"0.0-5.0-5.0"},{"group":"hexagon_tri","fractal_assignment":["../images/gry_blk.png","../images/blu_wht.png","../images/cyn_red.png","../images/org_blu.png","../images/pnk_blu.png","../images/ylw_slt.png"],"mutagen_generator_assignment":[0,1],"goal":4,"start":5,"action_noise":0.15,"location_history":"[5,4]","action_history":"[0]","mutagen_history":"[0]","location_rts":"[3295]","trial_type":"fractal-mutation","trial_index":60,"time_elapsed":887283,"internal_node_id":"0.0-5.0-6.0"},{"group":"hexagon_tri","fractal_assignment":["../images/gry_blk.png","../images/blu_wht.png","../images/cyn_red.png","../images/org_blu.png","../images/pnk_blu.png","../images/ylw_slt.png"],"mutagen_generator_assignment":[0,1],"goal":0,"start":4,"action_noise":0.15,"location_history":"[4,2,1,3,4,2,1,3,4,0]","action_history":"[1,0,0,1,1,0,0,0,0]","mutagen_history":"[1,0,0,1,1,0,0,0,0]","location_rts":"[2674,1928,1002,835,559,445,615,361,474]","trial_type":"fractal-mutation","trial_index":61,"time_elapsed":908964,"internal_node_id":"0.0-5.0-7.0"},{"group":"hexagon_tri","fractal_assignment":["../images/gry_blk.png","../images/blu_wht.png","../images/cyn_red.png","../images/org_blu.png","../images/pnk_blu.png","../images/ylw_slt.png"],"mutagen_generator_assignment":[0,1],"goal":2,"start":0,"action_noise":0.15,"location_history":"[0,5,0,1,5,0,1,3,4,2]","action_history":"[1,1,1,1,1,1,0,1,1]","mutagen_history":"[1,1,1,1,1,1,0,1,1]","location_rts":"[2444,293,786,967,510,1026,329,495,768]","trial_type":"fractal-mutation","trial_index":62,"time_elapsed":929416,"internal_node_id":"0.0-5.0-8.0"},{"group":"hexagon_tri","fractal_assignment":["../images/gry_blk.png","../images/blu_wht.png","../images/cyn_red.png","../images/org_blu.png","../images/pnk_blu.png","../images/ylw_slt.png"],"mutagen_generator_assignment":[0,1],"goal":4,"start":2,"action_noise":0.15,"location_history":"[2,1,5,4]","action_history":"[0,1,0]","mutagen_history":"[0,1,0]","location_rts":"[2429,1056,347]","trial_type":"fractal-mutation","trial_index":63,"time_elapsed":939845,"internal_node_id":"0.0-5.0-9.0"},{"group":"hexagon_tri","fractal_assignment":["../images/gry_blk.png","../images/blu_wht.png","../images/cyn_red.png","../images/org_blu.png","../images/pnk_blu.png","../images/ylw_slt.png"],"mutagen_generator_assignment":[0,1],"goal":2,"start":4,"action_noise":0.15,"location_history":"[4,2]","action_history":"[1]","mutagen_history":"[1]","location_rts":"[1488]","trial_type":"fractal-mutation","trial_index":64,"time_elapsed":945879,"internal_node_id":"0.0-5.0-10.0"},{"group":"hexagon_tri","fractal_assignment":["../images/gry_blk.png","../images/blu_wht.png","../images/cyn_red.png","../images/org_blu.png","../images/pnk_blu.png","../images/ylw_slt.png"],"mutagen_generator_assignment":[0,1],"goal":3,"start":2,"action_noise":0.15,"location_history":"[2,1,5,4,0,1,3]","action_history":"[0,1,0,0,1,0]","mutagen_history":"[0,1,0,0,1,0]","location_rts":"[1509,1099,268,648,1011,283]","trial_type":"fractal-mutation","trial_index":65,"time_elapsed":960428,"internal_node_id":"0.0-5.0-11.0"},{"group":"hexagon_tri","fractal_assignment":["../images/gry_blk.png","../images/blu_wht.png","../images/cyn_red.png","../images/org_blu.png","../images/pnk_blu.png","../images/ylw_slt.png"],"mutagen_generator_assignment":[0,1],"goal":0,"start":3,"action_noise":0.15,"location_history":"[3,2,1,3,4,0]","action_history":"[0,0,0,0,0]","mutagen_history":"[0,0,0,0,0]","location_rts":"[2152,477,473,492,538]","trial_type":"fractal-mutation","trial_index":66,"time_elapsed":973225,"internal_node_id":"0.0-5.0-12.0"},{"group":"hexagon_tri","fractal_assignment":["../images/gry_blk.png","../images/blu_wht.png","../images/cyn_red.png","../images/org_blu.png","../images/pnk_blu.png","../images/ylw_slt.png"],"mutagen_generator_assignment":[0,1],"goal":5,"start":0,"action_noise":0.15,"location_history":"[0,1,5]","action_history":"[1,1]","mutagen_history":"[1,1]","location_rts":"[1301,398]","trial_type":"fractal-mutation","trial_index":67,"time_elapsed":980510,"internal_node_id":"0.0-5.0-13.0"},{"group":"hexagon_tri","fractal_assignment":["../images/gry_blk.png","../images/blu_wht.png","../images/cyn_red.png","../images/org_blu.png","../images/pnk_blu.png","../images/ylw_slt.png"],"mutagen_generator_assignment":[0,1],"goal":1,"start":5,"action_noise":0.15,"location_history":"[5,4,0,1]","action_history":"[0,0,1]","mutagen_history":"[0,0,1]","location_rts":"[1530,681,1147]","trial_type":"fractal-mutation","trial_index":68,"time_elapsed":990471,"internal_node_id":"0.0-5.0-14.0"},{"group":"hexagon_tri","fractal_assignment":["../images/gry_blk.png","../images/blu_wht.png","../images/cyn_red.png","../images/org_blu.png","../images/pnk_blu.png","../images/ylw_slt.png"],"mutagen_generator_assignment":[0,1],"goal":5,"start":1,"action_noise":0.15,"location_history":"[1,3,4,2,1,5]","action_history":"[1,1,1,0,1]","mutagen_history":"[1,1,1,0,1]","location_rts":"[2452,882,1264,642,602]","trial_type":"fractal-mutation","trial_index":69,"time_elapsed":1004999,"internal_node_id":"0.0-5.0-15.0"},{"group":"hexagon_tri","fractal_assignment":["../images/gry_blk.png","../images/blu_wht.png","../images/cyn_red.png","../images/org_blu.png","../images/pnk_blu.png","../images/ylw_slt.png"],"mutagen_generator_assignment":[0,1],"goal":3,"start":5,"action_noise":0.15,"location_history":"[5,0,5,4,0,5,4,2,1,3]","action_history":"[0,0,0,0,1,0,1,0,0]","mutagen_history":"[0,0,0,0,1,0,1,0,0]","location_rts":"[3260,739,1104,1572,737,253,907,429,547]","trial_type":"fractal-mutation","trial_index":70,"time_elapsed":1027332,"internal_node_id":"0.0-5.0-16.0"},{"group":"hexagon_tri","fractal_assignment":["../images/gry_blk.png","../images/blu_wht.png","../images/cyn_red.png","../images/org_blu.png","../images/pnk_blu.png","../images/ylw_slt.png"],"mutagen_generator_assignment":[0,1],"goal":2,"start":3,"action_noise":0.15,"location_history":"[3,4,2]","action_history":"[1,1]","mutagen_history":"[1,1]","location_rts":"[1825,794]","trial_type":"fractal-mutation","trial_index":71,"time_elapsed":1035533,"internal_node_id":"0.0-5.0-17.0"},{"group":"hexagon_tri","fractal_assignment":["../images/gry_blk.png","../images/blu_wht.png","../images/cyn_red.png","../images/org_blu.png","../images/pnk_blu.png","../images/ylw_slt.png"],"mutagen_generator_assignment":[0,1],"goal":1,"start":2,"action_noise":0.15,"location_history":"[2,3,4,0,1]","action_history":"[0,0,0,1]","mutagen_history":"[0,0,0,1]","location_rts":"[3322,471,2358,874]","trial_type":"fractal-mutation","trial_index":72,"time_elapsed":1050191,"internal_node_id":"0.0-5.0-18.0"},{"group":"hexagon_tri","fractal_assignment":["../images/gry_blk.png","../images/blu_wht.png","../images/cyn_red.png","../images/org_blu.png","../images/pnk_blu.png","../images/ylw_slt.png"],"mutagen_generator_assignment":[0,1],"goal":4,"start":1,"action_noise":0.15,"location_history":"[1,5,0,1,5,4]","action_history":"[1,1,1,1,0]","mutagen_history":"[1,1,1,1,0]","location_rts":"[2341,821,982,1001,344]","trial_type":"fractal-mutation","trial_index":73,"time_elapsed":1064375,"internal_node_id":"0.0-5.0-19.0"},{"group":"hexagon_tri","fractal_assignment":["../images/gry_blk.png","../images/blu_wht.png","../images/cyn_red.png","../images/org_blu.png","../images/pnk_blu.png","../images/ylw_slt.png"],"mutagen_generator_assignment":[0,1],"goal":0,"start":4,"action_noise":0.15,"location_history":"[4,0]","action_history":"[0]","mutagen_history":"[0]","location_rts":"[1514]","trial_type":"fractal-mutation","trial_index":74,"time_elapsed":1070420,"internal_node_id":"0.0-5.0-20.0"},{"group":"hexagon_tri","fractal_assignment":["../images/gry_blk.png","../images/blu_wht.png","../images/cyn_red.png","../images/org_blu.png","../images/pnk_blu.png","../images/ylw_slt.png"],"mutagen_generator_assignment":[0,1],"goal":3,"start":0,"action_noise":0.15,"location_history":"[0,5,0,1,3]","action_history":"[0,1,0,0]","mutagen_history":"[0,1,0,0]","location_rts":"[2358,893,749,714]","trial_type":"fractal-mutation","trial_index":75,"time_elapsed":1082766,"internal_node_id":"0.0-5.0-21.0"},{"group":"hexagon_tri","fractal_assignment":["../images/gry_blk.png","../images/blu_wht.png","../images/cyn_red.png","../images/org_blu.png","../images/pnk_blu.png","../images/ylw_slt.png"],"mutagen_generator_assignment":[0,1],"goal":1,"start":3,"action_noise":0.15,"location_history":"[3,2,1]","action_history":"[0,0]","mutagen_history":"[0,0]","location_rts":"[1806,789]","trial_type":"fractal-mutation","trial_index":76,"time_elapsed":1090917,"internal_node_id":"0.0-5.0-22.0"},{"group":"hexagon_tri","fractal_assignment":["../images/gry_blk.png","../images/blu_wht.png","../images/cyn_red.png","../images/org_blu.png","../images/pnk_blu.png","../images/ylw_slt.png"],"mutagen_generator_assignment":[0,1],"goal":0,"start":1,"action_noise":0.15,"location_history":"[1,3,4,0]","action_history":"[0,1,0]","mutagen_history":"[0,1,0]","location_rts":"[2316,286,508]","trial_type":"fractal-mutation","trial_index":77,"time_elapsed":1100632,"internal_node_id":"0.0-5.0-23.0"},{"group":"hexagon_tri","fractal_assignment":["../images/gry_blk.png","../images/blu_wht.png","../images/cyn_red.png","../images/org_blu.png","../images/pnk_blu.png","../images/ylw_slt.png"],"mutagen_generator_assignment":[0,1],"goal":2,"start":0,"action_noise":0.15,"location_history":"[0,1,5,4,2]","action_history":"[1,1,0,1]","mutagen_history":"[1,1,0,1]","location_rts":"[1410,551,464,519]","trial_type":"fractal-mutation","trial_index":78,"time_elapsed":1111226,"internal_node_id":"0.0-5.0-24.0"},{"group":"hexagon_tri","fractal_assignment":["../images/gry_blk.png","../images/blu_wht.png","../images/cyn_red.png","../images/org_blu.png","../images/pnk_blu.png","../images/ylw_slt.png"],"mutagen_generator_assignment":[0,1],"goal":4,"start":2,"action_noise":0.15,"location_history":"[2,1,5,4]","action_history":"[0,1,0]","mutagen_history":"[0,1,0]","location_rts":"[1810,1179,447]","trial_type":"fractal-mutation","trial_index":79,"time_elapsed":1121261,"internal_node_id":"0.0-5.0-25.0"},{"group":"hexagon_tri","fractal_assignment":["../images/gry_blk.png","../images/blu_wht.png","../images/cyn_red.png","../images/org_blu.png","../images/pnk_blu.png","../images/ylw_slt.png"],"mutagen_generator_assignment":[0,1],"goal":5,"start":4,"action_noise":0.15,"location_history":"[4,0,1,5]","action_history":"[0,1,1]","mutagen_history":"[0,1,1]","location_rts":"[2177,1260,457]","trial_type":"fractal-mutation","trial_index":80,"time_elapsed":1131765,"internal_node_id":"0.0-5.0-26.0"},{"group":"hexagon_tri","fractal_assignment":["../images/gry_blk.png","../images/blu_wht.png","../images/cyn_red.png","../images/org_blu.png","../images/pnk_blu.png","../images/ylw_slt.png"],"mutagen_generator_assignment":[0,1],"goal":2,"start":5,"action_noise":0.15,"location_history":"[5,0,1,5,4,2]","action_history":"[1,1,1,0,1]","mutagen_history":"[1,1,1,0,1]","location_rts":"[2094,809,311,203,405]","trial_type":"fractal-mutation","trial_index":81,"time_elapsed":1144273,"internal_node_id":"0.0-5.0-27.0"},{"group":"hexagon_tri","fractal_assignment":["../images/gry_blk.png","../images/blu_wht.png","../images/cyn_red.png","../images/org_blu.png","../images/pnk_blu.png","../images/ylw_slt.png"],"mutagen_generator_assignment":[0,1],"goal":3,"start":2,"action_noise":0.15,"location_history":"[2,3]","action_history":"[0]","mutagen_history":"[0]","location_rts":"[1218]","trial_type":"fractal-mutation","trial_index":82,"time_elapsed":1150021,"internal_node_id":"0.0-5.0-28.0"},{"group":"hexagon_tri","fractal_assignment":["../images/gry_blk.png","../images/blu_wht.png","../images/cyn_red.png","../images/org_blu.png","../images/pnk_blu.png","../images/ylw_slt.png"],"mutagen_generator_assignment":[0,1],"goal":1,"start":3,"action_noise":0.15,"location_history":"[3,4,0,1]","action_history":"[1,0,1]","mutagen_history":"[1,0,1]","location_rts":"[2547,1170,1375]","trial_type":"fractal-mutation","trial_index":83,"time_elapsed":1161720,"internal_node_id":"0.0-5.0-29.0"},{"group":"hexagon_tri","fractal_assignment":["../images/gry_blk.png","../images/blu_wht.png","../images/cyn_red.png","../images/org_blu.png","../images/pnk_blu.png","../images/ylw_slt.png"],"mutagen_generator_assignment":[0,1],"goal":4,"start":1,"action_noise":0.15,"location_history":"[1,5,4]","action_history":"[1,0]","mutagen_history":"[1,0]","location_rts":"[2803,637]","trial_type":"fractal-mutation","trial_index":84,"time_elapsed":1170737,"internal_node_id":"0.0-5.0-30.0"},{"group":"hexagon_tri","fractal_assignment":["../images/gry_blk.png","../images/blu_wht.png","../images/cyn_red.png","../images/org_blu.png","../images/pnk_blu.png","../images/ylw_slt.png"],"mutagen_generator_assignment":[0,1],"goal":5,"start":4,"action_noise":0.15,"location_history":"[4,0,1,5]","action_history":"[0,1,1]","mutagen_history":"[0,1,1]","location_rts":"[1977,867,252]","trial_type":"fractal-mutation","trial_index":85,"time_elapsed":1180438,"internal_node_id":"0.0-5.0-31.0"},{"group":"hexagon_tri","fractal_assignment":["../images/gry_blk.png","../images/blu_wht.png","../images/cyn_red.png","../images/org_blu.png","../images/pnk_blu.png","../images/ylw_slt.png"],"mutagen_generator_assignment":[0,1],"goal":0,"start":5,"action_noise":0.15,"location_history":"[5,4,2,1,5,4,0]","action_history":"[0,0,0,1,0,0]","mutagen_history":"[0,0,0,1,0,0]","location_rts":"[2149,561,881,1035,463,547]","trial_type":"fractal-mutation","trial_index":86,"time_elapsed":1195747,"internal_node_id":"0.0-5.0-32.0"},{"group":"hexagon_tri","fractal_assignment":["../images/gry_blk.png","../images/blu_wht.png","../images/cyn_red.png","../images/org_blu.png","../images/pnk_blu.png","../images/ylw_slt.png"],"mutagen_generator_assignment":[0,1],"goal":2,"start":0,"action_noise":0.15,"location_history":"[0,1,5,4,2]","action_history":"[1,1,0,1]","mutagen_history":"[1,1,0,1]","location_rts":"[2092,370,1457,681]","trial_type":"fractal-mutation","trial_index":87,"time_elapsed":1208003,"internal_node_id":"0.0-5.0-33.0"},{"group":"hexagon_tri","fractal_assignment":["../images/gry_blk.png","../images/blu_wht.png","../images/cyn_red.png","../images/org_blu.png","../images/pnk_blu.png","../images/ylw_slt.png"],"mutagen_generator_assignment":[0,1],"goal":0,"start":2,"action_noise":0.15,"location_history":"[2,1,3,4,0]","action_history":"[0,0,0,0]","mutagen_history":"[0,0,0,0]","location_rts":"[2581,1040,523,1168]","trial_type":"fractal-mutation","trial_index":88,"time_elapsed":1220930,"internal_node_id":"0.0-5.0-34.0"},{"group":"hexagon_tri","fractal_assignment":["../images/gry_blk.png","../images/blu_wht.png","../images/cyn_red.png","../images/org_blu.png","../images/pnk_blu.png","../images/ylw_slt.png"],"mutagen_generator_assignment":[0,1],"goal":5,"start":0,"action_noise":0.15,"location_history":"[0,1,5]","action_history":"[1,1]","mutagen_history":"[1,1]","location_rts":"[1430,428]","trial_type":"fractal-mutation","trial_index":89,"time_elapsed":1228368,"internal_node_id":"0.0-5.0-35.0"},{"group":"hexagon_tri","fractal_assignment":["../images/gry_blk.png","../images/blu_wht.png","../images/cyn_red.png","../images/org_blu.png","../images/pnk_blu.png","../images/ylw_slt.png"],"mutagen_generator_assignment":[0,1],"goal":1,"start":5,"action_noise":0.15,"location_history":"[5,4,0,1]","action_history":"[0,0,1]","mutagen_history":"[0,0,1]","location_rts":"[1667,1145,922]","trial_type":"fractal-mutation","trial_index":90,"time_elapsed":1238715,"internal_node_id":"0.0-5.0-36.0"},{"group":"hexagon_tri","fractal_assignment":["../images/gry_blk.png","../images/blu_wht.png","../images/cyn_red.png","../images/org_blu.png","../images/pnk_blu.png","../images/ylw_slt.png"],"mutagen_generator_assignment":[0,1],"goal":4,"start":1,"action_noise":0.15,"location_history":"[1,5,4]","action_history":"[1,0]","mutagen_history":"[1,0]","location_rts":"[3308,364]","trial_type":"fractal-mutation","trial_index":91,"time_elapsed":1247959,"internal_node_id":"0.0-5.0-37.0"},{"group":"hexagon_tri","fractal_assignment":["../images/gry_blk.png","../images/blu_wht.png","../images/cyn_red.png","../images/org_blu.png","../images/pnk_blu.png","../images/ylw_slt.png"],"mutagen_generator_assignment":[0,1],"goal":3,"start":4,"action_noise":0.15,"location_history":"[4,2,3]","action_history":"[0,0]","mutagen_history":"[0,0]","location_rts":"[1330,635]","trial_type":"fractal-mutation","trial_index":92,"time_elapsed":1255493,"internal_node_id":"0.0-5.0-38.0"},{"group":"hexagon_tri","fractal_assignment":["../images/gry_blk.png","../images/blu_wht.png","../images/cyn_red.png","../images/org_blu.png","../images/pnk_blu.png","../images/ylw_slt.png"],"mutagen_generator_assignment":[0,1],"goal":5,"start":3,"action_noise":0.15,"location_history":"[3,2,3,2,3,4,0,1,3,4,0,1,5]","action_history":"[0,0,0,1,0,0,1,1,1,0,1,1]","mutagen_history":"[0,0,0,1,0,0,1,1,1,0,1,1]","location_rts":"[3719,635,546,1135,448,1087,1225,336,1076,1172,897,422]","trial_type":"fractal-mutation","trial_index":93,"time_elapsed":1284085,"internal_node_id":"0.0-5.0-39.0"},{"group":"hexagon_tri","fractal_assignment":["../images/gry_blk.png","../images/blu_wht.png","../images/cyn_red.png","../images/org_blu.png","../images/pnk_blu.png","../images/ylw_slt.png"],"mutagen_generator_assignment":[0,1],"goal":1,"start":5,"action_noise":0.15,"location_history":"[5,4,0,1]","action_history":"[0,0,1]","mutagen_history":"[0,0,1]","location_rts":"[2693,699,294]","trial_type":"fractal-mutation","trial_index":94,"time_elapsed":1294384,"internal_node_id":"0.0-5.0-40.0"},{"group":"hexagon_tri","fractal_assignment":["../images/gry_blk.png","../images/blu_wht.png","../images/cyn_red.png","../images/org_blu.png","../images/pnk_blu.png","../images/ylw_slt.png"],"mutagen_generator_assignment":[0,1],"goal":2,"start":1,"action_noise":0.15,"location_history":"[1,5,4,2]","action_history":"[1,0,1]","mutagen_history":"[1,0,1]","location_rts":"[1595,504,283]","trial_type":"fractal-mutation","trial_index":95,"time_elapsed":1303393,"internal_node_id":"0.0-5.0-41.0"},{"group":"hexagon_tri","fractal_assignment":["../images/gry_blk.png","../images/blu_wht.png","../images/cyn_red.png","../images/org_blu.png","../images/pnk_blu.png","../images/ylw_slt.png"],"mutagen_generator_assignment":[0,1],"goal":4,"start":2,"action_noise":0.15,"location_history":"[2,1,3,2,3,4]","action_history":"[0,1,1,1,0]","mutagen_history":"[0,1,1,1,0]","location_rts":"[1261,1015,1086,1096,531]","trial_type":"fractal-mutation","trial_index":96,"time_elapsed":1317037,"internal_node_id":"0.0-5.0-42.0"},{"group":"hexagon_tri","fractal_assignment":["../images/gry_blk.png","../images/blu_wht.png","../images/cyn_red.png","../images/org_blu.png","../images/pnk_blu.png","../images/ylw_slt.png"],"mutagen_generator_assignment":[0,1],"goal":0,"start":4,"action_noise":0.15,"location_history":"[4,0]","action_history":"[0]","mutagen_history":"[0]","location_rts":"[3609]","trial_type":"fractal-mutation","trial_index":97,"time_elapsed":1325183,"internal_node_id":"0.0-5.0-43.0"},{"group":"hexagon_tri","fractal_assignment":["../images/gry_blk.png","../images/blu_wht.png","../images/cyn_red.png","../images/org_blu.png","../images/pnk_blu.png","../images/ylw_slt.png"],"mutagen_generator_assignment":[0,1],"goal":3,"start":0,"action_noise":0.15,"location_history":"[0,5,4,2,1,3]","action_history":"[0,0,1,0,0]","mutagen_history":"[0,0,1,0,0]","location_rts":"[3254,1107,1655,425,517]","trial_type":"fractal-mutation","trial_index":98,"time_elapsed":1340803,"internal_node_id":"0.0-5.0-44.0"},{"group":"hexagon_tri","fractal_assignment":["../images/gry_blk.png","../images/blu_wht.png","../images/cyn_red.png","../images/org_blu.png","../images/pnk_blu.png","../images/ylw_slt.png"],"mutagen_generator_assignment":[0,1],"goal":0,"start":3,"action_noise":0.15,"location_history":"[3,2,3,2,3,4,0]","action_history":"[0,1,0,1,1,0]","mutagen_history":"[0,1,0,1,1,0]","location_rts":"[1384,577,428,772,308,304]","trial_type":"fractal-mutation","trial_index":99,"time_elapsed":1354286,"internal_node_id":"0.0-5.0-45.0"},{"group":"hexagon_tri","fractal_assignment":["../images/gry_blk.png","../images/blu_wht.png","../images/cyn_red.png","../images/org_blu.png","../images/pnk_blu.png","../images/ylw_slt.png"],"mutagen_generator_assignment":[0,1],"goal":4,"start":0,"action_noise":0.15,"location_history":"[0,1,5,0,1,5,4]","action_history":"[1,1,0,1,1,0]","mutagen_history":"[1,1,0,1,1,0]","location_rts":"[3764,736,153,1237,453,278]","trial_type":"fractal-mutation","trial_index":100,"time_elapsed":1370625,"internal_node_id":"0.0-5.0-46.0"},{"group":"hexagon_tri","fractal_assignment":["../images/gry_blk.png","../images/blu_wht.png","../images/cyn_red.png","../images/org_blu.png","../images/pnk_blu.png","../images/ylw_slt.png"],"mutagen_generator_assignment":[0,1],"goal":5,"start":4,"action_noise":0.15,"location_history":"[4,0,1,5]","action_history":"[0,1,1]","mutagen_history":"[0,1,1]","location_rts":"[1907,970,455]","trial_type":"fractal-mutation","trial_index":101,"time_elapsed":1380564,"internal_node_id":"0.0-5.0-47.0"},{"group":"hexagon_tri","fractal_assignment":["../images/gry_blk.png","../images/blu_wht.png","../images/cyn_red.png","../images/org_blu.png","../images/pnk_blu.png","../images/ylw_slt.png"],"mutagen_generator_assignment":[0,1],"goal":2,"start":5,"action_noise":0.15,"location_history":"[5,4,2]","action_history":"[0,1]","mutagen_history":"[0,1]","location_rts":"[2932,1251]","trial_type":"fractal-mutation","trial_index":102,"time_elapsed":1390321,"internal_node_id":"0.0-5.0-48.0"},{"group":"hexagon_tri","fractal_assignment":["../images/gry_blk.png","../images/blu_wht.png","../images/cyn_red.png","../images/org_blu.png","../images/pnk_blu.png","../images/ylw_slt.png"],"mutagen_generator_assignment":[0,1],"goal":1,"start":2,"action_noise":0.15,"location_history":"[2,1]","action_history":"[0]","mutagen_history":"[0]","location_rts":"[1024]","trial_type":"fractal-mutation","trial_index":103,"time_elapsed":1395890,"internal_node_id":"0.0-5.0-49.0"},{"view_history":"[{\"page_index\":0,\"viewing_time\":3138}]","rt":3139,"trial_type":"instructions","trial_index":104,"time_elapsed":1400030,"internal_node_id":"0.0-6.0"},{"rt":89022,"responses":"{\"Q0\":\"How well I could remember the paths I needed to take to get from one room to another.\"}","trial_type":"survey-text","trial_index":105,"time_elapsed":1490061,"internal_node_id":"0.0-7.0-0.0"},{"rt":69159,"responses":"{\"Q0\":\"problem solving based on the patterns, and how to maneuver when the pattern changes\"}","trial_type":"survey-text","trial_index":106,"time_elapsed":1560224,"internal_node_id":"0.0-7.0-1.0"},{"rt":41712,"responses":"{\"Q0\":\"<img src='../images/diagrams/hexagon_bi.png'>\"}","trial_type":"survey-multi-choice","trial_index":107,"time_elapsed":1602946,"internal_node_id":"0.0-7.0-2.0"},{"rt":29947,"assignments":["../images/gry_blk.png","../images/blu_wht.png","../images/org_blu.png","../images/cyn_red.png","../images/pnk_blu.png","../images/ylw_slt.png"],"trial_type":"drag-drop-on-image","trial_index":108,"time_elapsed":1633898,"internal_node_id":"0.0-7.0-3.0"},{"rt":8063,"responses":"{\"Q0\":\"4\"}","trial_type":"survey-likert","trial_index":109,"time_elapsed":1642965,"internal_node_id":"0.0-7.0-4.0"},{"rt":71045,"responses":"{\"Q0\":\"There was a definite pattern to getting to the goal. I always went in or out of a particular door to get to a different color room. The same way, I always clicked gamma or acid with each fractal I saw. There was a definite pattern\"}","trial_type":"survey-text","trial_index":110,"time_elapsed":1715012,"internal_node_id":"0.0-7.0-5.0"},{"rt":7462,"responses":"{\"Q0\":\"Yes\"}","trial_type":"survey-multi-choice","trial_index":111,"time_elapsed":1723478,"internal_node_id":"0.0-7.0-6.0"},{"rt":7452,"responses":"{\"Q0\":\"During session 2\"}","trial_type":"survey-multi-choice","trial_index":112,"time_elapsed":1731936,"internal_node_id":"0.0-7.0-7.0"},{"rt":33529,"responses":"{\"Q0\":\"Both had a definite navigation pattern that was similar\"}","trial_type":"survey-text","trial_index":113,"time_elapsed":1766468,"internal_node_id":"0.0-7.0-8.0"},{"rt":8131,"responses":"{\"Q0\":\"3\"}","trial_type":"survey-likert","trial_index":114,"time_elapsed":1775603,"internal_node_id":"0.0-7.0-9.0"},{"rt":13837,"responses":"{\"Q0\":\"Same structure\"}","trial_type":"survey-multi-choice","trial_index":115,"time_elapsed":1790444,"internal_node_id":"0.0-7.0-10.0"},{"rt":55473,"responses":"{\"Q0\":\"left (white) door = acid, right (black) door = ray\",\"Q1\":\"Slightly confident\"}","trial_type":"survey-multi-choice","trial_index":116,"time_elapsed":1846928,"internal_node_id":"0.0-7.0-11.0"},{"rt":13014,"responses":"{\"Q0\":\"45-55\",\"Q1\":\"Bachelor's degree\",\"Q2\":\"Female\",\"Q3\":\"White\"}","trial_type":"survey-multi-choice","trial_index":117,"time_elapsed":1860966,"internal_node_id":"0.0-8.0"},{"rt":63070,"responses":"{\"Q0\":\"Truly one of the most fun AND the most challenging HITs I've ever done. I was on a determined path the whole time trying to figure out the pattern! Thank you for allowing me the opportunity to be a part of your research!\"}","trial_type":"survey-text","trial_index":118,"time_elapsed":1925039,"internal_node_id":"0.0-9.0"}]