[{"view_history":"[{\"page_index\":0,\"viewing_time\":3890},{\"page_index\":1,\"viewing_time\":52421}]","rt":56311,"trial_type":"instructions","trial_index":0,"time_elapsed":56311,"internal_node_id":"0.0-0.0"},{"view_history":"[{\"page_index\":0,\"viewing_time\":3916},{\"page_index\":1,\"viewing_time\":6023}]","rt":9940,"trial_type":"instructions","trial_index":1,"time_elapsed":67252,"internal_node_id":"0.0-1.0"},{"group":"hexagon_tri","room_assignment":["red","yellow","grey","green","purple","blue"],"door_color_assignment":["black","white"],"door_generator_assignment":[0,1],"goal":2,"start":1,"action_noise":0.15,"location_history":"[1,5,4,2]","action_history":"[1,0,1]","door_history":"[1,0,1]","location_rts":"[3033,876,358]","trial_type":"two-door-navigation","trial_index":2,"time_elapsed":78101,"internal_node_id":"0.0-2.0-0.0"},{"group":"hexagon_tri","room_assignment":["red","yellow","grey","green","purple","blue"],"door_color_assignment":["black","white"],"door_generator_assignment":[0,1],"goal":0,"start":2,"action_noise":0.15,"location_history":"[2,3,2,1,5,4,0]","action_history":"[0,1,1,1,0,0]","door_history":"[0,1,1,1,0,0]","location_rts":"[2674,658,632,2055,578,301]","trial_type":"two-door-navigation","trial_index":3,"time_elapsed":94621,"internal_node_id":"0.0-2.0-1.0"},{"group":"hexagon_tri","room_assignment":["red","yellow","grey","green","purple","blue"],"door_color_assignment":["black","white"],"door_generator_assignment":[0,1],"goal":5,"start":0,"action_noise":0.15,"location_history":"[0,1,5]","action_history":"[1,1]","door_history":"[1,1]","location_rts":"[3369,549]","trial_type":"two-door-navigation","trial_index":4,"time_elapsed":104088,"internal_node_id":"0.0-2.0-2.0"},{"group":"hexagon_tri","room_assignment":["red","yellow","grey","green","purple","blue"],"door_color_assignment":["black","white"],"door_generator_assignment":[0,1],"goal":1,"start":5,"action_noise":0.15,"location_history":"[5,0,5,4,2,3,4,2,3,2,1]","action_history":"[1,1,1,1,1,1,1,1,1,0]","door_history":"[1,1,1,1,1,1,1,1,1,0]","location_rts":"[2100,538,846,849,661,652,9777,647,739,686]","trial_type":"two-door-navigation","trial_index":5,"time_elapsed":135291,"internal_node_id":"0.0-2.0-3.0"},{"group":"hexagon_tri","room_assignment":["red","yellow","grey","green","purple","blue"],"door_color_assignment":["black","white"],"door_generator_assignment":[0,1],"goal":3,"start":1,"action_noise":0.15,"location_history":"[1,5,4,2,1,3]","action_history":"[1,0,1,0,0]","door_history":"[1,0,1,0,0]","location_rts":"[1839,1046,303,517,785]","trial_type":"two-door-navigation","trial_index":6,"time_elapsed":148378,"internal_node_id":"0.0-2.0-4.0"},{"group":"hexagon_tri","room_assignment":["red","yellow","grey","green","purple","blue"],"door_color_assignment":["black","white"],"door_generator_assignment":[0,1],"goal":5,"start":3,"action_noise":0.15,"location_history":"[3,2,3,4,0,5]","action_history":"[0,1,1,0,1]","door_history":"[0,1,1,0,1]","location_rts":"[3871,608,441,770,807]","trial_type":"two-door-navigation","trial_index":7,"time_elapsed":163473,"internal_node_id":"0.0-2.0-5.0"},{"group":"hexagon_tri","room_assignment":["red","yellow","grey","green","purple","blue"],"door_color_assignment":["black","white"],"door_generator_assignment":[0,1],"goal":4,"start":5,"action_noise":0.15,"location_history":"[5,4]","action_history":"[0]","door_history":"[0]","location_rts":"[9979]","trial_type":"two-door-navigation","trial_index":8,"time_elapsed":177976,"internal_node_id":"0.0-2.0-6.0"},{"group":"hexagon_tri","room_assignment":["red","yellow","grey","green","purple","blue"],"door_color_assignment":["black","white"],"door_generator_assignment":[0,1],"goal":0,"start":4,"action_noise":0.15,"location_history":"[4,0]","action_history":"[0]","door_history":"[0]","location_rts":"[4240]","trial_type":"two-door-navigation","trial_index":9,"time_elapsed":186738,"internal_node_id":"0.0-2.0-7.0"},{"group":"hexagon_tri","room_assignment":["red","yellow","grey","green","purple","blue"],"door_color_assignment":["black","white"],"door_generator_assignment":[0,1],"goal":2,"start":0,"action_noise":0.15,"location_history":"[0,1,5,4,0,5,4,0,1,5,0,1,5,4,2]","action_history":"[1,0,0,1,0,0,1,0,0,0,1,1,0,1]","door_history":"[1,0,0,1,0,0,1,0,0,0,1,1,0,1]","location_rts":"[2216,934,1038,396,885,706,550,743,477,711,980,586,674,371]","trial_type":"two-door-navigation","trial_index":10,"time_elapsed":215763,"internal_node_id":"0.0-2.0-8.0"},{"group":"hexagon_tri","room_assignment":["red","yellow","grey","green","purple","blue"],"door_color_assignment":["black","white"],"door_generator_assignment":[0,1],"goal":4,"start":2,"action_noise":0.15,"location_history":"[2,3,2,3,4]","action_history":"[1,0,1,1]","door_history":"[1,0,1,1]","location_rts":"[6252,1932,436,179]","trial_type":"two-door-navigation","trial_index":11,"time_elapsed":232147,"internal_node_id":"0.0-2.0-9.0"},{"group":"hexagon_tri","room_assignment":["red","yellow","grey","green","purple","blue"],"door_color_assignment":["black","white"],"door_generator_assignment":[0,1],"goal":2,"start":4,"action_noise":0.15,"location_history":"[4,0,1,3,2]","action_history":"[0,1,0,0]","door_history":"[0,1,0,0]","location_rts":"[1331,726,691,511]","trial_type":"two-door-navigation","trial_index":12,"time_elapsed":242982,"internal_node_id":"0.0-2.0-10.0"},{"group":"hexagon_tri","room_assignment":["red","yellow","grey","green","purple","blue"],"door_color_assignment":["black","white"],"door_generator_assignment":[0,1],"goal":3,"start":2,"action_noise":0.15,"location_history":"[2,3]","action_history":"[1]","door_history":"[1]","location_rts":"[2236]","trial_type":"two-door-navigation","trial_index":13,"time_elapsed":249745,"internal_node_id":"0.0-2.0-11.0"},{"group":"hexagon_tri","room_assignment":["red","yellow","grey","green","purple","blue"],"door_color_assignment":["black","white"],"door_generator_assignment":[0,1],"goal":0,"start":3,"action_noise":0.15,"location_history":"[3,4,0]","action_history":"[1,0]","door_history":"[1,0]","location_rts":"[1823,990]","trial_type":"two-door-navigation","trial_index":14,"time_elapsed":258093,"internal_node_id":"0.0-2.0-12.0"},{"group":"hexagon_tri","room_assignment":["red","yellow","grey","green","purple","blue"],"door_color_assignment":["black","white"],"door_generator_assignment":[0,1],"goal":5,"start":0,"action_noise":0.15,"location_history":"[0,5]","action_history":"[0]","door_history":"[0]","location_rts":"[1742]","trial_type":"two-door-navigation","trial_index":15,"time_elapsed":264356,"internal_node_id":"0.0-2.0-13.0"},{"group":"hexagon_tri","room_assignment":["red","yellow","grey","green","purple","blue"],"door_color_assignment":["black","white"],"door_generator_assignment":[0,1],"goal":1,"start":5,"action_noise":0.15,"location_history":"[5,0,5,4,0,1]","action_history":"[1,1,0,0,1]","door_history":"[1,1,0,0,1]","location_rts":"[10353,630,1522,534,1732]","trial_type":"two-door-navigation","trial_index":16,"time_elapsed":287724,"internal_node_id":"0.0-2.0-14.0"},{"group":"hexagon_tri","room_assignment":["red","yellow","grey","green","purple","blue"],"door_color_assignment":["black","white"],"door_generator_assignment":[0,1],"goal":5,"start":1,"action_noise":0.15,"location_history":"[1,5]","action_history":"[0]","door_history":"[0]","location_rts":"[3467]","trial_type":"two-door-navigation","trial_index":17,"time_elapsed":295715,"internal_node_id":"0.0-2.0-15.0"},{"group":"hexagon_tri","room_assignment":["red","yellow","grey","green","purple","blue"],"door_color_assignment":["black","white"],"door_generator_assignment":[0,1],"goal":3,"start":5,"action_noise":0.15,"location_history":"[5,0,1,3]","action_history":"[1,1,0]","door_history":"[1,1,0]","location_rts":"[1447,1060,1515]","trial_type":"two-door-navigation","trial_index":18,"time_elapsed":306289,"internal_node_id":"0.0-2.0-16.0"},{"group":"hexagon_tri","room_assignment":["red","yellow","grey","green","purple","blue"],"door_color_assignment":["black","white"],"door_generator_assignment":[0,1],"goal":2,"start":3,"action_noise":0.15,"location_history":"[3,4,0,5,4,0,5,4,2]","action_history":"[1,0,0,0,1,0,0,1]","door_history":"[1,0,0,0,1,0,0,1]","location_rts":"[2654,803,384,378,667,729,402,340]","trial_type":"two-door-navigation","trial_index":19,"time_elapsed":324303,"internal_node_id":"0.0-2.0-17.0"},{"group":"hexagon_tri","room_assignment":["red","yellow","grey","green","purple","blue"],"door_color_assignment":["black","white"],"door_generator_assignment":[0,1],"goal":1,"start":2,"action_noise":0.15,"location_history":"[2,3,4,0,1]","action_history":"[1,1,0,1]","door_history":"[1,1,0,1]","location_rts":"[1895,608,2354,248]","trial_type":"two-door-navigation","trial_index":20,"time_elapsed":336976,"internal_node_id":"0.0-2.0-18.0"},{"group":"hexagon_tri","room_assignment":["red","yellow","grey","green","purple","blue"],"door_color_assignment":["black","white"],"door_generator_assignment":[0,1],"goal":4,"start":1,"action_noise":0.15,"location_history":"[1,5,4]","action_history":"[0,0]","door_history":"[0,0]","location_rts":"[2030,9589]","trial_type":"two-door-navigation","trial_index":21,"time_elapsed":354139,"internal_node_id":"0.0-2.0-19.0"},{"group":"hexagon_tri","room_assignment":["red","yellow","grey","green","purple","blue"],"door_color_assignment":["black","white"],"door_generator_assignment":[0,1],"goal":0,"start":4,"action_noise":0.15,"location_history":"[4,0]","action_history":"[0]","door_history":"[0]","location_rts":"[6760]","trial_type":"two-door-navigation","trial_index":22,"time_elapsed":365416,"internal_node_id":"0.0-2.0-20.0"},{"group":"hexagon_tri","room_assignment":["red","yellow","grey","green","purple","blue"],"door_color_assignment":["black","white"],"door_generator_assignment":[0,1],"goal":3,"start":0,"action_noise":0.15,"location_history":"[0,5,0,1,3]","action_history":"[1,1,1,0]","door_history":"[1,1,1,0]","location_rts":"[1397,1192,676,869]","trial_type":"two-door-navigation","trial_index":23,"time_elapsed":377121,"internal_node_id":"0.0-2.0-21.0"},{"group":"hexagon_tri","room_assignment":["red","yellow","grey","green","purple","blue"],"door_color_assignment":["black","white"],"door_generator_assignment":[0,1],"goal":1,"start":3,"action_noise":0.15,"location_history":"[3,4,2,3,4,0,1]","action_history":"[1,0,1,1,0,1]","door_history":"[1,0,1,1,0,1]","location_rts":"[2783,1327,246,1026,507,356]","trial_type":"two-door-navigation","trial_index":24,"time_elapsed":392985,"internal_node_id":"0.0-2.0-22.0"},{"group":"hexagon_tri","room_assignment":["red","yellow","grey","green","purple","blue"],"door_color_assignment":["black","white"],"door_generator_assignment":[0,1],"goal":0,"start":1,"action_noise":0.15,"location_history":"[1,3,4,0]","action_history":"[0,1,0]","door_history":"[0,1,0]","location_rts":"[3566,1231,1178]","trial_type":"two-door-navigation","trial_index":25,"time_elapsed":405517,"internal_node_id":"0.0-2.0-23.0"},{"group":"hexagon_tri","room_assignment":["red","yellow","grey","green","purple","blue"],"door_color_assignment":["black","white"],"door_generator_assignment":[0,1],"goal":2,"start":0,"action_noise":0.15,"location_history":"[0,5,0,5,4,2]","action_history":"[1,0,0,0,1]","door_history":"[1,0,0,0,1]","location_rts":"[2984,1949,1223,357,506]","trial_type":"two-door-navigation","trial_index":26,"time_elapsed":421144,"internal_node_id":"0.0-2.0-24.0"},{"group":"hexagon_tri","room_assignment":["red","yellow","grey","green","purple","blue"],"door_color_assignment":["black","white"],"door_generator_assignment":[0,1],"goal":4,"start":2,"action_noise":0.15,"location_history":"[2,1,5,0,1,3,4]","action_history":"[0,1,0,0,0,1]","door_history":"[0,1,0,0,0,1]","location_rts":"[1655,665,842,1048,534,591]","trial_type":"two-door-navigation","trial_index":27,"time_elapsed":436086,"internal_node_id":"0.0-2.0-25.0"},{"group":"hexagon_tri","room_assignment":["red","yellow","grey","green","purple","blue"],"door_color_assignment":["black","white"],"door_generator_assignment":[0,1],"goal":5,"start":4,"action_noise":0.15,"location_history":"[4,0,5]","action_history":"[0,0]","door_history":"[0,0]","location_rts":"[2290,299]","trial_type":"two-door-navigation","trial_index":28,"time_elapsed":444222,"internal_node_id":"0.0-2.0-26.0"},{"group":"hexagon_tri","room_assignment":["red","yellow","grey","green","purple","blue"],"door_color_assignment":["black","white"],"door_generator_assignment":[0,1],"goal":2,"start":5,"action_noise":0.15,"location_history":"[5,4,0,5,4,2]","action_history":"[0,1,0,0,1]","door_history":"[0,1,0,0,1]","location_rts":"[7597,373,945,292,383]","trial_type":"two-door-navigation","trial_index":29,"time_elapsed":462399,"internal_node_id":"0.0-2.0-27.0"},{"group":"hexagon_tri","room_assignment":["red","yellow","grey","green","purple","blue"],"door_color_assignment":["black","white"],"door_generator_assignment":[0,1],"goal":3,"start":2,"action_noise":0.15,"location_history":"[2,1,3]","action_history":"[1,1]","door_history":"[1,1]","location_rts":"[2092,801]","trial_type":"two-door-navigation","trial_index":30,"time_elapsed":470838,"internal_node_id":"0.0-2.0-28.0"},{"group":"hexagon_tri","room_assignment":["red","yellow","grey","green","purple","blue"],"door_color_assignment":["black","white"],"door_generator_assignment":[0,1],"goal":1,"start":3,"action_noise":0.15,"location_history":"[3,4,0,5,0,5,0,1]","action_history":"[1,0,1,0,1,0,1]","door_history":"[1,0,1,0,1,0,1]","location_rts":"[2240,1686,293,1213,926,725,667]","trial_type":"two-door-navigation","trial_index":31,"time_elapsed":489219,"internal_node_id":"0.0-2.0-29.0"},{"group":"hexagon_tri","room_assignment":["red","yellow","grey","green","purple","blue"],"door_color_assignment":["black","white"],"door_generator_assignment":[0,1],"goal":4,"start":1,"action_noise":0.15,"location_history":"[1,5,4]","action_history":"[0,0]","door_history":"[0,0]","location_rts":"[1903,988]","trial_type":"two-door-navigation","trial_index":32,"time_elapsed":497646,"internal_node_id":"0.0-2.0-30.0"},{"group":"hexagon_tri","room_assignment":["red","yellow","grey","green","purple","blue"],"door_color_assignment":["black","white"],"door_generator_assignment":[0,1],"goal":5,"start":4,"action_noise":0.15,"location_history":"[4,0,1,5]","action_history":"[0,0,1]","door_history":"[0,0,1]","location_rts":"[2282,346,1479]","trial_type":"two-door-navigation","trial_index":33,"time_elapsed":508311,"internal_node_id":"0.0-2.0-31.0"},{"group":"hexagon_tri","room_assignment":["red","yellow","grey","green","purple","blue"],"door_color_assignment":["black","white"],"door_generator_assignment":[0,1],"goal":0,"start":5,"action_noise":0.15,"location_history":"[5,0]","action_history":"[0]","door_history":"[0]","location_rts":"[1832]","trial_type":"two-door-navigation","trial_index":34,"time_elapsed":514667,"internal_node_id":"0.0-2.0-32.0"},{"group":"hexagon_tri","room_assignment":["red","yellow","grey","green","purple","blue"],"door_color_assignment":["black","white"],"door_generator_assignment":[0,1],"goal":2,"start":0,"action_noise":0.15,"location_history":"[0,1,3,4,0,5,4,2]","action_history":"[1,0,0,1,0,0,1]","door_history":"[1,0,0,1,0,0,1]","location_rts":"[1887,610,1554,1179,1248,423,361]","trial_type":"two-door-navigation","trial_index":35,"time_elapsed":532558,"internal_node_id":"0.0-2.0-33.0"},{"group":"hexagon_tri","room_assignment":["red","yellow","grey","green","purple","blue"],"door_color_assignment":["black","white"],"door_generator_assignment":[0,1],"goal":0,"start":2,"action_noise":0.15,"location_history":"[2,1,3,4,0]","action_history":"[0,0,1,0]","door_history":"[0,0,1,0]","location_rts":"[1723,986,450,857]","trial_type":"two-door-navigation","trial_index":36,"time_elapsed":544154,"internal_node_id":"0.0-2.0-34.0"},{"group":"hexagon_tri","room_assignment":["red","yellow","grey","green","purple","blue"],"door_color_assignment":["black","white"],"door_generator_assignment":[0,1],"goal":5,"start":0,"action_noise":0.15,"location_history":"[0,1,3,4,0,5]","action_history":"[1,0,1,0,0]","door_history":"[1,0,1,0,0]","location_rts":"[2497,840,1090,2007,431]","trial_type":"two-door-navigation","trial_index":37,"time_elapsed":559627,"internal_node_id":"0.0-2.0-35.0"},{"group":"hexagon_tri","room_assignment":["red","yellow","grey","green","purple","blue"],"door_color_assignment":["black","white"],"door_generator_assignment":[0,1],"goal":1,"start":5,"action_noise":0.15,"location_history":"[5,0,5,4,0,1]","action_history":"[0,1,0,0,1]","door_history":"[0,1,0,0,1]","location_rts":"[2596,1161,683,686,304]","trial_type":"two-door-navigation","trial_index":38,"time_elapsed":573658,"internal_node_id":"0.0-2.0-36.0"},{"group":"hexagon_tri","room_assignment":["red","yellow","grey","green","purple","blue"],"door_color_assignment":["black","white"],"door_generator_assignment":[0,1],"goal":4,"start":1,"action_noise":0.15,"location_history":"[1,3,2,1,5,4]","action_history":"[0,0,0,1,0]","door_history":"[0,0,0,1,0]","location_rts":"[1701,523,1135,751,1233]","trial_type":"two-door-navigation","trial_index":39,"time_elapsed":587591,"internal_node_id":"0.0-2.0-37.0"},{"group":"hexagon_tri","room_assignment":["red","yellow","grey","green","purple","blue"],"door_color_assignment":["black","white"],"door_generator_assignment":[0,1],"goal":3,"start":4,"action_noise":0.15,"location_history":"[4,2,3]","action_history":"[1,1]","door_history":"[1,1]","location_rts":"[2303,757]","trial_type":"two-door-navigation","trial_index":40,"time_elapsed":596193,"internal_node_id":"0.0-2.0-38.0"},{"group":"hexagon_tri","room_assignment":["red","yellow","grey","green","purple","blue"],"door_color_assignment":["black","white"],"door_generator_assignment":[0,1],"goal":5,"start":3,"action_noise":0.15,"location_history":"[3,4,0,1,3,4,0,5]","action_history":"[1,0,0,1,1,0,0]","door_history":"[1,0,0,1,1,0,0]","location_rts":"[1858,2034,391,1213,944,918,316]","trial_type":"two-door-navigation","trial_index":41,"time_elapsed":614488,"internal_node_id":"0.0-2.0-39.0"},{"group":"hexagon_tri","room_assignment":["red","yellow","grey","green","purple","blue"],"door_color_assignment":["black","white"],"door_generator_assignment":[0,1],"goal":1,"start":5,"action_noise":0.15,"location_history":"[5,4,0,5,4,0,1]","action_history":"[0,0,1,0,0,1]","door_history":"[0,0,1,0,0,1]","location_rts":"[2054,391,349,1061,754,371]","trial_type":"two-door-navigation","trial_index":42,"time_elapsed":629079,"internal_node_id":"0.0-2.0-40.0"},{"group":"hexagon_tri","room_assignment":["red","yellow","grey","green","purple","blue"],"door_color_assignment":["black","white"],"door_generator_assignment":[0,1],"goal":2,"start":1,"action_noise":0.15,"location_history":"[1,5,4,2]","action_history":"[1,0,1]","door_history":"[1,0,1]","location_rts":"[1299,1251,386]","trial_type":"two-door-navigation","trial_index":43,"time_elapsed":638572,"internal_node_id":"0.0-2.0-41.0"},{"group":"hexagon_tri","room_assignment":["red","yellow","grey","green","purple","blue"],"door_color_assignment":["black","white"],"door_generator_assignment":[0,1],"goal":4,"start":2,"action_noise":0.15,"location_history":"[2,1,3,2,3,4]","action_history":"[0,0,0,1,1]","door_history":"[0,0,0,1,1]","location_rts":"[1759,1164,1070,875,672]","trial_type":"two-door-navigation","trial_index":44,"time_elapsed":652704,"internal_node_id":"0.0-2.0-42.0"},{"group":"hexagon_tri","room_assignment":["red","yellow","grey","green","purple","blue"],"door_color_assignment":["black","white"],"door_generator_assignment":[0,1],"goal":0,"start":4,"action_noise":0.15,"location_history":"[4,0]","action_history":"[0]","door_history":"[0]","location_rts":"[1889]","trial_type":"two-door-navigation","trial_index":45,"time_elapsed":659114,"internal_node_id":"0.0-2.0-43.0"},{"group":"hexagon_tri","room_assignment":["red","yellow","grey","green","purple","blue"],"door_color_assignment":["black","white"],"door_generator_assignment":[0,1],"goal":3,"start":0,"action_noise":0.15,"location_history":"[0,1,5,0,1,5,0,5,0,1,3]","action_history":"[1,1,1,1,1,1,1,1,1,0]","door_history":"[1,1,1,1,1,1,1,1,1,0]","location_rts":"[1640,1489,2109,1141,370,704,343,1057,988,587]","trial_type":"two-door-navigation","trial_index":46,"time_elapsed":683248,"internal_node_id":"0.0-2.0-44.0"},{"group":"hexagon_tri","room_assignment":["red","yellow","grey","green","purple","blue"],"door_color_assignment":["black","white"],"door_generator_assignment":[0,1],"goal":0,"start":3,"action_noise":0.15,"location_history":"[3,4,0]","action_history":"[1,0]","door_history":"[1,0]","location_rts":"[2366,1168]","trial_type":"two-door-navigation","trial_index":47,"time_elapsed":692327,"internal_node_id":"0.0-2.0-45.0"},{"group":"hexagon_tri","room_assignment":["red","yellow","grey","green","purple","blue"],"door_color_assignment":["black","white"],"door_generator_assignment":[0,1],"goal":4,"start":0,"action_noise":0.15,"location_history":"[0,5,4]","action_history":"[0,0]","door_history":"[0,0]","location_rts":"[1938,625]","trial_type":"two-door-navigation","trial_index":48,"time_elapsed":700433,"internal_node_id":"0.0-2.0-46.0"},{"group":"hexagon_tri","room_assignment":["red","yellow","grey","green","purple","blue"],"door_color_assignment":["black","white"],"door_generator_assignment":[0,1],"goal":5,"start":4,"action_noise":0.15,"location_history":"[4,2,3,2,3,2,3,4,0,5]","action_history":"[1,1,0,1,1,1,1,0,0]","door_history":"[1,1,0,1,1,1,1,0,0]","location_rts":"[1434,456,898,695,330,759,527,1608,310]","trial_type":"two-door-navigation","trial_index":49,"time_elapsed":720121,"internal_node_id":"0.0-2.0-47.0"},{"group":"hexagon_tri","room_assignment":["red","yellow","grey","green","purple","blue"],"door_color_assignment":["black","white"],"door_generator_assignment":[0,1],"goal":2,"start":5,"action_noise":0.15,"location_history":"[5,0,5,4,2]","action_history":"[0,0,0,1]","door_history":"[0,0,0,1]","location_rts":"[2997,1209,484,971]","trial_type":"two-door-navigation","trial_index":50,"time_elapsed":733360,"internal_node_id":"0.0-2.0-48.0"},{"group":"hexagon_tri","room_assignment":["red","yellow","grey","green","purple","blue"],"door_color_assignment":["black","white"],"door_generator_assignment":[0,1],"goal":1,"start":2,"action_noise":0.15,"location_history":"[2,1]","action_history":"[0]","door_history":"[0]","location_rts":"[1439]","trial_type":"two-door-navigation","trial_index":51,"time_elapsed":739317,"internal_node_id":"0.0-2.0-49.0"},{"view_history":"[{\"page_index\":0,\"viewing_time\":2319}]","rt":2321,"trial_type":"instructions","trial_index":52,"time_elapsed":742640,"internal_node_id":"0.0-3.0"},{"view_history":"[{\"page_index\":0,\"viewing_time\":2529},{\"page_index\":1,\"viewing_time\":8829}]","rt":11358,"trial_type":"instructions","trial_index":53,"time_elapsed":754999,"internal_node_id":"0.0-4.0"},{"group":"hexagon_bi","fractal_assignment":["../images/pnk_blu.png","../images/org_blu.png","../images/ylw_slt.png","../images/blu_wht.png","../images/cyn_red.png","../images/gry_blk.png"],"mutagen_generator_assignment":[1,0],"goal":2,"start":1,"action_noise":0.15,"location_history":"[1,2]","action_history":"[0]","mutagen_history":"[1]","location_rts":"[2139]","trial_type":"fractal-mutation","trial_index":54,"time_elapsed":761691,"internal_node_id":"0.0-5.0-0.0"},{"group":"hexagon_bi","fractal_assignment":["../images/pnk_blu.png","../images/org_blu.png","../images/ylw_slt.png","../images/blu_wht.png","../images/cyn_red.png","../images/gry_blk.png"],"mutagen_generator_assignment":[1,0],"goal":0,"start":2,"action_noise":0.15,"location_history":"[2,3,4,3,2,3,4,5,0]","action_history":"[1,0,0,1,1,0,1,0]","mutagen_history":"[0,1,1,0,0,1,0,1]","location_rts":"[1383,708,1721,998,511,441,414,400]","trial_type":"fractal-mutation","trial_index":55,"time_elapsed":779994,"internal_node_id":"0.0-5.0-1.0"},{"group":"hexagon_bi","fractal_assignment":["../images/pnk_blu.png","../images/org_blu.png","../images/ylw_slt.png","../images/blu_wht.png","../images/cyn_red.png","../images/gry_blk.png"],"mutagen_generator_assignment":[1,0],"goal":5,"start":0,"action_noise":0.15,"location_history":"[0,5]","action_history":"[0]","mutagen_history":"[1]","location_rts":"[4056]","trial_type":"fractal-mutation","trial_index":56,"time_elapsed":788585,"internal_node_id":"0.0-5.0-2.0"},{"group":"hexagon_bi","fractal_assignment":["../images/pnk_blu.png","../images/org_blu.png","../images/ylw_slt.png","../images/blu_wht.png","../images/cyn_red.png","../images/gry_blk.png"],"mutagen_generator_assignment":[1,0],"goal":1,"start":5,"action_noise":0.15,"location_history":"[5,4,3,4,3,4,5,0,1]","action_history":"[1,0,1,0,0,1,0,1]","mutagen_history":"[0,1,0,1,1,0,1,0]","location_rts":"[1256,383,833,490,560,918,1036,953]","trial_type":"fractal-mutation","trial_index":57,"time_elapsed":806738,"internal_node_id":"0.0-5.0-3.0"},{"group":"hexagon_bi","fractal_assignment":["../images/pnk_blu.png","../images/org_blu.png","../images/ylw_slt.png","../images/blu_wht.png","../images/cyn_red.png","../images/gry_blk.png"],"mutagen_generator_assignment":[1,0],"goal":3,"start":1,"action_noise":0.15,"location_history":"[1,2,1,0,5,4,3]","action_history":"[0,1,1,0,1,0]","mutagen_history":"[1,0,0,1,0,1]","location_rts":"[1871,719,967,1436,1184,434]","trial_type":"fractal-mutation","trial_index":58,"time_elapsed":823018,"internal_node_id":"0.0-5.0-4.0"},{"group":"hexagon_bi","fractal_assignment":["../images/pnk_blu.png","../images/org_blu.png","../images/ylw_slt.png","../images/blu_wht.png","../images/cyn_red.png","../images/gry_blk.png"],"mutagen_generator_assignment":[1,0],"goal":5,"start":3,"action_noise":0.15,"location_history":"[3,4,5]","action_history":"[0,1]","mutagen_history":"[1,0]","location_rts":"[1694,1022]","trial_type":"fractal-mutation","trial_index":59,"time_elapsed":831285,"internal_node_id":"0.0-5.0-5.0"},{"group":"hexagon_bi","fractal_assignment":["../images/pnk_blu.png","../images/org_blu.png","../images/ylw_slt.png","../images/blu_wht.png","../images/cyn_red.png","../images/gry_blk.png"],"mutagen_generator_assignment":[1,0],"goal":4,"start":5,"action_noise":0.15,"location_history":"[5,4]","action_history":"[1]","mutagen_history":"[0]","location_rts":"[1859]","trial_type":"fractal-mutation","trial_index":60,"time_elapsed":837681,"internal_node_id":"0.0-5.0-6.0"},{"group":"hexagon_bi","fractal_assignment":["../images/pnk_blu.png","../images/org_blu.png","../images/ylw_slt.png","../images/blu_wht.png","../images/cyn_red.png","../images/gry_blk.png"],"mutagen_generator_assignment":[1,0],"goal":0,"start":4,"action_noise":0.15,"location_history":"[4,5,4,3,4,5,0]","action_history":"[1,1,0,0,1,0]","mutagen_history":"[0,0,1,1,0,1]","location_rts":"[1945,343,233,1790,1145,226]","trial_type":"fractal-mutation","trial_index":61,"time_elapsed":853031,"internal_node_id":"0.0-5.0-7.0"},{"group":"hexagon_bi","fractal_assignment":["../images/pnk_blu.png","../images/org_blu.png","../images/ylw_slt.png","../images/blu_wht.png","../images/cyn_red.png","../images/gry_blk.png"],"mutagen_generator_assignment":[1,0],"goal":2,"start":0,"action_noise":0.15,"location_history":"[0,1,2]","action_history":"[1,0]","mutagen_history":"[0,1]","location_rts":"[2315,365]","trial_type":"fractal-mutation","trial_index":62,"time_elapsed":861269,"internal_node_id":"0.0-5.0-8.0"},{"group":"hexagon_bi","fractal_assignment":["../images/pnk_blu.png","../images/org_blu.png","../images/ylw_slt.png","../images/blu_wht.png","../images/cyn_red.png","../images/gry_blk.png"],"mutagen_generator_assignment":[1,0],"goal":4,"start":2,"action_noise":0.15,"location_history":"[2,3,4]","action_history":"[1,0]","mutagen_history":"[0,1]","location_rts":"[1755,1251]","trial_type":"fractal-mutation","trial_index":63,"time_elapsed":869839,"internal_node_id":"0.0-5.0-9.0"},{"group":"hexagon_bi","fractal_assignment":["../images/pnk_blu.png","../images/org_blu.png","../images/ylw_slt.png","../images/blu_wht.png","../images/cyn_red.png","../images/gry_blk.png"],"mutagen_generator_assignment":[1,0],"goal":2,"start":4,"action_noise":0.15,"location_history":"[4,3,2]","action_history":"[0,1]","mutagen_history":"[1,0]","location_rts":"[3675,1393]","trial_type":"fractal-mutation","trial_index":64,"time_elapsed":880458,"internal_node_id":"0.0-5.0-10.0"},{"group":"hexagon_bi","fractal_assignment":["../images/pnk_blu.png","../images/org_blu.png","../images/ylw_slt.png","../images/blu_wht.png","../images/cyn_red.png","../images/gry_blk.png"],"mutagen_generator_assignment":[1,0],"goal":3,"start":2,"action_noise":0.15,"location_history":"[2,3]","action_history":"[1]","mutagen_history":"[0]","location_rts":"[1526]","trial_type":"fractal-mutation","trial_index":65,"time_elapsed":886510,"internal_node_id":"0.0-5.0-11.0"},{"group":"hexagon_bi","fractal_assignment":["../images/pnk_blu.png","../images/org_blu.png","../images/ylw_slt.png","../images/blu_wht.png","../images/cyn_red.png","../images/gry_blk.png"],"mutagen_generator_assignment":[1,0],"goal":0,"start":3,"action_noise":0.15,"location_history":"[3,2,1,0]","action_history":"[1,0,1]","mutagen_history":"[0,1,0]","location_rts":"[2860,524,867]","trial_type":"fractal-mutation","trial_index":66,"time_elapsed":897335,"internal_node_id":"0.0-5.0-12.0"},{"group":"hexagon_bi","fractal_assignment":["../images/pnk_blu.png","../images/org_blu.png","../images/ylw_slt.png","../images/blu_wht.png","../images/cyn_red.png","../images/gry_blk.png"],"mutagen_generator_assignment":[1,0],"goal":5,"start":0,"action_noise":0.15,"location_history":"[0,5]","action_history":"[0]","mutagen_history":"[1]","location_rts":"[2292]","trial_type":"fractal-mutation","trial_index":67,"time_elapsed":904158,"internal_node_id":"0.0-5.0-13.0"},{"group":"hexagon_bi","fractal_assignment":["../images/pnk_blu.png","../images/org_blu.png","../images/ylw_slt.png","../images/blu_wht.png","../images/cyn_red.png","../images/gry_blk.png"],"mutagen_generator_assignment":[1,0],"goal":1,"start":5,"action_noise":0.15,"location_history":"[5,4,3,4,3,2,1]","action_history":"[1,0,1,1,1,0]","mutagen_history":"[0,1,0,0,0,1]","location_rts":"[2371,999,1266,1674,755,264]","trial_type":"fractal-mutation","trial_index":68,"time_elapsed":921145,"internal_node_id":"0.0-5.0-14.0"},{"group":"hexagon_bi","fractal_assignment":["../images/pnk_blu.png","../images/org_blu.png","../images/ylw_slt.png","../images/blu_wht.png","../images/cyn_red.png","../images/gry_blk.png"],"mutagen_generator_assignment":[1,0],"goal":5,"start":1,"action_noise":0.15,"location_history":"[1,2,3,2,3,2,3,4,3,4,5]","action_history":"[0,1,0,1,1,1,0,0,0,1]","mutagen_history":"[1,0,1,0,0,0,1,1,1,0]","location_rts":"[1696,176,1687,190,658,640,231,1464,769,118]","trial_type":"fractal-mutation","trial_index":69,"time_elapsed":942540,"internal_node_id":"0.0-5.0-15.0"},{"group":"hexagon_bi","fractal_assignment":["../images/pnk_blu.png","../images/org_blu.png","../images/ylw_slt.png","../images/blu_wht.png","../images/cyn_red.png","../images/gry_blk.png"],"mutagen_generator_assignment":[1,0],"goal":3,"start":5,"action_noise":0.15,"location_history":"[5,0,1,0,5,4,3]","action_history":"[0,1,1,0,1,0]","mutagen_history":"[1,0,0,1,0,1]","location_rts":"[3142,1247,586,305,269,320]","trial_type":"fractal-mutation","trial_index":70,"time_elapsed":958073,"internal_node_id":"0.0-5.0-16.0"},{"group":"hexagon_bi","fractal_assignment":["../images/pnk_blu.png","../images/org_blu.png","../images/ylw_slt.png","../images/blu_wht.png","../images/cyn_red.png","../images/gry_blk.png"],"mutagen_generator_assignment":[1,0],"goal":2,"start":3,"action_noise":0.15,"location_history":"[3,2]","action_history":"[1]","mutagen_history":"[0]","location_rts":"[2192]","trial_type":"fractal-mutation","trial_index":71,"time_elapsed":964790,"internal_node_id":"0.0-5.0-17.0"},{"group":"hexagon_bi","fractal_assignment":["../images/pnk_blu.png","../images/org_blu.png","../images/ylw_slt.png","../images/blu_wht.png","../images/cyn_red.png","../images/gry_blk.png"],"mutagen_generator_assignment":[1,0],"goal":1,"start":2,"action_noise":0.15,"location_history":"[2,1]","action_history":"[0]","mutagen_history":"[1]","location_rts":"[1420]","trial_type":"fractal-mutation","trial_index":72,"time_elapsed":970755,"internal_node_id":"0.0-5.0-18.0"},{"group":"hexagon_bi","fractal_assignment":["../images/pnk_blu.png","../images/org_blu.png","../images/ylw_slt.png","../images/blu_wht.png","../images/cyn_red.png","../images/gry_blk.png"],"mutagen_generator_assignment":[1,0],"goal":4,"start":1,"action_noise":0.15,"location_history":"[1,0,5,4]","action_history":"[1,0,1]","mutagen_history":"[0,1,0]","location_rts":"[3649,244,766]","trial_type":"fractal-mutation","trial_index":73,"time_elapsed":981989,"internal_node_id":"0.0-5.0-19.0"},{"group":"hexagon_bi","fractal_assignment":["../images/pnk_blu.png","../images/org_blu.png","../images/ylw_slt.png","../images/blu_wht.png","../images/cyn_red.png","../images/gry_blk.png"],"mutagen_generator_assignment":[1,0],"goal":0,"start":4,"action_noise":0.15,"location_history":"[4,3,2,1,2,3,2,3,2,1,0]","action_history":"[0,1,0,0,0,1,1,1,0,1]","mutagen_history":"[1,0,1,1,1,0,0,0,1,0]","location_rts":"[1885,537,557,601,312,234,1158,1376,198,760]","trial_type":"fractal-mutation","trial_index":74,"time_elapsed":1003355,"internal_node_id":"0.0-5.0-20.0"},{"group":"hexagon_bi","fractal_assignment":["../images/pnk_blu.png","../images/org_blu.png","../images/ylw_slt.png","../images/blu_wht.png","../images/cyn_red.png","../images/gry_blk.png"],"mutagen_generator_assignment":[1,0],"goal":3,"start":0,"action_noise":0.15,"location_history":"[0,1,0,5,4,3]","action_history":"[1,1,0,1,0]","mutagen_history":"[0,0,1,0,1]","location_rts":"[4671,596,441,914,522]","trial_type":"fractal-mutation","trial_index":75,"time_elapsed":1019147,"internal_node_id":"0.0-5.0-21.0"},{"group":"hexagon_bi","fractal_assignment":["../images/pnk_blu.png","../images/org_blu.png","../images/ylw_slt.png","../images/blu_wht.png","../images/cyn_red.png","../images/gry_blk.png"],"mutagen_generator_assignment":[1,0],"goal":1,"start":3,"action_noise":0.15,"location_history":"[3,4,3,2,1]","action_history":"[0,0,1,0]","mutagen_history":"[1,1,0,1]","location_rts":"[3064,953,217,416]","trial_type":"fractal-mutation","trial_index":76,"time_elapsed":1031392,"internal_node_id":"0.0-5.0-22.0"},{"group":"hexagon_bi","fractal_assignment":["../images/pnk_blu.png","../images/org_blu.png","../images/ylw_slt.png","../images/blu_wht.png","../images/cyn_red.png","../images/gry_blk.png"],"mutagen_generator_assignment":[1,0],"goal":0,"start":1,"action_noise":0.15,"location_history":"[1,2,1,0]","action_history":"[1,1,0]","mutagen_history":"[0,0,1]","location_rts":"[2383,943,667]","trial_type":"fractal-mutation","trial_index":77,"time_elapsed":1041971,"internal_node_id":"0.0-5.0-23.0"},{"group":"hexagon_bi","fractal_assignment":["../images/pnk_blu.png","../images/org_blu.png","../images/ylw_slt.png","../images/blu_wht.png","../images/cyn_red.png","../images/gry_blk.png"],"mutagen_generator_assignment":[1,0],"goal":2,"start":0,"action_noise":0.15,"location_history":"[0,1,2]","action_history":"[1,0]","mutagen_history":"[0,1]","location_rts":"[1854,456]","trial_type":"fractal-mutation","trial_index":78,"time_elapsed":1049830,"internal_node_id":"0.0-5.0-24.0"},{"group":"hexagon_bi","fractal_assignment":["../images/pnk_blu.png","../images/org_blu.png","../images/ylw_slt.png","../images/blu_wht.png","../images/cyn_red.png","../images/gry_blk.png"],"mutagen_generator_assignment":[1,0],"goal":4,"start":2,"action_noise":0.15,"location_history":"[2,3,4]","action_history":"[1,0]","mutagen_history":"[0,1]","location_rts":"[2771,670]","trial_type":"fractal-mutation","trial_index":79,"time_elapsed":1058827,"internal_node_id":"0.0-5.0-25.0"},{"group":"hexagon_bi","fractal_assignment":["../images/pnk_blu.png","../images/org_blu.png","../images/ylw_slt.png","../images/blu_wht.png","../images/cyn_red.png","../images/gry_blk.png"],"mutagen_generator_assignment":[1,0],"goal":5,"start":4,"action_noise":0.15,"location_history":"[4,5]","action_history":"[1]","mutagen_history":"[0]","location_rts":"[1117]","trial_type":"fractal-mutation","trial_index":80,"time_elapsed":1064470,"internal_node_id":"0.0-5.0-26.0"},{"group":"hexagon_bi","fractal_assignment":["../images/pnk_blu.png","../images/org_blu.png","../images/ylw_slt.png","../images/blu_wht.png","../images/cyn_red.png","../images/gry_blk.png"],"mutagen_generator_assignment":[1,0],"goal":2,"start":5,"action_noise":0.15,"location_history":"[5,4,5,4,5,0,5,0,1,2]","action_history":"[1,0,1,1,0,0,0,1,0]","mutagen_history":"[0,1,0,0,1,1,1,0,1]","location_rts":"[1769,241,422,600,745,1095,488,124,465]","trial_type":"fractal-mutation","trial_index":81,"time_elapsed":1083165,"internal_node_id":"0.0-5.0-27.0"},{"group":"hexagon_bi","fractal_assignment":["../images/pnk_blu.png","../images/org_blu.png","../images/ylw_slt.png","../images/blu_wht.png","../images/cyn_red.png","../images/gry_blk.png"],"mutagen_generator_assignment":[1,0],"goal":3,"start":2,"action_noise":0.15,"location_history":"[2,1,0,1,2,3]","action_history":"[0,1,0,0,1]","mutagen_history":"[1,0,1,1,0]","location_rts":"[1724,337,1544,921,210]","trial_type":"fractal-mutation","trial_index":82,"time_elapsed":1096581,"internal_node_id":"0.0-5.0-28.0"},{"group":"hexagon_bi","fractal_assignment":["../images/pnk_blu.png","../images/org_blu.png","../images/ylw_slt.png","../images/blu_wht.png","../images/cyn_red.png","../images/gry_blk.png"],"mutagen_generator_assignment":[1,0],"goal":1,"start":3,"action_noise":0.15,"location_history":"[3,2,3,2,1]","action_history":"[1,0,1,0]","mutagen_history":"[0,1,0,1]","location_rts":"[2485,807,1416,256]","trial_type":"fractal-mutation","trial_index":83,"time_elapsed":1109150,"internal_node_id":"0.0-5.0-29.0"},{"group":"hexagon_bi","fractal_assignment":["../images/pnk_blu.png","../images/org_blu.png","../images/ylw_slt.png","../images/blu_wht.png","../images/cyn_red.png","../images/gry_blk.png"],"mutagen_generator_assignment":[1,0],"goal":4,"start":1,"action_noise":0.15,"location_history":"[1,0,5,4]","action_history":"[1,0,1]","mutagen_history":"[0,1,0]","location_rts":"[2733,670,327]","trial_type":"fractal-mutation","trial_index":84,"time_elapsed":1119460,"internal_node_id":"0.0-5.0-30.0"},{"group":"hexagon_bi","fractal_assignment":["../images/pnk_blu.png","../images/org_blu.png","../images/ylw_slt.png","../images/blu_wht.png","../images/cyn_red.png","../images/gry_blk.png"],"mutagen_generator_assignment":[1,0],"goal":5,"start":4,"action_noise":0.15,"location_history":"[4,5]","action_history":"[1]","mutagen_history":"[0]","location_rts":"[998]","trial_type":"fractal-mutation","trial_index":85,"time_elapsed":1124983,"internal_node_id":"0.0-5.0-31.0"},{"group":"hexagon_bi","fractal_assignment":["../images/pnk_blu.png","../images/org_blu.png","../images/ylw_slt.png","../images/blu_wht.png","../images/cyn_red.png","../images/gry_blk.png"],"mutagen_generator_assignment":[1,0],"goal":0,"start":5,"action_noise":0.15,"location_history":"[5,0]","action_history":"[0]","mutagen_history":"[1]","location_rts":"[35564]","trial_type":"fractal-mutation","trial_index":86,"time_elapsed":1165078,"internal_node_id":"0.0-5.0-32.0"},{"group":"hexagon_bi","fractal_assignment":["../images/pnk_blu.png","../images/org_blu.png","../images/ylw_slt.png","../images/blu_wht.png","../images/cyn_red.png","../images/gry_blk.png"],"mutagen_generator_assignment":[1,0],"goal":2,"start":0,"action_noise":0.15,"location_history":"[0,1,0,5,0,1,2]","action_history":"[1,0,1,0,1,0]","mutagen_history":"[0,1,0,1,0,1]","location_rts":"[2621,379,843,311,748,490]","trial_type":"fractal-mutation","trial_index":87,"time_elapsed":1180131,"internal_node_id":"0.0-5.0-33.0"},{"group":"hexagon_bi","fractal_assignment":["../images/pnk_blu.png","../images/org_blu.png","../images/ylw_slt.png","../images/blu_wht.png","../images/cyn_red.png","../images/gry_blk.png"],"mutagen_generator_assignment":[1,0],"goal":0,"start":2,"action_noise":0.15,"location_history":"[2,3,4,3,4,3,4,3,2,1,0]","action_history":"[1,0,0,1,1,0,0,1,0,1]","mutagen_history":"[0,1,1,0,0,1,1,0,1,0]","location_rts":"[1786,998,1232,700,589,243,603,384,2250,373]","trial_type":"fractal-mutation","trial_index":88,"time_elapsed":1203055,"internal_node_id":"0.0-5.0-34.0"},{"group":"hexagon_bi","fractal_assignment":["../images/pnk_blu.png","../images/org_blu.png","../images/ylw_slt.png","../images/blu_wht.png","../images/cyn_red.png","../images/gry_blk.png"],"mutagen_generator_assignment":[1,0],"goal":5,"start":0,"action_noise":0.15,"location_history":"[0,5]","action_history":"[0]","mutagen_history":"[1]","location_rts":"[1482]","trial_type":"fractal-mutation","trial_index":89,"time_elapsed":1209065,"internal_node_id":"0.0-5.0-35.0"},{"group":"hexagon_bi","fractal_assignment":["../images/pnk_blu.png","../images/org_blu.png","../images/ylw_slt.png","../images/blu_wht.png","../images/cyn_red.png","../images/gry_blk.png"],"mutagen_generator_assignment":[1,0],"goal":1,"start":5,"action_noise":0.15,"location_history":"[5,0,1]","action_history":"[0,1]","mutagen_history":"[1,0]","location_rts":"[1576,776]","trial_type":"fractal-mutation","trial_index":90,"time_elapsed":1216967,"internal_node_id":"0.0-5.0-36.0"},{"group":"hexagon_bi","fractal_assignment":["../images/pnk_blu.png","../images/org_blu.png","../images/ylw_slt.png","../images/blu_wht.png","../images/cyn_red.png","../images/gry_blk.png"],"mutagen_generator_assignment":[1,0],"goal":4,"start":1,"action_noise":0.15,"location_history":"[1,0,5,4]","action_history":"[1,0,1]","mutagen_history":"[0,1,0]","location_rts":"[1712,302,686]","trial_type":"fractal-mutation","trial_index":91,"time_elapsed":1226266,"internal_node_id":"0.0-5.0-37.0"},{"group":"hexagon_bi","fractal_assignment":["../images/pnk_blu.png","../images/org_blu.png","../images/ylw_slt.png","../images/blu_wht.png","../images/cyn_red.png","../images/gry_blk.png"],"mutagen_generator_assignment":[1,0],"goal":3,"start":4,"action_noise":0.15,"location_history":"[4,3]","action_history":"[0]","mutagen_history":"[1]","location_rts":"[2325]","trial_type":"fractal-mutation","trial_index":92,"time_elapsed":1233117,"internal_node_id":"0.0-5.0-38.0"},{"group":"hexagon_bi","fractal_assignment":["../images/pnk_blu.png","../images/org_blu.png","../images/ylw_slt.png","../images/blu_wht.png","../images/cyn_red.png","../images/gry_blk.png"],"mutagen_generator_assignment":[1,0],"goal":5,"start":3,"action_noise":0.15,"location_history":"[3,2,1,2,3,2,1,0,1,2,3,4,5]","action_history":"[0,0,0,0,1,1,1,0,1,1,0,1]","mutagen_history":"[1,1,1,1,0,0,0,1,0,0,1,0]","location_rts":"[2077,910,642,583,278,803,873,335,1160,704,766,1152]","trial_type":"fractal-mutation","trial_index":93,"time_elapsed":1259217,"internal_node_id":"0.0-5.0-39.0"},{"group":"hexagon_bi","fractal_assignment":["../images/pnk_blu.png","../images/org_blu.png","../images/ylw_slt.png","../images/blu_wht.png","../images/cyn_red.png","../images/gry_blk.png"],"mutagen_generator_assignment":[1,0],"goal":1,"start":5,"action_noise":0.15,"location_history":"[5,0,1]","action_history":"[0,1]","mutagen_history":"[1,0]","location_rts":"[1930,590]","trial_type":"fractal-mutation","trial_index":94,"time_elapsed":1267290,"internal_node_id":"0.0-5.0-40.0"},{"group":"hexagon_bi","fractal_assignment":["../images/pnk_blu.png","../images/org_blu.png","../images/ylw_slt.png","../images/blu_wht.png","../images/cyn_red.png","../images/gry_blk.png"],"mutagen_generator_assignment":[1,0],"goal":2,"start":1,"action_noise":0.15,"location_history":"[1,2]","action_history":"[0]","mutagen_history":"[1]","location_rts":"[1280]","trial_type":"fractal-mutation","trial_index":95,"time_elapsed":1273095,"internal_node_id":"0.0-5.0-41.0"},{"group":"hexagon_bi","fractal_assignment":["../images/pnk_blu.png","../images/org_blu.png","../images/ylw_slt.png","../images/blu_wht.png","../images/cyn_red.png","../images/gry_blk.png"],"mutagen_generator_assignment":[1,0],"goal":4,"start":2,"action_noise":0.15,"location_history":"[2,1,0,5,4]","action_history":"[0,1,0,1]","mutagen_history":"[1,0,1,0]","location_rts":"[2100,366,431,328]","trial_type":"fractal-mutation","trial_index":96,"time_elapsed":1283928,"internal_node_id":"0.0-5.0-42.0"},{"group":"hexagon_bi","fractal_assignment":["../images/pnk_blu.png","../images/org_blu.png","../images/ylw_slt.png","../images/blu_wht.png","../images/cyn_red.png","../images/gry_blk.png"],"mutagen_generator_assignment":[1,0],"goal":0,"start":4,"action_noise":0.15,"location_history":"[4,3,4,5,0]","action_history":"[0,1,1,0]","mutagen_history":"[1,0,0,1]","location_rts":"[1618,669,1290,357]","trial_type":"fractal-mutation","trial_index":97,"time_elapsed":1295464,"internal_node_id":"0.0-5.0-43.0"},{"group":"hexagon_bi","fractal_assignment":["../images/pnk_blu.png","../images/org_blu.png","../images/ylw_slt.png","../images/blu_wht.png","../images/cyn_red.png","../images/gry_blk.png"],"mutagen_generator_assignment":[1,0],"goal":3,"start":0,"action_noise":0.15,"location_history":"[0,1,2,3]","action_history":"[1,0,1]","mutagen_history":"[0,1,0]","location_rts":"[2472,775,327]","trial_type":"fractal-mutation","trial_index":98,"time_elapsed":1305614,"internal_node_id":"0.0-5.0-44.0"},{"group":"hexagon_bi","fractal_assignment":["../images/pnk_blu.png","../images/org_blu.png","../images/ylw_slt.png","../images/blu_wht.png","../images/cyn_red.png","../images/gry_blk.png"],"mutagen_generator_assignment":[1,0],"goal":0,"start":3,"action_noise":0.15,"location_history":"[3,4,5,0]","action_history":"[1,1,0]","mutagen_history":"[0,0,1]","location_rts":"[1338,1162,910]","trial_type":"fractal-mutation","trial_index":99,"time_elapsed":1315600,"internal_node_id":"0.0-5.0-45.0"},{"group":"hexagon_bi","fractal_assignment":["../images/pnk_blu.png","../images/org_blu.png","../images/ylw_slt.png","../images/blu_wht.png","../images/cyn_red.png","../images/gry_blk.png"],"mutagen_generator_assignment":[1,0],"goal":4,"start":0,"action_noise":0.15,"location_history":"[0,5,4]","action_history":"[0,1]","mutagen_history":"[1,0]","location_rts":"[1761,292]","trial_type":"fractal-mutation","trial_index":100,"time_elapsed":1323205,"internal_node_id":"0.0-5.0-46.0"},{"group":"hexagon_bi","fractal_assignment":["../images/pnk_blu.png","../images/org_blu.png","../images/ylw_slt.png","../images/blu_wht.png","../images/cyn_red.png","../images/gry_blk.png"],"mutagen_generator_assignment":[1,0],"goal":5,"start":4,"action_noise":0.15,"location_history":"[4,5]","action_history":"[1]","mutagen_history":"[0]","location_rts":"[956]","trial_type":"fractal-mutation","trial_index":101,"time_elapsed":1328686,"internal_node_id":"0.0-5.0-47.0"},{"group":"hexagon_bi","fractal_assignment":["../images/pnk_blu.png","../images/org_blu.png","../images/ylw_slt.png","../images/blu_wht.png","../images/cyn_red.png","../images/gry_blk.png"],"mutagen_generator_assignment":[1,0],"goal":2,"start":5,"action_noise":0.15,"location_history":"[5,0,1,2]","action_history":"[0,1,0]","mutagen_history":"[1,0,1]","location_rts":"[2260,267,430]","trial_type":"fractal-mutation","trial_index":102,"time_elapsed":1338226,"internal_node_id":"0.0-5.0-48.0"},{"group":"hexagon_bi","fractal_assignment":["../images/pnk_blu.png","../images/org_blu.png","../images/ylw_slt.png","../images/blu_wht.png","../images/cyn_red.png","../images/gry_blk.png"],"mutagen_generator_assignment":[1,0],"goal":1,"start":2,"action_noise":0.15,"location_history":"[2,3,2,1]","action_history":"[0,1,0]","mutagen_history":"[1,0,1]","location_rts":"[1186,1242,312]","trial_type":"fractal-mutation","trial_index":103,"time_elapsed":1347551,"internal_node_id":"0.0-5.0-49.0"},{"view_history":"[{\"page_index\":0,\"viewing_time\":4369}]","rt":4369,"trial_type":"instructions","trial_index":104,"time_elapsed":1352921,"internal_node_id":"0.0-6.0"},{"rt":29050,"responses":"{\"Q0\":\"Pattern recognition and how to adapt and memorize which door went where even with a false door.\"}","trial_type":"survey-text","trial_index":105,"time_elapsed":1382975,"internal_node_id":"0.0-7.0-0.0"},{"rt":32158,"responses":"{\"Q0\":\"I think the same thing pattern recognition it was similar to the spatial experiment but instead of doors it was shapes but they were still connected in a similar way.\"}","trial_type":"survey-text","trial_index":106,"time_elapsed":1416135,"internal_node_id":"0.0-7.0-1.0"},{"rt":42442,"responses":"{\"Q0\":\"<img src='../images/diagrams/hexagon_bi.png'>\"}","trial_type":"survey-multi-choice","trial_index":107,"time_elapsed":1459579,"internal_node_id":"0.0-7.0-2.0"},{"rt":44507,"assignments":["../images/pnk_blu.png","../images/org_blu.png","../images/ylw_slt.png","../images/blu_wht.png","../images/cyn_red.png","../images/gry_blk.png"],"trial_type":"drag-drop-on-image","trial_index":108,"time_elapsed":1505087,"internal_node_id":"0.0-7.0-3.0"},{"rt":5556,"responses":"{\"Q0\":\"4\"}","trial_type":"survey-likert","trial_index":109,"time_elapsed":1511649,"internal_node_id":"0.0-7.0-4.0"},{"rt":52764,"responses":"{\"Q0\":\"They were essentially the same you had two options or two doors and depending on which you choose it would normally take you to the same room/shape but sometimes a false door/shape would trip you up forcing you to navigate from a random location.\"}","trial_type":"survey-text","trial_index":110,"time_elapsed":1565415,"internal_node_id":"0.0-7.0-5.0"},{"rt":6930,"responses":"{\"Q0\":\"Yes\"}","trial_type":"survey-multi-choice","trial_index":111,"time_elapsed":1573351,"internal_node_id":"0.0-7.0-6.0"},{"rt":11038,"responses":"{\"Q0\":\"During session 1\"}","trial_type":"survey-multi-choice","trial_index":112,"time_elapsed":1585392,"internal_node_id":"0.0-7.0-7.0"},{"rt":54185,"responses":"{\"Q0\":\"The only real difference was the visual display one was rooms with two doors the other was shapes with 2 options, break them both down and remove the visuals they're the same.\"}","trial_type":"survey-text","trial_index":113,"time_elapsed":1640580,"internal_node_id":"0.0-7.0-8.0"},{"rt":6309,"responses":"{\"Q0\":\"4\"}","trial_type":"survey-likert","trial_index":114,"time_elapsed":1647892,"internal_node_id":"0.0-7.0-9.0"},{"rt":10257,"responses":"{\"Q0\":\"Same structure\"}","trial_type":"survey-multi-choice","trial_index":115,"time_elapsed":1659154,"internal_node_id":"0.0-7.0-10.0"},{"rt":49891,"responses":"{\"Q0\":\"left (black) door = acid, right (white) door = ray\",\"Q1\":\"Completely confident\"}","trial_type":"survey-multi-choice","trial_index":116,"time_elapsed":1710050,"internal_node_id":"0.0-7.0-11.0"},{"rt":7262,"responses":"{\"Q0\":\"25-35\",\"Q1\":\"High school degree or GED\",\"Q2\":\"Male\",\"Q3\":\"White\"}","trial_type":"survey-multi-choice","trial_index":117,"time_elapsed":1718318,"internal_node_id":"0.0-8.0"},{"rt":24375,"responses":"{\"Q0\":\"This was a fantastic experience thank you.  Any more work like this count me in.\"}","trial_type":"survey-text","trial_index":118,"time_elapsed":1743694,"internal_node_id":"0.0-9.0"}]