[{"view_history":"[{\"page_index\":0,\"viewing_time\":39487},{\"page_index\":1,\"viewing_time\":8264}]","rt":47755,"trial_type":"instructions","trial_index":0,"time_elapsed":47756,"internal_node_id":"0.0-0.0"},{"view_history":"[{\"page_index\":0,\"viewing_time\":25175},{\"page_index\":1,\"viewing_time\":40097}]","rt":65274,"trial_type":"instructions","trial_index":1,"time_elapsed":114032,"internal_node_id":"0.0-1.0"},{"group":"hexagon_tri","room_assignment":["red","grey","purple","yellow","blue","green"],"door_color_assignment":["black","white"],"door_generator_assignment":[1,0],"goal":2,"start":1,"action_noise":0.15,"location_history":"[1,5,0,5,0,1,3,2]","action_history":"[1,1,0,1,1,0,0]","door_history":"[0,0,1,0,0,1,1]","location_rts":"[1637,724,121,28,287,598,70]","trial_type":"two-door-navigation","trial_index":2,"time_elapsed":128113,"internal_node_id":"0.0-2.0-0.0"},{"group":"hexagon_tri","room_assignment":["red","grey","purple","yellow","blue","green"],"door_color_assignment":["black","white"],"door_generator_assignment":[1,0],"goal":0,"start":2,"action_noise":0.15,"location_history":"[2,3,2,1,5,0]","action_history":"[1,0,0,1,1]","door_history":"[0,1,1,0,0]","location_rts":"[441,514,194,216,464]","trial_type":"two-door-navigation","trial_index":3,"time_elapsed":138521,"internal_node_id":"0.0-2.0-1.0"},{"group":"hexagon_tri","room_assignment":["red","grey","purple","yellow","blue","green"],"door_color_assignment":["black","white"],"door_generator_assignment":[1,0],"goal":5,"start":0,"action_noise":0.15,"location_history":"[0,1,3,2,3,2,3,4,0,5]","action_history":"[1,0,1,1,0,1,1,0,0]","door_history":"[0,1,0,0,1,0,0,1,1]","location_rts":"[426,142,342,241,301,231,209,221,287]","trial_type":"two-door-navigation","trial_index":4,"time_elapsed":153558,"internal_node_id":"0.0-2.0-2.0"},{"group":"hexagon_tri","room_assignment":["red","grey","purple","yellow","blue","green"],"door_color_assignment":["black","white"],"door_generator_assignment":[1,0],"goal":1,"start":5,"action_noise":0.15,"location_history":"[5,4,2,1]","action_history":"[0,1,0]","door_history":"[1,0,1]","location_rts":"[481,219,317]","trial_type":"two-door-navigation","trial_index":5,"time_elapsed":161125,"internal_node_id":"0.0-2.0-3.0"},{"group":"hexagon_tri","room_assignment":["red","grey","purple","yellow","blue","green"],"door_color_assignment":["black","white"],"door_generator_assignment":[1,0],"goal":3,"start":1,"action_noise":0.15,"location_history":"[1,5,4,0,1,5,4,0,1,3]","action_history":"[1,0,0,1,1,0,0,1,1]","door_history":"[0,1,1,0,0,1,1,0,0]","location_rts":"[481,414,325,57,233,99,341,105,130]","trial_type":"two-door-navigation","trial_index":6,"time_elapsed":175925,"internal_node_id":"0.0-2.0-4.0"},{"group":"hexagon_tri","room_assignment":["red","grey","purple","yellow","blue","green"],"door_color_assignment":["black","white"],"door_generator_assignment":[1,0],"goal":5,"start":3,"action_noise":0.15,"location_history":"[3,4,0,5]","action_history":"[1,0,0]","door_history":"[0,1,1]","location_rts":"[1115,71,154]","trial_type":"two-door-navigation","trial_index":7,"time_elapsed":183802,"internal_node_id":"0.0-2.0-5.0"},{"group":"hexagon_tri","room_assignment":["red","grey","purple","yellow","blue","green"],"door_color_assignment":["black","white"],"door_generator_assignment":[1,0],"goal":4,"start":5,"action_noise":0.15,"location_history":"[5,0,5,0,1,3,2,1,3,2,1,5,0,5,0,5,4]","action_history":"[1,0,1,1,0,0,1,1,0,0,1,1,0,1,0,1]","door_history":"[0,1,0,0,1,1,0,0,1,1,0,0,1,0,1,0]","location_rts":"[1202,232,119,284,111,218,192,496,83,283,112,401,282,134,154,482]","trial_type":"two-door-navigation","trial_index":8,"time_elapsed":208232,"internal_node_id":"0.0-2.0-6.0"},{"group":"hexagon_tri","room_assignment":["red","grey","purple","yellow","blue","green"],"door_color_assignment":["black","white"],"door_generator_assignment":[1,0],"goal":0,"start":4,"action_noise":0.15,"location_history":"[4,0]","action_history":"[0]","door_history":"[1]","location_rts":"[401]","trial_type":"two-door-navigation","trial_index":9,"time_elapsed":213152,"internal_node_id":"0.0-2.0-7.0"},{"group":"hexagon_tri","room_assignment":["red","grey","purple","yellow","blue","green"],"door_color_assignment":["black","white"],"door_generator_assignment":[1,0],"goal":2,"start":0,"action_noise":0.15,"location_history":"[0,1,3,4,2]","action_history":"[1,0,1,1]","door_history":"[0,1,0,0]","location_rts":"[414,53,233,190]","trial_type":"two-door-navigation","trial_index":10,"time_elapsed":221597,"internal_node_id":"0.0-2.0-8.0"},{"group":"hexagon_tri","room_assignment":["red","grey","purple","yellow","blue","green"],"door_color_assignment":["black","white"],"door_generator_assignment":[1,0],"goal":4,"start":2,"action_noise":0.15,"location_history":"[2,3,4]","action_history":"[0,1]","door_history":"[1,0]","location_rts":"[630,57]","trial_type":"two-door-navigation","trial_index":11,"time_elapsed":227827,"internal_node_id":"0.0-2.0-9.0"},{"group":"hexagon_tri","room_assignment":["red","grey","purple","yellow","blue","green"],"door_color_assignment":["black","white"],"door_generator_assignment":[1,0],"goal":2,"start":4,"action_noise":0.15,"location_history":"[4,2]","action_history":"[1]","door_history":"[0]","location_rts":"[857]","trial_type":"two-door-navigation","trial_index":12,"time_elapsed":233197,"internal_node_id":"0.0-2.0-10.0"},{"group":"hexagon_tri","room_assignment":["red","grey","purple","yellow","blue","green"],"door_color_assignment":["black","white"],"door_generator_assignment":[1,0],"goal":3,"start":2,"action_noise":0.15,"location_history":"[2,3]","action_history":"[0]","door_history":"[1]","location_rts":"[192]","trial_type":"two-door-navigation","trial_index":13,"time_elapsed":237903,"internal_node_id":"0.0-2.0-11.0"},{"group":"hexagon_tri","room_assignment":["red","grey","purple","yellow","blue","green"],"door_color_assignment":["black","white"],"door_generator_assignment":[1,0],"goal":0,"start":3,"action_noise":0.15,"location_history":"[3,4,0]","action_history":"[1,0]","door_history":"[0,1]","location_rts":"[414,117]","trial_type":"two-door-navigation","trial_index":14,"time_elapsed":243969,"internal_node_id":"0.0-2.0-12.0"},{"group":"hexagon_tri","room_assignment":["red","grey","purple","yellow","blue","green"],"door_color_assignment":["black","white"],"door_generator_assignment":[1,0],"goal":5,"start":0,"action_noise":0.15,"location_history":"[0,1,3,2,3,2,1,3,2,3,2,3,4,0,5]","action_history":"[1,0,0,1,1,0,1,0,1,0,1,1,0,1]","door_history":"[0,1,1,0,0,1,0,1,0,1,0,0,1,0]","location_rts":"[420,15,223,112,296,228,205,178,242,203,387,107,247,424]","trial_type":"two-door-navigation","trial_index":15,"time_elapsed":264956,"internal_node_id":"0.0-2.0-13.0"},{"group":"hexagon_tri","room_assignment":["red","grey","purple","yellow","blue","green"],"door_color_assignment":["black","white"],"door_generator_assignment":[1,0],"goal":1,"start":5,"action_noise":0.15,"location_history":"[5,4,2,1]","action_history":"[0,1,0]","door_history":"[1,0,1]","location_rts":"[980,94,228]","trial_type":"two-door-navigation","trial_index":16,"time_elapsed":272800,"internal_node_id":"0.0-2.0-14.0"},{"group":"hexagon_tri","room_assignment":["red","grey","purple","yellow","blue","green"],"door_color_assignment":["black","white"],"door_generator_assignment":[1,0],"goal":5,"start":1,"action_noise":0.15,"location_history":"[1,5]","action_history":"[1]","door_history":"[0]","location_rts":"[743]","trial_type":"two-door-navigation","trial_index":17,"time_elapsed":278055,"internal_node_id":"0.0-2.0-15.0"},{"group":"hexagon_tri","room_assignment":["red","grey","purple","yellow","blue","green"],"door_color_assignment":["black","white"],"door_generator_assignment":[1,0],"goal":3,"start":5,"action_noise":0.15,"location_history":"[5,0,5,0,5,4,2,1,5,4,0,1,3]","action_history":"[1,0,1,0,0,1,0,1,0,0,1,0]","door_history":"[0,1,0,1,1,0,1,0,1,1,0,1]","location_rts":"[461,266,212,130,298,95,303,240,300,310,111,146]","trial_type":"two-door-navigation","trial_index":18,"time_elapsed":296526,"internal_node_id":"0.0-2.0-16.0"},{"group":"hexagon_tri","room_assignment":["red","grey","purple","yellow","blue","green"],"door_color_assignment":["black","white"],"door_generator_assignment":[1,0],"goal":2,"start":3,"action_noise":0.15,"location_history":"[3,2]","action_history":"[0]","door_history":"[1]","location_rts":"[522]","trial_type":"two-door-navigation","trial_index":19,"time_elapsed":301561,"internal_node_id":"0.0-2.0-17.0"},{"group":"hexagon_tri","room_assignment":["red","grey","purple","yellow","blue","green"],"door_color_assignment":["black","white"],"door_generator_assignment":[1,0],"goal":1,"start":2,"action_noise":0.15,"location_history":"[2,3,4,0,5,0,5,0,5,4,2,3,2,3,2,3,2,3,4,0,1]","action_history":"[1,0,0,1,1,0,1,0,0,1,0,0,1,0,1,0,1,1,0,1]","door_history":"[0,1,1,0,0,1,0,1,1,0,1,1,0,1,0,1,0,0,1,0]","location_rts":"[430,117,685,321,188,397,244,246,298,321,216,367,484,254,160,208,186,317,355,191]","trial_type":"two-door-navigation","trial_index":20,"time_elapsed":331254,"internal_node_id":"0.0-2.0-18.0"},{"group":"hexagon_tri","room_assignment":["red","grey","purple","yellow","blue","green"],"door_color_assignment":["black","white"],"door_generator_assignment":[1,0],"goal":4,"start":1,"action_noise":0.15,"location_history":"[1,5,0,1,3,2,3,2,3,4]","action_history":"[1,0,1,0,0,1,0,1,1]","door_history":"[0,1,0,1,1,0,1,0,0]","location_rts":"[586,250,312,259,88,166,360,276,167]","trial_type":"two-door-navigation","trial_index":21,"time_elapsed":346334,"internal_node_id":"0.0-2.0-19.0"},{"group":"hexagon_tri","room_assignment":["red","grey","purple","yellow","blue","green"],"door_color_assignment":["black","white"],"door_generator_assignment":[1,0],"goal":0,"start":4,"action_noise":0.15,"location_history":"[4,0]","action_history":"[0]","door_history":"[1]","location_rts":"[728]","trial_type":"two-door-navigation","trial_index":22,"time_elapsed":351589,"internal_node_id":"0.0-2.0-20.0"},{"group":"hexagon_tri","room_assignment":["red","grey","purple","yellow","blue","green"],"door_color_assignment":["black","white"],"door_generator_assignment":[1,0],"goal":3,"start":0,"action_noise":0.15,"location_history":"[0,1,3]","action_history":"[1,0]","door_history":"[0,1]","location_rts":"[400,177]","trial_type":"two-door-navigation","trial_index":23,"time_elapsed":357694,"internal_node_id":"0.0-2.0-21.0"},{"group":"hexagon_tri","room_assignment":["red","grey","purple","yellow","blue","green"],"door_color_assignment":["black","white"],"door_generator_assignment":[1,0],"goal":1,"start":3,"action_noise":0.15,"location_history":"[3,4,0,1]","action_history":"[1,0,0]","door_history":"[0,1,1]","location_rts":"[424,316,227]","trial_type":"two-door-navigation","trial_index":24,"time_elapsed":365201,"internal_node_id":"0.0-2.0-22.0"},{"group":"hexagon_tri","room_assignment":["red","grey","purple","yellow","blue","green"],"door_color_assignment":["black","white"],"door_generator_assignment":[1,0],"goal":0,"start":1,"action_noise":0.15,"location_history":"[1,3,2,3,2,3,4,0]","action_history":"[1,0,1,0,1,1,0]","door_history":"[0,1,0,1,0,0,1]","location_rts":"[587,238,324,391,503,265,538]","trial_type":"two-door-navigation","trial_index":25,"time_elapsed":378643,"internal_node_id":"0.0-2.0-23.0"},{"group":"hexagon_tri","room_assignment":["red","grey","purple","yellow","blue","green"],"door_color_assignment":["black","white"],"door_generator_assignment":[1,0],"goal":2,"start":0,"action_noise":0.15,"location_history":"[0,5,4,0,1,5,4,2]","action_history":"[0,1,0,1,1,0,1]","door_history":"[1,0,1,0,0,1,0]","location_rts":"[1327,345,214,263,214,404,252]","trial_type":"two-door-navigation","trial_index":26,"time_elapsed":392223,"internal_node_id":"0.0-2.0-24.0"},{"group":"hexagon_tri","room_assignment":["red","grey","purple","yellow","blue","green"],"door_color_assignment":["black","white"],"door_generator_assignment":[1,0],"goal":4,"start":2,"action_noise":0.15,"location_history":"[2,3,2,1,3,2,1,3,2,3,4]","action_history":"[1,0,1,0,0,1,0,1,1,0]","door_history":"[0,1,0,1,1,0,1,0,0,1]","location_rts":"[477,130,201,203,302,92,485,371,378,191]","trial_type":"two-door-navigation","trial_index":27,"time_elapsed":408658,"internal_node_id":"0.0-2.0-25.0"},{"group":"hexagon_tri","room_assignment":["red","grey","purple","yellow","blue","green"],"door_color_assignment":["black","white"],"door_generator_assignment":[1,0],"goal":5,"start":4,"action_noise":0.15,"location_history":"[4,0,1,5]","action_history":"[1,0,1]","door_history":"[0,1,0]","location_rts":"[576,590,401]","trial_type":"two-door-navigation","trial_index":28,"time_elapsed":416758,"internal_node_id":"0.0-2.0-26.0"},{"group":"hexagon_tri","room_assignment":["red","grey","purple","yellow","blue","green"],"door_color_assignment":["black","white"],"door_generator_assignment":[1,0],"goal":2,"start":5,"action_noise":0.15,"location_history":"[5,0,5,0,1,3,4,0,5,0,5,4,0,5,0,1,3,4,2]","action_history":"[1,0,1,1,0,1,0,0,1,0,1,0,0,1,1,0,1,0]","door_history":"[0,1,0,0,1,0,1,1,0,1,0,1,1,0,0,1,0,1]","location_rts":"[542,543,486,464,315,185,138,335,130,207,165,393,143,907,246,200,417,220]","trial_type":"two-door-navigation","trial_index":29,"time_elapsed":444490,"internal_node_id":"0.0-2.0-27.0"},{"group":"hexagon_tri","room_assignment":["red","grey","purple","yellow","blue","green"],"door_color_assignment":["black","white"],"door_generator_assignment":[1,0],"goal":3,"start":2,"action_noise":0.15,"location_history":"[2,3]","action_history":"[1]","door_history":"[0]","location_rts":"[508]","trial_type":"two-door-navigation","trial_index":30,"time_elapsed":449508,"internal_node_id":"0.0-2.0-28.0"},{"group":"hexagon_tri","room_assignment":["red","grey","purple","yellow","blue","green"],"door_color_assignment":["black","white"],"door_generator_assignment":[1,0],"goal":1,"start":3,"action_noise":0.15,"location_history":"[3,2,3,4,0,5,0,1]","action_history":"[0,1,1,0,0,1,1]","door_history":"[1,0,0,1,1,0,0]","location_rts":"[790,504,355,201,374,375,618]","trial_type":"two-door-navigation","trial_index":31,"time_elapsed":463309,"internal_node_id":"0.0-2.0-29.0"},{"group":"hexagon_tri","room_assignment":["red","grey","purple","yellow","blue","green"],"door_color_assignment":["black","white"],"door_generator_assignment":[1,0],"goal":4,"start":1,"action_noise":0.15,"location_history":"[1,3,4]","action_history":"[0,1]","door_history":"[1,0]","location_rts":"[758,144]","trial_type":"two-door-navigation","trial_index":32,"time_elapsed":469751,"internal_node_id":"0.0-2.0-30.0"},{"group":"hexagon_tri","room_assignment":["red","grey","purple","yellow","blue","green"],"door_color_assignment":["black","white"],"door_generator_assignment":[1,0],"goal":5,"start":4,"action_noise":0.15,"location_history":"[4,0,1,5]","action_history":"[0,1,1]","door_history":"[1,0,0]","location_rts":"[1622,535,308]","trial_type":"two-door-navigation","trial_index":33,"time_elapsed":478737,"internal_node_id":"0.0-2.0-31.0"},{"group":"hexagon_tri","room_assignment":["red","grey","purple","yellow","blue","green"],"door_color_assignment":["black","white"],"door_generator_assignment":[1,0],"goal":0,"start":5,"action_noise":0.15,"location_history":"[5,0]","action_history":"[1]","door_history":"[0]","location_rts":"[1666]","trial_type":"two-door-navigation","trial_index":34,"time_elapsed":484928,"internal_node_id":"0.0-2.0-32.0"},{"group":"hexagon_tri","room_assignment":["red","grey","purple","yellow","blue","green"],"door_color_assignment":["black","white"],"door_generator_assignment":[1,0],"goal":2,"start":0,"action_noise":0.15,"location_history":"[0,5,0,1,3,4,0,5,0,1,3,2]","action_history":"[0,1,1,0,1,0,0,1,1,0,0]","door_history":"[1,0,0,1,0,1,1,0,0,1,1]","location_rts":"[877,227,350,136,218,196,155,370,234,208,186]","trial_type":"two-door-navigation","trial_index":35,"time_elapsed":502719,"internal_node_id":"0.0-2.0-33.0"},{"group":"hexagon_tri","room_assignment":["red","grey","purple","yellow","blue","green"],"door_color_assignment":["black","white"],"door_generator_assignment":[1,0],"goal":0,"start":2,"action_noise":0.15,"location_history":"[2,3,2,3,2,1,5,0]","action_history":"[1,0,1,0,0,1,1]","door_history":"[0,1,0,1,1,0,0]","location_rts":"[180,390,63,603,137,149,332]","trial_type":"two-door-navigation","trial_index":36,"time_elapsed":515200,"internal_node_id":"0.0-2.0-34.0"},{"group":"hexagon_tri","room_assignment":["red","grey","purple","yellow","blue","green"],"door_color_assignment":["black","white"],"door_generator_assignment":[1,0],"goal":5,"start":0,"action_noise":0.15,"location_history":"[0,1,3,4,0,1,3,2,3,4,2,3,4,2,1,5]","action_history":"[1,0,0,1,1,0,0,1,1,0,1,1,1,0,1]","door_history":"[0,1,1,0,0,1,1,0,0,1,0,0,0,1,0]","location_rts":"[568,103,227,228,393,187,247,120,353,316,366,304,412,183,338]","trial_type":"two-door-navigation","trial_index":37,"time_elapsed":538170,"internal_node_id":"0.0-2.0-35.0"},{"group":"hexagon_tri","room_assignment":["red","grey","purple","yellow","blue","green"],"door_color_assignment":["black","white"],"door_generator_assignment":[1,0],"goal":1,"start":5,"action_noise":0.15,"location_history":"[5,0,1]","action_history":"[1,0]","door_history":"[0,1]","location_rts":"[537,208]","trial_type":"two-door-navigation","trial_index":38,"time_elapsed":544436,"internal_node_id":"0.0-2.0-36.0"},{"group":"hexagon_tri","room_assignment":["red","grey","purple","yellow","blue","green"],"door_color_assignment":["black","white"],"door_generator_assignment":[1,0],"goal":4,"start":1,"action_noise":0.15,"location_history":"[1,5,4]","action_history":"[1,0]","door_history":"[0,1]","location_rts":"[452,154]","trial_type":"two-door-navigation","trial_index":39,"time_elapsed":550596,"internal_node_id":"0.0-2.0-37.0"},{"group":"hexagon_tri","room_assignment":["red","grey","purple","yellow","blue","green"],"door_color_assignment":["black","white"],"door_generator_assignment":[1,0],"goal":3,"start":4,"action_noise":0.15,"location_history":"[4,2,1,3]","action_history":"[1,0,1]","door_history":"[0,1,0]","location_rts":"[445,286,622]","trial_type":"two-door-navigation","trial_index":40,"time_elapsed":558473,"internal_node_id":"0.0-2.0-38.0"},{"group":"hexagon_tri","room_assignment":["red","grey","purple","yellow","blue","green"],"door_color_assignment":["black","white"],"door_generator_assignment":[1,0],"goal":5,"start":3,"action_noise":0.15,"location_history":"[3,4,0,1,5]","action_history":"[1,0,1,1]","door_history":"[0,1,0,0]","location_rts":"[511,119,757,272]","trial_type":"two-door-navigation","trial_index":41,"time_elapsed":567674,"internal_node_id":"0.0-2.0-39.0"},{"group":"hexagon_tri","room_assignment":["red","grey","purple","yellow","blue","green"],"door_color_assignment":["black","white"],"door_generator_assignment":[1,0],"goal":1,"start":5,"action_noise":0.15,"location_history":"[5,0,1]","action_history":"[1,0]","door_history":"[0,1]","location_rts":"[513,151]","trial_type":"two-door-navigation","trial_index":42,"time_elapsed":573873,"internal_node_id":"0.0-2.0-40.0"},{"group":"hexagon_tri","room_assignment":["red","grey","purple","yellow","blue","green"],"door_color_assignment":["black","white"],"door_generator_assignment":[1,0],"goal":2,"start":1,"action_noise":0.15,"location_history":"[1,5,4,2]","action_history":"[1,0,1]","door_history":"[0,1,0]","location_rts":"[641,149,285]","trial_type":"two-door-navigation","trial_index":43,"time_elapsed":581483,"internal_node_id":"0.0-2.0-41.0"},{"group":"hexagon_tri","room_assignment":["red","grey","purple","yellow","blue","green"],"door_color_assignment":["black","white"],"door_generator_assignment":[1,0],"goal":4,"start":2,"action_noise":0.15,"location_history":"[2,3,4]","action_history":"[1,0]","door_history":"[0,1]","location_rts":"[272,166]","trial_type":"two-door-navigation","trial_index":44,"time_elapsed":587444,"internal_node_id":"0.0-2.0-42.0"},{"group":"hexagon_tri","room_assignment":["red","grey","purple","yellow","blue","green"],"door_color_assignment":["black","white"],"door_generator_assignment":[1,0],"goal":0,"start":4,"action_noise":0.15,"location_history":"[4,2,1,5,0]","action_history":"[1,0,1,1]","door_history":"[0,1,0,0]","location_rts":"[876,153,508,315]","trial_type":"two-door-navigation","trial_index":45,"time_elapsed":596855,"internal_node_id":"0.0-2.0-43.0"},{"group":"hexagon_tri","room_assignment":["red","grey","purple","yellow","blue","green"],"door_color_assignment":["black","white"],"door_generator_assignment":[1,0],"goal":3,"start":0,"action_noise":0.15,"location_history":"[0,5,0,1,3]","action_history":"[0,1,1,0]","door_history":"[1,0,0,1]","location_rts":"[435,302,897,290]","trial_type":"two-door-navigation","trial_index":46,"time_elapsed":606334,"internal_node_id":"0.0-2.0-44.0"},{"group":"hexagon_tri","room_assignment":["red","grey","purple","yellow","blue","green"],"door_color_assignment":["black","white"],"door_generator_assignment":[1,0],"goal":0,"start":3,"action_noise":0.15,"location_history":"[3,4,0]","action_history":"[1,0]","door_history":"[0,1]","location_rts":"[340,122]","trial_type":"two-door-navigation","trial_index":47,"time_elapsed":612356,"internal_node_id":"0.0-2.0-45.0"},{"group":"hexagon_tri","room_assignment":["red","grey","purple","yellow","blue","green"],"door_color_assignment":["black","white"],"door_generator_assignment":[1,0],"goal":4,"start":0,"action_noise":0.15,"location_history":"[0,1,3,2,1,3,2,1,3,2,3,4]","action_history":"[1,0,1,0,0,1,1,0,0,1,1]","door_history":"[0,1,0,1,1,0,0,1,1,0,0]","location_rts":"[486,645,92,440,289,167,426,155,84,199,231]","trial_type":"two-door-navigation","trial_index":48,"time_elapsed":630348,"internal_node_id":"0.0-2.0-46.0"},{"group":"hexagon_tri","room_assignment":["red","grey","purple","yellow","blue","green"],"door_color_assignment":["black","white"],"door_generator_assignment":[1,0],"goal":5,"start":4,"action_noise":0.15,"location_history":"[4,2,1,3,4,2,1,3,4,0,5]","action_history":"[1,0,0,1,1,0,0,1,1,1]","door_history":"[0,1,1,0,0,1,1,0,0,0]","location_rts":"[609,273,115,421,271,56,149,686,355,271]","trial_type":"two-door-navigation","trial_index":49,"time_elapsed":647285,"internal_node_id":"0.0-2.0-47.0"},{"group":"hexagon_tri","room_assignment":["red","grey","purple","yellow","blue","green"],"door_color_assignment":["black","white"],"door_generator_assignment":[1,0],"goal":2,"start":5,"action_noise":0.15,"location_history":"[5,0,1,5,4,0,1,3,4,2]","action_history":"[1,0,1,0,0,1,0,1,1]","door_history":"[0,1,0,1,1,0,1,0,0]","location_rts":"[692,26,154,10,422,94,458,140,128]","trial_type":"two-door-navigation","trial_index":50,"time_elapsed":662107,"internal_node_id":"0.0-2.0-48.0"},{"group":"hexagon_tri","room_assignment":["red","grey","purple","yellow","blue","green"],"door_color_assignment":["black","white"],"door_generator_assignment":[1,0],"goal":1,"start":2,"action_noise":0.15,"location_history":"[2,3,2,3,4,0,1]","action_history":"[1,0,1,1,0,1]","door_history":"[0,1,0,0,1,0]","location_rts":"[564,124,369,332,292,302]","trial_type":"two-door-navigation","trial_index":51,"time_elapsed":673734,"internal_node_id":"0.0-2.0-49.0"},{"view_history":"[{\"page_index\":0,\"viewing_time\":1501}]","rt":1502,"trial_type":"instructions","trial_index":52,"time_elapsed":676236,"internal_node_id":"0.0-3.0"},{"view_history":"[{\"page_index\":0,\"viewing_time\":2195},{\"page_index\":1,\"viewing_time\":2378}]","rt":4576,"trial_type":"instructions","trial_index":53,"time_elapsed":681812,"internal_node_id":"0.0-4.0"},{"group":"hexagon_bi","fractal_assignment":["../images/ylw_slt.png","../images/pnk_blu.png","../images/gry_blk.png","../images/cyn_red.png","../images/org_blu.png","../images/blu_wht.png"],"mutagen_generator_assignment":[1,0],"goal":2,"start":1,"action_noise":0.15,"location_history":"[1,0,1,2]","action_history":"[1,0,0]","mutagen_history":"[0,1,1]","location_rts":"[960,83,284]","trial_type":"fractal-mutation","trial_index":54,"time_elapsed":689912,"internal_node_id":"0.0-5.0-0.0"},{"group":"hexagon_bi","fractal_assignment":["../images/ylw_slt.png","../images/pnk_blu.png","../images/gry_blk.png","../images/cyn_red.png","../images/org_blu.png","../images/blu_wht.png"],"mutagen_generator_assignment":[1,0],"goal":0,"start":2,"action_noise":0.15,"location_history":"[2,1,2,1,2,3,4,3,4,5,0]","action_history":"[1,0,0,1,1,0,0,0,1,0]","mutagen_history":"[0,1,1,0,0,1,1,1,0,1]","location_rts":"[475,310,226,462,234,0,254,251,571,502]","trial_type":"fractal-mutation","trial_index":55,"time_elapsed":707529,"internal_node_id":"0.0-5.0-1.0"},{"group":"hexagon_bi","fractal_assignment":["../images/ylw_slt.png","../images/pnk_blu.png","../images/gry_blk.png","../images/cyn_red.png","../images/org_blu.png","../images/blu_wht.png"],"mutagen_generator_assignment":[1,0],"goal":5,"start":0,"action_noise":0.15,"location_history":"[0,1,0,1,0,5]","action_history":"[0,1,1,0,0]","mutagen_history":"[1,0,0,1,1]","location_rts":"[429,147,201,210,239]","trial_type":"fractal-mutation","trial_index":56,"time_elapsed":717575,"internal_node_id":"0.0-5.0-2.0"},{"group":"hexagon_bi","fractal_assignment":["../images/ylw_slt.png","../images/pnk_blu.png","../images/gry_blk.png","../images/cyn_red.png","../images/org_blu.png","../images/blu_wht.png"],"mutagen_generator_assignment":[1,0],"goal":1,"start":5,"action_noise":0.15,"location_history":"[5,4,3,4,5,4,3,4,5,0,1]","action_history":"[1,0,0,1,0,0,0,1,0,1]","mutagen_history":"[0,1,1,0,1,1,1,0,1,0]","location_rts":"[445,291,388,437,133,498,211,263,26,304]","trial_type":"fractal-mutation","trial_index":57,"time_elapsed":735863,"internal_node_id":"0.0-5.0-3.0"},{"group":"hexagon_bi","fractal_assignment":["../images/ylw_slt.png","../images/pnk_blu.png","../images/gry_blk.png","../images/cyn_red.png","../images/org_blu.png","../images/blu_wht.png"],"mutagen_generator_assignment":[1,0],"goal":3,"start":1,"action_noise":0.15,"location_history":"[1,0,5,0,1,2,1,0,5,0,1,0,5,4,3]","action_history":"[1,0,0,1,0,0,1,0,0,1,0,0,1,0]","mutagen_history":"[0,1,1,0,1,1,0,1,1,0,1,1,0,1]","location_rts":"[410,22,294,143,441,142,86,255,96,197,451,531,54,515]","trial_type":"fractal-mutation","trial_index":58,"time_elapsed":759159,"internal_node_id":"0.0-5.0-4.0"},{"group":"hexagon_bi","fractal_assignment":["../images/ylw_slt.png","../images/pnk_blu.png","../images/gry_blk.png","../images/cyn_red.png","../images/org_blu.png","../images/blu_wht.png"],"mutagen_generator_assignment":[1,0],"goal":5,"start":3,"action_noise":0.15,"location_history":"[3,4,3,2,1,0,5]","action_history":"[0,1,1,0,1,0]","mutagen_history":"[1,0,0,1,0,1]","location_rts":"[508,300,249,161,146,309]","trial_type":"fractal-mutation","trial_index":59,"time_elapsed":771107,"internal_node_id":"0.0-5.0-5.0"},{"group":"hexagon_bi","fractal_assignment":["../images/ylw_slt.png","../images/pnk_blu.png","../images/gry_blk.png","../images/cyn_red.png","../images/org_blu.png","../images/blu_wht.png"],"mutagen_generator_assignment":[1,0],"goal":4,"start":5,"action_noise":0.15,"location_history":"[5,0,1,0,5,0,1,2,3,4]","action_history":"[0,1,1,0,0,1,0,1,0]","mutagen_history":"[1,0,0,1,1,0,1,0,1]","location_rts":"[363,234,149,271,248,211,314,268,470]","trial_type":"fractal-mutation","trial_index":60,"time_elapsed":786735,"internal_node_id":"0.0-5.0-6.0"},{"group":"hexagon_bi","fractal_assignment":["../images/ylw_slt.png","../images/pnk_blu.png","../images/gry_blk.png","../images/cyn_red.png","../images/org_blu.png","../images/blu_wht.png"],"mutagen_generator_assignment":[1,0],"goal":0,"start":4,"action_noise":0.15,"location_history":"[4,5,4,5,0]","action_history":"[1,0,1,0]","mutagen_history":"[0,1,0,1]","location_rts":"[367,307,158,287]","trial_type":"fractal-mutation","trial_index":61,"time_elapsed":795588,"internal_node_id":"0.0-5.0-7.0"},{"group":"hexagon_bi","fractal_assignment":["../images/ylw_slt.png","../images/pnk_blu.png","../images/gry_blk.png","../images/cyn_red.png","../images/org_blu.png","../images/blu_wht.png"],"mutagen_generator_assignment":[1,0],"goal":2,"start":0,"action_noise":0.15,"location_history":"[0,5,4,3,2]","action_history":"[0,1,0,1]","mutagen_history":"[1,0,1,0]","location_rts":"[350,271,83,262]","trial_type":"fractal-mutation","trial_index":62,"time_elapsed":804368,"internal_node_id":"0.0-5.0-8.0"},{"group":"hexagon_bi","fractal_assignment":["../images/ylw_slt.png","../images/pnk_blu.png","../images/gry_blk.png","../images/cyn_red.png","../images/org_blu.png","../images/blu_wht.png"],"mutagen_generator_assignment":[1,0],"goal":4,"start":2,"action_noise":0.15,"location_history":"[2,3,4]","action_history":"[0,1]","mutagen_history":"[1,0]","location_rts":"[809,245]","trial_type":"fractal-mutation","trial_index":63,"time_elapsed":811052,"internal_node_id":"0.0-5.0-9.0"},{"group":"hexagon_bi","fractal_assignment":["../images/ylw_slt.png","../images/pnk_blu.png","../images/gry_blk.png","../images/cyn_red.png","../images/org_blu.png","../images/blu_wht.png"],"mutagen_generator_assignment":[1,0],"goal":2,"start":4,"action_noise":0.15,"location_history":"[4,5,0,1,0,5,0,1,2]","action_history":"[1,0,1,0,0,0,1,0]","mutagen_history":"[0,1,0,1,1,1,0,1]","location_rts":"[386,109,107,30,169,299,390,500]","trial_type":"fractal-mutation","trial_index":64,"time_elapsed":825068,"internal_node_id":"0.0-5.0-10.0"},{"group":"hexagon_bi","fractal_assignment":["../images/ylw_slt.png","../images/pnk_blu.png","../images/gry_blk.png","../images/cyn_red.png","../images/org_blu.png","../images/blu_wht.png"],"mutagen_generator_assignment":[1,0],"goal":3,"start":2,"action_noise":0.15,"location_history":"[2,3]","action_history":"[1]","mutagen_history":"[0]","location_rts":"[656]","trial_type":"fractal-mutation","trial_index":65,"time_elapsed":830306,"internal_node_id":"0.0-5.0-11.0"},{"group":"hexagon_bi","fractal_assignment":["../images/ylw_slt.png","../images/pnk_blu.png","../images/gry_blk.png","../images/cyn_red.png","../images/org_blu.png","../images/blu_wht.png"],"mutagen_generator_assignment":[1,0],"goal":0,"start":3,"action_noise":0.15,"location_history":"[3,4,5,0]","action_history":"[0,1,1]","mutagen_history":"[1,0,0]","location_rts":"[378,120,231]","trial_type":"fractal-mutation","trial_index":66,"time_elapsed":837726,"internal_node_id":"0.0-5.0-12.0"},{"group":"hexagon_bi","fractal_assignment":["../images/ylw_slt.png","../images/pnk_blu.png","../images/gry_blk.png","../images/cyn_red.png","../images/org_blu.png","../images/blu_wht.png"],"mutagen_generator_assignment":[1,0],"goal":5,"start":0,"action_noise":0.15,"location_history":"[0,5]","action_history":"[1]","mutagen_history":"[0]","location_rts":"[356]","trial_type":"fractal-mutation","trial_index":67,"time_elapsed":842649,"internal_node_id":"0.0-5.0-13.0"},{"group":"hexagon_bi","fractal_assignment":["../images/ylw_slt.png","../images/pnk_blu.png","../images/gry_blk.png","../images/cyn_red.png","../images/org_blu.png","../images/blu_wht.png"],"mutagen_generator_assignment":[1,0],"goal":1,"start":5,"action_noise":0.15,"location_history":"[5,0,5,0,5,0,1]","action_history":"[1,0,0,1,0,1]","mutagen_history":"[0,1,1,0,1,0]","location_rts":"[382,536,241,247,106,344]","trial_type":"fractal-mutation","trial_index":68,"time_elapsed":854432,"internal_node_id":"0.0-5.0-14.0"},{"group":"hexagon_bi","fractal_assignment":["../images/ylw_slt.png","../images/pnk_blu.png","../images/gry_blk.png","../images/cyn_red.png","../images/org_blu.png","../images/blu_wht.png"],"mutagen_generator_assignment":[1,0],"goal":5,"start":1,"action_noise":0.15,"location_history":"[1,0,5]","action_history":"[1,0]","mutagen_history":"[0,1]","location_rts":"[399,167]","trial_type":"fractal-mutation","trial_index":69,"time_elapsed":860635,"internal_node_id":"0.0-5.0-15.0"},{"group":"hexagon_bi","fractal_assignment":["../images/ylw_slt.png","../images/pnk_blu.png","../images/gry_blk.png","../images/cyn_red.png","../images/org_blu.png","../images/blu_wht.png"],"mutagen_generator_assignment":[1,0],"goal":3,"start":5,"action_noise":0.15,"location_history":"[5,0,1,0,5,4,5,0,1,2,1,2,3]","action_history":"[0,1,0,0,1,0,0,1,0,0,0,1]","mutagen_history":"[1,0,1,1,0,1,1,0,1,1,1,0]","location_rts":"[82,139,157,165,195,65,159,178,103,213,465,175]","trial_type":"fractal-mutation","trial_index":70,"time_elapsed":878952,"internal_node_id":"0.0-5.0-16.0"},{"group":"hexagon_bi","fractal_assignment":["../images/ylw_slt.png","../images/pnk_blu.png","../images/gry_blk.png","../images/cyn_red.png","../images/org_blu.png","../images/blu_wht.png"],"mutagen_generator_assignment":[1,0],"goal":2,"start":3,"action_noise":0.15,"location_history":"[3,4,3,4,3,4,3,2]","action_history":"[1,0,0,1,0,0,1]","mutagen_history":"[0,1,1,0,1,1,0]","location_rts":"[334,206,219,96,450,232,115]","trial_type":"fractal-mutation","trial_index":71,"time_elapsed":891521,"internal_node_id":"0.0-5.0-17.0"},{"group":"hexagon_bi","fractal_assignment":["../images/ylw_slt.png","../images/pnk_blu.png","../images/gry_blk.png","../images/cyn_red.png","../images/org_blu.png","../images/blu_wht.png"],"mutagen_generator_assignment":[1,0],"goal":1,"start":2,"action_noise":0.15,"location_history":"[2,1]","action_history":"[1]","mutagen_history":"[0]","location_rts":"[578]","trial_type":"fractal-mutation","trial_index":72,"time_elapsed":896650,"internal_node_id":"0.0-5.0-18.0"},{"group":"hexagon_bi","fractal_assignment":["../images/ylw_slt.png","../images/pnk_blu.png","../images/gry_blk.png","../images/cyn_red.png","../images/org_blu.png","../images/blu_wht.png"],"mutagen_generator_assignment":[1,0],"goal":4,"start":1,"action_noise":0.15,"location_history":"[1,0,5,4]","action_history":"[1,0,1]","mutagen_history":"[0,1,0]","location_rts":"[467,258,113]","trial_type":"fractal-mutation","trial_index":73,"time_elapsed":904156,"internal_node_id":"0.0-5.0-19.0"},{"group":"hexagon_bi","fractal_assignment":["../images/ylw_slt.png","../images/pnk_blu.png","../images/gry_blk.png","../images/cyn_red.png","../images/org_blu.png","../images/blu_wht.png"],"mutagen_generator_assignment":[1,0],"goal":0,"start":4,"action_noise":0.15,"location_history":"[4,5,0]","action_history":"[1,0]","mutagen_history":"[0,1]","location_rts":"[479,264]","trial_type":"fractal-mutation","trial_index":74,"time_elapsed":910507,"internal_node_id":"0.0-5.0-20.0"},{"group":"hexagon_bi","fractal_assignment":["../images/ylw_slt.png","../images/pnk_blu.png","../images/gry_blk.png","../images/cyn_red.png","../images/org_blu.png","../images/blu_wht.png"],"mutagen_generator_assignment":[1,0],"goal":3,"start":0,"action_noise":0.15,"location_history":"[0,1,2,1,2,3]","action_history":"[1,0,0,0,1]","mutagen_history":"[0,1,1,1,0]","location_rts":"[636,60,270,377,406]","trial_type":"fractal-mutation","trial_index":75,"time_elapsed":921102,"internal_node_id":"0.0-5.0-21.0"},{"group":"hexagon_bi","fractal_assignment":["../images/ylw_slt.png","../images/pnk_blu.png","../images/gry_blk.png","../images/cyn_red.png","../images/org_blu.png","../images/blu_wht.png"],"mutagen_generator_assignment":[1,0],"goal":1,"start":3,"action_noise":0.15,"location_history":"[3,2,1]","action_history":"[1,0]","mutagen_history":"[0,1]","location_rts":"[487,516]","trial_type":"fractal-mutation","trial_index":76,"time_elapsed":927749,"internal_node_id":"0.0-5.0-22.0"},{"group":"hexagon_bi","fractal_assignment":["../images/ylw_slt.png","../images/pnk_blu.png","../images/gry_blk.png","../images/cyn_red.png","../images/org_blu.png","../images/blu_wht.png"],"mutagen_generator_assignment":[1,0],"goal":0,"start":1,"action_noise":0.15,"location_history":"[1,2,3,4,5,4,5,0]","action_history":"[0,1,0,1,1,1,0]","mutagen_history":"[1,0,1,0,0,0,1]","location_rts":"[465,21,280,380,280,467,840]","trial_type":"fractal-mutation","trial_index":77,"time_elapsed":941432,"internal_node_id":"0.0-5.0-23.0"},{"group":"hexagon_bi","fractal_assignment":["../images/ylw_slt.png","../images/pnk_blu.png","../images/gry_blk.png","../images/cyn_red.png","../images/org_blu.png","../images/blu_wht.png"],"mutagen_generator_assignment":[1,0],"goal":2,"start":0,"action_noise":0.15,"location_history":"[0,5,0,1,2]","action_history":"[1,0,1,0]","mutagen_history":"[0,1,0,1]","location_rts":"[506,334,363,31]","trial_type":"fractal-mutation","trial_index":78,"time_elapsed":950414,"internal_node_id":"0.0-5.0-24.0"},{"group":"hexagon_bi","fractal_assignment":["../images/ylw_slt.png","../images/pnk_blu.png","../images/gry_blk.png","../images/cyn_red.png","../images/org_blu.png","../images/blu_wht.png"],"mutagen_generator_assignment":[1,0],"goal":4,"start":2,"action_noise":0.15,"location_history":"[2,3,4]","action_history":"[1,0]","mutagen_history":"[0,1]","location_rts":"[400,565]","trial_type":"fractal-mutation","trial_index":79,"time_elapsed":957003,"internal_node_id":"0.0-5.0-25.0"},{"group":"hexagon_bi","fractal_assignment":["../images/ylw_slt.png","../images/pnk_blu.png","../images/gry_blk.png","../images/cyn_red.png","../images/org_blu.png","../images/blu_wht.png"],"mutagen_generator_assignment":[1,0],"goal":5,"start":4,"action_noise":0.15,"location_history":"[4,3,2,3,4,3,2,3,4,3,2,3,2,1,0,1,0,1,0,5]","action_history":"[0,1,1,0,0,1,1,0,0,1,1,1,0,1,0,1,1,1,0]","mutagen_history":"[1,0,0,1,1,0,0,1,1,0,0,0,1,0,1,0,0,0,1]","location_rts":"[351,296,187,301,287,174,193,229,301,99,232,178,549,184,58,219,130,115,168]","trial_type":"fractal-mutation","trial_index":80,"time_elapsed":985141,"internal_node_id":"0.0-5.0-26.0"},{"group":"hexagon_bi","fractal_assignment":["../images/ylw_slt.png","../images/pnk_blu.png","../images/gry_blk.png","../images/cyn_red.png","../images/org_blu.png","../images/blu_wht.png"],"mutagen_generator_assignment":[1,0],"goal":2,"start":5,"action_noise":0.15,"location_history":"[5,4,3,2]","action_history":"[1,0,1]","mutagen_history":"[0,1,0]","location_rts":"[386,31,77]","trial_type":"fractal-mutation","trial_index":81,"time_elapsed":992339,"internal_node_id":"0.0-5.0-27.0"},{"group":"hexagon_bi","fractal_assignment":["../images/ylw_slt.png","../images/pnk_blu.png","../images/gry_blk.png","../images/cyn_red.png","../images/org_blu.png","../images/blu_wht.png"],"mutagen_generator_assignment":[1,0],"goal":3,"start":2,"action_noise":0.15,"location_history":"[2,3]","action_history":"[1]","mutagen_history":"[0]","location_rts":"[354]","trial_type":"fractal-mutation","trial_index":82,"time_elapsed":997262,"internal_node_id":"0.0-5.0-28.0"},{"group":"hexagon_bi","fractal_assignment":["../images/ylw_slt.png","../images/pnk_blu.png","../images/gry_blk.png","../images/cyn_red.png","../images/org_blu.png","../images/blu_wht.png"],"mutagen_generator_assignment":[1,0],"goal":1,"start":3,"action_noise":0.15,"location_history":"[3,2,1]","action_history":"[1,0]","mutagen_history":"[0,1]","location_rts":"[504,183]","trial_type":"fractal-mutation","trial_index":83,"time_elapsed":1003643,"internal_node_id":"0.0-5.0-29.0"},{"group":"hexagon_bi","fractal_assignment":["../images/ylw_slt.png","../images/pnk_blu.png","../images/gry_blk.png","../images/cyn_red.png","../images/org_blu.png","../images/blu_wht.png"],"mutagen_generator_assignment":[1,0],"goal":4,"start":1,"action_noise":0.15,"location_history":"[1,2,3,2,1,2,3,4]","action_history":"[0,1,1,0,0,1,1]","mutagen_history":"[1,0,0,1,1,0,0]","location_rts":"[466,85,450,50,108,86,318]","trial_type":"fractal-mutation","trial_index":84,"time_elapsed":1016211,"internal_node_id":"0.0-5.0-30.0"},{"group":"hexagon_bi","fractal_assignment":["../images/ylw_slt.png","../images/pnk_blu.png","../images/gry_blk.png","../images/cyn_red.png","../images/org_blu.png","../images/blu_wht.png"],"mutagen_generator_assignment":[1,0],"goal":5,"start":4,"action_noise":0.15,"location_history":"[4,5]","action_history":"[1]","mutagen_history":"[0]","location_rts":"[283]","trial_type":"fractal-mutation","trial_index":85,"time_elapsed":1021053,"internal_node_id":"0.0-5.0-31.0"},{"group":"hexagon_bi","fractal_assignment":["../images/ylw_slt.png","../images/pnk_blu.png","../images/gry_blk.png","../images/cyn_red.png","../images/org_blu.png","../images/blu_wht.png"],"mutagen_generator_assignment":[1,0],"goal":0,"start":5,"action_noise":0.15,"location_history":"[5,4,3,2,3,4,3,2,1,0]","action_history":"[1,0,1,1,0,0,1,0,1]","mutagen_history":"[0,1,0,0,1,1,0,1,0]","location_rts":"[332,133,94,167,96,239,253,652,245]","trial_type":"fractal-mutation","trial_index":86,"time_elapsed":1036401,"internal_node_id":"0.0-5.0-32.0"},{"group":"hexagon_bi","fractal_assignment":["../images/ylw_slt.png","../images/pnk_blu.png","../images/gry_blk.png","../images/cyn_red.png","../images/org_blu.png","../images/blu_wht.png"],"mutagen_generator_assignment":[1,0],"goal":2,"start":0,"action_noise":0.15,"location_history":"[0,1,2]","action_history":"[1,0]","mutagen_history":"[0,1]","location_rts":"[426,553]","trial_type":"fractal-mutation","trial_index":87,"time_elapsed":1042993,"internal_node_id":"0.0-5.0-33.0"},{"group":"hexagon_bi","fractal_assignment":["../images/ylw_slt.png","../images/pnk_blu.png","../images/gry_blk.png","../images/cyn_red.png","../images/org_blu.png","../images/blu_wht.png"],"mutagen_generator_assignment":[1,0],"goal":0,"start":2,"action_noise":0.15,"location_history":"[2,1,2,1,2,1,0]","action_history":"[0,1,1,0,0,1]","mutagen_history":"[1,0,0,1,1,0]","location_rts":"[460,155,481,436,111,150]","trial_type":"fractal-mutation","trial_index":88,"time_elapsed":1054700,"internal_node_id":"0.0-5.0-34.0"},{"group":"hexagon_bi","fractal_assignment":["../images/ylw_slt.png","../images/pnk_blu.png","../images/gry_blk.png","../images/cyn_red.png","../images/org_blu.png","../images/blu_wht.png"],"mutagen_generator_assignment":[1,0],"goal":5,"start":0,"action_noise":0.15,"location_history":"[0,1,2,1,0,1,0,5]","action_history":"[1,0,0,1,1,1,0]","mutagen_history":"[0,1,1,0,0,0,1]","location_rts":"[389,215,102,160,148,210,746]","trial_type":"fractal-mutation","trial_index":89,"time_elapsed":1068137,"internal_node_id":"0.0-5.0-35.0"},{"group":"hexagon_bi","fractal_assignment":["../images/ylw_slt.png","../images/pnk_blu.png","../images/gry_blk.png","../images/cyn_red.png","../images/org_blu.png","../images/blu_wht.png"],"mutagen_generator_assignment":[1,0],"goal":1,"start":5,"action_noise":0.15,"location_history":"[5,0,5,4,3,2,1]","action_history":"[0,1,1,0,0,0]","mutagen_history":"[1,0,0,1,1,1]","location_rts":"[176,159,337,532,198,217]","trial_type":"fractal-mutation","trial_index":90,"time_elapsed":1079638,"internal_node_id":"0.0-5.0-36.0"},{"group":"hexagon_bi","fractal_assignment":["../images/ylw_slt.png","../images/pnk_blu.png","../images/gry_blk.png","../images/cyn_red.png","../images/org_blu.png","../images/blu_wht.png"],"mutagen_generator_assignment":[1,0],"goal":4,"start":1,"action_noise":0.15,"location_history":"[1,2,1,0,5,4]","action_history":"[1,0,1,1,1]","mutagen_history":"[0,1,0,0,0]","location_rts":"[608,16,177,175,273]","trial_type":"fractal-mutation","trial_index":91,"time_elapsed":1089766,"internal_node_id":"0.0-5.0-37.0"},{"group":"hexagon_bi","fractal_assignment":["../images/ylw_slt.png","../images/pnk_blu.png","../images/gry_blk.png","../images/cyn_red.png","../images/org_blu.png","../images/blu_wht.png"],"mutagen_generator_assignment":[1,0],"goal":3,"start":4,"action_noise":0.15,"location_history":"[4,5,0,5,4,3]","action_history":"[1,0,0,1,0]","mutagen_history":"[0,1,1,0,1]","location_rts":"[462,84,240,120,126]","trial_type":"fractal-mutation","trial_index":92,"time_elapsed":1099643,"internal_node_id":"0.0-5.0-38.0"},{"group":"hexagon_bi","fractal_assignment":["../images/ylw_slt.png","../images/pnk_blu.png","../images/gry_blk.png","../images/cyn_red.png","../images/org_blu.png","../images/blu_wht.png"],"mutagen_generator_assignment":[1,0],"goal":5,"start":3,"action_noise":0.15,"location_history":"[3,4,5]","action_history":"[0,1]","mutagen_history":"[1,0]","location_rts":"[302,147]","trial_type":"fractal-mutation","trial_index":93,"time_elapsed":1105734,"internal_node_id":"0.0-5.0-39.0"},{"group":"hexagon_bi","fractal_assignment":["../images/ylw_slt.png","../images/pnk_blu.png","../images/gry_blk.png","../images/cyn_red.png","../images/org_blu.png","../images/blu_wht.png"],"mutagen_generator_assignment":[1,0],"goal":1,"start":5,"action_noise":0.15,"location_history":"[5,4,3,4,3,4,3,4,5,4,3,4,3,4,5,0,1]","action_history":"[1,0,0,1,1,0,0,0,1,0,0,0,0,1,0,1]","mutagen_history":"[0,1,1,0,0,1,1,1,0,1,1,1,1,0,1,0]","location_rts":"[339,468,204,213,124,63,27,291,292,614,131,192,428,221,66,307]","trial_type":"fractal-mutation","trial_index":94,"time_elapsed":1132299,"internal_node_id":"0.0-5.0-40.0"},{"group":"hexagon_bi","fractal_assignment":["../images/ylw_slt.png","../images/pnk_blu.png","../images/gry_blk.png","../images/cyn_red.png","../images/org_blu.png","../images/blu_wht.png"],"mutagen_generator_assignment":[1,0],"goal":2,"start":1,"action_noise":0.15,"location_history":"[1,0,5,4,5,0,1,2]","action_history":"[1,0,1,1,0,1,0]","mutagen_history":"[0,1,0,0,1,0,1]","location_rts":"[893,272,271,201,211,214,148]","trial_type":"fractal-mutation","trial_index":95,"time_elapsed":1145863,"internal_node_id":"0.0-5.0-41.0"},{"group":"hexagon_bi","fractal_assignment":["../images/ylw_slt.png","../images/pnk_blu.png","../images/gry_blk.png","../images/cyn_red.png","../images/org_blu.png","../images/blu_wht.png"],"mutagen_generator_assignment":[1,0],"goal":4,"start":2,"action_noise":0.15,"location_history":"[2,1,2,1,2,3,4]","action_history":"[0,1,1,0,1,1]","mutagen_history":"[1,0,0,1,0,0]","location_rts":"[419,91,204,84,238,219]","trial_type":"fractal-mutation","trial_index":96,"time_elapsed":1156953,"internal_node_id":"0.0-5.0-42.0"},{"group":"hexagon_bi","fractal_assignment":["../images/ylw_slt.png","../images/pnk_blu.png","../images/gry_blk.png","../images/cyn_red.png","../images/org_blu.png","../images/blu_wht.png"],"mutagen_generator_assignment":[1,0],"goal":0,"start":4,"action_noise":0.15,"location_history":"[4,5,0]","action_history":"[1,0]","mutagen_history":"[0,1]","location_rts":"[358,245]","trial_type":"fractal-mutation","trial_index":97,"time_elapsed":1163166,"internal_node_id":"0.0-5.0-43.0"},{"group":"hexagon_bi","fractal_assignment":["../images/ylw_slt.png","../images/pnk_blu.png","../images/gry_blk.png","../images/cyn_red.png","../images/org_blu.png","../images/blu_wht.png"],"mutagen_generator_assignment":[1,0],"goal":3,"start":0,"action_noise":0.15,"location_history":"[0,5,4,5,0,1,2,3]","action_history":"[0,1,1,0,1,0,1]","mutagen_history":"[1,0,0,1,0,1,0]","location_rts":"[316,26,158,51,207,267,405]","trial_type":"fractal-mutation","trial_index":98,"time_elapsed":1175492,"internal_node_id":"0.0-5.0-44.0"},{"group":"hexagon_bi","fractal_assignment":["../images/ylw_slt.png","../images/pnk_blu.png","../images/gry_blk.png","../images/cyn_red.png","../images/org_blu.png","../images/blu_wht.png"],"mutagen_generator_assignment":[1,0],"goal":0,"start":3,"action_noise":0.15,"location_history":"[3,2,1,2,3,2,1,2,3,2,1,0]","action_history":"[1,0,0,1,1,0,0,1,1,0,1]","mutagen_history":"[0,1,1,0,0,1,1,0,0,1,0]","location_rts":"[541,138,151,217,137,111,176,104,43,130,144]","trial_type":"fractal-mutation","trial_index":99,"time_elapsed":1192497,"internal_node_id":"0.0-5.0-45.0"},{"group":"hexagon_bi","fractal_assignment":["../images/ylw_slt.png","../images/pnk_blu.png","../images/gry_blk.png","../images/cyn_red.png","../images/org_blu.png","../images/blu_wht.png"],"mutagen_generator_assignment":[1,0],"goal":4,"start":0,"action_noise":0.15,"location_history":"[0,1,2,3,4]","action_history":"[1,0,1,1]","mutagen_history":"[0,1,0,0]","location_rts":"[255,179,105,170]","trial_type":"fractal-mutation","trial_index":100,"time_elapsed":1200944,"internal_node_id":"0.0-5.0-46.0"},{"group":"hexagon_bi","fractal_assignment":["../images/ylw_slt.png","../images/pnk_blu.png","../images/gry_blk.png","../images/cyn_red.png","../images/org_blu.png","../images/blu_wht.png"],"mutagen_generator_assignment":[1,0],"goal":5,"start":4,"action_noise":0.15,"location_history":"[4,3,2,3,4,5]","action_history":"[0,1,1,0,0]","mutagen_history":"[1,0,0,1,1]","location_rts":"[330,45,67,295,187]","trial_type":"fractal-mutation","trial_index":101,"time_elapsed":1210729,"internal_node_id":"0.0-5.0-47.0"},{"group":"hexagon_bi","fractal_assignment":["../images/ylw_slt.png","../images/pnk_blu.png","../images/gry_blk.png","../images/cyn_red.png","../images/org_blu.png","../images/blu_wht.png"],"mutagen_generator_assignment":[1,0],"goal":2,"start":5,"action_noise":0.15,"location_history":"[5,0,1,0,1,2]","action_history":"[0,1,1,1,0]","mutagen_history":"[1,0,0,0,1]","location_rts":"[306,323,102,252,124]","trial_type":"fractal-mutation","trial_index":102,"time_elapsed":1220625,"internal_node_id":"0.0-5.0-48.0"},{"group":"hexagon_bi","fractal_assignment":["../images/ylw_slt.png","../images/pnk_blu.png","../images/gry_blk.png","../images/cyn_red.png","../images/org_blu.png","../images/blu_wht.png"],"mutagen_generator_assignment":[1,0],"goal":1,"start":2,"action_noise":0.15,"location_history":"[2,1]","action_history":"[1]","mutagen_history":"[0]","location_rts":"[537]","trial_type":"fractal-mutation","trial_index":103,"time_elapsed":1225719,"internal_node_id":"0.0-5.0-49.0"},{"view_history":"[{\"page_index\":0,\"viewing_time\":2795}]","rt":2795,"trial_type":"instructions","trial_index":104,"time_elapsed":1229518,"internal_node_id":"0.0-6.0"},{"rt":15676,"responses":"{\"Q0\":\"To determine how memory works with such spatial navigation.\"}","trial_type":"survey-text","trial_index":105,"time_elapsed":1246216,"internal_node_id":"0.0-7.0-0.0"},{"rt":33271,"responses":"{\"Q0\":\"I feel it was easy for one to recall patterns.\"}","trial_type":"survey-text","trial_index":106,"time_elapsed":1280494,"internal_node_id":"0.0-7.0-1.0"},{"rt":8722,"responses":"{\"Q0\":\"<img src='../images/diagrams/hexagon_tri.png'>\"}","trial_type":"survey-multi-choice","trial_index":107,"time_elapsed":1290254,"internal_node_id":"0.0-7.0-2.0"},{"rt":11687,"assignments":["../images/ylw_slt.png","../images/blu_wht.png","../images/pnk_blu.png","../images/cyn_red.png","../images/gry_blk.png","../images/org_blu.png"],"trial_type":"drag-drop-on-image","trial_index":108,"time_elapsed":1302950,"internal_node_id":"0.0-7.0-3.0"},{"rt":3518,"responses":"{\"Q0\":\"3\"}","trial_type":"survey-likert","trial_index":109,"time_elapsed":1307487,"internal_node_id":"0.0-7.0-4.0"},{"rt":13572,"responses":"{\"Q0\":\"I found both were easier to complete quickly over time.\"}","trial_type":"survey-text","trial_index":110,"time_elapsed":1322067,"internal_node_id":"0.0-7.0-5.0"},{"rt":5744,"responses":"{\"Q0\":\"Yes\"}","trial_type":"survey-multi-choice","trial_index":111,"time_elapsed":1328829,"internal_node_id":"0.0-7.0-6.0"},{"rt":7672,"responses":"{\"Q0\":\"Between sessions 2 and 3\"}","trial_type":"survey-multi-choice","trial_index":112,"time_elapsed":1337530,"internal_node_id":"0.0-7.0-7.0"},{"rt":18741,"responses":"{\"Q0\":\"I felt that the patterns were quite similar to one another over sessions.\"}","trial_type":"survey-text","trial_index":113,"time_elapsed":1357278,"internal_node_id":"0.0-7.0-8.0"},{"rt":3487,"responses":"{\"Q0\":\"3\"}","trial_type":"survey-likert","trial_index":114,"time_elapsed":1361777,"internal_node_id":"0.0-7.0-9.0"},{"rt":8976,"responses":"{\"Q0\":\"Same structure\"}","trial_type":"survey-multi-choice","trial_index":115,"time_elapsed":1371766,"internal_node_id":"0.0-7.0-10.0"},{"rt":17456,"responses":"{\"Q0\":\"left (black) door = ray, right (white) door = acid\",\"Q1\":\"Moderately confident\"}","trial_type":"survey-multi-choice","trial_index":116,"time_elapsed":1390257,"internal_node_id":"0.0-7.0-11.0"},{"rt":14409,"responses":"{\"Q0\":\"35-45\",\"Q1\":\"Bachelor's degree\",\"Q2\":\"Female\",\"Q3\":\"White\"}","trial_type":"survey-multi-choice","trial_index":117,"time_elapsed":1405748,"internal_node_id":"0.0-8.0"},{"rt":11799,"responses":"{\"Q0\":\"I very much enjoyed this HIT\"}","trial_type":"survey-text","trial_index":118,"time_elapsed":1418554,"internal_node_id":"0.0-9.0"}]