[{"view_history":"[{\"page_index\":0,\"viewing_time\":2142},{\"page_index\":1,\"viewing_time\":8790}]","rt":10934,"trial_type":"instructions","trial_index":0,"time_elapsed":10934,"internal_node_id":"0.0-0.0"},{"view_history":"[{\"page_index\":0,\"viewing_time\":4729},{\"page_index\":1,\"viewing_time\":2840}]","rt":7570,"trial_type":"instructions","trial_index":1,"time_elapsed":19504,"internal_node_id":"0.0-1.0"},{"group":"hexagon_bi","room_assignment":["purple","yellow","grey","blue","green","red"],"door_color_assignment":["white","black"],"door_generator_assignment":[1,0],"goal":2,"start":1,"action_noise":0.15,"location_history":"[1,2]","action_history":"[0]","door_history":"[1]","location_rts":"[13028]","trial_type":"two-door-navigation","trial_index":2,"time_elapsed":37051,"internal_node_id":"0.0-2.0-0.0"},{"group":"hexagon_bi","room_assignment":["purple","yellow","grey","blue","green","red"],"door_color_assignment":["white","black"],"door_generator_assignment":[1,0],"goal":0,"start":2,"action_noise":0.15,"location_history":"[2,3,4,3,2,1,0]","action_history":"[1,0,0,1,0,1]","door_history":"[0,1,1,0,1,0]","location_rts":"[1532,1254,358,659,486,622]","trial_type":"two-door-navigation","trial_index":3,"time_elapsed":51617,"internal_node_id":"0.0-2.0-1.0"},{"group":"hexagon_bi","room_assignment":["purple","yellow","grey","blue","green","red"],"door_color_assignment":["white","black"],"door_generator_assignment":[1,0],"goal":5,"start":0,"action_noise":0.15,"location_history":"[0,5]","action_history":"[0]","door_history":"[1]","location_rts":"[1601]","trial_type":"two-door-navigation","trial_index":4,"time_elapsed":57737,"internal_node_id":"0.0-2.0-2.0"},{"group":"hexagon_bi","room_assignment":["purple","yellow","grey","blue","green","red"],"door_color_assignment":["white","black"],"door_generator_assignment":[1,0],"goal":1,"start":5,"action_noise":0.15,"location_history":"[5,4,3,2,1]","action_history":"[1,1,1,0]","door_history":"[0,0,0,1]","location_rts":"[2143,335,733,1087]","trial_type":"two-door-navigation","trial_index":5,"time_elapsed":69606,"internal_node_id":"0.0-2.0-3.0"},{"group":"hexagon_bi","room_assignment":["purple","yellow","grey","blue","green","red"],"door_color_assignment":["white","black"],"door_generator_assignment":[1,0],"goal":3,"start":1,"action_noise":0.15,"location_history":"[1,0,1,0,5,0,1,2,3]","action_history":"[0,1,0,0,0,1,0,1]","door_history":"[1,0,1,1,1,0,1,0]","location_rts":"[419,316,150,360,527,327,549,507]","trial_type":"two-door-navigation","trial_index":6,"time_elapsed":84433,"internal_node_id":"0.0-2.0-4.0"},{"group":"hexagon_bi","room_assignment":["purple","yellow","grey","blue","green","red"],"door_color_assignment":["white","black"],"door_generator_assignment":[1,0],"goal":5,"start":3,"action_noise":0.15,"location_history":"[3,2,3,4,5]","action_history":"[0,1,0,0]","door_history":"[1,0,1,1]","location_rts":"[487,209,947,34]","trial_type":"two-door-navigation","trial_index":7,"time_elapsed":93638,"internal_node_id":"0.0-2.0-5.0"},{"group":"hexagon_bi","room_assignment":["purple","yellow","grey","blue","green","red"],"door_color_assignment":["white","black"],"door_generator_assignment":[1,0],"goal":4,"start":5,"action_noise":0.15,"location_history":"[5,0,1,2,1,0,5,4]","action_history":"[0,1,0,1,0,0,1]","door_history":"[1,0,1,0,1,1,0]","location_rts":"[1717,457,149,398,471,491,78]","trial_type":"two-door-navigation","trial_index":8,"time_elapsed":107987,"internal_node_id":"0.0-2.0-6.0"},{"group":"hexagon_bi","room_assignment":["purple","yellow","grey","blue","green","red"],"door_color_assignment":["white","black"],"door_generator_assignment":[1,0],"goal":0,"start":4,"action_noise":0.15,"location_history":"[4,3,2,1,0]","action_history":"[0,1,0,1]","door_history":"[1,0,1,0]","location_rts":"[813,68,123,752]","trial_type":"two-door-navigation","trial_index":9,"time_elapsed":117280,"internal_node_id":"0.0-2.0-7.0"},{"group":"hexagon_bi","room_assignment":["purple","yellow","grey","blue","green","red"],"door_color_assignment":["white","black"],"door_generator_assignment":[1,0],"goal":2,"start":0,"action_noise":0.15,"location_history":"[0,5,4,3,4,5,4,5,4,3,2]","action_history":"[0,1,0,0,1,0,1,1,0,1]","door_history":"[1,0,1,1,0,1,0,0,1,0]","location_rts":"[5343,252,422,818,1055,749,407,659,491,305]","trial_type":"two-door-navigation","trial_index":10,"time_elapsed":141444,"internal_node_id":"0.0-2.0-8.0"},{"group":"hexagon_bi","room_assignment":["purple","yellow","grey","blue","green","red"],"door_color_assignment":["white","black"],"door_generator_assignment":[1,0],"goal":4,"start":2,"action_noise":0.15,"location_history":"[2,3,4]","action_history":"[0,1]","door_history":"[1,0]","location_rts":"[1233,172]","trial_type":"two-door-navigation","trial_index":11,"time_elapsed":148368,"internal_node_id":"0.0-2.0-9.0"},{"group":"hexagon_bi","room_assignment":["purple","yellow","grey","blue","green","red"],"door_color_assignment":["white","black"],"door_generator_assignment":[1,0],"goal":2,"start":4,"action_noise":0.15,"location_history":"[4,3,2]","action_history":"[0,1]","door_history":"[1,0]","location_rts":"[261,183]","trial_type":"two-door-navigation","trial_index":12,"time_elapsed":154326,"internal_node_id":"0.0-2.0-10.0"},{"group":"hexagon_bi","room_assignment":["purple","yellow","grey","blue","green","red"],"door_color_assignment":["white","black"],"door_generator_assignment":[1,0],"goal":3,"start":2,"action_noise":0.15,"location_history":"[2,1,0,5,0,5,0,5,4,5,0,5,0,5,4,5,4,5,0,5,0,1,0,1,0,5,4,3]","action_history":"[0,1,0,1,0,1,1,0,1,0,0,0,0,1,1,1,1,0,1,0,1,0,1,1,0,1,0]","door_history":"[1,0,1,0,1,0,0,1,0,1,1,1,1,0,0,0,0,1,0,1,0,1,0,0,1,0,1]","location_rts":"[1077,569,461,591,1174,1386,640,478,831,358,297,538,417,608,523,447,297,287,204,583,427,472,444,549,27,238,518]","trial_type":"two-door-navigation","trial_index":13,"time_elapsed":199883,"internal_node_id":"0.0-2.0-11.0"},{"group":"hexagon_bi","room_assignment":["purple","yellow","grey","blue","green","red"],"door_color_assignment":["white","black"],"door_generator_assignment":[1,0],"goal":0,"start":3,"action_noise":0.15,"location_history":"[3,2,3,4,5,4,3,2,3,2,1,2,3,4,3,2,1,0]","action_history":"[0,1,0,1,1,0,1,0,1,1,0,0,1,1,1,0,1]","door_history":"[1,0,1,0,0,1,0,1,0,0,1,1,0,0,0,1,0]","location_rts":"[4457,1001,862,632,550,205,186,974,1350,317,414,606,342,1003,605,12,613]","trial_type":"two-door-navigation","trial_index":14,"time_elapsed":234693,"internal_node_id":"0.0-2.0-12.0"},{"group":"hexagon_bi","room_assignment":["purple","yellow","grey","blue","green","red"],"door_color_assignment":["white","black"],"door_generator_assignment":[1,0],"goal":5,"start":0,"action_noise":0.15,"location_history":"[0,5]","action_history":"[0]","door_history":"[1]","location_rts":"[13549]","trial_type":"two-door-navigation","trial_index":15,"time_elapsed":252754,"internal_node_id":"0.0-2.0-13.0"},{"group":"hexagon_bi","room_assignment":["purple","yellow","grey","blue","green","red"],"door_color_assignment":["white","black"],"door_generator_assignment":[1,0],"goal":1,"start":5,"action_noise":0.15,"location_history":"[5,4,3,2,1]","action_history":"[1,0,1,0]","door_history":"[0,1,0,1]","location_rts":"[1152,112,24,1064]","trial_type":"two-door-navigation","trial_index":16,"time_elapsed":262691,"internal_node_id":"0.0-2.0-14.0"},{"group":"hexagon_bi","room_assignment":["purple","yellow","grey","blue","green","red"],"door_color_assignment":["white","black"],"door_generator_assignment":[1,0],"goal":5,"start":1,"action_noise":0.15,"location_history":"[1,2,1,2,1,0,5]","action_history":"[0,1,0,0,1,0]","door_history":"[1,0,1,1,0,1]","location_rts":"[8263,354,213,342,650,267]","trial_type":"two-door-navigation","trial_index":17,"time_elapsed":282419,"internal_node_id":"0.0-2.0-15.0"},{"group":"hexagon_bi","room_assignment":["purple","yellow","grey","blue","green","red"],"door_color_assignment":["white","black"],"door_generator_assignment":[1,0],"goal":3,"start":5,"action_noise":0.15,"location_history":"[5,0,1,2,3]","action_history":"[0,1,0,0]","door_history":"[1,0,1,1]","location_rts":"[4620,7417,202,428]","trial_type":"two-door-navigation","trial_index":18,"time_elapsed":302640,"internal_node_id":"0.0-2.0-16.0"},{"group":"hexagon_bi","room_assignment":["purple","yellow","grey","blue","green","red"],"door_color_assignment":["white","black"],"door_generator_assignment":[1,0],"goal":2,"start":3,"action_noise":0.15,"location_history":"[3,4,5,0,5,0,1,0,5,4,5,0,1,2]","action_history":"[0,1,0,1,0,1,1,0,1,0,0,1,0]","door_history":"[1,0,1,0,1,0,0,1,0,1,1,0,1]","location_rts":"[1715,448,224,336,543,94,192,681,216,435,512,529,527]","trial_type":"two-door-navigation","trial_index":19,"time_elapsed":325718,"internal_node_id":"0.0-2.0-17.0"},{"group":"hexagon_bi","room_assignment":["purple","yellow","grey","blue","green","red"],"door_color_assignment":["white","black"],"door_generator_assignment":[1,0],"goal":1,"start":2,"action_noise":0.15,"location_history":"[2,3,4,3,2,3,2,3,4,3,4,5,4,5,4,3,4,3,2,3,4,5,4,3,2,1]","action_history":"[1,0,1,1,1,0,1,0,0,1,0,1,1,0,0,1,0,0,1,0,0,1,0,1,0]","door_history":"[0,1,0,0,0,1,0,1,1,0,1,0,0,1,1,0,1,1,0,1,1,0,1,0,1]","location_rts":"[2029,668,298,378,423,772,366,160,276,182,110,466,441,343,567,448,407,280,309,848,517,178,854,111,324]","trial_type":"two-door-navigation","trial_index":20,"time_elapsed":366366,"internal_node_id":"0.0-2.0-18.0"},{"group":"hexagon_bi","room_assignment":["purple","yellow","grey","blue","green","red"],"door_color_assignment":["white","black"],"door_generator_assignment":[1,0],"goal":4,"start":1,"action_noise":0.15,"location_history":"[1,2,3,4]","action_history":"[0,1,0]","door_history":"[1,0,1]","location_rts":"[5939,347,479]","trial_type":"two-door-navigation","trial_index":21,"time_elapsed":379745,"internal_node_id":"0.0-2.0-19.0"},{"group":"hexagon_bi","room_assignment":["purple","yellow","grey","blue","green","red"],"door_color_assignment":["white","black"],"door_generator_assignment":[1,0],"goal":0,"start":4,"action_noise":0.15,"location_history":"[4,3,2,1,2,3,2,1,0]","action_history":"[0,1,0,1,1,1,0,1]","door_history":"[1,0,1,0,0,0,1,0]","location_rts":"[1189,178,83,1032,2384,458,859,450]","trial_type":"two-door-navigation","trial_index":22,"time_elapsed":398009,"internal_node_id":"0.0-2.0-20.0"},{"group":"hexagon_bi","room_assignment":["purple","yellow","grey","blue","green","red"],"door_color_assignment":["white","black"],"door_generator_assignment":[1,0],"goal":3,"start":0,"action_noise":0.15,"location_history":"[0,5,0,5,4,5,0,1,2,1,0,5,4,5,0,1,2,3]","action_history":"[0,1,0,1,1,0,1,0,0,1,0,1,1,0,1,0,1]","door_history":"[1,0,1,0,0,1,0,1,1,0,1,0,0,1,0,1,0]","location_rts":"[1469,502,248,1089,314,452,451,746,864,803,10,636,422,1894,135,33,1407]","trial_type":"two-door-navigation","trial_index":23,"time_elapsed":430307,"internal_node_id":"0.0-2.0-21.0"},{"group":"hexagon_bi","room_assignment":["purple","yellow","grey","blue","green","red"],"door_color_assignment":["white","black"],"door_generator_assignment":[1,0],"goal":1,"start":3,"action_noise":0.15,"location_history":"[3,4,3,4,5,0,1]","action_history":"[0,1,0,1,0,0]","door_history":"[1,0,1,0,1,1]","location_rts":"[2282,967,184,169,619,284]","trial_type":"two-door-navigation","trial_index":24,"time_elapsed":444445,"internal_node_id":"0.0-2.0-22.0"},{"group":"hexagon_bi","room_assignment":["purple","yellow","grey","blue","green","red"],"door_color_assignment":["white","black"],"door_generator_assignment":[1,0],"goal":0,"start":1,"action_noise":0.15,"location_history":"[1,2,1,2,1,0]","action_history":"[0,1,0,1,1]","door_history":"[1,0,1,0,0]","location_rts":"[1169,934,327,1298,388]","trial_type":"two-door-navigation","trial_index":25,"time_elapsed":457183,"internal_node_id":"0.0-2.0-23.0"},{"group":"hexagon_bi","room_assignment":["purple","yellow","grey","blue","green","red"],"door_color_assignment":["white","black"],"door_generator_assignment":[1,0],"goal":2,"start":0,"action_noise":0.15,"location_history":"[0,5,4,3,2]","action_history":"[0,1,0,1]","door_history":"[1,0,1,0]","location_rts":"[887,592,204,458]","trial_type":"two-door-navigation","trial_index":26,"time_elapsed":466875,"internal_node_id":"0.0-2.0-24.0"},{"group":"hexagon_bi","room_assignment":["purple","yellow","grey","blue","green","red"],"door_color_assignment":["white","black"],"door_generator_assignment":[1,0],"goal":4,"start":2,"action_noise":0.15,"location_history":"[2,1,2,3,2,1,2,1,2,1,2,3,4]","action_history":"[0,1,0,1,0,0,1,0,0,0,1,0]","door_history":"[1,0,1,0,1,1,0,1,1,1,0,1]","location_rts":"[5583,258,311,594,652,117,477,356,376,541,299,315]","trial_type":"two-door-navigation","trial_index":27,"time_elapsed":492435,"internal_node_id":"0.0-2.0-25.0"},{"group":"hexagon_bi","room_assignment":["purple","yellow","grey","blue","green","red"],"door_color_assignment":["white","black"],"door_generator_assignment":[1,0],"goal":5,"start":4,"action_noise":0.15,"location_history":"[4,3,2,1,0,5]","action_history":"[0,1,0,1,0]","door_history":"[1,0,1,0,1]","location_rts":"[1940,613,282,617,52]","trial_type":"two-door-navigation","trial_index":28,"time_elapsed":504529,"internal_node_id":"0.0-2.0-26.0"},{"group":"hexagon_bi","room_assignment":["purple","yellow","grey","blue","green","red"],"door_color_assignment":["white","black"],"door_generator_assignment":[1,0],"goal":2,"start":5,"action_noise":0.15,"location_history":"[5,0,1,2]","action_history":"[0,1,0]","door_history":"[1,0,1]","location_rts":"[890,591,193]","trial_type":"two-door-navigation","trial_index":29,"time_elapsed":512777,"internal_node_id":"0.0-2.0-27.0"},{"group":"hexagon_bi","room_assignment":["purple","yellow","grey","blue","green","red"],"door_color_assignment":["white","black"],"door_generator_assignment":[1,0],"goal":3,"start":2,"action_noise":0.15,"location_history":"[2,1,0,5,4,3]","action_history":"[0,1,0,1,0]","door_history":"[1,0,1,0,1]","location_rts":"[5910,523,650,638,416]","trial_type":"two-door-navigation","trial_index":30,"time_elapsed":529481,"internal_node_id":"0.0-2.0-28.0"},{"group":"hexagon_bi","room_assignment":["purple","yellow","grey","blue","green","red"],"door_color_assignment":["white","black"],"door_generator_assignment":[1,0],"goal":1,"start":3,"action_noise":0.15,"location_history":"[3,4,5,0,1]","action_history":"[0,1,0,1]","door_history":"[1,0,1,0]","location_rts":"[4379,179,459,334]","trial_type":"two-door-navigation","trial_index":31,"time_elapsed":542406,"internal_node_id":"0.0-2.0-29.0"},{"group":"hexagon_bi","room_assignment":["purple","yellow","grey","blue","green","red"],"door_color_assignment":["white","black"],"door_generator_assignment":[1,0],"goal":4,"start":1,"action_noise":0.15,"location_history":"[1,2,3,4]","action_history":"[0,1,0]","door_history":"[1,0,1]","location_rts":"[1032,40,211]","trial_type":"two-door-navigation","trial_index":32,"time_elapsed":550252,"internal_node_id":"0.0-2.0-30.0"},{"group":"hexagon_bi","room_assignment":["purple","yellow","grey","blue","green","red"],"door_color_assignment":["white","black"],"door_generator_assignment":[1,0],"goal":5,"start":4,"action_noise":0.15,"location_history":"[4,3,4,3,2,3,4,3,4,3,2,1,0,5]","action_history":"[0,1,0,1,1,0,1,0,0,1,0,1,0]","door_history":"[1,0,1,0,0,1,0,1,1,0,1,0,1]","location_rts":"[4351,51,260,466,233,291,485,1156,428,516,602,112,171]","trial_type":"two-door-navigation","trial_index":33,"time_elapsed":576025,"internal_node_id":"0.0-2.0-31.0"},{"group":"hexagon_bi","room_assignment":["purple","yellow","grey","blue","green","red"],"door_color_assignment":["white","black"],"door_generator_assignment":[1,0],"goal":0,"start":5,"action_noise":0.15,"location_history":"[5,0]","action_history":"[0]","door_history":"[1]","location_rts":"[2961]","trial_type":"two-door-navigation","trial_index":34,"time_elapsed":583500,"internal_node_id":"0.0-2.0-32.0"},{"group":"hexagon_bi","room_assignment":["purple","yellow","grey","blue","green","red"],"door_color_assignment":["white","black"],"door_generator_assignment":[1,0],"goal":2,"start":0,"action_noise":0.15,"location_history":"[0,5,0,1,0,1,0,5,4,3,2]","action_history":"[1,0,1,0,1,0,0,1,0,1]","door_history":"[0,1,0,1,0,1,1,0,1,0]","location_rts":"[1145,348,555,419,799,603,607,575,496,1070]","trial_type":"two-door-navigation","trial_index":35,"time_elapsed":603770,"internal_node_id":"0.0-2.0-33.0"},{"group":"hexagon_bi","room_assignment":["purple","yellow","grey","blue","green","red"],"door_color_assignment":["white","black"],"door_generator_assignment":[1,0],"goal":0,"start":2,"action_noise":0.15,"location_history":"[2,3,2,1,0]","action_history":"[0,1,0,1]","door_history":"[1,0,1,0]","location_rts":"[3093,350,378,998]","trial_type":"two-door-navigation","trial_index":36,"time_elapsed":616135,"internal_node_id":"0.0-2.0-34.0"},{"group":"hexagon_bi","room_assignment":["purple","yellow","grey","blue","green","red"],"door_color_assignment":["white","black"],"door_generator_assignment":[1,0],"goal":5,"start":0,"action_noise":0.15,"location_history":"[0,5]","action_history":"[1]","door_history":"[0]","location_rts":"[595]","trial_type":"two-door-navigation","trial_index":37,"time_elapsed":621262,"internal_node_id":"0.0-2.0-35.0"},{"group":"hexagon_bi","room_assignment":["purple","yellow","grey","blue","green","red"],"door_color_assignment":["white","black"],"door_generator_assignment":[1,0],"goal":1,"start":5,"action_noise":0.15,"location_history":"[5,0,1]","action_history":"[0,1]","door_history":"[1,0]","location_rts":"[1497,1461]","trial_type":"two-door-navigation","trial_index":38,"time_elapsed":629755,"internal_node_id":"0.0-2.0-36.0"},{"group":"hexagon_bi","room_assignment":["purple","yellow","grey","blue","green","red"],"door_color_assignment":["white","black"],"door_generator_assignment":[1,0],"goal":4,"start":1,"action_noise":0.15,"location_history":"[1,0,1,2,1,0,5,4]","action_history":"[0,1,0,0,1,0,1]","door_history":"[1,0,1,1,0,1,0]","location_rts":"[1814,566,68,499,567,49,64]","trial_type":"two-door-navigation","trial_index":39,"time_elapsed":644021,"internal_node_id":"0.0-2.0-37.0"},{"group":"hexagon_bi","room_assignment":["purple","yellow","grey","blue","green","red"],"door_color_assignment":["white","black"],"door_generator_assignment":[1,0],"goal":3,"start":4,"action_noise":0.15,"location_history":"[4,3]","action_history":"[0]","door_history":"[1]","location_rts":"[510]","trial_type":"two-door-navigation","trial_index":40,"time_elapsed":649057,"internal_node_id":"0.0-2.0-38.0"},{"group":"hexagon_bi","room_assignment":["purple","yellow","grey","blue","green","red"],"door_color_assignment":["white","black"],"door_generator_assignment":[1,0],"goal":5,"start":3,"action_noise":0.15,"location_history":"[3,4,5]","action_history":"[0,1]","door_history":"[1,0]","location_rts":"[871,418]","trial_type":"two-door-navigation","trial_index":41,"time_elapsed":655881,"internal_node_id":"0.0-2.0-39.0"},{"group":"hexagon_bi","room_assignment":["purple","yellow","grey","blue","green","red"],"door_color_assignment":["white","black"],"door_generator_assignment":[1,0],"goal":1,"start":5,"action_noise":0.15,"location_history":"[5,0,1]","action_history":"[0,1]","door_history":"[1,0]","location_rts":"[979,414]","trial_type":"two-door-navigation","trial_index":42,"time_elapsed":662794,"internal_node_id":"0.0-2.0-40.0"},{"group":"hexagon_bi","room_assignment":["purple","yellow","grey","blue","green","red"],"door_color_assignment":["white","black"],"door_generator_assignment":[1,0],"goal":2,"start":1,"action_noise":0.15,"location_history":"[1,2]","action_history":"[0]","door_history":"[1]","location_rts":"[1044]","trial_type":"two-door-navigation","trial_index":43,"time_elapsed":668347,"internal_node_id":"0.0-2.0-41.0"},{"group":"hexagon_bi","room_assignment":["purple","yellow","grey","blue","green","red"],"door_color_assignment":["white","black"],"door_generator_assignment":[1,0],"goal":4,"start":2,"action_noise":0.15,"location_history":"[2,1,2,1,0,5,0,1,0,1,2,1,0,5,0,1,2,3,2,3,4]","action_history":"[0,1,0,1,0,0,1,0,1,1,0,1,0,0,0,1,0,1,0,0]","door_history":"[1,0,1,0,1,1,0,1,0,0,1,0,1,1,1,0,1,0,1,1]","location_rts":"[712,399,1008,413,201,674,83,23,809,307,462,707,567,1091,558,610,27,689,979,268]","trial_type":"two-door-navigation","trial_index":44,"time_elapsed":702752,"internal_node_id":"0.0-2.0-42.0"},{"group":"hexagon_bi","room_assignment":["purple","yellow","grey","blue","green","red"],"door_color_assignment":["white","black"],"door_generator_assignment":[1,0],"goal":0,"start":4,"action_noise":0.15,"location_history":"[4,5,4,3,4,5,0]","action_history":"[0,1,0,0,1,0]","door_history":"[1,0,1,1,0,1]","location_rts":"[1923,214,451,280,49,344]","trial_type":"two-door-navigation","trial_index":45,"time_elapsed":715622,"internal_node_id":"0.0-2.0-43.0"},{"group":"hexagon_bi","room_assignment":["purple","yellow","grey","blue","green","red"],"door_color_assignment":["white","black"],"door_generator_assignment":[1,0],"goal":3,"start":0,"action_noise":0.15,"location_history":"[0,1,0,5,0,5,4,5,0,1,0,5,0,5,0,5,0,1,0,5,4,3]","action_history":"[0,1,0,1,0,0,1,0,0,1,0,0,0,1,0,0,1,1,0,1,0]","door_history":"[1,0,1,0,1,1,0,1,1,0,1,1,1,0,1,1,0,0,1,0,1]","location_rts":"[12447,6613,166,557,551,311,404,554,103,149,40,461,498,435,605,478,99,483,540,161,352]","trial_type":"two-door-navigation","trial_index":46,"time_elapsed":766519,"internal_node_id":"0.0-2.0-44.0"},{"group":"hexagon_bi","room_assignment":["purple","yellow","grey","blue","green","red"],"door_color_assignment":["white","black"],"door_generator_assignment":[1,0],"goal":0,"start":3,"action_noise":0.15,"location_history":"[3,4,5,0]","action_history":"[0,1,0]","door_history":"[1,0,1]","location_rts":"[3592,943,88]","trial_type":"two-door-navigation","trial_index":47,"time_elapsed":777667,"internal_node_id":"0.0-2.0-45.0"},{"group":"hexagon_bi","room_assignment":["purple","yellow","grey","blue","green","red"],"door_color_assignment":["white","black"],"door_generator_assignment":[1,0],"goal":4,"start":0,"action_noise":0.15,"location_history":"[0,5,4]","action_history":"[0,1]","door_history":"[1,0]","location_rts":"[1751,590]","trial_type":"two-door-navigation","trial_index":48,"time_elapsed":785562,"internal_node_id":"0.0-2.0-46.0"},{"group":"hexagon_bi","room_assignment":["purple","yellow","grey","blue","green","red"],"door_color_assignment":["white","black"],"door_generator_assignment":[1,0],"goal":5,"start":4,"action_noise":0.15,"location_history":"[4,3,2,1,0,5]","action_history":"[0,1,0,1,0]","door_history":"[1,0,1,0,1]","location_rts":"[3116,324,175,698,210]","trial_type":"two-door-navigation","trial_index":49,"time_elapsed":798717,"internal_node_id":"0.0-2.0-47.0"},{"group":"hexagon_bi","room_assignment":["purple","yellow","grey","blue","green","red"],"door_color_assignment":["white","black"],"door_generator_assignment":[1,0],"goal":2,"start":5,"action_noise":0.15,"location_history":"[5,4,3,2]","action_history":"[1,0,1]","door_history":"[0,1,0]","location_rts":"[6306,257,85]","trial_type":"two-door-navigation","trial_index":50,"time_elapsed":811898,"internal_node_id":"0.0-2.0-48.0"},{"group":"hexagon_bi","room_assignment":["purple","yellow","grey","blue","green","red"],"door_color_assignment":["white","black"],"door_generator_assignment":[1,0],"goal":1,"start":2,"action_noise":0.15,"location_history":"[2,1]","action_history":"[0]","door_history":"[1]","location_rts":"[357]","trial_type":"two-door-navigation","trial_index":51,"time_elapsed":816776,"internal_node_id":"0.0-2.0-49.0"},{"view_history":"[{\"page_index\":0,\"viewing_time\":14632}]","rt":14633,"trial_type":"instructions","trial_index":52,"time_elapsed":832409,"internal_node_id":"0.0-3.0"},{"view_history":"[{\"page_index\":0,\"viewing_time\":2255},{\"page_index\":1,\"viewing_time\":3612}]","rt":5868,"trial_type":"instructions","trial_index":53,"time_elapsed":839314,"internal_node_id":"0.0-4.0"},{"group":"hexagon_bi","fractal_assignment":["../images/org_blu.png","../images/blu_wht.png","../images/ylw_slt.png","../images/cyn_red.png","../images/gry_blk.png","../images/pnk_blu.png"],"mutagen_generator_assignment":[0,1],"goal":2,"start":1,"action_noise":0.15,"location_history":"[1,2]","action_history":"[0]","mutagen_history":"[0]","location_rts":"[11163]","trial_type":"fractal-mutation","trial_index":54,"time_elapsed":855014,"internal_node_id":"0.0-5.0-0.0"},{"group":"hexagon_bi","fractal_assignment":["../images/org_blu.png","../images/blu_wht.png","../images/ylw_slt.png","../images/cyn_red.png","../images/gry_blk.png","../images/pnk_blu.png"],"mutagen_generator_assignment":[0,1],"goal":0,"start":2,"action_noise":0.15,"location_history":"[2,3,4,5,4,5,4,5,0]","action_history":"[1,0,1,1,1,1,1,0]","mutagen_history":"[1,0,1,1,1,1,1,0]","location_rts":"[419,282,365,1003,837,514,613,330]","trial_type":"fractal-mutation","trial_index":55,"time_elapsed":871269,"internal_node_id":"0.0-5.0-1.0"},{"group":"hexagon_bi","fractal_assignment":["../images/org_blu.png","../images/blu_wht.png","../images/ylw_slt.png","../images/cyn_red.png","../images/gry_blk.png","../images/pnk_blu.png"],"mutagen_generator_assignment":[0,1],"goal":5,"start":0,"action_noise":0.15,"location_history":"[0,5]","action_history":"[0]","mutagen_history":"[0]","location_rts":"[34128]","trial_type":"fractal-mutation","trial_index":56,"time_elapsed":909946,"internal_node_id":"0.0-5.0-2.0"},{"group":"hexagon_bi","fractal_assignment":["../images/org_blu.png","../images/blu_wht.png","../images/ylw_slt.png","../images/cyn_red.png","../images/gry_blk.png","../images/pnk_blu.png"],"mutagen_generator_assignment":[0,1],"goal":1,"start":5,"action_noise":0.15,"location_history":"[5,0,1]","action_history":"[0,1]","mutagen_history":"[0,1]","location_rts":"[1810,110]","trial_type":"fractal-mutation","trial_index":57,"time_elapsed":917417,"internal_node_id":"0.0-5.0-3.0"},{"group":"hexagon_bi","fractal_assignment":["../images/org_blu.png","../images/blu_wht.png","../images/ylw_slt.png","../images/cyn_red.png","../images/gry_blk.png","../images/pnk_blu.png"],"mutagen_generator_assignment":[0,1],"goal":3,"start":1,"action_noise":0.15,"location_history":"[1,0,5,4,5,4,5,4,3]","action_history":"[1,0,1,1,1,0,1,0]","mutagen_history":"[1,0,1,1,1,0,1,0]","location_rts":"[1477,628,199,488,458,70,921,165]","trial_type":"fractal-mutation","trial_index":58,"time_elapsed":933563,"internal_node_id":"0.0-5.0-4.0"},{"group":"hexagon_bi","fractal_assignment":["../images/org_blu.png","../images/blu_wht.png","../images/ylw_slt.png","../images/cyn_red.png","../images/gry_blk.png","../images/pnk_blu.png"],"mutagen_generator_assignment":[0,1],"goal":5,"start":3,"action_noise":0.15,"location_history":"[3,4,5]","action_history":"[0,1]","mutagen_history":"[0,1]","location_rts":"[6676,438]","trial_type":"fractal-mutation","trial_index":59,"time_elapsed":946245,"internal_node_id":"0.0-5.0-5.0"},{"group":"hexagon_bi","fractal_assignment":["../images/org_blu.png","../images/blu_wht.png","../images/ylw_slt.png","../images/cyn_red.png","../images/gry_blk.png","../images/pnk_blu.png"],"mutagen_generator_assignment":[0,1],"goal":4,"start":5,"action_noise":0.15,"location_history":"[5,4]","action_history":"[1]","mutagen_history":"[1]","location_rts":"[1567]","trial_type":"fractal-mutation","trial_index":60,"time_elapsed":952342,"internal_node_id":"0.0-5.0-6.0"},{"group":"hexagon_bi","fractal_assignment":["../images/org_blu.png","../images/blu_wht.png","../images/ylw_slt.png","../images/cyn_red.png","../images/gry_blk.png","../images/pnk_blu.png"],"mutagen_generator_assignment":[0,1],"goal":0,"start":4,"action_noise":0.15,"location_history":"[4,5,0]","action_history":"[1,0]","mutagen_history":"[1,0]","location_rts":"[2596,328]","trial_type":"fractal-mutation","trial_index":61,"time_elapsed":960833,"internal_node_id":"0.0-5.0-7.0"},{"group":"hexagon_bi","fractal_assignment":["../images/org_blu.png","../images/blu_wht.png","../images/ylw_slt.png","../images/cyn_red.png","../images/gry_blk.png","../images/pnk_blu.png"],"mutagen_generator_assignment":[0,1],"goal":2,"start":0,"action_noise":0.15,"location_history":"[0,5,0,1,2]","action_history":"[0,0,1,1]","mutagen_history":"[0,0,1,1]","location_rts":"[1956,1106,383,789]","trial_type":"fractal-mutation","trial_index":62,"time_elapsed":972704,"internal_node_id":"0.0-5.0-8.0"},{"group":"hexagon_bi","fractal_assignment":["../images/org_blu.png","../images/blu_wht.png","../images/ylw_slt.png","../images/cyn_red.png","../images/gry_blk.png","../images/pnk_blu.png"],"mutagen_generator_assignment":[0,1],"goal":4,"start":2,"action_noise":0.15,"location_history":"[2,1,0,1,0,5,0,5,0,1,2,3,4]","action_history":"[1,0,1,1,0,1,0,0,1,0,1,0]","mutagen_history":"[1,0,1,1,0,1,0,0,1,0,1,0]","location_rts":"[23478,760,1561,715,160,273,1226,482,591,404,117,600]","trial_type":"fractal-mutation","trial_index":63,"time_elapsed":1018951,"internal_node_id":"0.0-5.0-9.0"},{"group":"hexagon_bi","fractal_assignment":["../images/org_blu.png","../images/blu_wht.png","../images/ylw_slt.png","../images/cyn_red.png","../images/gry_blk.png","../images/pnk_blu.png"],"mutagen_generator_assignment":[0,1],"goal":2,"start":4,"action_noise":0.15,"location_history":"[4,5,4,5,0,5,4,5,4,5,4,5,0,1,2]","action_history":"[1,0,1,1,0,1,0,1,1,0,1,1,0,0]","mutagen_history":"[1,0,1,1,0,1,0,1,1,0,1,1,0,0]","location_rts":"[1615,651,185,727,215,141,366,197,247,144,268,528,98,727]","trial_type":"fractal-mutation","trial_index":64,"time_elapsed":1043289,"internal_node_id":"0.0-5.0-10.0"},{"group":"hexagon_bi","fractal_assignment":["../images/org_blu.png","../images/blu_wht.png","../images/ylw_slt.png","../images/cyn_red.png","../images/gry_blk.png","../images/pnk_blu.png"],"mutagen_generator_assignment":[0,1],"goal":3,"start":2,"action_noise":0.15,"location_history":"[2,3]","action_history":"[1]","mutagen_history":"[1]","location_rts":"[3313]","trial_type":"fractal-mutation","trial_index":65,"time_elapsed":1051129,"internal_node_id":"0.0-5.0-11.0"},{"group":"hexagon_bi","fractal_assignment":["../images/org_blu.png","../images/blu_wht.png","../images/ylw_slt.png","../images/cyn_red.png","../images/gry_blk.png","../images/pnk_blu.png"],"mutagen_generator_assignment":[0,1],"goal":0,"start":3,"action_noise":0.15,"location_history":"[3,2,1,0]","action_history":"[1,0,1]","mutagen_history":"[1,0,1]","location_rts":"[1978,218,52]","trial_type":"fractal-mutation","trial_index":66,"time_elapsed":1059970,"internal_node_id":"0.0-5.0-12.0"},{"group":"hexagon_bi","fractal_assignment":["../images/org_blu.png","../images/blu_wht.png","../images/ylw_slt.png","../images/cyn_red.png","../images/gry_blk.png","../images/pnk_blu.png"],"mutagen_generator_assignment":[0,1],"goal":5,"start":0,"action_noise":0.15,"location_history":"[0,1,2,3,4,3,4,5]","action_history":"[1,0,1,0,0,0,1]","mutagen_history":"[1,0,1,0,0,0,1]","location_rts":"[1494,315,523,115,524,660,173]","trial_type":"fractal-mutation","trial_index":67,"time_elapsed":1074494,"internal_node_id":"0.0-5.0-13.0"},{"group":"hexagon_bi","fractal_assignment":["../images/org_blu.png","../images/blu_wht.png","../images/ylw_slt.png","../images/cyn_red.png","../images/gry_blk.png","../images/pnk_blu.png"],"mutagen_generator_assignment":[0,1],"goal":1,"start":5,"action_noise":0.15,"location_history":"[5,0,1]","action_history":"[0,1]","mutagen_history":"[0,1]","location_rts":"[1411,317]","trial_type":"fractal-mutation","trial_index":68,"time_elapsed":1081768,"internal_node_id":"0.0-5.0-14.0"},{"group":"hexagon_bi","fractal_assignment":["../images/org_blu.png","../images/blu_wht.png","../images/ylw_slt.png","../images/cyn_red.png","../images/gry_blk.png","../images/pnk_blu.png"],"mutagen_generator_assignment":[0,1],"goal":5,"start":1,"action_noise":0.15,"location_history":"[1,2,3,4,3,2,3,2,3,4,5]","action_history":"[0,1,0,1,0,1,0,1,0,1]","mutagen_history":"[0,1,0,1,0,1,0,1,0,1]","location_rts":"[1420,118,646,1391,850,714,233,324,226,305]","trial_type":"fractal-mutation","trial_index":69,"time_elapsed":1101882,"internal_node_id":"0.0-5.0-15.0"},{"group":"hexagon_bi","fractal_assignment":["../images/org_blu.png","../images/blu_wht.png","../images/ylw_slt.png","../images/cyn_red.png","../images/gry_blk.png","../images/pnk_blu.png"],"mutagen_generator_assignment":[0,1],"goal":3,"start":5,"action_noise":0.15,"location_history":"[5,4,3]","action_history":"[1,0]","mutagen_history":"[1,0]","location_rts":"[4897,736]","trial_type":"fractal-mutation","trial_index":70,"time_elapsed":1113066,"internal_node_id":"0.0-5.0-16.0"},{"group":"hexagon_bi","fractal_assignment":["../images/org_blu.png","../images/blu_wht.png","../images/ylw_slt.png","../images/cyn_red.png","../images/gry_blk.png","../images/pnk_blu.png"],"mutagen_generator_assignment":[0,1],"goal":2,"start":3,"action_noise":0.15,"location_history":"[3,2]","action_history":"[1]","mutagen_history":"[1]","location_rts":"[1628]","trial_type":"fractal-mutation","trial_index":71,"time_elapsed":1119229,"internal_node_id":"0.0-5.0-17.0"},{"group":"hexagon_bi","fractal_assignment":["../images/org_blu.png","../images/blu_wht.png","../images/ylw_slt.png","../images/cyn_red.png","../images/gry_blk.png","../images/pnk_blu.png"],"mutagen_generator_assignment":[0,1],"goal":1,"start":2,"action_noise":0.15,"location_history":"[2,1]","action_history":"[1]","mutagen_history":"[1]","location_rts":"[3195]","trial_type":"fractal-mutation","trial_index":72,"time_elapsed":1126990,"internal_node_id":"0.0-5.0-18.0"},{"group":"hexagon_bi","fractal_assignment":["../images/org_blu.png","../images/blu_wht.png","../images/ylw_slt.png","../images/cyn_red.png","../images/gry_blk.png","../images/pnk_blu.png"],"mutagen_generator_assignment":[0,1],"goal":4,"start":1,"action_noise":0.15,"location_history":"[1,0,5,4]","action_history":"[1,0,1]","mutagen_history":"[1,0,1]","location_rts":"[4328,449,425]","trial_type":"fractal-mutation","trial_index":73,"time_elapsed":1138832,"internal_node_id":"0.0-5.0-19.0"},{"group":"hexagon_bi","fractal_assignment":["../images/org_blu.png","../images/blu_wht.png","../images/ylw_slt.png","../images/cyn_red.png","../images/gry_blk.png","../images/pnk_blu.png"],"mutagen_generator_assignment":[0,1],"goal":0,"start":4,"action_noise":0.15,"location_history":"[4,5,0]","action_history":"[1,0]","mutagen_history":"[1,0]","location_rts":"[3797,526]","trial_type":"fractal-mutation","trial_index":74,"time_elapsed":1148721,"internal_node_id":"0.0-5.0-20.0"},{"group":"hexagon_bi","fractal_assignment":["../images/org_blu.png","../images/blu_wht.png","../images/ylw_slt.png","../images/cyn_red.png","../images/gry_blk.png","../images/pnk_blu.png"],"mutagen_generator_assignment":[0,1],"goal":3,"start":0,"action_noise":0.15,"location_history":"[0,1,0,5,4,3]","action_history":"[1,0,1,1,0]","mutagen_history":"[1,0,1,1,0]","location_rts":"[5092,1382,686,1533,157]","trial_type":"fractal-mutation","trial_index":75,"time_elapsed":1166181,"internal_node_id":"0.0-5.0-21.0"},{"group":"hexagon_bi","fractal_assignment":["../images/org_blu.png","../images/blu_wht.png","../images/ylw_slt.png","../images/cyn_red.png","../images/gry_blk.png","../images/pnk_blu.png"],"mutagen_generator_assignment":[0,1],"goal":1,"start":3,"action_noise":0.15,"location_history":"[3,2,1]","action_history":"[1,0]","mutagen_history":"[1,0]","location_rts":"[2076,365]","trial_type":"fractal-mutation","trial_index":76,"time_elapsed":1174223,"internal_node_id":"0.0-5.0-22.0"},{"group":"hexagon_bi","fractal_assignment":["../images/org_blu.png","../images/blu_wht.png","../images/ylw_slt.png","../images/cyn_red.png","../images/gry_blk.png","../images/pnk_blu.png"],"mutagen_generator_assignment":[0,1],"goal":0,"start":1,"action_noise":0.15,"location_history":"[1,2,3,2,1,0]","action_history":"[0,1,1,0,1]","mutagen_history":"[0,1,1,0,1]","location_rts":"[14622,748,726,338,418]","trial_type":"fractal-mutation","trial_index":77,"time_elapsed":1199777,"internal_node_id":"0.0-5.0-23.0"},{"group":"hexagon_bi","fractal_assignment":["../images/org_blu.png","../images/blu_wht.png","../images/ylw_slt.png","../images/cyn_red.png","../images/gry_blk.png","../images/pnk_blu.png"],"mutagen_generator_assignment":[0,1],"goal":2,"start":0,"action_noise":0.15,"location_history":"[0,5,0,1,0,1,2]","action_history":"[1,0,1,1,1,0]","mutagen_history":"[1,0,1,1,1,0]","location_rts":"[21821,299,448,267,695,229]","trial_type":"fractal-mutation","trial_index":78,"time_elapsed":1233368,"internal_node_id":"0.0-5.0-24.0"},{"group":"hexagon_bi","fractal_assignment":["../images/org_blu.png","../images/blu_wht.png","../images/ylw_slt.png","../images/cyn_red.png","../images/gry_blk.png","../images/pnk_blu.png"],"mutagen_generator_assignment":[0,1],"goal":4,"start":2,"action_noise":0.15,"location_history":"[2,3,4]","action_history":"[1,0]","mutagen_history":"[1,0]","location_rts":"[8266,511]","trial_type":"fractal-mutation","trial_index":79,"time_elapsed":1247692,"internal_node_id":"0.0-5.0-25.0"},{"group":"hexagon_bi","fractal_assignment":["../images/org_blu.png","../images/blu_wht.png","../images/ylw_slt.png","../images/cyn_red.png","../images/gry_blk.png","../images/pnk_blu.png"],"mutagen_generator_assignment":[0,1],"goal":5,"start":4,"action_noise":0.15,"location_history":"[4,5]","action_history":"[1]","mutagen_history":"[1]","location_rts":"[6398]","trial_type":"fractal-mutation","trial_index":80,"time_elapsed":1258615,"internal_node_id":"0.0-5.0-26.0"},{"group":"hexagon_bi","fractal_assignment":["../images/org_blu.png","../images/blu_wht.png","../images/ylw_slt.png","../images/cyn_red.png","../images/gry_blk.png","../images/pnk_blu.png"],"mutagen_generator_assignment":[0,1],"goal":2,"start":5,"action_noise":0.15,"location_history":"[5,0,1,0,5,4,5,0,1,0,1,0,5,0,1,0,5,0,1,2]","action_history":"[0,1,1,0,1,1,0,1,1,0,1,0,0,1,1,0,1,1,0]","mutagen_history":"[0,1,1,0,1,1,0,1,1,0,1,0,0,1,1,0,1,1,0]","location_rts":"[1657,391,520,650,406,829,514,600,2136,486,165,697,262,139,706,345,376,895,155]","trial_type":"fractal-mutation","trial_index":81,"time_elapsed":1293617,"internal_node_id":"0.0-5.0-27.0"},{"group":"hexagon_bi","fractal_assignment":["../images/org_blu.png","../images/blu_wht.png","../images/ylw_slt.png","../images/cyn_red.png","../images/gry_blk.png","../images/pnk_blu.png"],"mutagen_generator_assignment":[0,1],"goal":3,"start":2,"action_noise":0.15,"location_history":"[2,1,2,3]","action_history":"[1,0,0]","mutagen_history":"[1,0,0]","location_rts":"[4449,1242,208]","trial_type":"fractal-mutation","trial_index":82,"time_elapsed":1306234,"internal_node_id":"0.0-5.0-28.0"},{"group":"hexagon_bi","fractal_assignment":["../images/org_blu.png","../images/blu_wht.png","../images/ylw_slt.png","../images/cyn_red.png","../images/gry_blk.png","../images/pnk_blu.png"],"mutagen_generator_assignment":[0,1],"goal":1,"start":3,"action_noise":0.15,"location_history":"[3,4,5,0,5,4,3,2,1]","action_history":"[0,1,0,0,1,0,1,0]","mutagen_history":"[0,1,0,0,1,0,1,0]","location_rts":"[1882,444,191,468,455,78,351,453]","trial_type":"fractal-mutation","trial_index":83,"time_elapsed":1322265,"internal_node_id":"0.0-5.0-29.0"},{"group":"hexagon_bi","fractal_assignment":["../images/org_blu.png","../images/blu_wht.png","../images/ylw_slt.png","../images/cyn_red.png","../images/gry_blk.png","../images/pnk_blu.png"],"mutagen_generator_assignment":[0,1],"goal":4,"start":1,"action_noise":0.15,"location_history":"[1,0,1,0,1,2,3,2,3,2,1,0,5,4]","action_history":"[1,0,1,1,0,1,0,1,1,1,1,0,1]","mutagen_history":"[1,0,1,1,0,1,0,1,1,1,1,0,1]","location_rts":"[5665,404,836,372,292,310,552,320,288,1067,581,415,581]","trial_type":"fractal-mutation","trial_index":84,"time_elapsed":1350845,"internal_node_id":"0.0-5.0-30.0"},{"group":"hexagon_bi","fractal_assignment":["../images/org_blu.png","../images/blu_wht.png","../images/ylw_slt.png","../images/cyn_red.png","../images/gry_blk.png","../images/pnk_blu.png"],"mutagen_generator_assignment":[0,1],"goal":5,"start":4,"action_noise":0.15,"location_history":"[4,5]","action_history":"[1]","mutagen_history":"[1]","location_rts":"[6803]","trial_type":"fractal-mutation","trial_index":85,"time_elapsed":1362287,"internal_node_id":"0.0-5.0-31.0"},{"group":"hexagon_bi","fractal_assignment":["../images/org_blu.png","../images/blu_wht.png","../images/ylw_slt.png","../images/cyn_red.png","../images/gry_blk.png","../images/pnk_blu.png"],"mutagen_generator_assignment":[0,1],"goal":0,"start":5,"action_noise":0.15,"location_history":"[5,4,5,4,5,0]","action_history":"[1,0,1,1,0]","mutagen_history":"[1,0,1,1,0]","location_rts":"[8475,325,689,1030,422]","trial_type":"fractal-mutation","trial_index":86,"time_elapsed":1382312,"internal_node_id":"0.0-5.0-32.0"},{"group":"hexagon_bi","fractal_assignment":["../images/org_blu.png","../images/blu_wht.png","../images/ylw_slt.png","../images/cyn_red.png","../images/gry_blk.png","../images/pnk_blu.png"],"mutagen_generator_assignment":[0,1],"goal":2,"start":0,"action_noise":0.15,"location_history":"[0,1,2]","action_history":"[0,1]","mutagen_history":"[0,1]","location_rts":"[56914,474]","trial_type":"fractal-mutation","trial_index":87,"time_elapsed":1446108,"internal_node_id":"0.0-5.0-33.0"},{"group":"hexagon_bi","fractal_assignment":["../images/org_blu.png","../images/blu_wht.png","../images/ylw_slt.png","../images/cyn_red.png","../images/gry_blk.png","../images/pnk_blu.png"],"mutagen_generator_assignment":[0,1],"goal":0,"start":2,"action_noise":0.15,"location_history":"[2,1,0]","action_history":"[0,1]","mutagen_history":"[0,1]","location_rts":"[4865,491]","trial_type":"fractal-mutation","trial_index":88,"time_elapsed":1457570,"internal_node_id":"0.0-5.0-34.0"},{"group":"hexagon_bi","fractal_assignment":["../images/org_blu.png","../images/blu_wht.png","../images/ylw_slt.png","../images/cyn_red.png","../images/gry_blk.png","../images/pnk_blu.png"],"mutagen_generator_assignment":[0,1],"goal":5,"start":0,"action_noise":0.15,"location_history":"[0,1,2,1,0,1,2,3,4,5]","action_history":"[1,0,0,1,1,0,1,0,1]","mutagen_history":"[1,0,0,1,1,0,1,0,1]","location_rts":"[25380,872,821,391,616,849,182,383,435]","trial_type":"fractal-mutation","trial_index":89,"time_elapsed":1500312,"internal_node_id":"0.0-5.0-35.0"},{"group":"hexagon_bi","fractal_assignment":["../images/org_blu.png","../images/blu_wht.png","../images/ylw_slt.png","../images/cyn_red.png","../images/gry_blk.png","../images/pnk_blu.png"],"mutagen_generator_assignment":[0,1],"goal":1,"start":5,"action_noise":0.15,"location_history":"[5,4,3,4,5,0,5,4,3,2,1]","action_history":"[1,1,0,1,0,0,1,0,1,0]","mutagen_history":"[1,1,0,1,0,0,1,0,1,0]","location_rts":"[16054,442,214,313,320,259,561,520,672,253]","trial_type":"fractal-mutation","trial_index":90,"time_elapsed":1533663,"internal_node_id":"0.0-5.0-36.0"},{"group":"hexagon_bi","fractal_assignment":["../images/org_blu.png","../images/blu_wht.png","../images/ylw_slt.png","../images/cyn_red.png","../images/gry_blk.png","../images/pnk_blu.png"],"mutagen_generator_assignment":[0,1],"goal":4,"start":1,"action_noise":0.15,"location_history":"[1,0,5,4]","action_history":"[1,0,1]","mutagen_history":"[1,0,1]","location_rts":"[45391,457,1357]","trial_type":"fractal-mutation","trial_index":91,"time_elapsed":1587461,"internal_node_id":"0.0-5.0-37.0"},{"group":"hexagon_bi","fractal_assignment":["../images/org_blu.png","../images/blu_wht.png","../images/ylw_slt.png","../images/cyn_red.png","../images/gry_blk.png","../images/pnk_blu.png"],"mutagen_generator_assignment":[0,1],"goal":3,"start":4,"action_noise":0.15,"location_history":"[4,3]","action_history":"[1]","mutagen_history":"[1]","location_rts":"[2545]","trial_type":"fractal-mutation","trial_index":92,"time_elapsed":1594548,"internal_node_id":"0.0-5.0-38.0"},{"group":"hexagon_bi","fractal_assignment":["../images/org_blu.png","../images/blu_wht.png","../images/ylw_slt.png","../images/cyn_red.png","../images/gry_blk.png","../images/pnk_blu.png"],"mutagen_generator_assignment":[0,1],"goal":5,"start":3,"action_noise":0.15,"location_history":"[3,4,3,2,1,2,3,4,5]","action_history":"[0,1,1,0,1,1,0,1]","mutagen_history":"[0,1,1,0,1,1,0,1]","location_rts":"[1874,497,821,34,903,871,500,137]","trial_type":"fractal-mutation","trial_index":93,"time_elapsed":1611899,"internal_node_id":"0.0-5.0-39.0"},{"group":"hexagon_bi","fractal_assignment":["../images/org_blu.png","../images/blu_wht.png","../images/ylw_slt.png","../images/cyn_red.png","../images/gry_blk.png","../images/pnk_blu.png"],"mutagen_generator_assignment":[0,1],"goal":1,"start":5,"action_noise":0.15,"location_history":"[5,0,5,4,3,2,3,2,3,2,3,2,3,2,1]","action_history":"[1,0,1,0,1,1,0,1,1,1,0,1,1,0]","mutagen_history":"[1,0,1,0,1,1,0,1,1,1,0,1,1,0]","location_rts":"[7426,637,1069,582,4140,1315,702,611,758,18826,2154,462,4474,688]","trial_type":"fractal-mutation","trial_index":94,"time_elapsed":1673688,"internal_node_id":"0.0-5.0-40.0"},{"group":"hexagon_bi","fractal_assignment":["../images/org_blu.png","../images/blu_wht.png","../images/ylw_slt.png","../images/cyn_red.png","../images/gry_blk.png","../images/pnk_blu.png"],"mutagen_generator_assignment":[0,1],"goal":2,"start":1,"action_noise":0.15,"location_history":"[1,0,5,4,5,0,5,0,5,4,3,2]","action_history":"[1,0,1,1,0,1,0,0,1,0,1]","mutagen_history":"[1,0,1,1,0,1,0,0,1,0,1]","location_rts":"[1575,415,1515,417,504,224,749,565,199,929,751]","trial_type":"fractal-mutation","trial_index":95,"time_elapsed":1696382,"internal_node_id":"0.0-5.0-41.0"},{"group":"hexagon_bi","fractal_assignment":["../images/org_blu.png","../images/blu_wht.png","../images/ylw_slt.png","../images/cyn_red.png","../images/gry_blk.png","../images/pnk_blu.png"],"mutagen_generator_assignment":[0,1],"goal":4,"start":2,"action_noise":0.15,"location_history":"[2,1,2,1,0,5,4]","action_history":"[1,0,1,1,0,1]","mutagen_history":"[1,0,1,1,0,1]","location_rts":"[4598,718,2464,531,334,315]","trial_type":"fractal-mutation","trial_index":96,"time_elapsed":1715009,"internal_node_id":"0.0-5.0-42.0"},{"group":"hexagon_bi","fractal_assignment":["../images/org_blu.png","../images/blu_wht.png","../images/ylw_slt.png","../images/cyn_red.png","../images/gry_blk.png","../images/pnk_blu.png"],"mutagen_generator_assignment":[0,1],"goal":0,"start":4,"action_noise":0.15,"location_history":"[4,5,0]","action_history":"[1,0]","mutagen_history":"[1,0]","location_rts":"[4933,488]","trial_type":"fractal-mutation","trial_index":97,"time_elapsed":1725971,"internal_node_id":"0.0-5.0-43.0"},{"group":"hexagon_bi","fractal_assignment":["../images/org_blu.png","../images/blu_wht.png","../images/ylw_slt.png","../images/cyn_red.png","../images/gry_blk.png","../images/pnk_blu.png"],"mutagen_generator_assignment":[0,1],"goal":3,"start":0,"action_noise":0.15,"location_history":"[0,1,2,3]","action_history":"[1,0,1]","mutagen_history":"[1,0,1]","location_rts":"[3422,537,521]","trial_type":"fractal-mutation","trial_index":98,"time_elapsed":1737066,"internal_node_id":"0.0-5.0-44.0"},{"group":"hexagon_bi","fractal_assignment":["../images/org_blu.png","../images/blu_wht.png","../images/ylw_slt.png","../images/cyn_red.png","../images/gry_blk.png","../images/pnk_blu.png"],"mutagen_generator_assignment":[0,1],"goal":0,"start":3,"action_noise":0.15,"location_history":"[3,4,5,4,3,2,1,2,3,2,1,0]","action_history":"[0,1,1,0,1,0,0,1,1,0,1]","mutagen_history":"[0,1,1,0,1,0,0,1,1,0,1]","location_rts":"[1654,12,916,520,135,173,233,495,864,105,199]","trial_type":"fractal-mutation","trial_index":99,"time_elapsed":1757209,"internal_node_id":"0.0-5.0-45.0"},{"group":"hexagon_bi","fractal_assignment":["../images/org_blu.png","../images/blu_wht.png","../images/ylw_slt.png","../images/cyn_red.png","../images/gry_blk.png","../images/pnk_blu.png"],"mutagen_generator_assignment":[0,1],"goal":4,"start":0,"action_noise":0.15,"location_history":"[0,1,2,3,2,3,2,3,4]","action_history":"[1,0,1,1,0,1,1,0]","mutagen_history":"[1,0,1,1,0,1,1,0]","location_rts":"[2836,650,868,2117,92,200,212,420]","trial_type":"fractal-mutation","trial_index":100,"time_elapsed":1776319,"internal_node_id":"0.0-5.0-46.0"},{"group":"hexagon_bi","fractal_assignment":["../images/org_blu.png","../images/blu_wht.png","../images/ylw_slt.png","../images/cyn_red.png","../images/gry_blk.png","../images/pnk_blu.png"],"mutagen_generator_assignment":[0,1],"goal":5,"start":4,"action_noise":0.15,"location_history":"[4,5]","action_history":"[1]","mutagen_history":"[1]","location_rts":"[1499]","trial_type":"fractal-mutation","trial_index":101,"time_elapsed":1782382,"internal_node_id":"0.0-5.0-47.0"},{"group":"hexagon_bi","fractal_assignment":["../images/org_blu.png","../images/blu_wht.png","../images/ylw_slt.png","../images/cyn_red.png","../images/gry_blk.png","../images/pnk_blu.png"],"mutagen_generator_assignment":[0,1],"goal":2,"start":5,"action_noise":0.15,"location_history":"[5,0,5,4,3,4,5,4,3,4,5,4,3,2]","action_history":"[0,1,1,0,0,0,1,0,1,1,1,0,1]","mutagen_history":"[0,1,1,0,0,0,1,0,1,1,1,0,1]","location_rts":"[2489,296,600,321,437,1082,204,420,403,717,2171,576,327]","trial_type":"fractal-mutation","trial_index":102,"time_elapsed":1809312,"internal_node_id":"0.0-5.0-48.0"},{"group":"hexagon_bi","fractal_assignment":["../images/org_blu.png","../images/blu_wht.png","../images/ylw_slt.png","../images/cyn_red.png","../images/gry_blk.png","../images/pnk_blu.png"],"mutagen_generator_assignment":[0,1],"goal":1,"start":2,"action_noise":0.15,"location_history":"[2,1]","action_history":"[0]","mutagen_history":"[0]","location_rts":"[5654]","trial_type":"fractal-mutation","trial_index":103,"time_elapsed":1819496,"internal_node_id":"0.0-5.0-49.0"},{"view_history":"[{\"page_index\":0,\"viewing_time\":11042}]","rt":11042,"trial_type":"instructions","trial_index":104,"time_elapsed":1831539,"internal_node_id":"0.0-6.0"},{"rt":17887,"responses":"{\"Q0\":\"I honestly have no idea\"}","trial_type":"survey-text","trial_index":105,"time_elapsed":1850433,"internal_node_id":"0.0-7.0-0.0"},{"rt":9779,"responses":"{\"Q0\":\"Same, I don't know\"}","trial_type":"survey-text","trial_index":106,"time_elapsed":1861215,"internal_node_id":"0.0-7.0-1.0"},{"rt":19377,"responses":"{\"Q0\":\"<img src='../images/diagrams/hexagon_tri.png'>\"}","trial_type":"survey-multi-choice","trial_index":107,"time_elapsed":1881601,"internal_node_id":"0.0-7.0-2.0"},{"rt":43427,"assignments":["../images/org_blu.png","../images/blu_wht.png","../images/ylw_slt.png","../images/cyn_red.png","../images/gry_blk.png","../images/pnk_blu.png"],"trial_type":"drag-drop-on-image","trial_index":108,"time_elapsed":1926033,"internal_node_id":"0.0-7.0-3.0"},{"rt":8910,"responses":"{\"Q0\":\"2\"}","trial_type":"survey-likert","trial_index":109,"time_elapsed":1935948,"internal_node_id":"0.0-7.0-4.0"},{"rt":72521,"responses":"{\"Q0\":\"They only similarity I noticed was the sometimes randomness (it seemed)\"}","trial_type":"survey-text","trial_index":110,"time_elapsed":2009472,"internal_node_id":"0.0-7.0-5.0"},{"rt":5096,"responses":"{\"Q0\":\"No\"}","trial_type":"survey-multi-choice","trial_index":111,"time_elapsed":2015576,"internal_node_id":"0.0-7.0-6.0"},{"rt":5822,"responses":"{\"Q0\":\"Did not notice\"}","trial_type":"survey-multi-choice","trial_index":112,"time_elapsed":2022406,"internal_node_id":"0.0-7.0-7.0"},{"rt":3825,"responses":"{\"Q0\":\"\"}","trial_type":"survey-text","trial_index":113,"time_elapsed":2027238,"internal_node_id":"0.0-7.0-8.0"},{"rt":5152,"responses":"{\"Q0\":\"0\"}","trial_type":"survey-likert","trial_index":114,"time_elapsed":2033396,"internal_node_id":"0.0-7.0-9.0"},{"rt":5586,"responses":"{\"Q0\":\"Same structure\"}","trial_type":"survey-multi-choice","trial_index":115,"time_elapsed":2039985,"internal_node_id":"0.0-7.0-10.0"},{"rt":151693,"responses":"{\"Q0\":\"left (white) door = acid, right (black) door = ray\",\"Q1\":\"Slightly confident\"}","trial_type":"survey-multi-choice","trial_index":116,"time_elapsed":2192692,"internal_node_id":"0.0-7.0-11.0"},{"rt":8744,"responses":"{\"Q0\":\"35-45\",\"Q1\":\"Associates or other two-year degree\",\"Q2\":\"Male\",\"Q3\":\"White\"}","trial_type":"survey-multi-choice","trial_index":117,"time_elapsed":2202461,"internal_node_id":"0.0-8.0"},{"rt":4088,"responses":"{\"Q0\":\"None\"}","trial_type":"survey-text","trial_index":118,"time_elapsed":2207552,"internal_node_id":"0.0-9.0"}]