[{"view_history":"[{\"page_index\":0,\"viewing_time\":146045},{\"page_index\":1,\"viewing_time\":264788}]","rt":410836,"trial_type":"instructions","trial_index":0,"time_elapsed":410839,"internal_node_id":"0.0-0.0"},{"view_history":"[{\"page_index\":0,\"viewing_time\":3535},{\"page_index\":1,\"viewing_time\":3022}]","rt":6558,"trial_type":"instructions","trial_index":1,"time_elapsed":418398,"internal_node_id":"0.0-1.0"},{"group":"hexagon_bi","room_assignment":["grey","green","purple","blue","yellow","red"],"door_color_assignment":["white","black"],"door_generator_assignment":[1,0],"goal":2,"start":1,"action_noise":0.15,"location_history":"[1,0,1,2]","action_history":"[0,1,1]","door_history":"[1,0,0]","location_rts":"[1873,1066,744]","trial_type":"two-door-navigation","trial_index":2,"time_elapsed":428623,"internal_node_id":"0.0-2.0-0.0"},{"group":"hexagon_bi","room_assignment":["grey","green","purple","blue","yellow","red"],"door_color_assignment":["white","black"],"door_generator_assignment":[1,0],"goal":0,"start":2,"action_noise":0.15,"location_history":"[2,3,4,5,0]","action_history":"[0,0,1,0]","door_history":"[1,1,0,1]","location_rts":"[4882,658,638,493]","trial_type":"two-door-navigation","trial_index":3,"time_elapsed":442801,"internal_node_id":"0.0-2.0-1.0"},{"group":"hexagon_bi","room_assignment":["grey","green","purple","blue","yellow","red"],"door_color_assignment":["white","black"],"door_generator_assignment":[1,0],"goal":5,"start":0,"action_noise":0.15,"location_history":"[0,5]","action_history":"[0]","door_history":"[1]","location_rts":"[1441]","trial_type":"two-door-navigation","trial_index":4,"time_elapsed":448745,"internal_node_id":"0.0-2.0-2.0"},{"group":"hexagon_bi","room_assignment":["grey","green","purple","blue","yellow","red"],"door_color_assignment":["white","black"],"door_generator_assignment":[1,0],"goal":1,"start":5,"action_noise":0.15,"location_history":"[5,0,1]","action_history":"[0,1]","door_history":"[1,0]","location_rts":"[1527,514]","trial_type":"two-door-navigation","trial_index":5,"time_elapsed":456291,"internal_node_id":"0.0-2.0-3.0"},{"group":"hexagon_bi","room_assignment":["grey","green","purple","blue","yellow","red"],"door_color_assignment":["white","black"],"door_generator_assignment":[1,0],"goal":3,"start":1,"action_noise":0.15,"location_history":"[1,0,5,4,3]","action_history":"[1,0,1,0]","door_history":"[0,1,0,1]","location_rts":"[641,502,585,624]","trial_type":"two-door-navigation","trial_index":6,"time_elapsed":466155,"internal_node_id":"0.0-2.0-4.0"},{"group":"hexagon_bi","room_assignment":["grey","green","purple","blue","yellow","red"],"door_color_assignment":["white","black"],"door_generator_assignment":[1,0],"goal":5,"start":3,"action_noise":0.15,"location_history":"[3,4,5]","action_history":"[0,1]","door_history":"[1,0]","location_rts":"[1390,512]","trial_type":"two-door-navigation","trial_index":7,"time_elapsed":473563,"internal_node_id":"0.0-2.0-5.0"},{"group":"hexagon_bi","room_assignment":["grey","green","purple","blue","yellow","red"],"door_color_assignment":["white","black"],"door_generator_assignment":[1,0],"goal":4,"start":5,"action_noise":0.15,"location_history":"[5,4]","action_history":"[1]","door_history":"[0]","location_rts":"[461]","trial_type":"two-door-navigation","trial_index":8,"time_elapsed":478530,"internal_node_id":"0.0-2.0-6.0"},{"group":"hexagon_bi","room_assignment":["grey","green","purple","blue","yellow","red"],"door_color_assignment":["white","black"],"door_generator_assignment":[1,0],"goal":0,"start":4,"action_noise":0.15,"location_history":"[4,5,0]","action_history":"[1,0]","door_history":"[0,1]","location_rts":"[327,1247]","trial_type":"two-door-navigation","trial_index":9,"time_elapsed":485610,"internal_node_id":"0.0-2.0-7.0"},{"group":"hexagon_bi","room_assignment":["grey","green","purple","blue","yellow","red"],"door_color_assignment":["white","black"],"door_generator_assignment":[1,0],"goal":2,"start":0,"action_noise":0.15,"location_history":"[0,1,2]","action_history":"[1,0]","door_history":"[0,1]","location_rts":"[334,492]","trial_type":"two-door-navigation","trial_index":10,"time_elapsed":491940,"internal_node_id":"0.0-2.0-8.0"},{"group":"hexagon_bi","room_assignment":["grey","green","purple","blue","yellow","red"],"door_color_assignment":["white","black"],"door_generator_assignment":[1,0],"goal":4,"start":2,"action_noise":0.15,"location_history":"[2,3,4]","action_history":"[1,0]","door_history":"[0,1]","location_rts":"[513,569]","trial_type":"two-door-navigation","trial_index":11,"time_elapsed":498526,"internal_node_id":"0.0-2.0-9.0"},{"group":"hexagon_bi","room_assignment":["grey","green","purple","blue","yellow","red"],"door_color_assignment":["white","black"],"door_generator_assignment":[1,0],"goal":2,"start":4,"action_noise":0.15,"location_history":"[4,5,0,1,2]","action_history":"[1,0,1,0]","door_history":"[0,1,0,1]","location_rts":"[468,568,642,711]","trial_type":"two-door-navigation","trial_index":12,"time_elapsed":508424,"internal_node_id":"0.0-2.0-10.0"},{"group":"hexagon_bi","room_assignment":["grey","green","purple","blue","yellow","red"],"door_color_assignment":["white","black"],"door_generator_assignment":[1,0],"goal":3,"start":2,"action_noise":0.15,"location_history":"[2,3]","action_history":"[1]","door_history":"[0]","location_rts":"[1233]","trial_type":"two-door-navigation","trial_index":13,"time_elapsed":514166,"internal_node_id":"0.0-2.0-11.0"},{"group":"hexagon_bi","room_assignment":["grey","green","purple","blue","yellow","red"],"door_color_assignment":["white","black"],"door_generator_assignment":[1,0],"goal":0,"start":3,"action_noise":0.15,"location_history":"[3,2,1,0]","action_history":"[1,0,1]","door_history":"[0,1,0]","location_rts":"[959,618,457]","trial_type":"two-door-navigation","trial_index":14,"time_elapsed":522718,"internal_node_id":"0.0-2.0-12.0"},{"group":"hexagon_bi","room_assignment":["grey","green","purple","blue","yellow","red"],"door_color_assignment":["white","black"],"door_generator_assignment":[1,0],"goal":5,"start":0,"action_noise":0.15,"location_history":"[0,1,0,5]","action_history":"[1,0,1]","door_history":"[0,1,0]","location_rts":"[758,410,649]","trial_type":"two-door-navigation","trial_index":15,"time_elapsed":531042,"internal_node_id":"0.0-2.0-13.0"},{"group":"hexagon_bi","room_assignment":["grey","green","purple","blue","yellow","red"],"door_color_assignment":["white","black"],"door_generator_assignment":[1,0],"goal":1,"start":5,"action_noise":0.15,"location_history":"[5,4,5,4,5,4,5,0,1]","action_history":"[1,0,1,0,0,1,0,1]","door_history":"[0,1,0,1,1,0,1,0]","location_rts":"[506,484,626,654,431,922,655,967]","trial_type":"two-door-navigation","trial_index":16,"time_elapsed":547800,"internal_node_id":"0.0-2.0-14.0"},{"group":"hexagon_bi","room_assignment":["grey","green","purple","blue","yellow","red"],"door_color_assignment":["white","black"],"door_generator_assignment":[1,0],"goal":5,"start":1,"action_noise":0.15,"location_history":"[1,0,5]","action_history":"[1,0]","door_history":"[0,1]","location_rts":"[328,426]","trial_type":"two-door-navigation","trial_index":17,"time_elapsed":554060,"internal_node_id":"0.0-2.0-15.0"},{"group":"hexagon_bi","room_assignment":["grey","green","purple","blue","yellow","red"],"door_color_assignment":["white","black"],"door_generator_assignment":[1,0],"goal":3,"start":5,"action_noise":0.15,"location_history":"[5,4,3]","action_history":"[1,0]","door_history":"[0,1]","location_rts":"[358,679]","trial_type":"two-door-navigation","trial_index":18,"time_elapsed":560601,"internal_node_id":"0.0-2.0-16.0"},{"group":"hexagon_bi","room_assignment":["grey","green","purple","blue","yellow","red"],"door_color_assignment":["white","black"],"door_generator_assignment":[1,0],"goal":2,"start":3,"action_noise":0.15,"location_history":"[3,4,3,2]","action_history":"[1,0,1]","door_history":"[0,1,0]","location_rts":"[333,535,858]","trial_type":"two-door-navigation","trial_index":19,"time_elapsed":568847,"internal_node_id":"0.0-2.0-17.0"},{"group":"hexagon_bi","room_assignment":["grey","green","purple","blue","yellow","red"],"door_color_assignment":["white","black"],"door_generator_assignment":[1,0],"goal":1,"start":2,"action_noise":0.15,"location_history":"[2,3,2,1]","action_history":"[1,1,0]","door_history":"[0,0,1]","location_rts":"[15625,657,539]","trial_type":"two-door-navigation","trial_index":20,"time_elapsed":592186,"internal_node_id":"0.0-2.0-18.0"},{"group":"hexagon_bi","room_assignment":["grey","green","purple","blue","yellow","red"],"door_color_assignment":["white","black"],"door_generator_assignment":[1,0],"goal":4,"start":1,"action_noise":0.15,"location_history":"[1,0,5,4]","action_history":"[1,0,1]","door_history":"[0,1,0]","location_rts":"[1275,894,1074]","trial_type":"two-door-navigation","trial_index":21,"time_elapsed":601934,"internal_node_id":"0.0-2.0-19.0"},{"group":"hexagon_bi","room_assignment":["grey","green","purple","blue","yellow","red"],"door_color_assignment":["white","black"],"door_generator_assignment":[1,0],"goal":0,"start":4,"action_noise":0.15,"location_history":"[4,5,0]","action_history":"[1,0]","door_history":"[0,1]","location_rts":"[1433,4536]","trial_type":"two-door-navigation","trial_index":22,"time_elapsed":613408,"internal_node_id":"0.0-2.0-20.0"},{"group":"hexagon_bi","room_assignment":["grey","green","purple","blue","yellow","red"],"door_color_assignment":["white","black"],"door_generator_assignment":[1,0],"goal":3,"start":0,"action_noise":0.15,"location_history":"[0,1,2,3]","action_history":"[1,0,1]","door_history":"[0,1,0]","location_rts":"[392,381,643]","trial_type":"two-door-navigation","trial_index":23,"time_elapsed":621331,"internal_node_id":"0.0-2.0-21.0"},{"group":"hexagon_bi","room_assignment":["grey","green","purple","blue","yellow","red"],"door_color_assignment":["white","black"],"door_generator_assignment":[1,0],"goal":1,"start":3,"action_noise":0.15,"location_history":"[3,2,3,2,1]","action_history":"[0,1,1,0]","door_history":"[1,0,0,1]","location_rts":"[1294,530,326,288]","trial_type":"two-door-navigation","trial_index":24,"time_elapsed":631274,"internal_node_id":"0.0-2.0-22.0"},{"group":"hexagon_bi","room_assignment":["grey","green","purple","blue","yellow","red"],"door_color_assignment":["white","black"],"door_generator_assignment":[1,0],"goal":0,"start":1,"action_noise":0.15,"location_history":"[1,0]","action_history":"[1]","door_history":"[0]","location_rts":"[341]","trial_type":"two-door-navigation","trial_index":25,"time_elapsed":636115,"internal_node_id":"0.0-2.0-23.0"},{"group":"hexagon_bi","room_assignment":["grey","green","purple","blue","yellow","red"],"door_color_assignment":["white","black"],"door_generator_assignment":[1,0],"goal":2,"start":0,"action_noise":0.15,"location_history":"[0,5,4,5,0,1,2]","action_history":"[0,1,0,1,1,0]","door_history":"[1,0,1,0,0,1]","location_rts":"[1338,950,499,696,617,580]","trial_type":"two-door-navigation","trial_index":26,"time_elapsed":650300,"internal_node_id":"0.0-2.0-24.0"},{"group":"hexagon_bi","room_assignment":["grey","green","purple","blue","yellow","red"],"door_color_assignment":["white","black"],"door_generator_assignment":[1,0],"goal":4,"start":2,"action_noise":0.15,"location_history":"[2,3,4]","action_history":"[1,0]","door_history":"[0,1]","location_rts":"[1077,553]","trial_type":"two-door-navigation","trial_index":27,"time_elapsed":657442,"internal_node_id":"0.0-2.0-25.0"},{"group":"hexagon_bi","room_assignment":["grey","green","purple","blue","yellow","red"],"door_color_assignment":["white","black"],"door_generator_assignment":[1,0],"goal":5,"start":4,"action_noise":0.15,"location_history":"[4,5]","action_history":"[1]","door_history":"[0]","location_rts":"[1329]","trial_type":"two-door-navigation","trial_index":28,"time_elapsed":663275,"internal_node_id":"0.0-2.0-26.0"},{"group":"hexagon_bi","room_assignment":["grey","green","purple","blue","yellow","red"],"door_color_assignment":["white","black"],"door_generator_assignment":[1,0],"goal":2,"start":5,"action_noise":0.15,"location_history":"[5,0,1,2]","action_history":"[0,1,0]","door_history":"[1,0,1]","location_rts":"[854,742,478]","trial_type":"two-door-navigation","trial_index":29,"time_elapsed":671868,"internal_node_id":"0.0-2.0-27.0"},{"group":"hexagon_bi","room_assignment":["grey","green","purple","blue","yellow","red"],"door_color_assignment":["white","black"],"door_generator_assignment":[1,0],"goal":3,"start":2,"action_noise":0.15,"location_history":"[2,1,2,1,0,5,4,5,4,3]","action_history":"[0,1,0,1,0,0,0,1,0]","door_history":"[1,0,1,0,1,1,1,0,1]","location_rts":"[942,727,804,477,585,411,411,349,485]","trial_type":"two-door-navigation","trial_index":30,"time_elapsed":689578,"internal_node_id":"0.0-2.0-28.0"},{"group":"hexagon_bi","room_assignment":["grey","green","purple","blue","yellow","red"],"door_color_assignment":["white","black"],"door_generator_assignment":[1,0],"goal":1,"start":3,"action_noise":0.15,"location_history":"[3,2,1]","action_history":"[1,0]","door_history":"[0,1]","location_rts":"[519,444]","trial_type":"two-door-navigation","trial_index":31,"time_elapsed":696045,"internal_node_id":"0.0-2.0-29.0"},{"group":"hexagon_bi","room_assignment":["grey","green","purple","blue","yellow","red"],"door_color_assignment":["white","black"],"door_generator_assignment":[1,0],"goal":4,"start":1,"action_noise":0.15,"location_history":"[1,0,5,4]","action_history":"[1,0,1]","door_history":"[0,1,0]","location_rts":"[617,530,634]","trial_type":"two-door-navigation","trial_index":32,"time_elapsed":704335,"internal_node_id":"0.0-2.0-30.0"},{"group":"hexagon_bi","room_assignment":["grey","green","purple","blue","yellow","red"],"door_color_assignment":["white","black"],"door_generator_assignment":[1,0],"goal":5,"start":4,"action_noise":0.15,"location_history":"[4,5]","action_history":"[1]","door_history":"[0]","location_rts":"[407]","trial_type":"two-door-navigation","trial_index":33,"time_elapsed":709245,"internal_node_id":"0.0-2.0-31.0"},{"group":"hexagon_bi","room_assignment":["grey","green","purple","blue","yellow","red"],"door_color_assignment":["white","black"],"door_generator_assignment":[1,0],"goal":0,"start":5,"action_noise":0.15,"location_history":"[5,4,3,2,1,0]","action_history":"[1,0,1,0,1]","door_history":"[0,1,0,1,0]","location_rts":"[548,522,796,924,390]","trial_type":"two-door-navigation","trial_index":34,"time_elapsed":720930,"internal_node_id":"0.0-2.0-32.0"},{"group":"hexagon_bi","room_assignment":["grey","green","purple","blue","yellow","red"],"door_color_assignment":["white","black"],"door_generator_assignment":[1,0],"goal":2,"start":0,"action_noise":0.15,"location_history":"[0,1,2]","action_history":"[1,0]","door_history":"[0,1]","location_rts":"[319,411]","trial_type":"two-door-navigation","trial_index":35,"time_elapsed":727163,"internal_node_id":"0.0-2.0-33.0"},{"group":"hexagon_bi","room_assignment":["grey","green","purple","blue","yellow","red"],"door_color_assignment":["white","black"],"door_generator_assignment":[1,0],"goal":0,"start":2,"action_noise":0.15,"location_history":"[2,1,2,3,2,3,4,3,4,5,4,5,0]","action_history":"[1,0,1,1,1,0,1,0,1,1,1,0]","door_history":"[0,1,0,0,0,1,0,1,0,0,0,1]","location_rts":"[1381,492,531,977,515,279,398,721,703,514,793,280]","trial_type":"two-door-navigation","trial_index":36,"time_elapsed":750267,"internal_node_id":"0.0-2.0-34.0"},{"group":"hexagon_bi","room_assignment":["grey","green","purple","blue","yellow","red"],"door_color_assignment":["white","black"],"door_generator_assignment":[1,0],"goal":5,"start":0,"action_noise":0.15,"location_history":"[0,1,0,5]","action_history":"[1,1,0]","door_history":"[0,0,1]","location_rts":"[1191,1300,638]","trial_type":"two-door-navigation","trial_index":37,"time_elapsed":759901,"internal_node_id":"0.0-2.0-35.0"},{"group":"hexagon_bi","room_assignment":["grey","green","purple","blue","yellow","red"],"door_color_assignment":["white","black"],"door_generator_assignment":[1,0],"goal":1,"start":5,"action_noise":0.15,"location_history":"[5,4,3,2,1]","action_history":"[1,0,1,0]","door_history":"[0,1,0,1]","location_rts":"[335,402,961,1093]","trial_type":"two-door-navigation","trial_index":38,"time_elapsed":771065,"internal_node_id":"0.0-2.0-36.0"},{"group":"hexagon_bi","room_assignment":["grey","green","purple","blue","yellow","red"],"door_color_assignment":["white","black"],"door_generator_assignment":[1,0],"goal":4,"start":1,"action_noise":0.15,"location_history":"[1,0,5,4]","action_history":"[1,0,1]","door_history":"[0,1,0]","location_rts":"[1178,1088,420]","trial_type":"two-door-navigation","trial_index":39,"time_elapsed":781244,"internal_node_id":"0.0-2.0-37.0"},{"group":"hexagon_bi","room_assignment":["grey","green","purple","blue","yellow","red"],"door_color_assignment":["white","black"],"door_generator_assignment":[1,0],"goal":3,"start":4,"action_noise":0.15,"location_history":"[4,5,0,1,0,5,4,3]","action_history":"[1,0,1,1,0,1,0]","door_history":"[0,1,0,0,1,0,1]","location_rts":"[707,362,688,1071,468,857,797]","trial_type":"two-door-navigation","trial_index":40,"time_elapsed":796708,"internal_node_id":"0.0-2.0-38.0"},{"group":"hexagon_bi","room_assignment":["grey","green","purple","blue","yellow","red"],"door_color_assignment":["white","black"],"door_generator_assignment":[1,0],"goal":5,"start":3,"action_noise":0.15,"location_history":"[3,2,3,2,3,4,5]","action_history":"[1,0,1,1,0,1]","door_history":"[0,1,0,0,1,0]","location_rts":"[884,406,630,949,404,844]","trial_type":"two-door-navigation","trial_index":41,"time_elapsed":810330,"internal_node_id":"0.0-2.0-39.0"},{"group":"hexagon_bi","room_assignment":["grey","green","purple","blue","yellow","red"],"door_color_assignment":["white","black"],"door_generator_assignment":[1,0],"goal":1,"start":5,"action_noise":0.15,"location_history":"[5,0,5,4,3,2,1]","action_history":"[1,0,1,0,0,0]","door_history":"[0,1,0,1,1,1]","location_rts":"[603,497,651,597,458,2196]","trial_type":"two-door-navigation","trial_index":42,"time_elapsed":824844,"internal_node_id":"0.0-2.0-40.0"},{"group":"hexagon_bi","room_assignment":["grey","green","purple","blue","yellow","red"],"door_color_assignment":["white","black"],"door_generator_assignment":[1,0],"goal":2,"start":1,"action_noise":0.15,"location_history":"[1,0,1,2]","action_history":"[1,1,0]","door_history":"[0,0,1]","location_rts":"[498,436,434]","trial_type":"two-door-navigation","trial_index":43,"time_elapsed":832717,"internal_node_id":"0.0-2.0-41.0"},{"group":"hexagon_bi","room_assignment":["grey","green","purple","blue","yellow","red"],"door_color_assignment":["white","black"],"door_generator_assignment":[1,0],"goal":4,"start":2,"action_noise":0.15,"location_history":"[2,3,4]","action_history":"[1,0]","door_history":"[0,1]","location_rts":"[1418,486]","trial_type":"two-door-navigation","trial_index":44,"time_elapsed":840124,"internal_node_id":"0.0-2.0-42.0"},{"group":"hexagon_bi","room_assignment":["grey","green","purple","blue","yellow","red"],"door_color_assignment":["white","black"],"door_generator_assignment":[1,0],"goal":0,"start":4,"action_noise":0.15,"location_history":"[4,5,0]","action_history":"[1,0]","door_history":"[0,1]","location_rts":"[888,545]","trial_type":"two-door-navigation","trial_index":45,"time_elapsed":847062,"internal_node_id":"0.0-2.0-43.0"},{"group":"hexagon_bi","room_assignment":["grey","green","purple","blue","yellow","red"],"door_color_assignment":["white","black"],"door_generator_assignment":[1,0],"goal":3,"start":0,"action_noise":0.15,"location_history":"[0,1,2,1,0,1,2,1,0,1,0,5,4,3]","action_history":"[1,0,1,1,0,0,0,1,1,1,0,1,0]","door_history":"[0,1,0,0,1,1,1,0,0,0,1,0,1]","location_rts":"[834,396,603,935,830,1246,1244,512,859,617,451,1313,743]","trial_type":"two-door-navigation","trial_index":46,"time_elapsed":874168,"internal_node_id":"0.0-2.0-44.0"},{"group":"hexagon_bi","room_assignment":["grey","green","purple","blue","yellow","red"],"door_color_assignment":["white","black"],"door_generator_assignment":[1,0],"goal":0,"start":3,"action_noise":0.15,"location_history":"[3,4,3,2,1,0]","action_history":"[1,0,1,0,1]","door_history":"[0,1,0,1,0]","location_rts":"[530,646,625,719,456]","trial_type":"two-door-navigation","trial_index":47,"time_elapsed":885654,"internal_node_id":"0.0-2.0-45.0"},{"group":"hexagon_bi","room_assignment":["grey","green","purple","blue","yellow","red"],"door_color_assignment":["white","black"],"door_generator_assignment":[1,0],"goal":4,"start":0,"action_noise":0.15,"location_history":"[0,1,2,1,0,1,0,5,0,5,4]","action_history":"[0,0,0,1,1,1,0,1,0,1]","door_history":"[1,1,1,0,0,0,1,0,1,0]","location_rts":"[2186,918,1165,461,908,594,268,584,812,675]","trial_type":"two-door-navigation","trial_index":48,"time_elapsed":907748,"internal_node_id":"0.0-2.0-46.0"},{"group":"hexagon_bi","room_assignment":["grey","green","purple","blue","yellow","red"],"door_color_assignment":["white","black"],"door_generator_assignment":[1,0],"goal":5,"start":4,"action_noise":0.15,"location_history":"[4,5]","action_history":"[1]","door_history":"[0]","location_rts":"[514]","trial_type":"two-door-navigation","trial_index":49,"time_elapsed":912767,"internal_node_id":"0.0-2.0-47.0"},{"group":"hexagon_bi","room_assignment":["grey","green","purple","blue","yellow","red"],"door_color_assignment":["white","black"],"door_generator_assignment":[1,0],"goal":2,"start":5,"action_noise":0.15,"location_history":"[5,4,5,4,3,4,5,4,5,0,1,2]","action_history":"[1,0,1,0,0,1,1,1,0,1,0]","door_history":"[0,1,0,1,1,0,0,0,1,0,1]","location_rts":"[798,678,725,702,263,632,1199,973,255,796,756]","trial_type":"two-door-navigation","trial_index":50,"time_elapsed":935062,"internal_node_id":"0.0-2.0-48.0"},{"group":"hexagon_bi","room_assignment":["grey","green","purple","blue","yellow","red"],"door_color_assignment":["white","black"],"door_generator_assignment":[1,0],"goal":1,"start":2,"action_noise":0.15,"location_history":"[2,3,2,1]","action_history":"[1,1,0]","door_history":"[0,0,1]","location_rts":"[429,606,408]","trial_type":"two-door-navigation","trial_index":51,"time_elapsed":943012,"internal_node_id":"0.0-2.0-49.0"},{"view_history":"[{\"page_index\":0,\"viewing_time\":1559}]","rt":1559,"trial_type":"instructions","trial_index":52,"time_elapsed":945571,"internal_node_id":"0.0-3.0"},{"view_history":"[{\"page_index\":0,\"viewing_time\":97943},{\"page_index\":1,\"viewing_time\":4278}]","rt":102223,"trial_type":"instructions","trial_index":53,"time_elapsed":1048794,"internal_node_id":"0.0-4.0"},{"group":"hexagon_bi","fractal_assignment":["../images/gry_blk.png","../images/blu_wht.png","../images/cyn_red.png","../images/pnk_blu.png","../images/ylw_slt.png","../images/org_blu.png"],"mutagen_generator_assignment":[1,0],"goal":2,"start":1,"action_noise":0.15,"location_history":"[1,2]","action_history":"[1]","mutagen_history":"[0]","location_rts":"[642]","trial_type":"fractal-mutation","trial_index":54,"time_elapsed":1053967,"internal_node_id":"0.0-5.0-0.0"},{"group":"hexagon_bi","fractal_assignment":["../images/gry_blk.png","../images/blu_wht.png","../images/cyn_red.png","../images/pnk_blu.png","../images/ylw_slt.png","../images/org_blu.png"],"mutagen_generator_assignment":[1,0],"goal":0,"start":2,"action_noise":0.15,"location_history":"[2,3,4,5,0]","action_history":"[1,0,1,0]","mutagen_history":"[0,1,0,1]","location_rts":"[831,280,364,486]","trial_type":"fractal-mutation","trial_index":55,"time_elapsed":1063575,"internal_node_id":"0.0-5.0-1.0"},{"group":"hexagon_bi","fractal_assignment":["../images/gry_blk.png","../images/blu_wht.png","../images/cyn_red.png","../images/pnk_blu.png","../images/ylw_slt.png","../images/org_blu.png"],"mutagen_generator_assignment":[1,0],"goal":5,"start":0,"action_noise":0.15,"location_history":"[0,1,2,1,2,3,4,5]","action_history":"[1,0,0,1,1,0,1]","mutagen_history":"[0,1,1,0,0,1,0]","location_rts":"[544,458,972,284,568,305,1249]","trial_type":"fractal-mutation","trial_index":56,"time_elapsed":1078655,"internal_node_id":"0.0-5.0-2.0"},{"group":"hexagon_bi","fractal_assignment":["../images/gry_blk.png","../images/blu_wht.png","../images/cyn_red.png","../images/pnk_blu.png","../images/ylw_slt.png","../images/org_blu.png"],"mutagen_generator_assignment":[1,0],"goal":1,"start":5,"action_noise":0.15,"location_history":"[5,4,5,4,5,4,3,2,3,2,3,4,5,0,1]","action_history":"[1,1,1,0,1,0,1,0,1,1,0,1,0,1]","mutagen_history":"[0,0,0,1,0,1,0,1,0,0,1,0,1,0]","location_rts":"[866,687,579,408,678,511,859,572,540,571,978,936,611,721]","trial_type":"fractal-mutation","trial_index":57,"time_elapsed":1105999,"internal_node_id":"0.0-5.0-3.0"},{"group":"hexagon_bi","fractal_assignment":["../images/gry_blk.png","../images/blu_wht.png","../images/cyn_red.png","../images/pnk_blu.png","../images/ylw_slt.png","../images/org_blu.png"],"mutagen_generator_assignment":[1,0],"goal":3,"start":1,"action_noise":0.15,"location_history":"[1,0,5,0,1,2,3]","action_history":"[1,0,1,0,0,1]","mutagen_history":"[0,1,0,1,1,0]","location_rts":"[403,829,508,689,363,648]","trial_type":"fractal-mutation","trial_index":58,"time_elapsed":1119075,"internal_node_id":"0.0-5.0-4.0"},{"group":"hexagon_bi","fractal_assignment":["../images/gry_blk.png","../images/blu_wht.png","../images/cyn_red.png","../images/pnk_blu.png","../images/ylw_slt.png","../images/org_blu.png"],"mutagen_generator_assignment":[1,0],"goal":5,"start":3,"action_noise":0.15,"location_history":"[3,2,1,2,3,2,3,2,1,0,5]","action_history":"[1,0,1,1,0,1,1,0,1,0]","mutagen_history":"[0,1,0,0,1,0,0,1,0,1]","location_rts":"[300,454,511,368,594,615,898,1356,606,492]","trial_type":"fractal-mutation","trial_index":59,"time_elapsed":1138988,"internal_node_id":"0.0-5.0-5.0"},{"group":"hexagon_bi","fractal_assignment":["../images/gry_blk.png","../images/blu_wht.png","../images/cyn_red.png","../images/pnk_blu.png","../images/ylw_slt.png","../images/org_blu.png"],"mutagen_generator_assignment":[1,0],"goal":4,"start":5,"action_noise":0.15,"location_history":"[5,4]","action_history":"[1]","mutagen_history":"[0]","location_rts":"[977]","trial_type":"fractal-mutation","trial_index":60,"time_elapsed":1144482,"internal_node_id":"0.0-5.0-6.0"},{"group":"hexagon_bi","fractal_assignment":["../images/gry_blk.png","../images/blu_wht.png","../images/cyn_red.png","../images/pnk_blu.png","../images/ylw_slt.png","../images/org_blu.png"],"mutagen_generator_assignment":[1,0],"goal":0,"start":4,"action_noise":0.15,"location_history":"[4,3,2,3,2,3,4,5,0]","action_history":"[0,1,1,0,1,0,1,0]","mutagen_history":"[1,0,0,1,0,1,0,1]","location_rts":"[1273,461,702,494,509,553,1476,842]","trial_type":"fractal-mutation","trial_index":61,"time_elapsed":1162494,"internal_node_id":"0.0-5.0-7.0"},{"group":"hexagon_bi","fractal_assignment":["../images/gry_blk.png","../images/blu_wht.png","../images/cyn_red.png","../images/pnk_blu.png","../images/ylw_slt.png","../images/org_blu.png"],"mutagen_generator_assignment":[1,0],"goal":2,"start":0,"action_noise":0.15,"location_history":"[0,1,0,1,0,5,0,5,0,1,0,5,4,3,2]","action_history":"[1,1,0,1,0,0,1,0,1,1,0,1,0,1]","mutagen_history":"[0,0,1,0,1,1,0,1,0,0,1,0,1,0]","location_rts":"[529,678,594,854,643,341,345,844,965,354,527,598,1367,447]","trial_type":"fractal-mutation","trial_index":62,"time_elapsed":1189409,"internal_node_id":"0.0-5.0-8.0"},{"group":"hexagon_bi","fractal_assignment":["../images/gry_blk.png","../images/blu_wht.png","../images/cyn_red.png","../images/pnk_blu.png","../images/ylw_slt.png","../images/org_blu.png"],"mutagen_generator_assignment":[1,0],"goal":4,"start":2,"action_noise":0.15,"location_history":"[2,3,2,3,2,1,0,5,4]","action_history":"[1,0,1,1,0,1,0,1]","mutagen_history":"[0,1,0,0,1,0,1,0]","location_rts":"[641,496,541,1109,500,872,522,427]","trial_type":"fractal-mutation","trial_index":63,"time_elapsed":1206205,"internal_node_id":"0.0-5.0-9.0"},{"group":"hexagon_bi","fractal_assignment":["../images/gry_blk.png","../images/blu_wht.png","../images/cyn_red.png","../images/pnk_blu.png","../images/ylw_slt.png","../images/org_blu.png"],"mutagen_generator_assignment":[1,0],"goal":2,"start":4,"action_noise":0.15,"location_history":"[4,5,0,5,4,3,2]","action_history":"[1,0,0,1,0,1]","mutagen_history":"[0,1,1,0,1,0]","location_rts":"[1168,588,1220,576,511,474]","trial_type":"fractal-mutation","trial_index":64,"time_elapsed":1220402,"internal_node_id":"0.0-5.0-10.0"},{"group":"hexagon_bi","fractal_assignment":["../images/gry_blk.png","../images/blu_wht.png","../images/cyn_red.png","../images/pnk_blu.png","../images/ylw_slt.png","../images/org_blu.png"],"mutagen_generator_assignment":[1,0],"goal":3,"start":2,"action_noise":0.15,"location_history":"[2,3]","action_history":"[1]","mutagen_history":"[0]","location_rts":"[1044]","trial_type":"fractal-mutation","trial_index":65,"time_elapsed":1225961,"internal_node_id":"0.0-5.0-11.0"},{"group":"hexagon_bi","fractal_assignment":["../images/gry_blk.png","../images/blu_wht.png","../images/cyn_red.png","../images/pnk_blu.png","../images/ylw_slt.png","../images/org_blu.png"],"mutagen_generator_assignment":[1,0],"goal":0,"start":3,"action_noise":0.15,"location_history":"[3,4,5,0]","action_history":"[0,1,0]","mutagen_history":"[1,0,1]","location_rts":"[2078,528,532]","trial_type":"fractal-mutation","trial_index":66,"time_elapsed":1236067,"internal_node_id":"0.0-5.0-12.0"},{"group":"hexagon_bi","fractal_assignment":["../images/gry_blk.png","../images/blu_wht.png","../images/cyn_red.png","../images/pnk_blu.png","../images/ylw_slt.png","../images/org_blu.png"],"mutagen_generator_assignment":[1,0],"goal":5,"start":0,"action_noise":0.15,"location_history":"[0,5]","action_history":"[0]","mutagen_history":"[1]","location_rts":"[1598]","trial_type":"fractal-mutation","trial_index":67,"time_elapsed":1243190,"internal_node_id":"0.0-5.0-13.0"},{"group":"hexagon_bi","fractal_assignment":["../images/gry_blk.png","../images/blu_wht.png","../images/cyn_red.png","../images/pnk_blu.png","../images/ylw_slt.png","../images/org_blu.png"],"mutagen_generator_assignment":[1,0],"goal":1,"start":5,"action_noise":0.15,"location_history":"[5,4,3,2,1]","action_history":"[1,0,1,0]","mutagen_history":"[0,1,0,1]","location_rts":"[772,297,470,536]","trial_type":"fractal-mutation","trial_index":68,"time_elapsed":1252879,"internal_node_id":"0.0-5.0-14.0"},{"group":"hexagon_bi","fractal_assignment":["../images/gry_blk.png","../images/blu_wht.png","../images/cyn_red.png","../images/pnk_blu.png","../images/ylw_slt.png","../images/org_blu.png"],"mutagen_generator_assignment":[1,0],"goal":5,"start":1,"action_noise":0.15,"location_history":"[1,2,1,0,1,2,3,4,5]","action_history":"[1,0,1,1,0,1,0,1]","mutagen_history":"[0,1,0,0,1,0,1,0]","location_rts":"[596,587,802,342,593,510,607,1016]","trial_type":"fractal-mutation","trial_index":69,"time_elapsed":1269598,"internal_node_id":"0.0-5.0-15.0"},{"group":"hexagon_bi","fractal_assignment":["../images/gry_blk.png","../images/blu_wht.png","../images/cyn_red.png","../images/pnk_blu.png","../images/ylw_slt.png","../images/org_blu.png"],"mutagen_generator_assignment":[1,0],"goal":3,"start":5,"action_noise":0.15,"location_history":"[5,0,1,0,5,0,1,2,1,2,1,0,5,4,3]","action_history":"[0,1,1,0,0,1,0,1,0,0,1,0,1,0]","mutagen_history":"[1,0,0,1,1,0,1,0,1,1,0,1,0,1]","location_rts":"[664,423,611,457,444,615,603,557,467,749,708,424,578,643]","trial_type":"fractal-mutation","trial_index":70,"time_elapsed":1295383,"internal_node_id":"0.0-5.0-16.0"},{"group":"hexagon_bi","fractal_assignment":["../images/gry_blk.png","../images/blu_wht.png","../images/cyn_red.png","../images/pnk_blu.png","../images/ylw_slt.png","../images/org_blu.png"],"mutagen_generator_assignment":[1,0],"goal":2,"start":3,"action_noise":0.15,"location_history":"[3,2]","action_history":"[1]","mutagen_history":"[0]","location_rts":"[452]","trial_type":"fractal-mutation","trial_index":71,"time_elapsed":1300348,"internal_node_id":"0.0-5.0-17.0"},{"group":"hexagon_bi","fractal_assignment":["../images/gry_blk.png","../images/blu_wht.png","../images/cyn_red.png","../images/pnk_blu.png","../images/ylw_slt.png","../images/org_blu.png"],"mutagen_generator_assignment":[1,0],"goal":1,"start":2,"action_noise":0.15,"location_history":"[2,3,4,5,4,3,4,3,2,1]","action_history":"[0,1,0,1,1,0,1,1,0]","mutagen_history":"[1,0,1,0,0,1,0,0,1]","location_rts":"[516,490,958,479,669,501,505,491,730]","trial_type":"fractal-mutation","trial_index":72,"time_elapsed":1318380,"internal_node_id":"0.0-5.0-18.0"},{"group":"hexagon_bi","fractal_assignment":["../images/gry_blk.png","../images/blu_wht.png","../images/cyn_red.png","../images/pnk_blu.png","../images/ylw_slt.png","../images/org_blu.png"],"mutagen_generator_assignment":[1,0],"goal":4,"start":1,"action_noise":0.15,"location_history":"[1,0,5,4]","action_history":"[1,0,1]","mutagen_history":"[0,1,0]","location_rts":"[1013,566,282]","trial_type":"fractal-mutation","trial_index":73,"time_elapsed":1326810,"internal_node_id":"0.0-5.0-19.0"},{"group":"hexagon_bi","fractal_assignment":["../images/gry_blk.png","../images/blu_wht.png","../images/cyn_red.png","../images/pnk_blu.png","../images/ylw_slt.png","../images/org_blu.png"],"mutagen_generator_assignment":[1,0],"goal":0,"start":4,"action_noise":0.15,"location_history":"[4,3,2,1,0]","action_history":"[0,1,0,1]","mutagen_history":"[1,0,1,0]","location_rts":"[700,487,626,1309]","trial_type":"fractal-mutation","trial_index":74,"time_elapsed":1337537,"internal_node_id":"0.0-5.0-20.0"},{"group":"hexagon_bi","fractal_assignment":["../images/gry_blk.png","../images/blu_wht.png","../images/cyn_red.png","../images/pnk_blu.png","../images/ylw_slt.png","../images/org_blu.png"],"mutagen_generator_assignment":[1,0],"goal":3,"start":0,"action_noise":0.15,"location_history":"[0,5,4,3]","action_history":"[0,1,0]","mutagen_history":"[1,0,1]","location_rts":"[711,550,453]","trial_type":"fractal-mutation","trial_index":75,"time_elapsed":1345828,"internal_node_id":"0.0-5.0-21.0"},{"group":"hexagon_bi","fractal_assignment":["../images/gry_blk.png","../images/blu_wht.png","../images/cyn_red.png","../images/pnk_blu.png","../images/ylw_slt.png","../images/org_blu.png"],"mutagen_generator_assignment":[1,0],"goal":1,"start":3,"action_noise":0.15,"location_history":"[3,4,5,4,3,4,3,2,1]","action_history":"[0,1,1,0,1,0,1,0]","mutagen_history":"[1,0,0,1,0,1,0,1]","location_rts":"[637,350,702,345,631,868,427,769]","trial_type":"fractal-mutation","trial_index":76,"time_elapsed":1362254,"internal_node_id":"0.0-5.0-22.0"},{"group":"hexagon_bi","fractal_assignment":["../images/gry_blk.png","../images/blu_wht.png","../images/cyn_red.png","../images/pnk_blu.png","../images/ylw_slt.png","../images/org_blu.png"],"mutagen_generator_assignment":[1,0],"goal":0,"start":1,"action_noise":0.15,"location_history":"[1,0]","action_history":"[1]","mutagen_history":"[0]","location_rts":"[285]","trial_type":"fractal-mutation","trial_index":77,"time_elapsed":1367066,"internal_node_id":"0.0-5.0-23.0"},{"group":"hexagon_bi","fractal_assignment":["../images/gry_blk.png","../images/blu_wht.png","../images/cyn_red.png","../images/pnk_blu.png","../images/ylw_slt.png","../images/org_blu.png"],"mutagen_generator_assignment":[1,0],"goal":2,"start":0,"action_noise":0.15,"location_history":"[0,1,0,5,0,1,2]","action_history":"[0,1,0,0,1,0]","mutagen_history":"[1,0,1,1,0,1]","location_rts":"[324,268,484,609,502,646]","trial_type":"fractal-mutation","trial_index":78,"time_elapsed":1379552,"internal_node_id":"0.0-5.0-24.0"},{"group":"hexagon_bi","fractal_assignment":["../images/gry_blk.png","../images/blu_wht.png","../images/cyn_red.png","../images/pnk_blu.png","../images/ylw_slt.png","../images/org_blu.png"],"mutagen_generator_assignment":[1,0],"goal":4,"start":2,"action_noise":0.15,"location_history":"[2,1,0,5,4]","action_history":"[0,1,0,1]","mutagen_history":"[1,0,1,0]","location_rts":"[371,449,417,335]","trial_type":"fractal-mutation","trial_index":79,"time_elapsed":1388729,"internal_node_id":"0.0-5.0-25.0"},{"group":"hexagon_bi","fractal_assignment":["../images/gry_blk.png","../images/blu_wht.png","../images/cyn_red.png","../images/pnk_blu.png","../images/ylw_slt.png","../images/org_blu.png"],"mutagen_generator_assignment":[1,0],"goal":5,"start":4,"action_noise":0.15,"location_history":"[4,3,2,3,4,3,4,5]","action_history":"[0,1,1,0,1,0,0]","mutagen_history":"[1,0,0,1,0,1,1]","location_rts":"[550,541,580,875,448,723,649]","trial_type":"fractal-mutation","trial_index":80,"time_elapsed":1403773,"internal_node_id":"0.0-5.0-26.0"},{"group":"hexagon_bi","fractal_assignment":["../images/gry_blk.png","../images/blu_wht.png","../images/cyn_red.png","../images/pnk_blu.png","../images/ylw_slt.png","../images/org_blu.png"],"mutagen_generator_assignment":[1,0],"goal":2,"start":5,"action_noise":0.15,"location_history":"[5,0,5,4,5,4,3,2]","action_history":"[1,0,1,1,1,0,1]","mutagen_history":"[0,1,0,0,0,1,0]","location_rts":"[989,712,385,424,517,320,606]","trial_type":"fractal-mutation","trial_index":81,"time_elapsed":1418398,"internal_node_id":"0.0-5.0-27.0"},{"group":"hexagon_bi","fractal_assignment":["../images/gry_blk.png","../images/blu_wht.png","../images/cyn_red.png","../images/pnk_blu.png","../images/ylw_slt.png","../images/org_blu.png"],"mutagen_generator_assignment":[1,0],"goal":3,"start":2,"action_noise":0.15,"location_history":"[2,1,2,1,2,3]","action_history":"[0,1,0,0,1]","mutagen_history":"[1,0,1,1,0]","location_rts":"[1120,1108,1106,383,1105]","trial_type":"fractal-mutation","trial_index":82,"time_elapsed":1431829,"internal_node_id":"0.0-5.0-28.0"},{"group":"hexagon_bi","fractal_assignment":["../images/gry_blk.png","../images/blu_wht.png","../images/cyn_red.png","../images/pnk_blu.png","../images/ylw_slt.png","../images/org_blu.png"],"mutagen_generator_assignment":[1,0],"goal":1,"start":3,"action_noise":0.15,"location_history":"[3,2,1]","action_history":"[1,0]","mutagen_history":"[0,1]","location_rts":"[1405,473]","trial_type":"fractal-mutation","trial_index":83,"time_elapsed":1439247,"internal_node_id":"0.0-5.0-29.0"},{"group":"hexagon_bi","fractal_assignment":["../images/gry_blk.png","../images/blu_wht.png","../images/cyn_red.png","../images/pnk_blu.png","../images/ylw_slt.png","../images/org_blu.png"],"mutagen_generator_assignment":[1,0],"goal":4,"start":1,"action_noise":0.15,"location_history":"[1,0,5,4]","action_history":"[1,0,1]","mutagen_history":"[0,1,0]","location_rts":"[455,346,257]","trial_type":"fractal-mutation","trial_index":84,"time_elapsed":1446867,"internal_node_id":"0.0-5.0-30.0"},{"group":"hexagon_bi","fractal_assignment":["../images/gry_blk.png","../images/blu_wht.png","../images/cyn_red.png","../images/pnk_blu.png","../images/ylw_slt.png","../images/org_blu.png"],"mutagen_generator_assignment":[1,0],"goal":5,"start":4,"action_noise":0.15,"location_history":"[4,5]","action_history":"[1]","mutagen_history":"[0]","location_rts":"[1306]","trial_type":"fractal-mutation","trial_index":85,"time_elapsed":1452689,"internal_node_id":"0.0-5.0-31.0"},{"group":"hexagon_bi","fractal_assignment":["../images/gry_blk.png","../images/blu_wht.png","../images/cyn_red.png","../images/pnk_blu.png","../images/ylw_slt.png","../images/org_blu.png"],"mutagen_generator_assignment":[1,0],"goal":0,"start":5,"action_noise":0.15,"location_history":"[5,4,3,2,1,0]","action_history":"[1,0,1,0,1]","mutagen_history":"[0,1,0,1,0]","location_rts":"[1804,1010,674,465,344]","trial_type":"fractal-mutation","trial_index":86,"time_elapsed":1465622,"internal_node_id":"0.0-5.0-32.0"},{"group":"hexagon_bi","fractal_assignment":["../images/gry_blk.png","../images/blu_wht.png","../images/cyn_red.png","../images/pnk_blu.png","../images/ylw_slt.png","../images/org_blu.png"],"mutagen_generator_assignment":[1,0],"goal":2,"start":0,"action_noise":0.15,"location_history":"[0,5,4,3,2]","action_history":"[0,1,0,1]","mutagen_history":"[1,0,1,0]","location_rts":"[1231,483,554,481]","trial_type":"fractal-mutation","trial_index":87,"time_elapsed":1475950,"internal_node_id":"0.0-5.0-33.0"},{"group":"hexagon_bi","fractal_assignment":["../images/gry_blk.png","../images/blu_wht.png","../images/cyn_red.png","../images/pnk_blu.png","../images/ylw_slt.png","../images/org_blu.png"],"mutagen_generator_assignment":[1,0],"goal":0,"start":2,"action_noise":0.15,"location_history":"[2,3,4,5,0]","action_history":"[1,0,1,0]","mutagen_history":"[0,1,0,1]","location_rts":"[501,384,390,542]","trial_type":"fractal-mutation","trial_index":88,"time_elapsed":1485359,"internal_node_id":"0.0-5.0-34.0"},{"group":"hexagon_bi","fractal_assignment":["../images/gry_blk.png","../images/blu_wht.png","../images/cyn_red.png","../images/pnk_blu.png","../images/ylw_slt.png","../images/org_blu.png"],"mutagen_generator_assignment":[1,0],"goal":5,"start":0,"action_noise":0.15,"location_history":"[0,1,2,3,4,5]","action_history":"[1,0,1,0,1]","mutagen_history":"[0,1,0,1,0]","location_rts":"[391,512,565,607,624]","trial_type":"fractal-mutation","trial_index":89,"time_elapsed":1496674,"internal_node_id":"0.0-5.0-35.0"},{"group":"hexagon_bi","fractal_assignment":["../images/gry_blk.png","../images/blu_wht.png","../images/cyn_red.png","../images/pnk_blu.png","../images/ylw_slt.png","../images/org_blu.png"],"mutagen_generator_assignment":[1,0],"goal":1,"start":5,"action_noise":0.15,"location_history":"[5,0,1]","action_history":"[0,1]","mutagen_history":"[1,0]","location_rts":"[518,586]","trial_type":"fractal-mutation","trial_index":90,"time_elapsed":1503318,"internal_node_id":"0.0-5.0-36.0"},{"group":"hexagon_bi","fractal_assignment":["../images/gry_blk.png","../images/blu_wht.png","../images/cyn_red.png","../images/pnk_blu.png","../images/ylw_slt.png","../images/org_blu.png"],"mutagen_generator_assignment":[1,0],"goal":4,"start":1,"action_noise":0.15,"location_history":"[1,2,3,4]","action_history":"[0,1,0]","mutagen_history":"[1,0,1]","location_rts":"[398,325,665]","trial_type":"fractal-mutation","trial_index":91,"time_elapsed":1511305,"internal_node_id":"0.0-5.0-37.0"},{"group":"hexagon_bi","fractal_assignment":["../images/gry_blk.png","../images/blu_wht.png","../images/cyn_red.png","../images/pnk_blu.png","../images/ylw_slt.png","../images/org_blu.png"],"mutagen_generator_assignment":[1,0],"goal":3,"start":4,"action_noise":0.15,"location_history":"[4,3]","action_history":"[0]","mutagen_history":"[1]","location_rts":"[654]","trial_type":"fractal-mutation","trial_index":92,"time_elapsed":1516496,"internal_node_id":"0.0-5.0-38.0"},{"group":"hexagon_bi","fractal_assignment":["../images/gry_blk.png","../images/blu_wht.png","../images/cyn_red.png","../images/pnk_blu.png","../images/ylw_slt.png","../images/org_blu.png"],"mutagen_generator_assignment":[1,0],"goal":5,"start":3,"action_noise":0.15,"location_history":"[3,2,1,2,3,4,5]","action_history":"[1,0,0,1,0,1]","mutagen_history":"[0,1,1,0,1,0]","location_rts":"[666,397,636,367,498,342]","trial_type":"fractal-mutation","trial_index":93,"time_elapsed":1529059,"internal_node_id":"0.0-5.0-39.0"},{"group":"hexagon_bi","fractal_assignment":["../images/gry_blk.png","../images/blu_wht.png","../images/cyn_red.png","../images/pnk_blu.png","../images/ylw_slt.png","../images/org_blu.png"],"mutagen_generator_assignment":[1,0],"goal":1,"start":5,"action_noise":0.15,"location_history":"[5,4,3,2,1]","action_history":"[1,0,1,0]","mutagen_history":"[0,1,0,1]","location_rts":"[863,469,385,1175]","trial_type":"fractal-mutation","trial_index":94,"time_elapsed":1539550,"internal_node_id":"0.0-5.0-40.0"},{"group":"hexagon_bi","fractal_assignment":["../images/gry_blk.png","../images/blu_wht.png","../images/cyn_red.png","../images/pnk_blu.png","../images/ylw_slt.png","../images/org_blu.png"],"mutagen_generator_assignment":[1,0],"goal":2,"start":1,"action_noise":0.15,"location_history":"[1,2]","action_history":"[0]","mutagen_history":"[1]","location_rts":"[575]","trial_type":"fractal-mutation","trial_index":95,"time_elapsed":1544657,"internal_node_id":"0.0-5.0-41.0"},{"group":"hexagon_bi","fractal_assignment":["../images/gry_blk.png","../images/blu_wht.png","../images/cyn_red.png","../images/pnk_blu.png","../images/ylw_slt.png","../images/org_blu.png"],"mutagen_generator_assignment":[1,0],"goal":4,"start":2,"action_noise":0.15,"location_history":"[2,3,4]","action_history":"[1,0]","mutagen_history":"[0,1]","location_rts":"[387,397]","trial_type":"fractal-mutation","trial_index":96,"time_elapsed":1550995,"internal_node_id":"0.0-5.0-42.0"},{"group":"hexagon_bi","fractal_assignment":["../images/gry_blk.png","../images/blu_wht.png","../images/cyn_red.png","../images/pnk_blu.png","../images/ylw_slt.png","../images/org_blu.png"],"mutagen_generator_assignment":[1,0],"goal":0,"start":4,"action_noise":0.15,"location_history":"[4,5,0]","action_history":"[1,0]","mutagen_history":"[0,1]","location_rts":"[384,509]","trial_type":"fractal-mutation","trial_index":97,"time_elapsed":1557454,"internal_node_id":"0.0-5.0-43.0"},{"group":"hexagon_bi","fractal_assignment":["../images/gry_blk.png","../images/blu_wht.png","../images/cyn_red.png","../images/pnk_blu.png","../images/ylw_slt.png","../images/org_blu.png"],"mutagen_generator_assignment":[1,0],"goal":3,"start":0,"action_noise":0.15,"location_history":"[0,1,2,3]","action_history":"[1,0,1]","mutagen_history":"[0,1,0]","location_rts":"[344,451,694]","trial_type":"fractal-mutation","trial_index":98,"time_elapsed":1565508,"internal_node_id":"0.0-5.0-44.0"},{"group":"hexagon_bi","fractal_assignment":["../images/gry_blk.png","../images/blu_wht.png","../images/cyn_red.png","../images/pnk_blu.png","../images/ylw_slt.png","../images/org_blu.png"],"mutagen_generator_assignment":[1,0],"goal":0,"start":3,"action_noise":0.15,"location_history":"[3,2,1,2,3,4,5,0]","action_history":"[1,0,0,1,0,1,1]","mutagen_history":"[0,1,1,0,1,0,0]","location_rts":"[1122,421,879,494,735,495,333]","trial_type":"fractal-mutation","trial_index":99,"time_elapsed":1580672,"internal_node_id":"0.0-5.0-45.0"},{"group":"hexagon_bi","fractal_assignment":["../images/gry_blk.png","../images/blu_wht.png","../images/cyn_red.png","../images/pnk_blu.png","../images/ylw_slt.png","../images/org_blu.png"],"mutagen_generator_assignment":[1,0],"goal":4,"start":0,"action_noise":0.15,"location_history":"[0,1,0,5,4]","action_history":"[1,0,0,1]","mutagen_history":"[0,1,1,0]","location_rts":"[1104,557,723,326]","trial_type":"fractal-mutation","trial_index":100,"time_elapsed":1590981,"internal_node_id":"0.0-5.0-46.0"},{"group":"hexagon_bi","fractal_assignment":["../images/gry_blk.png","../images/blu_wht.png","../images/cyn_red.png","../images/pnk_blu.png","../images/ylw_slt.png","../images/org_blu.png"],"mutagen_generator_assignment":[1,0],"goal":5,"start":4,"action_noise":0.15,"location_history":"[4,5]","action_history":"[1]","mutagen_history":"[0]","location_rts":"[1489]","trial_type":"fractal-mutation","trial_index":101,"time_elapsed":1596996,"internal_node_id":"0.0-5.0-47.0"},{"group":"hexagon_bi","fractal_assignment":["../images/gry_blk.png","../images/blu_wht.png","../images/cyn_red.png","../images/pnk_blu.png","../images/ylw_slt.png","../images/org_blu.png"],"mutagen_generator_assignment":[1,0],"goal":2,"start":5,"action_noise":0.15,"location_history":"[5,0,1,2]","action_history":"[0,1,0]","mutagen_history":"[1,0,1]","location_rts":"[853,266,509]","trial_type":"fractal-mutation","trial_index":102,"time_elapsed":1605199,"internal_node_id":"0.0-5.0-48.0"},{"group":"hexagon_bi","fractal_assignment":["../images/gry_blk.png","../images/blu_wht.png","../images/cyn_red.png","../images/pnk_blu.png","../images/ylw_slt.png","../images/org_blu.png"],"mutagen_generator_assignment":[1,0],"goal":1,"start":2,"action_noise":0.15,"location_history":"[2,1]","action_history":"[0]","mutagen_history":"[1]","location_rts":"[799]","trial_type":"fractal-mutation","trial_index":103,"time_elapsed":1610527,"internal_node_id":"0.0-5.0-49.0"},{"view_history":"[{\"page_index\":0,\"viewing_time\":3667}]","rt":3668,"trial_type":"instructions","trial_index":104,"time_elapsed":1615196,"internal_node_id":"0.0-6.0"},{"rt":33446,"responses":"{\"Q0\":\"to see if I would remember things in order with colors. \"}","trial_type":"survey-text","trial_index":105,"time_elapsed":1649655,"internal_node_id":"0.0-7.0-0.0"},{"rt":17697,"responses":"{\"Q0\":\"to see if I could remember what order brought up the picture that was desired\"}","trial_type":"survey-text","trial_index":106,"time_elapsed":1668355,"internal_node_id":"0.0-7.0-1.0"},{"rt":21533,"responses":"{\"Q0\":\"<img src='../images/diagrams/hexagon_bi.png'>\"}","trial_type":"survey-multi-choice","trial_index":107,"time_elapsed":1690904,"internal_node_id":"0.0-7.0-2.0"},{"rt":29450,"assignments":["../images/gry_blk.png","../images/org_blu.png","../images/ylw_slt.png","../images/blu_wht.png","../images/cyn_red.png","../images/pnk_blu.png"],"trial_type":"drag-drop-on-image","trial_index":108,"time_elapsed":1721362,"internal_node_id":"0.0-7.0-3.0"},{"rt":8835,"responses":"{\"Q0\":\"2\"}","trial_type":"survey-likert","trial_index":109,"time_elapsed":1731204,"internal_node_id":"0.0-7.0-4.0"},{"rt":51682,"responses":"{\"Q0\":\"some of the doors that I picked were clockwise or counter clockwise rotation. I believe this is a similarity\"}","trial_type":"survey-text","trial_index":110,"time_elapsed":1783890,"internal_node_id":"0.0-7.0-5.0"},{"rt":9776,"responses":"{\"Q0\":\"Yes\"}","trial_type":"survey-multi-choice","trial_index":111,"time_elapsed":1794675,"internal_node_id":"0.0-7.0-6.0"},{"rt":6148,"responses":"{\"Q0\":\"Between sessions 2 and 3\"}","trial_type":"survey-multi-choice","trial_index":112,"time_elapsed":1801833,"internal_node_id":"0.0-7.0-7.0"},{"rt":35026,"responses":"{\"Q0\":\"they seemed to resemble each other. Green door would lead to purple door just like a few pictures on the visual experiment would follow each other\"}","trial_type":"survey-text","trial_index":113,"time_elapsed":1837864,"internal_node_id":"0.0-7.0-8.0"},{"rt":4520,"responses":"{\"Q0\":\"1\"}","trial_type":"survey-likert","trial_index":114,"time_elapsed":1843388,"internal_node_id":"0.0-7.0-9.0"},{"rt":7142,"responses":"{\"Q0\":\"Same structure\"}","trial_type":"survey-multi-choice","trial_index":115,"time_elapsed":1851537,"internal_node_id":"0.0-7.0-10.0"},{"rt":29396,"responses":"{\"Q0\":\"left (white) door = acid, right (black) door = ray\",\"Q1\":\"Slightly confident\"}","trial_type":"survey-multi-choice","trial_index":116,"time_elapsed":1881950,"internal_node_id":"0.0-7.0-11.0"},{"rt":12253,"responses":"{\"Q0\":\"25-35\",\"Q1\":\"Associates or other two-year degree\",\"Q2\":\"Female\",\"Q3\":\"White\"}","trial_type":"survey-multi-choice","trial_index":117,"time_elapsed":1895239,"internal_node_id":"0.0-8.0"},{"rt":7018,"responses":"{\"Q0\":\"this was very interesting, thank you\"}","trial_type":"survey-text","trial_index":118,"time_elapsed":1903261,"internal_node_id":"0.0-9.0"}]