[{"view_history":"[{\"page_index\":0,\"viewing_time\":2034},{\"page_index\":1,\"viewing_time\":1542}]","rt":3577,"trial_type":"instructions","trial_index":0,"time_elapsed":3577,"internal_node_id":"0.0-0.0"},{"view_history":"[{\"page_index\":0,\"viewing_time\":2284},{\"page_index\":1,\"viewing_time\":2182}]","rt":4466,"trial_type":"instructions","trial_index":1,"time_elapsed":9922,"internal_node_id":"0.0-1.0"},{"group":"hexagon_bi","room_assignment":["green","red","yellow","blue","grey","purple"],"door_color_assignment":["white","black"],"door_generator_assignment":[1,0],"goal":2,"start":1,"action_noise":0.15,"location_history":"[1,0,5,0,5,0,5,0,1,2]","action_history":"[1,0,1,0,0,1,0,1,0]","door_history":"[0,1,0,1,1,0,1,0,1]","location_rts":"[3651,4231,1966,427,471,459,354,374,1352]","trial_type":"two-door-navigation","trial_index":2,"time_elapsed":39520,"internal_node_id":"0.0-2.0-0.0"},{"group":"hexagon_bi","room_assignment":["green","red","yellow","blue","grey","purple"],"door_color_assignment":["white","black"],"door_generator_assignment":[1,0],"goal":0,"start":2,"action_noise":0.15,"location_history":"[2,3,4,5,4,3,4,5,0]","action_history":"[1,0,0,1,0,0,1,0]","door_history":"[0,1,1,0,1,1,0,1]","location_rts":"[2059,480,615,306,2649,13896,1564,291]","trial_type":"two-door-navigation","trial_index":3,"time_elapsed":79456,"internal_node_id":"0.0-2.0-1.0"},{"group":"hexagon_bi","room_assignment":["green","red","yellow","blue","grey","purple"],"door_color_assignment":["white","black"],"door_generator_assignment":[1,0],"goal":5,"start":0,"action_noise":0.15,"location_history":"[0,5]","action_history":"[0]","door_history":"[1]","location_rts":"[14428]","trial_type":"two-door-navigation","trial_index":4,"time_elapsed":99717,"internal_node_id":"0.0-2.0-2.0"},{"group":"hexagon_bi","room_assignment":["green","red","yellow","blue","grey","purple"],"door_color_assignment":["white","black"],"door_generator_assignment":[1,0],"goal":1,"start":5,"action_noise":0.15,"location_history":"[5,4,3,2,3,4,3,4,5,0,1]","action_history":"[1,0,1,1,0,1,1,1,0,1]","door_history":"[0,1,0,0,1,0,0,0,1,0]","location_rts":"[42396,2557,2451,33620,372,601,394,1466,438,437]","trial_type":"two-door-navigation","trial_index":5,"time_elapsed":202978,"internal_node_id":"0.0-2.0-3.0"},{"group":"hexagon_bi","room_assignment":["green","red","yellow","blue","grey","purple"],"door_color_assignment":["white","black"],"door_generator_assignment":[1,0],"goal":3,"start":1,"action_noise":0.15,"location_history":"[1,2,3]","action_history":"[0,1]","door_history":"[1,0]","location_rts":"[273,361]","trial_type":"two-door-navigation","trial_index":6,"time_elapsed":213143,"internal_node_id":"0.0-2.0-4.0"},{"group":"hexagon_bi","room_assignment":["green","red","yellow","blue","grey","purple"],"door_color_assignment":["white","black"],"door_generator_assignment":[1,0],"goal":5,"start":3,"action_noise":0.15,"location_history":"[3,4,5]","action_history":"[0,1]","door_history":"[1,0]","location_rts":"[1943,3881]","trial_type":"two-door-navigation","trial_index":7,"time_elapsed":226028,"internal_node_id":"0.0-2.0-5.0"},{"group":"hexagon_bi","room_assignment":["green","red","yellow","blue","grey","purple"],"door_color_assignment":["white","black"],"door_generator_assignment":[1,0],"goal":4,"start":5,"action_noise":0.15,"location_history":"[5,4]","action_history":"[1]","door_history":"[0]","location_rts":"[8217]","trial_type":"two-door-navigation","trial_index":8,"time_elapsed":238774,"internal_node_id":"0.0-2.0-6.0"},{"group":"hexagon_bi","room_assignment":["green","red","yellow","blue","grey","purple"],"door_color_assignment":["white","black"],"door_generator_assignment":[1,0],"goal":0,"start":4,"action_noise":0.15,"location_history":"[4,3,2,1,0]","action_history":"[0,1,0,1]","door_history":"[1,0,1,0]","location_rts":"[1169,3082,27153,2466]","trial_type":"two-door-navigation","trial_index":9,"time_elapsed":281499,"internal_node_id":"0.0-2.0-7.0"},{"group":"hexagon_bi","room_assignment":["green","red","yellow","blue","grey","purple"],"door_color_assignment":["white","black"],"door_generator_assignment":[1,0],"goal":2,"start":0,"action_noise":0.15,"location_history":"[0,1,2]","action_history":"[1,0]","door_history":"[0,1]","location_rts":"[1586,5391]","trial_type":"two-door-navigation","trial_index":10,"time_elapsed":295186,"internal_node_id":"0.0-2.0-8.0"},{"group":"hexagon_bi","room_assignment":["green","red","yellow","blue","grey","purple"],"door_color_assignment":["white","black"],"door_generator_assignment":[1,0],"goal":4,"start":2,"action_noise":0.15,"location_history":"[2,3,2,1,0,5,0,1,0,1,2,3,4]","action_history":"[1,1,0,1,0,1,1,0,1,0,1,0]","door_history":"[0,0,1,0,1,0,0,1,0,1,0,1]","location_rts":"[1589,1706,12565,1486,426,2145,2325,1332,2036,1961,1742,2860]","trial_type":"two-door-navigation","trial_index":11,"time_elapsed":364224,"internal_node_id":"0.0-2.0-9.0"},{"group":"hexagon_bi","room_assignment":["green","red","yellow","blue","grey","purple"],"door_color_assignment":["white","black"],"door_generator_assignment":[1,0],"goal":2,"start":4,"action_noise":0.15,"location_history":"[4,5,0,1,0,5,4,3,2]","action_history":"[1,0,1,1,0,1,0,1]","door_history":"[0,1,0,0,1,0,1,0]","location_rts":"[2605,355,283,369,1467,279,482,412]","trial_type":"two-door-navigation","trial_index":12,"time_elapsed":385639,"internal_node_id":"0.0-2.0-10.0"},{"group":"hexagon_bi","room_assignment":["green","red","yellow","blue","grey","purple"],"door_color_assignment":["white","black"],"door_generator_assignment":[1,0],"goal":3,"start":2,"action_noise":0.15,"location_history":"[2,1,0,1,2,1,0,5,4,3]","action_history":"[0,1,1,1,0,1,0,1,0]","door_history":"[1,0,0,0,1,0,1,0,1]","location_rts":"[17306,582,2341,3329,1508,1711,1703,200,480]","trial_type":"two-door-navigation","trial_index":13,"time_elapsed":434769,"internal_node_id":"0.0-2.0-11.0"},{"group":"hexagon_bi","room_assignment":["green","red","yellow","blue","grey","purple"],"door_color_assignment":["white","black"],"door_generator_assignment":[1,0],"goal":0,"start":3,"action_noise":0.15,"location_history":"[3,4,3,2,3,4,3,2,3,4,5,0]","action_history":"[1,0,1,0,1,0,1,1,0,1,0]","door_history":"[0,1,0,1,0,1,0,0,1,0,1]","location_rts":"[363,336,292,413,1892,1000,332,293,260,298,220]","trial_type":"two-door-navigation","trial_index":14,"time_elapsed":461928,"internal_node_id":"0.0-2.0-12.0"},{"group":"hexagon_bi","room_assignment":["green","red","yellow","blue","grey","purple"],"door_color_assignment":["white","black"],"door_generator_assignment":[1,0],"goal":5,"start":0,"action_noise":0.15,"location_history":"[0,5]","action_history":"[1]","door_history":"[0]","location_rts":"[532]","trial_type":"two-door-navigation","trial_index":15,"time_elapsed":466987,"internal_node_id":"0.0-2.0-13.0"},{"group":"hexagon_bi","room_assignment":["green","red","yellow","blue","grey","purple"],"door_color_assignment":["white","black"],"door_generator_assignment":[1,0],"goal":1,"start":5,"action_noise":0.15,"location_history":"[5,4,5,4,3,2,1]","action_history":"[0,1,1,0,1,0]","door_history":"[1,0,0,1,0,1]","location_rts":"[944,528,348,306,330,300]","trial_type":"two-door-navigation","trial_index":16,"time_elapsed":479377,"internal_node_id":"0.0-2.0-14.0"},{"group":"hexagon_bi","room_assignment":["green","red","yellow","blue","grey","purple"],"door_color_assignment":["white","black"],"door_generator_assignment":[1,0],"goal":5,"start":1,"action_noise":0.15,"location_history":"[1,0,5]","action_history":"[1,0]","door_history":"[0,1]","location_rts":"[345,347]","trial_type":"two-door-navigation","trial_index":17,"time_elapsed":485618,"internal_node_id":"0.0-2.0-15.0"},{"group":"hexagon_bi","room_assignment":["green","red","yellow","blue","grey","purple"],"door_color_assignment":["white","black"],"door_generator_assignment":[1,0],"goal":3,"start":5,"action_noise":0.15,"location_history":"[5,4,3]","action_history":"[1,0]","door_history":"[0,1]","location_rts":"[1111,572]","trial_type":"two-door-navigation","trial_index":18,"time_elapsed":492844,"internal_node_id":"0.0-2.0-16.0"},{"group":"hexagon_bi","room_assignment":["green","red","yellow","blue","grey","purple"],"door_color_assignment":["white","black"],"door_generator_assignment":[1,0],"goal":2,"start":3,"action_noise":0.15,"location_history":"[3,2]","action_history":"[1]","door_history":"[0]","location_rts":"[764]","trial_type":"two-door-navigation","trial_index":19,"time_elapsed":498130,"internal_node_id":"0.0-2.0-17.0"},{"group":"hexagon_bi","room_assignment":["green","red","yellow","blue","grey","purple"],"door_color_assignment":["white","black"],"door_generator_assignment":[1,0],"goal":1,"start":2,"action_noise":0.15,"location_history":"[2,3,4,5,4,5,4,3,2,1]","action_history":"[1,0,1,1,0,1,0,1,0]","door_history":"[0,1,0,0,1,0,1,0,1]","location_rts":"[949,339,340,466,236,308,322,357,292]","trial_type":"two-door-navigation","trial_index":20,"time_elapsed":514423,"internal_node_id":"0.0-2.0-18.0"},{"group":"hexagon_bi","room_assignment":["green","red","yellow","blue","grey","purple"],"door_color_assignment":["white","black"],"door_generator_assignment":[1,0],"goal":4,"start":1,"action_noise":0.15,"location_history":"[1,2,1,2,3,4]","action_history":"[1,0,0,1,0]","door_history":"[0,1,1,0,1]","location_rts":"[798,332,646,249,511]","trial_type":"two-door-navigation","trial_index":21,"time_elapsed":525581,"internal_node_id":"0.0-2.0-19.0"},{"group":"hexagon_bi","room_assignment":["green","red","yellow","blue","grey","purple"],"door_color_assignment":["white","black"],"door_generator_assignment":[1,0],"goal":0,"start":4,"action_noise":0.15,"location_history":"[4,5,0]","action_history":"[1,0]","door_history":"[0,1]","location_rts":"[457,129]","trial_type":"two-door-navigation","trial_index":22,"time_elapsed":531720,"internal_node_id":"0.0-2.0-20.0"},{"group":"hexagon_bi","room_assignment":["green","red","yellow","blue","grey","purple"],"door_color_assignment":["white","black"],"door_generator_assignment":[1,0],"goal":3,"start":0,"action_noise":0.15,"location_history":"[0,1,2,3]","action_history":"[1,0,1]","door_history":"[0,1,0]","location_rts":"[742,1411,480]","trial_type":"two-door-navigation","trial_index":23,"time_elapsed":540921,"internal_node_id":"0.0-2.0-21.0"},{"group":"hexagon_bi","room_assignment":["green","red","yellow","blue","grey","purple"],"door_color_assignment":["white","black"],"door_generator_assignment":[1,0],"goal":1,"start":3,"action_noise":0.15,"location_history":"[3,2,3,4,3,2,3,2,1]","action_history":"[0,1,1,0,1,0,1,0]","door_history":"[1,0,0,1,0,1,0,1]","location_rts":"[772,578,339,339,275,323,336,364]","trial_type":"two-door-navigation","trial_index":24,"time_elapsed":555941,"internal_node_id":"0.0-2.0-22.0"},{"group":"hexagon_bi","room_assignment":["green","red","yellow","blue","grey","purple"],"door_color_assignment":["white","black"],"door_generator_assignment":[1,0],"goal":0,"start":1,"action_noise":0.15,"location_history":"[1,0]","action_history":"[1]","door_history":"[0]","location_rts":"[821]","trial_type":"two-door-navigation","trial_index":25,"time_elapsed":561286,"internal_node_id":"0.0-2.0-23.0"},{"group":"hexagon_bi","room_assignment":["green","red","yellow","blue","grey","purple"],"door_color_assignment":["white","black"],"door_generator_assignment":[1,0],"goal":2,"start":0,"action_noise":0.15,"location_history":"[0,1,2]","action_history":"[1,0]","door_history":"[0,1]","location_rts":"[746,261]","trial_type":"two-door-navigation","trial_index":26,"time_elapsed":567835,"internal_node_id":"0.0-2.0-24.0"},{"group":"hexagon_bi","room_assignment":["green","red","yellow","blue","grey","purple"],"door_color_assignment":["white","black"],"door_generator_assignment":[1,0],"goal":4,"start":2,"action_noise":0.15,"location_history":"[2,3,2,1,2,3,4]","action_history":"[1,0,1,0,1,0]","door_history":"[0,1,0,1,0,1]","location_rts":"[596,394,309,329,318,303]","trial_type":"two-door-navigation","trial_index":27,"time_elapsed":579724,"internal_node_id":"0.0-2.0-25.0"},{"group":"hexagon_bi","room_assignment":["green","red","yellow","blue","grey","purple"],"door_color_assignment":["white","black"],"door_generator_assignment":[1,0],"goal":5,"start":4,"action_noise":0.15,"location_history":"[4,5]","action_history":"[1]","door_history":"[0]","location_rts":"[1741]","trial_type":"two-door-navigation","trial_index":28,"time_elapsed":585991,"internal_node_id":"0.0-2.0-26.0"},{"group":"hexagon_bi","room_assignment":["green","red","yellow","blue","grey","purple"],"door_color_assignment":["white","black"],"door_generator_assignment":[1,0],"goal":2,"start":5,"action_noise":0.15,"location_history":"[5,4,5,0,5,0,5,0,5,4,3,4,3,2]","action_history":"[1,0,1,0,0,0,0,0,1,0,1,0,1]","door_history":"[0,1,0,1,1,1,1,1,0,1,0,1,0]","location_rts":"[607,380,267,340,3405,6249,7635,939,506,572,283,353,281]","trial_type":"two-door-navigation","trial_index":29,"time_elapsed":624583,"internal_node_id":"0.0-2.0-27.0"},{"group":"hexagon_bi","room_assignment":["green","red","yellow","blue","grey","purple"],"door_color_assignment":["white","black"],"door_generator_assignment":[1,0],"goal":3,"start":2,"action_noise":0.15,"location_history":"[2,1,0,5,4,3]","action_history":"[0,1,0,1,0]","door_history":"[1,0,1,0,1]","location_rts":"[349,218,308,363,481]","trial_type":"two-door-navigation","trial_index":30,"time_elapsed":634910,"internal_node_id":"0.0-2.0-28.0"},{"group":"hexagon_bi","room_assignment":["green","red","yellow","blue","grey","purple"],"door_color_assignment":["white","black"],"door_generator_assignment":[1,0],"goal":1,"start":3,"action_noise":0.15,"location_history":"[3,2,3,2,3,4,3,2,3,4,5,0,1]","action_history":"[1,1,0,1,0,1,0,1,0,1,0,1]","door_history":"[0,0,1,0,1,0,1,0,1,0,1,0]","location_rts":"[830,338,138,253,258,269,140,260,346,371,51,978]","trial_type":"two-door-navigation","trial_index":31,"time_elapsed":654895,"internal_node_id":"0.0-2.0-29.0"},{"group":"hexagon_bi","room_assignment":["green","red","yellow","blue","grey","purple"],"door_color_assignment":["white","black"],"door_generator_assignment":[1,0],"goal":4,"start":1,"action_noise":0.15,"location_history":"[1,0,5,4]","action_history":"[1,0,1]","door_history":"[0,1,0]","location_rts":"[1787,284,365]","trial_type":"two-door-navigation","trial_index":32,"time_elapsed":663901,"internal_node_id":"0.0-2.0-30.0"},{"group":"hexagon_bi","room_assignment":["green","red","yellow","blue","grey","purple"],"door_color_assignment":["white","black"],"door_generator_assignment":[1,0],"goal":5,"start":4,"action_noise":0.15,"location_history":"[4,5]","action_history":"[1]","door_history":"[0]","location_rts":"[351]","trial_type":"two-door-navigation","trial_index":33,"time_elapsed":668778,"internal_node_id":"0.0-2.0-31.0"},{"group":"hexagon_bi","room_assignment":["green","red","yellow","blue","grey","purple"],"door_color_assignment":["white","black"],"door_generator_assignment":[1,0],"goal":0,"start":5,"action_noise":0.15,"location_history":"[5,4,5,0]","action_history":"[0,1,0]","door_history":"[1,0,1]","location_rts":"[12524,459,363]","trial_type":"two-door-navigation","trial_index":34,"time_elapsed":688691,"internal_node_id":"0.0-2.0-32.0"},{"group":"hexagon_bi","room_assignment":["green","red","yellow","blue","grey","purple"],"door_color_assignment":["white","black"],"door_generator_assignment":[1,0],"goal":2,"start":0,"action_noise":0.15,"location_history":"[0,1,2]","action_history":"[1,0]","door_history":"[0,1]","location_rts":"[3906,253]","trial_type":"two-door-navigation","trial_index":35,"time_elapsed":698410,"internal_node_id":"0.0-2.0-33.0"},{"group":"hexagon_bi","room_assignment":["green","red","yellow","blue","grey","purple"],"door_color_assignment":["white","black"],"door_generator_assignment":[1,0],"goal":0,"start":2,"action_noise":0.15,"location_history":"[2,1,0]","action_history":"[1,0]","door_history":"[0,1]","location_rts":"[381,435]","trial_type":"two-door-navigation","trial_index":36,"time_elapsed":704776,"internal_node_id":"0.0-2.0-34.0"},{"group":"hexagon_bi","room_assignment":["green","red","yellow","blue","grey","purple"],"door_color_assignment":["white","black"],"door_generator_assignment":[1,0],"goal":5,"start":0,"action_noise":0.15,"location_history":"[0,1,2,3,4,5]","action_history":"[1,0,1,0,1]","door_history":"[0,1,0,1,0]","location_rts":"[1084,322,385,347,356]","trial_type":"two-door-navigation","trial_index":37,"time_elapsed":715881,"internal_node_id":"0.0-2.0-35.0"},{"group":"hexagon_bi","room_assignment":["green","red","yellow","blue","grey","purple"],"door_color_assignment":["white","black"],"door_generator_assignment":[1,0],"goal":1,"start":5,"action_noise":0.15,"location_history":"[5,4,3,2,1]","action_history":"[1,0,1,0]","door_history":"[0,1,0,1]","location_rts":"[965,1540,574,706]","trial_type":"two-door-navigation","trial_index":38,"time_elapsed":727287,"internal_node_id":"0.0-2.0-36.0"},{"group":"hexagon_bi","room_assignment":["green","red","yellow","blue","grey","purple"],"door_color_assignment":["white","black"],"door_generator_assignment":[1,0],"goal":4,"start":1,"action_noise":0.15,"location_history":"[1,0,5,4]","action_history":"[1,0,1]","door_history":"[0,1,0]","location_rts":"[3273,433,547]","trial_type":"two-door-navigation","trial_index":39,"time_elapsed":738122,"internal_node_id":"0.0-2.0-37.0"},{"group":"hexagon_bi","room_assignment":["green","red","yellow","blue","grey","purple"],"door_color_assignment":["white","black"],"door_generator_assignment":[1,0],"goal":3,"start":4,"action_noise":0.15,"location_history":"[4,5,0,1,2,3]","action_history":"[1,0,1,0,1]","door_history":"[0,1,0,1,0]","location_rts":"[966,449,363,322,323]","trial_type":"two-door-navigation","trial_index":40,"time_elapsed":749275,"internal_node_id":"0.0-2.0-38.0"},{"group":"hexagon_bi","room_assignment":["green","red","yellow","blue","grey","purple"],"door_color_assignment":["white","black"],"door_generator_assignment":[1,0],"goal":5,"start":3,"action_noise":0.15,"location_history":"[3,2,1,2,1,0,5]","action_history":"[1,0,1,0,1,0]","door_history":"[0,1,0,1,0,1]","location_rts":"[603,274,337,387,307,268]","trial_type":"two-door-navigation","trial_index":41,"time_elapsed":761093,"internal_node_id":"0.0-2.0-39.0"},{"group":"hexagon_bi","room_assignment":["green","red","yellow","blue","grey","purple"],"door_color_assignment":["white","black"],"door_generator_assignment":[1,0],"goal":1,"start":5,"action_noise":0.15,"location_history":"[5,4,3,2,1]","action_history":"[1,0,1,0]","door_history":"[0,1,0,1]","location_rts":"[1098,267,316,499]","trial_type":"two-door-navigation","trial_index":42,"time_elapsed":770868,"internal_node_id":"0.0-2.0-40.0"},{"group":"hexagon_bi","room_assignment":["green","red","yellow","blue","grey","purple"],"door_color_assignment":["white","black"],"door_generator_assignment":[1,0],"goal":2,"start":1,"action_noise":0.15,"location_history":"[1,0,5,4,3,2]","action_history":"[1,0,1,0,1]","door_history":"[0,1,0,1,0]","location_rts":"[480,356,308,371,91]","trial_type":"two-door-navigation","trial_index":43,"time_elapsed":781081,"internal_node_id":"0.0-2.0-41.0"},{"group":"hexagon_bi","room_assignment":["green","red","yellow","blue","grey","purple"],"door_color_assignment":["white","black"],"door_generator_assignment":[1,0],"goal":4,"start":2,"action_noise":0.15,"location_history":"[2,1,2,3,4]","action_history":"[1,0,1,0]","door_history":"[0,1,0,1]","location_rts":"[610,219,201,873]","trial_type":"two-door-navigation","trial_index":44,"time_elapsed":790586,"internal_node_id":"0.0-2.0-42.0"},{"group":"hexagon_bi","room_assignment":["green","red","yellow","blue","grey","purple"],"door_color_assignment":["white","black"],"door_generator_assignment":[1,0],"goal":0,"start":4,"action_noise":0.15,"location_history":"[4,5,0]","action_history":"[1,0]","door_history":"[0,1]","location_rts":"[1328,292]","trial_type":"two-door-navigation","trial_index":45,"time_elapsed":797760,"internal_node_id":"0.0-2.0-43.0"},{"group":"hexagon_bi","room_assignment":["green","red","yellow","blue","grey","purple"],"door_color_assignment":["white","black"],"door_generator_assignment":[1,0],"goal":3,"start":0,"action_noise":0.15,"location_history":"[0,5,4,5,0,1,2,3]","action_history":"[1,0,1,0,1,0,1]","door_history":"[0,1,0,1,0,1,0]","location_rts":"[922,435,259,147,372,308,322]","trial_type":"two-door-navigation","trial_index":46,"time_elapsed":811174,"internal_node_id":"0.0-2.0-44.0"},{"group":"hexagon_bi","room_assignment":["green","red","yellow","blue","grey","purple"],"door_color_assignment":["white","black"],"door_generator_assignment":[1,0],"goal":0,"start":3,"action_noise":0.15,"location_history":"[3,2,1,0]","action_history":"[1,0,1]","door_history":"[0,1,0]","location_rts":"[634,310,580]","trial_type":"two-door-navigation","trial_index":47,"time_elapsed":819260,"internal_node_id":"0.0-2.0-45.0"},{"group":"hexagon_bi","room_assignment":["green","red","yellow","blue","grey","purple"],"door_color_assignment":["white","black"],"door_generator_assignment":[1,0],"goal":4,"start":0,"action_noise":0.15,"location_history":"[0,5,4]","action_history":"[1,1]","door_history":"[0,0]","location_rts":"[1243,3919]","trial_type":"two-door-navigation","trial_index":48,"time_elapsed":829974,"internal_node_id":"0.0-2.0-46.0"},{"group":"hexagon_bi","room_assignment":["green","red","yellow","blue","grey","purple"],"door_color_assignment":["white","black"],"door_generator_assignment":[1,0],"goal":5,"start":4,"action_noise":0.15,"location_history":"[4,3,4,5]","action_history":"[0,0,1]","door_history":"[1,1,0]","location_rts":"[947,253,260]","trial_type":"two-door-navigation","trial_index":49,"time_elapsed":837998,"internal_node_id":"0.0-2.0-47.0"},{"group":"hexagon_bi","room_assignment":["green","red","yellow","blue","grey","purple"],"door_color_assignment":["white","black"],"door_generator_assignment":[1,0],"goal":2,"start":5,"action_noise":0.15,"location_history":"[5,0,1,0,5,4,5,4,3,2]","action_history":"[0,1,1,0,1,0,1,0,1]","door_history":"[1,0,0,1,0,1,0,1,0]","location_rts":"[651,116,267,204,290,140,267,283,245]","trial_type":"two-door-navigation","trial_index":50,"time_elapsed":853151,"internal_node_id":"0.0-2.0-48.0"},{"group":"hexagon_bi","room_assignment":["green","red","yellow","blue","grey","purple"],"door_color_assignment":["white","black"],"door_generator_assignment":[1,0],"goal":1,"start":2,"action_noise":0.15,"location_history":"[2,1]","action_history":"[0]","door_history":"[1]","location_rts":"[462]","trial_type":"two-door-navigation","trial_index":51,"time_elapsed":858137,"internal_node_id":"0.0-2.0-49.0"},{"view_history":"[{\"page_index\":0,\"viewing_time\":4156}]","rt":4156,"trial_type":"instructions","trial_index":52,"time_elapsed":863294,"internal_node_id":"0.0-3.0"},{"view_history":"[{\"page_index\":0,\"viewing_time\":2997},{\"page_index\":1,\"viewing_time\":3161}]","rt":6158,"trial_type":"instructions","trial_index":53,"time_elapsed":870453,"internal_node_id":"0.0-4.0"},{"group":"hexagon_tri","fractal_assignment":["../images/pnk_blu.png","../images/gry_blk.png","../images/org_blu.png","../images/ylw_slt.png","../images/cyn_red.png","../images/blu_wht.png"],"mutagen_generator_assignment":[1,0],"goal":2,"start":1,"action_noise":0.15,"location_history":"[1,5,0,5,4,2]","action_history":"[1,1,0,0,1]","mutagen_history":"[0,0,1,1,0]","location_rts":"[3248,524,287,85,18]","trial_type":"fractal-mutation","trial_index":54,"time_elapsed":883313,"internal_node_id":"0.0-5.0-0.0"},{"group":"hexagon_tri","fractal_assignment":["../images/pnk_blu.png","../images/gry_blk.png","../images/org_blu.png","../images/ylw_slt.png","../images/cyn_red.png","../images/blu_wht.png"],"mutagen_generator_assignment":[1,0],"goal":0,"start":2,"action_noise":0.15,"location_history":"[2,3,2,1,5,0]","action_history":"[1,0,0,1,1]","mutagen_history":"[0,1,1,0,0]","location_rts":"[323,70,179,640,184]","trial_type":"fractal-mutation","trial_index":55,"time_elapsed":893386,"internal_node_id":"0.0-5.0-1.0"},{"group":"hexagon_tri","fractal_assignment":["../images/pnk_blu.png","../images/gry_blk.png","../images/org_blu.png","../images/ylw_slt.png","../images/cyn_red.png","../images/blu_wht.png"],"mutagen_generator_assignment":[1,0],"goal":5,"start":0,"action_noise":0.15,"location_history":"[0,1,5]","action_history":"[1,1]","mutagen_history":"[0,0]","location_rts":"[491,290]","trial_type":"fractal-mutation","trial_index":56,"time_elapsed":899714,"internal_node_id":"0.0-5.0-2.0"},{"group":"hexagon_tri","fractal_assignment":["../images/pnk_blu.png","../images/gry_blk.png","../images/org_blu.png","../images/ylw_slt.png","../images/cyn_red.png","../images/blu_wht.png"],"mutagen_generator_assignment":[1,0],"goal":1,"start":5,"action_noise":0.15,"location_history":"[5,0,5,4,2,3,4,2,1]","action_history":"[1,0,0,1,0,1,1,0]","mutagen_history":"[0,1,1,0,1,0,0,1]","location_rts":"[402,277,73,2339,353,208,376,224]","trial_type":"fractal-mutation","trial_index":57,"time_elapsed":915713,"internal_node_id":"0.0-5.0-3.0"},{"group":"hexagon_tri","fractal_assignment":["../images/pnk_blu.png","../images/gry_blk.png","../images/org_blu.png","../images/ylw_slt.png","../images/cyn_red.png","../images/blu_wht.png"],"mutagen_generator_assignment":[1,0],"goal":3,"start":1,"action_noise":0.15,"location_history":"[1,3]","action_history":"[0]","mutagen_history":"[1]","location_rts":"[472]","trial_type":"fractal-mutation","trial_index":58,"time_elapsed":920712,"internal_node_id":"0.0-5.0-4.0"},{"group":"hexagon_tri","fractal_assignment":["../images/pnk_blu.png","../images/gry_blk.png","../images/org_blu.png","../images/ylw_slt.png","../images/cyn_red.png","../images/blu_wht.png"],"mutagen_generator_assignment":[1,0],"goal":5,"start":3,"action_noise":0.15,"location_history":"[3,4,0,5]","action_history":"[1,0,0]","mutagen_history":"[0,1,1]","location_rts":"[80,290,1180]","trial_type":"fractal-mutation","trial_index":59,"time_elapsed":928850,"internal_node_id":"0.0-5.0-5.0"},{"group":"hexagon_tri","fractal_assignment":["../images/pnk_blu.png","../images/gry_blk.png","../images/org_blu.png","../images/ylw_slt.png","../images/cyn_red.png","../images/blu_wht.png"],"mutagen_generator_assignment":[1,0],"goal":4,"start":5,"action_noise":0.15,"location_history":"[5,0,5,4]","action_history":"[1,0,0]","mutagen_history":"[0,1,1]","location_rts":"[1551,501,288]","trial_type":"fractal-mutation","trial_index":60,"time_elapsed":937780,"internal_node_id":"0.0-5.0-6.0"},{"group":"hexagon_tri","fractal_assignment":["../images/pnk_blu.png","../images/gry_blk.png","../images/org_blu.png","../images/ylw_slt.png","../images/cyn_red.png","../images/blu_wht.png"],"mutagen_generator_assignment":[1,0],"goal":0,"start":4,"action_noise":0.15,"location_history":"[4,0]","action_history":"[1]","mutagen_history":"[0]","location_rts":"[308]","trial_type":"fractal-mutation","trial_index":61,"time_elapsed":942633,"internal_node_id":"0.0-5.0-7.0"},{"group":"hexagon_tri","fractal_assignment":["../images/pnk_blu.png","../images/gry_blk.png","../images/org_blu.png","../images/ylw_slt.png","../images/cyn_red.png","../images/blu_wht.png"],"mutagen_generator_assignment":[1,0],"goal":2,"start":0,"action_noise":0.15,"location_history":"[0,1,3,2]","action_history":"[1,0,0]","mutagen_history":"[0,1,1]","location_rts":"[439,330,31]","trial_type":"fractal-mutation","trial_index":62,"time_elapsed":950020,"internal_node_id":"0.0-5.0-8.0"},{"group":"hexagon_tri","fractal_assignment":["../images/pnk_blu.png","../images/gry_blk.png","../images/org_blu.png","../images/ylw_slt.png","../images/cyn_red.png","../images/blu_wht.png"],"mutagen_generator_assignment":[1,0],"goal":4,"start":2,"action_noise":0.15,"location_history":"[2,3,4]","action_history":"[1,1]","mutagen_history":"[0,0]","location_rts":"[660,1022]","trial_type":"fractal-mutation","trial_index":63,"time_elapsed":957293,"internal_node_id":"0.0-5.0-9.0"},{"group":"hexagon_tri","fractal_assignment":["../images/pnk_blu.png","../images/gry_blk.png","../images/org_blu.png","../images/ylw_slt.png","../images/cyn_red.png","../images/blu_wht.png"],"mutagen_generator_assignment":[1,0],"goal":2,"start":4,"action_noise":0.15,"location_history":"[4,0,5,4,0,5,0,5,4,0,1,3,2]","action_history":"[0,0,0,0,0,1,0,0,0,1,0,0]","mutagen_history":"[1,1,1,1,1,0,1,1,1,0,1,1]","location_rts":"[553,536,440,533,405,421,298,231,401,329,640,461]","trial_type":"fractal-mutation","trial_index":64,"time_elapsed":978503,"internal_node_id":"0.0-5.0-10.0"},{"group":"hexagon_tri","fractal_assignment":["../images/pnk_blu.png","../images/gry_blk.png","../images/org_blu.png","../images/ylw_slt.png","../images/cyn_red.png","../images/blu_wht.png"],"mutagen_generator_assignment":[1,0],"goal":3,"start":2,"action_noise":0.15,"location_history":"[2,1,5,4,0,5,4,2,1,3]","action_history":"[1,1,0,0,0,0,1,0,0]","mutagen_history":"[0,0,1,1,1,1,0,1,1]","location_rts":"[8772,838,353,390,401,547,307,307,371]","trial_type":"fractal-mutation","trial_index":65,"time_elapsed":1003551,"internal_node_id":"0.0-5.0-11.0"},{"group":"hexagon_tri","fractal_assignment":["../images/pnk_blu.png","../images/gry_blk.png","../images/org_blu.png","../images/ylw_slt.png","../images/cyn_red.png","../images/blu_wht.png"],"mutagen_generator_assignment":[1,0],"goal":0,"start":3,"action_noise":0.15,"location_history":"[3,4,2,1,5,4,2,1,3,2,3,4,0]","action_history":"[1,1,0,1,0,1,1,1,0,1,1,0]","mutagen_history":"[0,0,1,0,1,0,0,0,1,0,0,1]","location_rts":"[55525,704,2177,401,533,462,323,386,410,306,410,543]","trial_type":"fractal-mutation","trial_index":66,"time_elapsed":1081544,"internal_node_id":"0.0-5.0-12.0"},{"group":"hexagon_tri","fractal_assignment":["../images/pnk_blu.png","../images/gry_blk.png","../images/org_blu.png","../images/ylw_slt.png","../images/cyn_red.png","../images/blu_wht.png"],"mutagen_generator_assignment":[1,0],"goal":5,"start":0,"action_noise":0.15,"location_history":"[0,5]","action_history":"[0]","mutagen_history":"[1]","location_rts":"[3609]","trial_type":"fractal-mutation","trial_index":67,"time_elapsed":1089710,"internal_node_id":"0.0-5.0-13.0"},{"group":"hexagon_tri","fractal_assignment":["../images/pnk_blu.png","../images/gry_blk.png","../images/org_blu.png","../images/ylw_slt.png","../images/cyn_red.png","../images/blu_wht.png"],"mutagen_generator_assignment":[1,0],"goal":1,"start":5,"action_noise":0.15,"location_history":"[5,4,2,3,2,3,2,3,2,3,4,2,3,2,3,2,1]","action_history":"[0,1,1,0,1,1,1,0,1,1,1,1,0,1,0,0]","mutagen_history":"[1,0,0,1,0,0,0,1,0,0,0,0,1,0,1,1]","location_rts":"[17665,666,368,459,780,417,370,403,1103,368,249,505,406,318,410,196]","trial_type":"fractal-mutation","trial_index":68,"time_elapsed":1134320,"internal_node_id":"0.0-5.0-14.0"},{"group":"hexagon_tri","fractal_assignment":["../images/pnk_blu.png","../images/gry_blk.png","../images/org_blu.png","../images/ylw_slt.png","../images/cyn_red.png","../images/blu_wht.png"],"mutagen_generator_assignment":[1,0],"goal":5,"start":1,"action_noise":0.15,"location_history":"[1,5]","action_history":"[1]","mutagen_history":"[0]","location_rts":"[1261]","trial_type":"fractal-mutation","trial_index":69,"time_elapsed":1140112,"internal_node_id":"0.0-5.0-15.0"},{"group":"hexagon_tri","fractal_assignment":["../images/pnk_blu.png","../images/gry_blk.png","../images/org_blu.png","../images/ylw_slt.png","../images/cyn_red.png","../images/blu_wht.png"],"mutagen_generator_assignment":[1,0],"goal":3,"start":5,"action_noise":0.15,"location_history":"[5,0,5,4,0,5,0,5,0,5,0,5,4,2,1,3]","action_history":"[1,0,0,0,0,0,0,1,0,1,0,0,1,0,0]","mutagen_history":"[0,1,1,1,1,1,1,0,1,0,1,1,0,1,1]","location_rts":"[559,279,235,189,233,271,244,518,252,495,274,428,260,431,664]","trial_type":"fractal-mutation","trial_index":70,"time_elapsed":1164399,"internal_node_id":"0.0-5.0-16.0"},{"group":"hexagon_tri","fractal_assignment":["../images/pnk_blu.png","../images/gry_blk.png","../images/org_blu.png","../images/ylw_slt.png","../images/cyn_red.png","../images/blu_wht.png"],"mutagen_generator_assignment":[1,0],"goal":2,"start":3,"action_noise":0.15,"location_history":"[3,2]","action_history":"[0]","mutagen_history":"[1]","location_rts":"[1900]","trial_type":"fractal-mutation","trial_index":71,"time_elapsed":1170831,"internal_node_id":"0.0-5.0-17.0"},{"group":"hexagon_tri","fractal_assignment":["../images/pnk_blu.png","../images/gry_blk.png","../images/org_blu.png","../images/ylw_slt.png","../images/cyn_red.png","../images/blu_wht.png"],"mutagen_generator_assignment":[1,0],"goal":1,"start":2,"action_noise":0.15,"location_history":"[2,1]","action_history":"[0]","mutagen_history":"[1]","location_rts":"[3009]","trial_type":"fractal-mutation","trial_index":72,"time_elapsed":1178370,"internal_node_id":"0.0-5.0-18.0"},{"group":"hexagon_tri","fractal_assignment":["../images/pnk_blu.png","../images/gry_blk.png","../images/org_blu.png","../images/ylw_slt.png","../images/cyn_red.png","../images/blu_wht.png"],"mutagen_generator_assignment":[1,0],"goal":4,"start":1,"action_noise":0.15,"location_history":"[1,5,0,1,5,0,1,5,4]","action_history":"[1,0,1,1,1,1,1,0]","mutagen_history":"[0,1,0,0,0,0,0,1]","location_rts":"[3925,1953,372,73,217,283,768,234]","trial_type":"fractal-mutation","trial_index":73,"time_elapsed":1197899,"internal_node_id":"0.0-5.0-19.0"},{"group":"hexagon_tri","fractal_assignment":["../images/pnk_blu.png","../images/gry_blk.png","../images/org_blu.png","../images/ylw_slt.png","../images/cyn_red.png","../images/blu_wht.png"],"mutagen_generator_assignment":[1,0],"goal":0,"start":4,"action_noise":0.15,"location_history":"[4,0]","action_history":"[0]","mutagen_history":"[1]","location_rts":"[19904]","trial_type":"fractal-mutation","trial_index":74,"time_elapsed":1225425,"internal_node_id":"0.0-5.0-20.0"},{"group":"hexagon_tri","fractal_assignment":["../images/pnk_blu.png","../images/gry_blk.png","../images/org_blu.png","../images/ylw_slt.png","../images/cyn_red.png","../images/blu_wht.png"],"mutagen_generator_assignment":[1,0],"goal":3,"start":0,"action_noise":0.15,"location_history":"[0,5,0,5,4,0,5,4,2,1,5,4,0,5,0,5,0,1,3]","action_history":"[0,1,0,1,0,0,0,1,0,0,0,0,0,1,0,1,1,0]","mutagen_history":"[1,0,1,0,1,1,1,0,1,1,1,1,1,0,1,0,0,1]","location_rts":"[19641,7374,2959,994,576,2512,9716,1202,577,358,431,406,589,237,232,157,318,112]","trial_type":"fractal-mutation","trial_index":75,"time_elapsed":1296074,"internal_node_id":"0.0-5.0-21.0"},{"group":"hexagon_tri","fractal_assignment":["../images/pnk_blu.png","../images/gry_blk.png","../images/org_blu.png","../images/ylw_slt.png","../images/cyn_red.png","../images/blu_wht.png"],"mutagen_generator_assignment":[1,0],"goal":1,"start":3,"action_noise":0.15,"location_history":"[3,2,1]","action_history":"[0,0]","mutagen_history":"[1,1]","location_rts":"[507,372]","trial_type":"fractal-mutation","trial_index":76,"time_elapsed":1302513,"internal_node_id":"0.0-5.0-22.0"},{"group":"hexagon_tri","fractal_assignment":["../images/pnk_blu.png","../images/gry_blk.png","../images/org_blu.png","../images/ylw_slt.png","../images/cyn_red.png","../images/blu_wht.png"],"mutagen_generator_assignment":[1,0],"goal":0,"start":1,"action_noise":0.15,"location_history":"[1,5,4,0]","action_history":"[1,0,1]","mutagen_history":"[0,1,0]","location_rts":"[1021,1426,2104]","trial_type":"fractal-mutation","trial_index":77,"time_elapsed":1314380,"internal_node_id":"0.0-5.0-23.0"},{"group":"hexagon_tri","fractal_assignment":["../images/pnk_blu.png","../images/gry_blk.png","../images/org_blu.png","../images/ylw_slt.png","../images/cyn_red.png","../images/blu_wht.png"],"mutagen_generator_assignment":[1,0],"goal":2,"start":0,"action_noise":0.15,"location_history":"[0,5,4,2]","action_history":"[0,1,1]","mutagen_history":"[1,0,0]","location_rts":"[401,183,280]","trial_type":"fractal-mutation","trial_index":78,"time_elapsed":1321852,"internal_node_id":"0.0-5.0-24.0"},{"group":"hexagon_tri","fractal_assignment":["../images/pnk_blu.png","../images/gry_blk.png","../images/org_blu.png","../images/ylw_slt.png","../images/cyn_red.png","../images/blu_wht.png"],"mutagen_generator_assignment":[1,0],"goal":4,"start":2,"action_noise":0.15,"location_history":"[2,3,4]","action_history":"[0,1]","mutagen_history":"[1,0]","location_rts":"[672,411]","trial_type":"fractal-mutation","trial_index":79,"time_elapsed":1328496,"internal_node_id":"0.0-5.0-25.0"},{"group":"hexagon_tri","fractal_assignment":["../images/pnk_blu.png","../images/gry_blk.png","../images/org_blu.png","../images/ylw_slt.png","../images/cyn_red.png","../images/blu_wht.png"],"mutagen_generator_assignment":[1,0],"goal":5,"start":4,"action_noise":0.15,"location_history":"[4,0,5]","action_history":"[0,0]","mutagen_history":"[1,1]","location_rts":"[472,165]","trial_type":"fractal-mutation","trial_index":80,"time_elapsed":1334691,"internal_node_id":"0.0-5.0-26.0"},{"group":"hexagon_tri","fractal_assignment":["../images/pnk_blu.png","../images/gry_blk.png","../images/org_blu.png","../images/ylw_slt.png","../images/cyn_red.png","../images/blu_wht.png"],"mutagen_generator_assignment":[1,0],"goal":2,"start":5,"action_noise":0.15,"location_history":"[5,4,2]","action_history":"[0,1]","mutagen_history":"[1,0]","location_rts":"[6468,1078]","trial_type":"fractal-mutation","trial_index":81,"time_elapsed":1347797,"internal_node_id":"0.0-5.0-27.0"},{"group":"hexagon_tri","fractal_assignment":["../images/pnk_blu.png","../images/gry_blk.png","../images/org_blu.png","../images/ylw_slt.png","../images/cyn_red.png","../images/blu_wht.png"],"mutagen_generator_assignment":[1,0],"goal":3,"start":2,"action_noise":0.15,"location_history":"[2,3]","action_history":"[1]","mutagen_history":"[0]","location_rts":"[771]","trial_type":"fractal-mutation","trial_index":82,"time_elapsed":1353096,"internal_node_id":"0.0-5.0-28.0"},{"group":"hexagon_tri","fractal_assignment":["../images/pnk_blu.png","../images/gry_blk.png","../images/org_blu.png","../images/ylw_slt.png","../images/cyn_red.png","../images/blu_wht.png"],"mutagen_generator_assignment":[1,0],"goal":1,"start":3,"action_noise":0.15,"location_history":"[3,2,3,2,3,2,1]","action_history":"[0,0,0,1,0,0]","mutagen_history":"[1,1,1,0,1,1]","location_rts":"[1008,434,434,399,400,458]","trial_type":"fractal-mutation","trial_index":83,"time_elapsed":1365926,"internal_node_id":"0.0-5.0-29.0"},{"group":"hexagon_tri","fractal_assignment":["../images/pnk_blu.png","../images/gry_blk.png","../images/org_blu.png","../images/ylw_slt.png","../images/cyn_red.png","../images/blu_wht.png"],"mutagen_generator_assignment":[1,0],"goal":4,"start":1,"action_noise":0.15,"location_history":"[1,5,0,5,0,1,5,0,5,4]","action_history":"[1,0,0,1,1,0,1,1,0]","mutagen_history":"[0,1,1,0,0,1,0,0,1]","location_rts":"[745,296,321,290,260,381,399,288,87]","trial_type":"fractal-mutation","trial_index":84,"time_elapsed":1381763,"internal_node_id":"0.0-5.0-30.0"},{"group":"hexagon_tri","fractal_assignment":["../images/pnk_blu.png","../images/gry_blk.png","../images/org_blu.png","../images/ylw_slt.png","../images/cyn_red.png","../images/blu_wht.png"],"mutagen_generator_assignment":[1,0],"goal":5,"start":4,"action_noise":0.15,"location_history":"[4,2,1,5]","action_history":"[1,0,1]","mutagen_history":"[0,1,0]","location_rts":"[5105,2106,241]","trial_type":"fractal-mutation","trial_index":85,"time_elapsed":1395801,"internal_node_id":"0.0-5.0-31.0"},{"group":"hexagon_tri","fractal_assignment":["../images/pnk_blu.png","../images/gry_blk.png","../images/org_blu.png","../images/ylw_slt.png","../images/cyn_red.png","../images/blu_wht.png"],"mutagen_generator_assignment":[1,0],"goal":0,"start":5,"action_noise":0.15,"location_history":"[5,0]","action_history":"[1]","mutagen_history":"[0]","location_rts":"[15537]","trial_type":"fractal-mutation","trial_index":86,"time_elapsed":1415865,"internal_node_id":"0.0-5.0-32.0"},{"group":"hexagon_tri","fractal_assignment":["../images/pnk_blu.png","../images/gry_blk.png","../images/org_blu.png","../images/ylw_slt.png","../images/cyn_red.png","../images/blu_wht.png"],"mutagen_generator_assignment":[1,0],"goal":2,"start":0,"action_noise":0.15,"location_history":"[0,5,0,1,3,2]","action_history":"[0,1,1,0,0]","mutagen_history":"[1,0,0,1,1]","location_rts":"[1376,351,945,617,410]","trial_type":"fractal-mutation","trial_index":87,"time_elapsed":1428217,"internal_node_id":"0.0-5.0-33.0"},{"group":"hexagon_tri","fractal_assignment":["../images/pnk_blu.png","../images/gry_blk.png","../images/org_blu.png","../images/ylw_slt.png","../images/cyn_red.png","../images/blu_wht.png"],"mutagen_generator_assignment":[1,0],"goal":0,"start":2,"action_noise":0.15,"location_history":"[2,3,2,1,3,2,1,5,0]","action_history":"[1,0,0,1,1,0,0,1]","mutagen_history":"[0,1,1,0,0,1,1,0]","location_rts":"[392,302,212,259,313,121,282,448]","trial_type":"fractal-mutation","trial_index":88,"time_elapsed":1442272,"internal_node_id":"0.0-5.0-34.0"},{"group":"hexagon_tri","fractal_assignment":["../images/pnk_blu.png","../images/gry_blk.png","../images/org_blu.png","../images/ylw_slt.png","../images/cyn_red.png","../images/blu_wht.png"],"mutagen_generator_assignment":[1,0],"goal":5,"start":0,"action_noise":0.15,"location_history":"[0,5]","action_history":"[0]","mutagen_history":"[1]","location_rts":"[336]","trial_type":"fractal-mutation","trial_index":89,"time_elapsed":1447151,"internal_node_id":"0.0-5.0-35.0"},{"group":"hexagon_tri","fractal_assignment":["../images/pnk_blu.png","../images/gry_blk.png","../images/org_blu.png","../images/ylw_slt.png","../images/cyn_red.png","../images/blu_wht.png"],"mutagen_generator_assignment":[1,0],"goal":1,"start":5,"action_noise":0.15,"location_history":"[5,0,5,4,0,5,4,2,1]","action_history":"[1,0,0,1,0,0,1,1]","mutagen_history":"[0,1,1,0,1,1,0,0]","location_rts":"[294,231,1499,394,776,464,344,531]","trial_type":"fractal-mutation","trial_index":90,"time_elapsed":1463405,"internal_node_id":"0.0-5.0-36.0"},{"group":"hexagon_tri","fractal_assignment":["../images/pnk_blu.png","../images/gry_blk.png","../images/org_blu.png","../images/ylw_slt.png","../images/cyn_red.png","../images/blu_wht.png"],"mutagen_generator_assignment":[1,0],"goal":4,"start":1,"action_noise":0.15,"location_history":"[1,3,4]","action_history":"[0,1]","mutagen_history":"[1,0]","location_rts":"[1168,949]","trial_type":"fractal-mutation","trial_index":91,"time_elapsed":1471073,"internal_node_id":"0.0-5.0-37.0"},{"group":"hexagon_tri","fractal_assignment":["../images/pnk_blu.png","../images/gry_blk.png","../images/org_blu.png","../images/ylw_slt.png","../images/cyn_red.png","../images/blu_wht.png"],"mutagen_generator_assignment":[1,0],"goal":3,"start":4,"action_noise":0.15,"location_history":"[4,2,1,3]","action_history":"[1,0,0]","mutagen_history":"[0,1,1]","location_rts":"[6074,449,935]","trial_type":"fractal-mutation","trial_index":92,"time_elapsed":1485120,"internal_node_id":"0.0-5.0-38.0"},{"group":"hexagon_tri","fractal_assignment":["../images/pnk_blu.png","../images/gry_blk.png","../images/org_blu.png","../images/ylw_slt.png","../images/cyn_red.png","../images/blu_wht.png"],"mutagen_generator_assignment":[1,0],"goal":5,"start":3,"action_noise":0.15,"location_history":"[3,4,0,5]","action_history":"[1,0,0]","mutagen_history":"[0,1,1]","location_rts":"[452,243,387]","trial_type":"fractal-mutation","trial_index":93,"time_elapsed":1492781,"internal_node_id":"0.0-5.0-39.0"},{"group":"hexagon_tri","fractal_assignment":["../images/pnk_blu.png","../images/gry_blk.png","../images/org_blu.png","../images/ylw_slt.png","../images/cyn_red.png","../images/blu_wht.png"],"mutagen_generator_assignment":[1,0],"goal":1,"start":5,"action_noise":0.15,"location_history":"[5,4,2,3,2,3,4,0,1]","action_history":"[0,1,0,0,0,1,0,1]","mutagen_history":"[1,0,1,1,1,0,1,0]","location_rts":"[2477,1792,2723,634,497,415,579,434]","trial_type":"fractal-mutation","trial_index":94,"time_elapsed":1514094,"internal_node_id":"0.0-5.0-40.0"},{"group":"hexagon_tri","fractal_assignment":["../images/pnk_blu.png","../images/gry_blk.png","../images/org_blu.png","../images/ylw_slt.png","../images/cyn_red.png","../images/blu_wht.png"],"mutagen_generator_assignment":[1,0],"goal":2,"start":1,"action_noise":0.15,"location_history":"[1,5,4,0,1,3,2]","action_history":"[1,0,0,0,1,0]","mutagen_history":"[0,1,1,1,0,1]","location_rts":"[761,375,403,473,223,767]","trial_type":"fractal-mutation","trial_index":95,"time_elapsed":1526806,"internal_node_id":"0.0-5.0-41.0"},{"group":"hexagon_tri","fractal_assignment":["../images/pnk_blu.png","../images/gry_blk.png","../images/org_blu.png","../images/ylw_slt.png","../images/cyn_red.png","../images/blu_wht.png"],"mutagen_generator_assignment":[1,0],"goal":4,"start":2,"action_noise":0.15,"location_history":"[2,1,5,4]","action_history":"[0,1,1]","mutagen_history":"[1,0,0]","location_rts":"[3194,326,856]","trial_type":"fractal-mutation","trial_index":96,"time_elapsed":1537766,"internal_node_id":"0.0-5.0-42.0"},{"group":"hexagon_tri","fractal_assignment":["../images/pnk_blu.png","../images/gry_blk.png","../images/org_blu.png","../images/ylw_slt.png","../images/cyn_red.png","../images/blu_wht.png"],"mutagen_generator_assignment":[1,0],"goal":0,"start":4,"action_noise":0.15,"location_history":"[4,0]","action_history":"[0]","mutagen_history":"[1]","location_rts":"[856]","trial_type":"fractal-mutation","trial_index":97,"time_elapsed":1543163,"internal_node_id":"0.0-5.0-43.0"},{"group":"hexagon_tri","fractal_assignment":["../images/pnk_blu.png","../images/gry_blk.png","../images/org_blu.png","../images/ylw_slt.png","../images/cyn_red.png","../images/blu_wht.png"],"mutagen_generator_assignment":[1,0],"goal":3,"start":0,"action_noise":0.15,"location_history":"[0,5,4,0,1,5,4,0,5,4,2,3]","action_history":"[0,1,0,1,1,0,0,1,0,1,1]","mutagen_history":"[1,0,1,0,0,1,1,0,1,0,0]","location_rts":"[3380,616,435,756,426,328,474,142,223,314,274]","trial_type":"fractal-mutation","trial_index":98,"time_elapsed":1565344,"internal_node_id":"0.0-5.0-44.0"},{"group":"hexagon_tri","fractal_assignment":["../images/pnk_blu.png","../images/gry_blk.png","../images/org_blu.png","../images/ylw_slt.png","../images/cyn_red.png","../images/blu_wht.png"],"mutagen_generator_assignment":[1,0],"goal":0,"start":3,"action_noise":0.15,"location_history":"[3,2,3,4,0]","action_history":"[0,1,1,0]","mutagen_history":"[1,0,0,1]","location_rts":"[762,303,321,320]","trial_type":"fractal-mutation","trial_index":99,"time_elapsed":1574659,"internal_node_id":"0.0-5.0-45.0"},{"group":"hexagon_tri","fractal_assignment":["../images/pnk_blu.png","../images/gry_blk.png","../images/org_blu.png","../images/ylw_slt.png","../images/cyn_red.png","../images/blu_wht.png"],"mutagen_generator_assignment":[1,0],"goal":4,"start":0,"action_noise":0.15,"location_history":"[0,5,4]","action_history":"[1,0]","mutagen_history":"[0,1]","location_rts":"[407,497]","trial_type":"fractal-mutation","trial_index":100,"time_elapsed":1581114,"internal_node_id":"0.0-5.0-46.0"},{"group":"hexagon_tri","fractal_assignment":["../images/pnk_blu.png","../images/gry_blk.png","../images/org_blu.png","../images/ylw_slt.png","../images/cyn_red.png","../images/blu_wht.png"],"mutagen_generator_assignment":[1,0],"goal":5,"start":4,"action_noise":0.15,"location_history":"[4,2,1,3,4,0,5]","action_history":"[1,0,0,1,0,0]","mutagen_history":"[0,1,1,0,1,1]","location_rts":"[631,408,518,334,383,305]","trial_type":"fractal-mutation","trial_index":101,"time_elapsed":1593380,"internal_node_id":"0.0-5.0-47.0"},{"group":"hexagon_tri","fractal_assignment":["../images/pnk_blu.png","../images/gry_blk.png","../images/org_blu.png","../images/ylw_slt.png","../images/cyn_red.png","../images/blu_wht.png"],"mutagen_generator_assignment":[1,0],"goal":2,"start":5,"action_noise":0.15,"location_history":"[5,4,0,5,4,2]","action_history":"[0,1,0,0,1]","mutagen_history":"[1,0,1,1,0]","location_rts":"[748,167,304,277,334]","trial_type":"fractal-mutation","trial_index":102,"time_elapsed":1603860,"internal_node_id":"0.0-5.0-48.0"},{"group":"hexagon_tri","fractal_assignment":["../images/pnk_blu.png","../images/gry_blk.png","../images/org_blu.png","../images/ylw_slt.png","../images/cyn_red.png","../images/blu_wht.png"],"mutagen_generator_assignment":[1,0],"goal":1,"start":2,"action_noise":0.15,"location_history":"[2,1]","action_history":"[0]","mutagen_history":"[1]","location_rts":"[492]","trial_type":"fractal-mutation","trial_index":103,"time_elapsed":1608883,"internal_node_id":"0.0-5.0-49.0"},{"view_history":"[{\"page_index\":0,\"viewing_time\":6745}]","rt":6746,"trial_type":"instructions","trial_index":104,"time_elapsed":1616630,"internal_node_id":"0.0-6.0"},{"rt":10177,"responses":"{\"Q0\":\"Honestly, I have no idea.\"}","trial_type":"survey-text","trial_index":105,"time_elapsed":1627813,"internal_node_id":"0.0-7.0-0.0"},{"rt":13612,"responses":"{\"Q0\":\"That one was even more baffling to me than the first. I really have no clue.\"}","trial_type":"survey-text","trial_index":106,"time_elapsed":1642429,"internal_node_id":"0.0-7.0-1.0"},{"rt":10358,"responses":"{\"Q0\":\"<img src='../images/diagrams/hexagon_tri.png'>\"}","trial_type":"survey-multi-choice","trial_index":107,"time_elapsed":1653795,"internal_node_id":"0.0-7.0-2.0"},{"rt":13578,"assignments":["../images/pnk_blu.png","../images/gry_blk.png","../images/ylw_slt.png","../images/cyn_red.png","../images/blu_wht.png","../images/org_blu.png"],"trial_type":"drag-drop-on-image","trial_index":108,"time_elapsed":1668377,"internal_node_id":"0.0-7.0-3.0"},{"rt":3039,"responses":"{\"Q0\":\"2\"}","trial_type":"survey-likert","trial_index":109,"time_elapsed":1672421,"internal_node_id":"0.0-7.0-4.0"},{"rt":38558,"responses":"{\"Q0\":\"They shared a sort of similar pattern where one door or one ray would keep changing the same patterns back and forth, but the visual one differed a lot more.\"}","trial_type":"survey-text","trial_index":110,"time_elapsed":1711983,"internal_node_id":"0.0-7.0-5.0"},{"rt":3388,"responses":"{\"Q0\":\"No\"}","trial_type":"survey-multi-choice","trial_index":111,"time_elapsed":1716374,"internal_node_id":"0.0-7.0-6.0"},{"rt":6168,"responses":"{\"Q0\":\"Did not notice\"}","trial_type":"survey-multi-choice","trial_index":112,"time_elapsed":1723551,"internal_node_id":"0.0-7.0-7.0"},{"rt":5685,"responses":"{\"Q0\":\"\"}","trial_type":"survey-text","trial_index":113,"time_elapsed":1730238,"internal_node_id":"0.0-7.0-8.0"},{"rt":3653,"responses":"{\"Q0\":\"1\"}","trial_type":"survey-likert","trial_index":114,"time_elapsed":1734894,"internal_node_id":"0.0-7.0-9.0"},{"rt":9594,"responses":"{\"Q0\":\"Different structure\"}","trial_type":"survey-multi-choice","trial_index":115,"time_elapsed":1745492,"internal_node_id":"0.0-7.0-10.0"},{"rt":10362,"responses":"{\"Q0\":\"left (white) door = ray, right (black) door = acid\",\"Q1\":\"Slightly confident\"}","trial_type":"survey-multi-choice","trial_index":116,"time_elapsed":1756861,"internal_node_id":"0.0-7.0-11.0"},{"rt":5517,"responses":"{\"Q0\":\"25-35\",\"Q1\":\"Associates or other two-year degree\",\"Q2\":\"Male\",\"Q3\":\"Asian\"}","trial_type":"survey-multi-choice","trial_index":117,"time_elapsed":1763389,"internal_node_id":"0.0-8.0"},{"rt":3147,"responses":"{\"Q0\":\"This was great!\"}","trial_type":"survey-text","trial_index":118,"time_elapsed":1767539,"internal_node_id":"0.0-9.0"}]