[{"view_history":"[{\"page_index\":0,\"viewing_time\":3632},{\"page_index\":1,\"viewing_time\":12441}]","rt":16074,"trial_type":"instructions","trial_index":0,"time_elapsed":16074,"internal_node_id":"0.0-0.0"},{"view_history":"[{\"page_index\":0,\"viewing_time\":6318},{\"page_index\":1,\"viewing_time\":104720}]","rt":111038,"trial_type":"instructions","trial_index":1,"time_elapsed":128114,"internal_node_id":"0.0-1.0"},{"group":"hexagon_tri","room_assignment":["green","purple","yellow","blue","red","grey"],"door_color_assignment":["black","white"],"door_generator_assignment":[1,0],"goal":2,"start":1,"action_noise":0.15,"location_history":"[1,3,4,2]","action_history":"[0,1,1]","door_history":"[1,0,0]","location_rts":"[1565,1191,418]","trial_type":"two-door-navigation","trial_index":2,"time_elapsed":137988,"internal_node_id":"0.0-2.0-0.0"},{"group":"hexagon_tri","room_assignment":["green","purple","yellow","blue","red","grey"],"door_color_assignment":["black","white"],"door_generator_assignment":[1,0],"goal":0,"start":2,"action_noise":0.15,"location_history":"[2,1,5,0]","action_history":"[0,1,0]","door_history":"[1,0,1]","location_rts":"[2393,730,1224]","trial_type":"two-door-navigation","trial_index":3,"time_elapsed":149059,"internal_node_id":"0.0-2.0-1.0"},{"group":"hexagon_tri","room_assignment":["green","purple","yellow","blue","red","grey"],"door_color_assignment":["black","white"],"door_generator_assignment":[1,0],"goal":5,"start":0,"action_noise":0.15,"location_history":"[0,5]","action_history":"[0]","door_history":"[1]","location_rts":"[879]","trial_type":"two-door-navigation","trial_index":4,"time_elapsed":154503,"internal_node_id":"0.0-2.0-2.0"},{"group":"hexagon_tri","room_assignment":["green","purple","yellow","blue","red","grey"],"door_color_assignment":["black","white"],"door_generator_assignment":[1,0],"goal":1,"start":5,"action_noise":0.15,"location_history":"[5,4,2,3,4,0,5,4,0,5,0,5,0,1]","action_history":"[0,1,1,1,0,0,0,0,0,1,0,1,1]","door_history":"[1,0,0,0,1,1,1,1,1,0,1,0,0]","location_rts":"[1217,500,702,892,779,466,518,455,502,468,687,443,439]","trial_type":"two-door-navigation","trial_index":5,"time_elapsed":180001,"internal_node_id":"0.0-2.0-3.0"},{"group":"hexagon_tri","room_assignment":["green","purple","yellow","blue","red","grey"],"door_color_assignment":["black","white"],"door_generator_assignment":[1,0],"goal":3,"start":1,"action_noise":0.15,"location_history":"[1,3]","action_history":"[0]","door_history":"[1]","location_rts":"[910]","trial_type":"two-door-navigation","trial_index":6,"time_elapsed":185485,"internal_node_id":"0.0-2.0-4.0"},{"group":"hexagon_tri","room_assignment":["green","purple","yellow","blue","red","grey"],"door_color_assignment":["black","white"],"door_generator_assignment":[1,0],"goal":5,"start":3,"action_noise":0.15,"location_history":"[3,4,0,1,3,4,2,1,5]","action_history":"[1,0,1,0,1,0,0,1]","door_history":"[0,1,0,1,0,1,1,0]","location_rts":"[1093,442,424,449,484,669,428,812]","trial_type":"two-door-navigation","trial_index":7,"time_elapsed":202333,"internal_node_id":"0.0-2.0-5.0"},{"group":"hexagon_tri","room_assignment":["green","purple","yellow","blue","red","grey"],"door_color_assignment":["black","white"],"door_generator_assignment":[1,0],"goal":4,"start":5,"action_noise":0.15,"location_history":"[5,0,5,0,5,4]","action_history":"[0,0,0,0,0]","door_history":"[1,1,1,1,1]","location_rts":"[1537,580,445,434,477]","trial_type":"two-door-navigation","trial_index":8,"time_elapsed":214693,"internal_node_id":"0.0-2.0-6.0"},{"group":"hexagon_tri","room_assignment":["green","purple","yellow","blue","red","grey"],"door_color_assignment":["black","white"],"door_generator_assignment":[1,0],"goal":0,"start":4,"action_noise":0.15,"location_history":"[4,0]","action_history":"[0]","door_history":"[1]","location_rts":"[5378]","trial_type":"two-door-navigation","trial_index":9,"time_elapsed":224654,"internal_node_id":"0.0-2.0-7.0"},{"group":"hexagon_tri","room_assignment":["green","purple","yellow","blue","red","grey"],"door_color_assignment":["black","white"],"door_generator_assignment":[1,0],"goal":2,"start":0,"action_noise":0.15,"location_history":"[0,1,3,4,2]","action_history":"[1,0,1,1]","door_history":"[0,1,0,0]","location_rts":"[977,774,786,508]","trial_type":"two-door-navigation","trial_index":10,"time_elapsed":235485,"internal_node_id":"0.0-2.0-8.0"},{"group":"hexagon_tri","room_assignment":["green","purple","yellow","blue","red","grey"],"door_color_assignment":["black","white"],"door_generator_assignment":[1,0],"goal":4,"start":2,"action_noise":0.15,"location_history":"[2,1,5,0,5,0,5,4]","action_history":"[0,1,1,0,0,0,0]","door_history":"[1,0,0,1,1,1,1]","location_rts":"[5773,457,384,374,473,444,416]","trial_type":"two-door-navigation","trial_index":11,"time_elapsed":254811,"internal_node_id":"0.0-2.0-9.0"},{"group":"hexagon_tri","room_assignment":["green","purple","yellow","blue","red","grey"],"door_color_assignment":["black","white"],"door_generator_assignment":[1,0],"goal":2,"start":4,"action_noise":0.15,"location_history":"[4,0,5,0,5,4,0,1,5,4,0,1,5,4,2]","action_history":"[0,1,1,0,0,0,1,1,0,0,1,1,0,0]","door_history":"[1,0,0,1,1,1,0,0,1,1,0,0,1,1]","location_rts":"[1332,811,487,441,523,482,376,433,1290,1241,2700,435,154,464]","trial_type":"two-door-navigation","trial_index":12,"time_elapsed":284506,"internal_node_id":"0.0-2.0-10.0"},{"group":"hexagon_tri","room_assignment":["green","purple","yellow","blue","red","grey"],"door_color_assignment":["black","white"],"door_generator_assignment":[1,0],"goal":3,"start":2,"action_noise":0.15,"location_history":"[2,1,5,0,5,4,2,1,3]","action_history":"[0,1,1,0,0,0,0,0]","door_history":"[1,0,0,1,1,1,1,1]","location_rts":"[1954,799,541,411,439,414,433,438]","trial_type":"two-door-navigation","trial_index":13,"time_elapsed":302009,"internal_node_id":"0.0-2.0-11.0"},{"group":"hexagon_tri","room_assignment":["green","purple","yellow","blue","red","grey"],"door_color_assignment":["black","white"],"door_generator_assignment":[1,0],"goal":0,"start":3,"action_noise":0.15,"location_history":"[3,2,3,2,1,3,2,1,3,4,0]","action_history":"[1,0,0,0,0,0,0,0,1,0]","door_history":"[0,1,1,1,1,1,1,1,0,1]","location_rts":"[1649,438,948,522,452,420,838,502,795,748]","trial_type":"two-door-navigation","trial_index":14,"time_elapsed":323551,"internal_node_id":"0.0-2.0-12.0"},{"group":"hexagon_tri","room_assignment":["green","purple","yellow","blue","red","grey"],"door_color_assignment":["black","white"],"door_generator_assignment":[1,0],"goal":5,"start":0,"action_noise":0.15,"location_history":"[0,1,3,4,2,3,2,1,5]","action_history":"[1,0,1,0,0,0,0,1]","door_history":"[0,1,0,1,1,1,1,0]","location_rts":"[1465,674,807,464,622,563,1626,1059]","trial_type":"two-door-navigation","trial_index":15,"time_elapsed":342906,"internal_node_id":"0.0-2.0-13.0"},{"group":"hexagon_tri","room_assignment":["green","purple","yellow","blue","red","grey"],"door_color_assignment":["black","white"],"door_generator_assignment":[1,0],"goal":1,"start":5,"action_noise":0.15,"location_history":"[5,4,2,3,4,2,3,2,3,2,3,4,0,5,4,2,3,2,1]","action_history":"[0,1,1,0,1,1,0,1,0,1,1,0,0,0,1,1,0,0]","door_history":"[1,0,0,1,0,0,1,0,1,0,0,1,1,1,0,0,1,1]","location_rts":"[4681,1349,618,830,1018,865,391,937,891,1723,1649,399,401,679,772,409,392,417]","trial_type":"two-door-navigation","trial_index":16,"time_elapsed":384130,"internal_node_id":"0.0-2.0-14.0"},{"group":"hexagon_tri","room_assignment":["green","purple","yellow","blue","red","grey"],"door_color_assignment":["black","white"],"door_generator_assignment":[1,0],"goal":5,"start":1,"action_noise":0.15,"location_history":"[1,3,4,2,1,5]","action_history":"[0,1,1,0,1]","door_history":"[1,0,0,1,0]","location_rts":"[4893,563,431,679,1152]","trial_type":"two-door-navigation","trial_index":17,"time_elapsed":400689,"internal_node_id":"0.0-2.0-15.0"},{"group":"hexagon_tri","room_assignment":["green","purple","yellow","blue","red","grey"],"door_color_assignment":["black","white"],"door_generator_assignment":[1,0],"goal":3,"start":5,"action_noise":0.15,"location_history":"[5,4,2,3]","action_history":"[0,1,0]","door_history":"[1,0,1]","location_rts":"[2134,410,589]","trial_type":"two-door-navigation","trial_index":18,"time_elapsed":410533,"internal_node_id":"0.0-2.0-16.0"},{"group":"hexagon_tri","room_assignment":["green","purple","yellow","blue","red","grey"],"door_color_assignment":["black","white"],"door_generator_assignment":[1,0],"goal":2,"start":3,"action_noise":0.15,"location_history":"[3,4,2]","action_history":"[1,0]","door_history":"[0,1]","location_rts":"[1146,453]","trial_type":"two-door-navigation","trial_index":19,"time_elapsed":417793,"internal_node_id":"0.0-2.0-17.0"},{"group":"hexagon_tri","room_assignment":["green","purple","yellow","blue","red","grey"],"door_color_assignment":["black","white"],"door_generator_assignment":[1,0],"goal":1,"start":2,"action_noise":0.15,"location_history":"[2,1]","action_history":"[0]","door_history":"[1]","location_rts":"[1180]","trial_type":"two-door-navigation","trial_index":20,"time_elapsed":423527,"internal_node_id":"0.0-2.0-18.0"},{"group":"hexagon_tri","room_assignment":["green","purple","yellow","blue","red","grey"],"door_color_assignment":["black","white"],"door_generator_assignment":[1,0],"goal":4,"start":1,"action_noise":0.15,"location_history":"[1,5,4]","action_history":"[1,0]","door_history":"[0,1]","location_rts":"[560,421]","trial_type":"two-door-navigation","trial_index":21,"time_elapsed":430152,"internal_node_id":"0.0-2.0-19.0"},{"group":"hexagon_tri","room_assignment":["green","purple","yellow","blue","red","grey"],"door_color_assignment":["black","white"],"door_generator_assignment":[1,0],"goal":0,"start":4,"action_noise":0.15,"location_history":"[4,0]","action_history":"[1]","door_history":"[0]","location_rts":"[861]","trial_type":"two-door-navigation","trial_index":22,"time_elapsed":435594,"internal_node_id":"0.0-2.0-20.0"},{"group":"hexagon_tri","room_assignment":["green","purple","yellow","blue","red","grey"],"door_color_assignment":["black","white"],"door_generator_assignment":[1,0],"goal":3,"start":0,"action_noise":0.15,"location_history":"[0,5,0,5,0,5,0,1,5,4,0,1,5,4,0,5,0,5,4,0,5,4,0,5,4,0,1,5,0,1,5,0,1,3]","action_history":"[0,1,0,1,0,0,1,1,0,0,1,1,0,0,1,1,0,0,0,0,0,0,0,0,0,1,1,1,1,1,1,1,0]","door_history":"[1,0,1,0,1,1,0,0,1,1,0,0,1,1,0,0,1,1,1,1,1,1,1,1,1,0,0,0,0,0,0,0,1]","location_rts":"[1976,409,490,558,485,441,376,420,426,432,816,377,1223,431,1251,501,449,2974,416,667,418,473,568,598,485,721,550,405,427,500,418,454,717]","trial_type":"two-door-navigation","trial_index":23,"time_elapsed":496315,"internal_node_id":"0.0-2.0-21.0"},{"group":"hexagon_tri","room_assignment":["green","purple","yellow","blue","red","grey"],"door_color_assignment":["black","white"],"door_generator_assignment":[1,0],"goal":1,"start":3,"action_noise":0.15,"location_history":"[3,4,0,1]","action_history":"[1,0,1]","door_history":"[0,1,0]","location_rts":"[1066,507,446]","trial_type":"two-door-navigation","trial_index":24,"time_elapsed":505028,"internal_node_id":"0.0-2.0-22.0"},{"group":"hexagon_tri","room_assignment":["green","purple","yellow","blue","red","grey"],"door_color_assignment":["black","white"],"door_generator_assignment":[1,0],"goal":0,"start":1,"action_noise":0.15,"location_history":"[1,5,4,2,1,3,4,0]","action_history":"[1,0,1,0,1,1,0]","door_history":"[0,1,0,1,0,0,1]","location_rts":"[2499,326,503,537,622,406,603]","trial_type":"two-door-navigation","trial_index":25,"time_elapsed":521524,"internal_node_id":"0.0-2.0-23.0"},{"group":"hexagon_tri","room_assignment":["green","purple","yellow","blue","red","grey"],"door_color_assignment":["black","white"],"door_generator_assignment":[1,0],"goal":2,"start":0,"action_noise":0.15,"location_history":"[0,1,3,2]","action_history":"[1,0,0]","door_history":"[0,1,1]","location_rts":"[877,343,493]","trial_type":"two-door-navigation","trial_index":26,"time_elapsed":529968,"internal_node_id":"0.0-2.0-24.0"},{"group":"hexagon_tri","room_assignment":["green","purple","yellow","blue","red","grey"],"door_color_assignment":["black","white"],"door_generator_assignment":[1,0],"goal":4,"start":2,"action_noise":0.15,"location_history":"[2,3,2,1,5,0,1,5,0,1,5,0,5,4]","action_history":"[1,0,1,0,1,0,1,0,0,1,1,0,0]","door_history":"[0,1,0,1,0,1,0,1,1,0,0,1,1]","location_rts":"[1024,328,332,413,336,315,688,324,281,924,337,397,502]","trial_type":"two-door-navigation","trial_index":27,"time_elapsed":553533,"internal_node_id":"0.0-2.0-25.0"},{"group":"hexagon_tri","room_assignment":["green","purple","yellow","blue","red","grey"],"door_color_assignment":["black","white"],"door_generator_assignment":[1,0],"goal":5,"start":4,"action_noise":0.15,"location_history":"[4,2,3,4,0,1,3,4,2,1,5]","action_history":"[1,0,1,0,1,0,1,1,0,1]","door_history":"[0,1,0,1,0,1,0,0,1,0]","location_rts":"[2388,346,331,253,500,720,652,427,1220,347]","trial_type":"two-door-navigation","trial_index":28,"time_elapsed":574918,"internal_node_id":"0.0-2.0-26.0"},{"group":"hexagon_tri","room_assignment":["green","purple","yellow","blue","red","grey"],"door_color_assignment":["black","white"],"door_generator_assignment":[1,0],"goal":2,"start":5,"action_noise":0.15,"location_history":"[5,0,5,0,5,4,2]","action_history":"[1,0,1,1,0,0]","door_history":"[0,1,0,0,1,1]","location_rts":"[2140,490,504,556,212,767]","trial_type":"two-door-navigation","trial_index":29,"time_elapsed":589465,"internal_node_id":"0.0-2.0-27.0"},{"group":"hexagon_tri","room_assignment":["green","purple","yellow","blue","red","grey"],"door_color_assignment":["black","white"],"door_generator_assignment":[1,0],"goal":3,"start":2,"action_noise":0.15,"location_history":"[2,3]","action_history":"[1]","door_history":"[0]","location_rts":"[1060]","trial_type":"two-door-navigation","trial_index":30,"time_elapsed":595108,"internal_node_id":"0.0-2.0-28.0"},{"group":"hexagon_tri","room_assignment":["green","purple","yellow","blue","red","grey"],"door_color_assignment":["black","white"],"door_generator_assignment":[1,0],"goal":1,"start":3,"action_noise":0.15,"location_history":"[3,4,0,1]","action_history":"[1,0,1]","door_history":"[0,1,0]","location_rts":"[956,360,625]","trial_type":"two-door-navigation","trial_index":31,"time_elapsed":603753,"internal_node_id":"0.0-2.0-29.0"},{"group":"hexagon_tri","room_assignment":["green","purple","yellow","blue","red","grey"],"door_color_assignment":["black","white"],"door_generator_assignment":[1,0],"goal":4,"start":1,"action_noise":0.15,"location_history":"[1,3,4]","action_history":"[0,1]","door_history":"[1,0]","location_rts":"[812,378]","trial_type":"two-door-navigation","trial_index":32,"time_elapsed":610572,"internal_node_id":"0.0-2.0-30.0"},{"group":"hexagon_tri","room_assignment":["green","purple","yellow","blue","red","grey"],"door_color_assignment":["black","white"],"door_generator_assignment":[1,0],"goal":5,"start":4,"action_noise":0.15,"location_history":"[4,2,1,3,4,2,3,4,2,1,3,4,0,1,3,4,2,1,5]","action_history":"[0,1,0,1,1,0,1,1,0,1,1,0,1,0,1,1,0,1]","door_history":"[1,0,1,0,0,1,0,0,1,0,0,1,0,1,0,0,1,0]","location_rts":"[765,335,382,346,358,368,345,348,387,425,432,317,323,466,412,361,433,247]","trial_type":"two-door-navigation","trial_index":33,"time_elapsed":640306,"internal_node_id":"0.0-2.0-31.0"},{"group":"hexagon_tri","room_assignment":["green","purple","yellow","blue","red","grey"],"door_color_assignment":["black","white"],"door_generator_assignment":[1,0],"goal":0,"start":5,"action_noise":0.15,"location_history":"[5,4,2,3,2,1,5,4,2,1,3,4,0]","action_history":"[0,1,1,0,0,1,0,0,0,0,1,0]","door_history":"[1,0,0,1,1,0,1,1,1,1,0,1]","location_rts":"[10234,1187,463,311,579,324,537,369,479,389,318,361]","trial_type":"two-door-navigation","trial_index":34,"time_elapsed":672936,"internal_node_id":"0.0-2.0-32.0"},{"group":"hexagon_tri","room_assignment":["green","purple","yellow","blue","red","grey"],"door_color_assignment":["black","white"],"door_generator_assignment":[1,0],"goal":2,"start":0,"action_noise":0.15,"location_history":"[0,5,0,1,5,4,0,1,3,2]","action_history":"[0,1,0,1,0,0,1,0,0]","door_history":"[1,0,1,0,1,1,0,1,1]","location_rts":"[56207,324,352,337,378,515,433,508,648]","trial_type":"two-door-navigation","trial_index":35,"time_elapsed":745747,"internal_node_id":"0.0-2.0-33.0"},{"group":"hexagon_tri","room_assignment":["green","purple","yellow","blue","red","grey"],"door_color_assignment":["black","white"],"door_generator_assignment":[1,0],"goal":0,"start":2,"action_noise":0.15,"location_history":"[2,1,5,4,2,3,4,0]","action_history":"[0,1,0,1,0,1,0]","door_history":"[1,0,1,0,1,0,1]","location_rts":"[2409,4406,396,557,481,323,425]","trial_type":"two-door-navigation","trial_index":36,"time_elapsed":765695,"internal_node_id":"0.0-2.0-34.0"},{"group":"hexagon_tri","room_assignment":["green","purple","yellow","blue","red","grey"],"door_color_assignment":["black","white"],"door_generator_assignment":[1,0],"goal":5,"start":0,"action_noise":0.15,"location_history":"[0,5]","action_history":"[0]","door_history":"[1]","location_rts":"[785]","trial_type":"two-door-navigation","trial_index":37,"time_elapsed":771046,"internal_node_id":"0.0-2.0-35.0"},{"group":"hexagon_tri","room_assignment":["green","purple","yellow","blue","red","grey"],"door_color_assignment":["black","white"],"door_generator_assignment":[1,0],"goal":1,"start":5,"action_noise":0.15,"location_history":"[5,4,2,3,4,2,3,4,0,1]","action_history":"[0,1,0,1,1,1,1,0,1]","door_history":"[1,0,1,0,0,0,0,1,0]","location_rts":"[1262,362,309,632,407,388,623,78,161]","trial_type":"two-door-navigation","trial_index":38,"time_elapsed":788403,"internal_node_id":"0.0-2.0-36.0"},{"group":"hexagon_tri","room_assignment":["green","purple","yellow","blue","red","grey"],"door_color_assignment":["black","white"],"door_generator_assignment":[1,0],"goal":4,"start":1,"action_noise":0.15,"location_history":"[1,5,4]","action_history":"[1,0]","door_history":"[0,1]","location_rts":"[648,478]","trial_type":"two-door-navigation","trial_index":39,"time_elapsed":795156,"internal_node_id":"0.0-2.0-37.0"},{"group":"hexagon_tri","room_assignment":["green","purple","yellow","blue","red","grey"],"door_color_assignment":["black","white"],"door_generator_assignment":[1,0],"goal":3,"start":4,"action_noise":0.15,"location_history":"[4,0,5,4,0,5,0,5,4,2,3]","action_history":"[0,1,0,1,0,1,0,0,1,0]","door_history":"[1,0,1,0,1,0,1,1,0,1]","location_rts":"[5848,323,364,331,354,499,291,483,113,438]","trial_type":"two-door-navigation","trial_index":40,"time_elapsed":818365,"internal_node_id":"0.0-2.0-38.0"},{"group":"hexagon_tri","room_assignment":["green","purple","yellow","blue","red","grey"],"door_color_assignment":["black","white"],"door_generator_assignment":[1,0],"goal":5,"start":3,"action_noise":0.15,"location_history":"[3,2,3,2,3,2,3,2,1,5]","action_history":"[0,1,0,1,0,1,0,0,1]","door_history":"[1,0,1,0,1,0,1,1,0]","location_rts":"[898,301,309,835,333,318,180,292,387]","trial_type":"two-door-navigation","trial_index":41,"time_elapsed":835345,"internal_node_id":"0.0-2.0-39.0"},{"group":"hexagon_tri","room_assignment":["green","purple","yellow","blue","red","grey"],"door_color_assignment":["black","white"],"door_generator_assignment":[1,0],"goal":1,"start":5,"action_noise":0.15,"location_history":"[5,0,5,0,5,4,2,1]","action_history":"[1,0,1,0,0,1,0]","door_history":"[0,1,0,1,1,0,1]","location_rts":"[4831,641,1228,747,1077,816,650]","trial_type":"two-door-navigation","trial_index":42,"time_elapsed":856316,"internal_node_id":"0.0-2.0-40.0"},{"group":"hexagon_tri","room_assignment":["green","purple","yellow","blue","red","grey"],"door_color_assignment":["black","white"],"door_generator_assignment":[1,0],"goal":2,"start":1,"action_noise":0.15,"location_history":"[1,5,4,0,1,3,2]","action_history":"[1,0,0,1,1,0]","door_history":"[0,1,1,0,0,1]","location_rts":"[1054,324,457,67,370,352]","trial_type":"two-door-navigation","trial_index":43,"time_elapsed":868827,"internal_node_id":"0.0-2.0-41.0"},{"group":"hexagon_tri","room_assignment":["green","purple","yellow","blue","red","grey"],"door_color_assignment":["black","white"],"door_generator_assignment":[1,0],"goal":4,"start":2,"action_noise":0.15,"location_history":"[2,3,2,3,2,3,4]","action_history":"[1,0,1,0,0,1]","door_history":"[0,1,0,1,1,0]","location_rts":"[1452,457,1731,268,1133,324]","trial_type":"two-door-navigation","trial_index":44,"time_elapsed":884069,"internal_node_id":"0.0-2.0-42.0"},{"group":"hexagon_tri","room_assignment":["green","purple","yellow","blue","red","grey"],"door_color_assignment":["black","white"],"door_generator_assignment":[1,0],"goal":0,"start":4,"action_noise":0.15,"location_history":"[4,0]","action_history":"[0]","door_history":"[1]","location_rts":"[1195]","trial_type":"two-door-navigation","trial_index":45,"time_elapsed":889827,"internal_node_id":"0.0-2.0-43.0"},{"group":"hexagon_tri","room_assignment":["green","purple","yellow","blue","red","grey"],"door_color_assignment":["black","white"],"door_generator_assignment":[1,0],"goal":3,"start":0,"action_noise":0.15,"location_history":"[0,5,0,1,3]","action_history":"[0,1,1,0]","door_history":"[1,0,0,1]","location_rts":"[962,339,549,367]","trial_type":"two-door-navigation","trial_index":46,"time_elapsed":899817,"internal_node_id":"0.0-2.0-44.0"},{"group":"hexagon_tri","room_assignment":["green","purple","yellow","blue","red","grey"],"door_color_assignment":["black","white"],"door_generator_assignment":[1,0],"goal":0,"start":3,"action_noise":0.15,"location_history":"[3,2,3,2,1,3,4,0]","action_history":"[1,0,0,1,0,1,0]","door_history":"[0,1,1,0,1,0,1]","location_rts":"[945,333,388,297,344,388,342]","trial_type":"two-door-navigation","trial_index":47,"time_elapsed":913846,"internal_node_id":"0.0-2.0-45.0"},{"group":"hexagon_tri","room_assignment":["green","purple","yellow","blue","red","grey"],"door_color_assignment":["black","white"],"door_generator_assignment":[1,0],"goal":4,"start":0,"action_noise":0.15,"location_history":"[0,1,3,4]","action_history":"[1,0,1]","door_history":"[0,1,0]","location_rts":"[818,390,302]","trial_type":"two-door-navigation","trial_index":48,"time_elapsed":922040,"internal_node_id":"0.0-2.0-46.0"},{"group":"hexagon_tri","room_assignment":["green","purple","yellow","blue","red","grey"],"door_color_assignment":["black","white"],"door_generator_assignment":[1,0],"goal":5,"start":4,"action_noise":0.15,"location_history":"[4,0,1,3,4,0,5]","action_history":"[0,1,0,1,0,0]","door_history":"[1,0,1,0,1,1]","location_rts":"[784,221,552,1032,512,359]","trial_type":"two-door-navigation","trial_index":49,"time_elapsed":935437,"internal_node_id":"0.0-2.0-47.0"},{"group":"hexagon_tri","room_assignment":["green","purple","yellow","blue","red","grey"],"door_color_assignment":["black","white"],"door_generator_assignment":[1,0],"goal":2,"start":5,"action_noise":0.15,"location_history":"[5,0,5,0,5,0,5,0,1,5,0,5,0,5,0,1,3,4,0,1,3,2]","action_history":"[1,0,1,0,1,0,0,1,0,1,0,1,0,1,1,0,1,0,1,0,0]","door_history":"[0,1,0,1,0,1,1,0,1,0,1,0,1,0,0,1,0,1,0,1,1]","location_rts":"[1097,399,356,328,535,186,113,624,607,334,458,85,192,232,15,236,428,322,339,188,272]","trial_type":"two-door-navigation","trial_index":50,"time_elapsed":968682,"internal_node_id":"0.0-2.0-48.0"},{"group":"hexagon_tri","room_assignment":["green","purple","yellow","blue","red","grey"],"door_color_assignment":["black","white"],"door_generator_assignment":[1,0],"goal":1,"start":2,"action_noise":0.15,"location_history":"[2,1]","action_history":"[0]","door_history":"[1]","location_rts":"[765]","trial_type":"two-door-navigation","trial_index":51,"time_elapsed":974010,"internal_node_id":"0.0-2.0-49.0"},{"view_history":"[{\"page_index\":0,\"viewing_time\":23489}]","rt":23489,"trial_type":"instructions","trial_index":52,"time_elapsed":998503,"internal_node_id":"0.0-3.0"},{"view_history":"[{\"page_index\":0,\"viewing_time\":2141},{\"page_index\":1,\"viewing_time\":3470}]","rt":5611,"trial_type":"instructions","trial_index":53,"time_elapsed":1005118,"internal_node_id":"0.0-4.0"},{"group":"hexagon_tri","fractal_assignment":["../images/pnk_blu.png","../images/cyn_red.png","../images/blu_wht.png","../images/ylw_slt.png","../images/org_blu.png","../images/gry_blk.png"],"mutagen_generator_assignment":[0,1],"goal":2,"start":1,"action_noise":0.15,"location_history":"[1,5,0,1,5,0,1,3,4,2]","action_history":"[1,1,1,0,1,1,1,1,1]","mutagen_history":"[1,1,1,0,1,1,1,1,1]","location_rts":"[2674,414,358,408,483,424,405,352,679]","trial_type":"fractal-mutation","trial_index":54,"time_elapsed":1024589,"internal_node_id":"0.0-5.0-0.0"},{"group":"hexagon_tri","fractal_assignment":["../images/pnk_blu.png","../images/cyn_red.png","../images/blu_wht.png","../images/ylw_slt.png","../images/org_blu.png","../images/gry_blk.png"],"mutagen_generator_assignment":[0,1],"goal":0,"start":2,"action_noise":0.15,"location_history":"[2,3,4,2,3,4,2,3,4,2,3,2,1,3,4,2,3,4,2,3,4,2,3,2,1,5,4,2,1,3,2,1,3,4,0]","action_history":"[1,1,1,1,1,1,0,1,1,1,0,1,0,1,1,1,1,1,1,0,1,1,1,0,1,0,1,0,0,0,1,0,1,0]","mutagen_history":"[1,1,1,1,1,1,0,1,1,1,0,1,0,1,1,1,1,1,1,0,1,1,1,0,1,0,1,0,0,0,1,0,1,0]","location_rts":"[1675,351,304,384,375,435,639,422,355,373,309,233,351,387,325,478,235,703,765,323,461,4760,582,683,525,382,345,299,360,285,311,108,435,292]","trial_type":"fractal-mutation","trial_index":55,"time_elapsed":1084085,"internal_node_id":"0.0-5.0-1.0"},{"group":"hexagon_tri","fractal_assignment":["../images/pnk_blu.png","../images/cyn_red.png","../images/blu_wht.png","../images/ylw_slt.png","../images/org_blu.png","../images/gry_blk.png"],"mutagen_generator_assignment":[0,1],"goal":5,"start":0,"action_noise":0.15,"location_history":"[0,5]","action_history":"[1]","mutagen_history":"[1]","location_rts":"[1216]","trial_type":"fractal-mutation","trial_index":56,"time_elapsed":1089904,"internal_node_id":"0.0-5.0-2.0"},{"group":"hexagon_tri","fractal_assignment":["../images/pnk_blu.png","../images/cyn_red.png","../images/blu_wht.png","../images/ylw_slt.png","../images/org_blu.png","../images/gry_blk.png"],"mutagen_generator_assignment":[0,1],"goal":1,"start":5,"action_noise":0.15,"location_history":"[5,4,2,1]","action_history":"[0,1,0]","mutagen_history":"[0,1,0]","location_rts":"[1826,1045,369]","trial_type":"fractal-mutation","trial_index":57,"time_elapsed":1099888,"internal_node_id":"0.0-5.0-3.0"},{"group":"hexagon_tri","fractal_assignment":["../images/pnk_blu.png","../images/cyn_red.png","../images/blu_wht.png","../images/ylw_slt.png","../images/org_blu.png","../images/gry_blk.png"],"mutagen_generator_assignment":[0,1],"goal":3,"start":1,"action_noise":0.15,"location_history":"[1,3]","action_history":"[1]","mutagen_history":"[1]","location_rts":"[1513]","trial_type":"fractal-mutation","trial_index":58,"time_elapsed":1105998,"internal_node_id":"0.0-5.0-4.0"},{"group":"hexagon_tri","fractal_assignment":["../images/pnk_blu.png","../images/cyn_red.png","../images/blu_wht.png","../images/ylw_slt.png","../images/org_blu.png","../images/gry_blk.png"],"mutagen_generator_assignment":[0,1],"goal":5,"start":3,"action_noise":0.15,"location_history":"[3,2,3,4,0,1,5]","action_history":"[1,1,1,0,1,1]","mutagen_history":"[1,1,1,0,1,1]","location_rts":"[1190,373,346,506,323,320]","trial_type":"fractal-mutation","trial_index":59,"time_elapsed":1119032,"internal_node_id":"0.0-5.0-5.0"},{"group":"hexagon_tri","fractal_assignment":["../images/pnk_blu.png","../images/cyn_red.png","../images/blu_wht.png","../images/ylw_slt.png","../images/org_blu.png","../images/gry_blk.png"],"mutagen_generator_assignment":[0,1],"goal":4,"start":5,"action_noise":0.15,"location_history":"[5,4]","action_history":"[0]","mutagen_history":"[0]","location_rts":"[976]","trial_type":"fractal-mutation","trial_index":60,"time_elapsed":1124597,"internal_node_id":"0.0-5.0-6.0"},{"group":"hexagon_tri","fractal_assignment":["../images/pnk_blu.png","../images/cyn_red.png","../images/blu_wht.png","../images/ylw_slt.png","../images/org_blu.png","../images/gry_blk.png"],"mutagen_generator_assignment":[0,1],"goal":0,"start":4,"action_noise":0.15,"location_history":"[4,0]","action_history":"[1]","mutagen_history":"[1]","location_rts":"[726]","trial_type":"fractal-mutation","trial_index":61,"time_elapsed":1129915,"internal_node_id":"0.0-5.0-7.0"},{"group":"hexagon_tri","fractal_assignment":["../images/pnk_blu.png","../images/cyn_red.png","../images/blu_wht.png","../images/ylw_slt.png","../images/org_blu.png","../images/gry_blk.png"],"mutagen_generator_assignment":[0,1],"goal":2,"start":0,"action_noise":0.15,"location_history":"[0,1,5,0,1,5,0,5,0,1,5,0,1,3,4,0,1,3,2]","action_history":"[1,1,1,1,1,1,0,1,1,1,1,1,0,1,0,0,0,0]","mutagen_history":"[1,1,1,1,1,1,0,1,1,1,1,1,0,1,0,0,0,0]","location_rts":"[1115,379,468,355,368,365,471,331,488,357,218,387,282,387,357,445,748,602]","trial_type":"fractal-mutation","trial_index":62,"time_elapsed":1160915,"internal_node_id":"0.0-5.0-8.0"},{"group":"hexagon_tri","fractal_assignment":["../images/pnk_blu.png","../images/cyn_red.png","../images/blu_wht.png","../images/ylw_slt.png","../images/org_blu.png","../images/gry_blk.png"],"mutagen_generator_assignment":[0,1],"goal":4,"start":2,"action_noise":0.15,"location_history":"[2,1,5,0,5,0,1,3,4]","action_history":"[0,1,0,0,1,1,0,1]","mutagen_history":"[0,1,0,0,1,1,0,1]","location_rts":"[2507,564,435,422,463,371,731,368]","trial_type":"fractal-mutation","trial_index":63,"time_elapsed":1178942,"internal_node_id":"0.0-5.0-9.0"},{"group":"hexagon_tri","fractal_assignment":["../images/pnk_blu.png","../images/cyn_red.png","../images/blu_wht.png","../images/ylw_slt.png","../images/org_blu.png","../images/gry_blk.png"],"mutagen_generator_assignment":[0,1],"goal":2,"start":4,"action_noise":0.15,"location_history":"[4,2]","action_history":"[1]","mutagen_history":"[1]","location_rts":"[1835]","trial_type":"fractal-mutation","trial_index":64,"time_elapsed":1185369,"internal_node_id":"0.0-5.0-10.0"},{"group":"hexagon_tri","fractal_assignment":["../images/pnk_blu.png","../images/cyn_red.png","../images/blu_wht.png","../images/ylw_slt.png","../images/org_blu.png","../images/gry_blk.png"],"mutagen_generator_assignment":[0,1],"goal":3,"start":2,"action_noise":0.15,"location_history":"[2,3]","action_history":"[1]","mutagen_history":"[1]","location_rts":"[1020]","trial_type":"fractal-mutation","trial_index":65,"time_elapsed":1190974,"internal_node_id":"0.0-5.0-11.0"},{"group":"hexagon_tri","fractal_assignment":["../images/pnk_blu.png","../images/cyn_red.png","../images/blu_wht.png","../images/ylw_slt.png","../images/org_blu.png","../images/gry_blk.png"],"mutagen_generator_assignment":[0,1],"goal":0,"start":3,"action_noise":0.15,"location_history":"[3,2,1,5,0]","action_history":"[1,1,1,1]","mutagen_history":"[1,1,1,1]","location_rts":"[2394,1763,363,347]","trial_type":"fractal-mutation","trial_index":66,"time_elapsed":1203691,"internal_node_id":"0.0-5.0-12.0"},{"group":"hexagon_tri","fractal_assignment":["../images/pnk_blu.png","../images/cyn_red.png","../images/blu_wht.png","../images/ylw_slt.png","../images/org_blu.png","../images/gry_blk.png"],"mutagen_generator_assignment":[0,1],"goal":5,"start":0,"action_noise":0.15,"location_history":"[0,1,5]","action_history":"[1,1]","mutagen_history":"[1,1]","location_rts":"[1806,357]","trial_type":"fractal-mutation","trial_index":67,"time_elapsed":1211521,"internal_node_id":"0.0-5.0-13.0"},{"group":"hexagon_tri","fractal_assignment":["../images/pnk_blu.png","../images/cyn_red.png","../images/blu_wht.png","../images/ylw_slt.png","../images/org_blu.png","../images/gry_blk.png"],"mutagen_generator_assignment":[0,1],"goal":1,"start":5,"action_noise":0.15,"location_history":"[5,4,2,1]","action_history":"[0,1,0]","mutagen_history":"[0,1,0]","location_rts":"[931,645,360]","trial_type":"fractal-mutation","trial_index":68,"time_elapsed":1220189,"internal_node_id":"0.0-5.0-14.0"},{"group":"hexagon_tri","fractal_assignment":["../images/pnk_blu.png","../images/cyn_red.png","../images/blu_wht.png","../images/ylw_slt.png","../images/org_blu.png","../images/gry_blk.png"],"mutagen_generator_assignment":[0,1],"goal":5,"start":1,"action_noise":0.15,"location_history":"[1,3,2,3,4,0,1,5]","action_history":"[1,1,1,1,0,1,1]","mutagen_history":"[1,1,1,1,0,1,1]","location_rts":"[3123,856,387,366,803,352,896]","trial_type":"fractal-mutation","trial_index":69,"time_elapsed":1238068,"internal_node_id":"0.0-5.0-15.0"},{"group":"hexagon_tri","fractal_assignment":["../images/pnk_blu.png","../images/cyn_red.png","../images/blu_wht.png","../images/ylw_slt.png","../images/org_blu.png","../images/gry_blk.png"],"mutagen_generator_assignment":[0,1],"goal":3,"start":5,"action_noise":0.15,"location_history":"[5,0,5,0,1,5,0,1,3]","action_history":"[1,0,1,1,1,1,1,0]","mutagen_history":"[1,0,1,1,1,1,1,0]","location_rts":"[923,1048,333,360,404,440,363,293]","trial_type":"fractal-mutation","trial_index":70,"time_elapsed":1254383,"internal_node_id":"0.0-5.0-16.0"},{"group":"hexagon_tri","fractal_assignment":["../images/pnk_blu.png","../images/cyn_red.png","../images/blu_wht.png","../images/ylw_slt.png","../images/org_blu.png","../images/gry_blk.png"],"mutagen_generator_assignment":[0,1],"goal":2,"start":3,"action_noise":0.15,"location_history":"[3,4,0,5,0,5,0,1,5,0,1,5,4,0,5,0,1,5,0,1,3,4,2]","action_history":"[1,0,0,1,0,1,1,1,1,1,1,0,0,0,1,1,1,1,1,0,1,1]","mutagen_history":"[1,0,0,1,0,1,1,1,1,1,1,0,0,0,1,1,1,1,1,0,1,1]","location_rts":"[1596,371,529,552,461,370,365,339,443,422,389,677,368,737,414,365,245,310,167,275,164,390]","trial_type":"fractal-mutation","trial_index":71,"time_elapsed":1291623,"internal_node_id":"0.0-5.0-17.0"},{"group":"hexagon_tri","fractal_assignment":["../images/pnk_blu.png","../images/cyn_red.png","../images/blu_wht.png","../images/ylw_slt.png","../images/org_blu.png","../images/gry_blk.png"],"mutagen_generator_assignment":[0,1],"goal":1,"start":2,"action_noise":0.15,"location_history":"[2,1]","action_history":"[0]","mutagen_history":"[0]","location_rts":"[4257]","trial_type":"fractal-mutation","trial_index":72,"time_elapsed":1300477,"internal_node_id":"0.0-5.0-18.0"},{"group":"hexagon_tri","fractal_assignment":["../images/pnk_blu.png","../images/cyn_red.png","../images/blu_wht.png","../images/ylw_slt.png","../images/org_blu.png","../images/gry_blk.png"],"mutagen_generator_assignment":[0,1],"goal":4,"start":1,"action_noise":0.15,"location_history":"[1,5,0,1,3,2,3,2,1,5,4]","action_history":"[1,0,1,1,0,1,0,0,1,0]","mutagen_history":"[1,0,1,1,0,1,0,0,1,0]","location_rts":"[5721,373,550,819,296,395,316,325,854,358]","trial_type":"fractal-mutation","trial_index":73,"time_elapsed":1324759,"internal_node_id":"0.0-5.0-19.0"},{"group":"hexagon_tri","fractal_assignment":["../images/pnk_blu.png","../images/cyn_red.png","../images/blu_wht.png","../images/ylw_slt.png","../images/org_blu.png","../images/gry_blk.png"],"mutagen_generator_assignment":[0,1],"goal":0,"start":4,"action_noise":0.15,"location_history":"[4,2,3,4,2,3,4,2,3,2,3,4,0]","action_history":"[1,1,1,1,1,1,1,1,0,1,1,1]","mutagen_history":"[1,1,1,1,1,1,1,1,0,1,1,1]","location_rts":"[754,572,536,385,366,397,338,300,552,273,386,405]","trial_type":"fractal-mutation","trial_index":74,"time_elapsed":1346531,"internal_node_id":"0.0-5.0-20.0"},{"group":"hexagon_tri","fractal_assignment":["../images/pnk_blu.png","../images/cyn_red.png","../images/blu_wht.png","../images/ylw_slt.png","../images/org_blu.png","../images/gry_blk.png"],"mutagen_generator_assignment":[0,1],"goal":3,"start":0,"action_noise":0.15,"location_history":"[0,1,3]","action_history":"[1,1]","mutagen_history":"[1,1]","location_rts":"[1523,744]","trial_type":"fractal-mutation","trial_index":75,"time_elapsed":1354473,"internal_node_id":"0.0-5.0-21.0"},{"group":"hexagon_tri","fractal_assignment":["../images/pnk_blu.png","../images/cyn_red.png","../images/blu_wht.png","../images/ylw_slt.png","../images/org_blu.png","../images/gry_blk.png"],"mutagen_generator_assignment":[0,1],"goal":1,"start":3,"action_noise":0.15,"location_history":"[3,2,3,2,1]","action_history":"[0,0,1,0]","mutagen_history":"[0,0,1,0]","location_rts":"[784,322,417,276]","trial_type":"fractal-mutation","trial_index":76,"time_elapsed":1364105,"internal_node_id":"0.0-5.0-22.0"},{"group":"hexagon_tri","fractal_assignment":["../images/pnk_blu.png","../images/cyn_red.png","../images/blu_wht.png","../images/ylw_slt.png","../images/org_blu.png","../images/gry_blk.png"],"mutagen_generator_assignment":[0,1],"goal":0,"start":1,"action_noise":0.15,"location_history":"[1,5,0]","action_history":"[1,1]","mutagen_history":"[1,1]","location_rts":"[1012,366]","trial_type":"fractal-mutation","trial_index":77,"time_elapsed":1371157,"internal_node_id":"0.0-5.0-23.0"},{"group":"hexagon_tri","fractal_assignment":["../images/pnk_blu.png","../images/cyn_red.png","../images/blu_wht.png","../images/ylw_slt.png","../images/org_blu.png","../images/gry_blk.png"],"mutagen_generator_assignment":[0,1],"goal":2,"start":0,"action_noise":0.15,"location_history":"[0,5,4,2]","action_history":"[0,0,1]","mutagen_history":"[0,0,1]","location_rts":"[956,416,443]","trial_type":"fractal-mutation","trial_index":78,"time_elapsed":1379724,"internal_node_id":"0.0-5.0-24.0"},{"group":"hexagon_tri","fractal_assignment":["../images/pnk_blu.png","../images/cyn_red.png","../images/blu_wht.png","../images/ylw_slt.png","../images/org_blu.png","../images/gry_blk.png"],"mutagen_generator_assignment":[0,1],"goal":4,"start":2,"action_noise":0.15,"location_history":"[2,3,4]","action_history":"[1,1]","mutagen_history":"[1,1]","location_rts":"[888,378]","trial_type":"fractal-mutation","trial_index":79,"time_elapsed":1386647,"internal_node_id":"0.0-5.0-25.0"},{"group":"hexagon_tri","fractal_assignment":["../images/pnk_blu.png","../images/cyn_red.png","../images/blu_wht.png","../images/ylw_slt.png","../images/org_blu.png","../images/gry_blk.png"],"mutagen_generator_assignment":[0,1],"goal":5,"start":4,"action_noise":0.15,"location_history":"[4,0,1,5]","action_history":"[0,1,1]","mutagen_history":"[0,1,1]","location_rts":"[634,391,255]","trial_type":"fractal-mutation","trial_index":80,"time_elapsed":1394669,"internal_node_id":"0.0-5.0-26.0"},{"group":"hexagon_tri","fractal_assignment":["../images/pnk_blu.png","../images/cyn_red.png","../images/blu_wht.png","../images/ylw_slt.png","../images/org_blu.png","../images/gry_blk.png"],"mutagen_generator_assignment":[0,1],"goal":2,"start":5,"action_noise":0.15,"location_history":"[5,0,5,4,0,1,5,4,0,1,5,4,0,5,4,0,5,0,5,0,5,4,2]","action_history":"[1,1,0,0,1,0,0,0,1,1,0,0,0,0,0,0,1,0,1,0,0,1]","mutagen_history":"[1,1,0,0,1,0,0,0,1,1,0,0,0,0,0,0,1,0,1,0,0,1]","location_rts":"[574,370,675,622,1456,321,738,15,506,340,326,257,397,328,276,615,340,479,576,308,252,1273]","trial_type":"fractal-mutation","trial_index":81,"time_elapsed":1432936,"internal_node_id":"0.0-5.0-27.0"},{"group":"hexagon_tri","fractal_assignment":["../images/pnk_blu.png","../images/cyn_red.png","../images/blu_wht.png","../images/ylw_slt.png","../images/org_blu.png","../images/gry_blk.png"],"mutagen_generator_assignment":[0,1],"goal":3,"start":2,"action_noise":0.15,"location_history":"[2,3]","action_history":"[1]","mutagen_history":"[1]","location_rts":"[918]","trial_type":"fractal-mutation","trial_index":82,"time_elapsed":1438438,"internal_node_id":"0.0-5.0-28.0"},{"group":"hexagon_tri","fractal_assignment":["../images/pnk_blu.png","../images/cyn_red.png","../images/blu_wht.png","../images/ylw_slt.png","../images/org_blu.png","../images/gry_blk.png"],"mutagen_generator_assignment":[0,1],"goal":1,"start":3,"action_noise":0.15,"location_history":"[3,2,3,4,0,1]","action_history":"[0,0,1,0,1]","mutagen_history":"[0,0,1,0,1]","location_rts":"[985,395,189,474,392]","trial_type":"fractal-mutation","trial_index":83,"time_elapsed":1449787,"internal_node_id":"0.0-5.0-29.0"},{"group":"hexagon_tri","fractal_assignment":["../images/pnk_blu.png","../images/cyn_red.png","../images/blu_wht.png","../images/ylw_slt.png","../images/org_blu.png","../images/gry_blk.png"],"mutagen_generator_assignment":[0,1],"goal":4,"start":1,"action_noise":0.15,"location_history":"[1,5,0,5,4]","action_history":"[1,1,0,0]","mutagen_history":"[1,1,0,0]","location_rts":"[5264,620,484,408]","trial_type":"fractal-mutation","trial_index":84,"time_elapsed":1464399,"internal_node_id":"0.0-5.0-30.0"},{"group":"hexagon_tri","fractal_assignment":["../images/pnk_blu.png","../images/cyn_red.png","../images/blu_wht.png","../images/ylw_slt.png","../images/org_blu.png","../images/gry_blk.png"],"mutagen_generator_assignment":[0,1],"goal":5,"start":4,"action_noise":0.15,"location_history":"[4,2,3,4,2,3,4,0,1,5]","action_history":"[1,1,1,1,1,1,1,1,1]","mutagen_history":"[1,1,1,1,1,1,1,1,1]","location_rts":"[1105,457,348,409,354,411,380,217,371]","trial_type":"fractal-mutation","trial_index":85,"time_elapsed":1481690,"internal_node_id":"0.0-5.0-31.0"},{"group":"hexagon_tri","fractal_assignment":["../images/pnk_blu.png","../images/cyn_red.png","../images/blu_wht.png","../images/ylw_slt.png","../images/org_blu.png","../images/gry_blk.png"],"mutagen_generator_assignment":[0,1],"goal":0,"start":5,"action_noise":0.15,"location_history":"[5,4,0]","action_history":"[0,0]","mutagen_history":"[0,0]","location_rts":"[537,353]","trial_type":"fractal-mutation","trial_index":86,"time_elapsed":1488246,"internal_node_id":"0.0-5.0-32.0"},{"group":"hexagon_tri","fractal_assignment":["../images/pnk_blu.png","../images/cyn_red.png","../images/blu_wht.png","../images/ylw_slt.png","../images/org_blu.png","../images/gry_blk.png"],"mutagen_generator_assignment":[0,1],"goal":2,"start":0,"action_noise":0.15,"location_history":"[0,1,5,0,1,3,2]","action_history":"[1,1,1,1,0,0]","mutagen_history":"[1,1,1,1,0,0]","location_rts":"[52717,362,350,392,328,405]","trial_type":"fractal-mutation","trial_index":87,"time_elapsed":1552785,"internal_node_id":"0.0-5.0-33.0"},{"group":"hexagon_tri","fractal_assignment":["../images/pnk_blu.png","../images/cyn_red.png","../images/blu_wht.png","../images/ylw_slt.png","../images/org_blu.png","../images/gry_blk.png"],"mutagen_generator_assignment":[0,1],"goal":0,"start":2,"action_noise":0.15,"location_history":"[2,3,4,0]","action_history":"[1,1,0]","mutagen_history":"[1,1,0]","location_rts":"[711,335,383]","trial_type":"fractal-mutation","trial_index":88,"time_elapsed":1560962,"internal_node_id":"0.0-5.0-34.0"},{"group":"hexagon_tri","fractal_assignment":["../images/pnk_blu.png","../images/cyn_red.png","../images/blu_wht.png","../images/ylw_slt.png","../images/org_blu.png","../images/gry_blk.png"],"mutagen_generator_assignment":[0,1],"goal":5,"start":0,"action_noise":0.15,"location_history":"[0,5]","action_history":"[0]","mutagen_history":"[0]","location_rts":"[720]","trial_type":"fractal-mutation","trial_index":89,"time_elapsed":1566273,"internal_node_id":"0.0-5.0-35.0"},{"group":"hexagon_tri","fractal_assignment":["../images/pnk_blu.png","../images/cyn_red.png","../images/blu_wht.png","../images/ylw_slt.png","../images/org_blu.png","../images/gry_blk.png"],"mutagen_generator_assignment":[0,1],"goal":1,"start":5,"action_noise":0.15,"location_history":"[5,4,2,1]","action_history":"[1,1,0]","mutagen_history":"[1,1,0]","location_rts":"[613,284,249]","trial_type":"fractal-mutation","trial_index":90,"time_elapsed":1574185,"internal_node_id":"0.0-5.0-36.0"},{"group":"hexagon_tri","fractal_assignment":["../images/pnk_blu.png","../images/cyn_red.png","../images/blu_wht.png","../images/ylw_slt.png","../images/org_blu.png","../images/gry_blk.png"],"mutagen_generator_assignment":[0,1],"goal":4,"start":1,"action_noise":0.15,"location_history":"[1,3,4]","action_history":"[0,1]","mutagen_history":"[0,1]","location_rts":"[1979,359]","trial_type":"fractal-mutation","trial_index":91,"time_elapsed":1582191,"internal_node_id":"0.0-5.0-37.0"},{"group":"hexagon_tri","fractal_assignment":["../images/pnk_blu.png","../images/cyn_red.png","../images/blu_wht.png","../images/ylw_slt.png","../images/org_blu.png","../images/gry_blk.png"],"mutagen_generator_assignment":[0,1],"goal":3,"start":4,"action_noise":0.15,"location_history":"[4,2,1,3]","action_history":"[1,0,1]","mutagen_history":"[1,0,1]","location_rts":"[1464,371,426]","trial_type":"fractal-mutation","trial_index":92,"time_elapsed":1591202,"internal_node_id":"0.0-5.0-38.0"},{"group":"hexagon_tri","fractal_assignment":["../images/pnk_blu.png","../images/cyn_red.png","../images/blu_wht.png","../images/ylw_slt.png","../images/org_blu.png","../images/gry_blk.png"],"mutagen_generator_assignment":[0,1],"goal":5,"start":3,"action_noise":0.15,"location_history":"[3,4,0,5]","action_history":"[1,1,1]","mutagen_history":"[1,1,1]","location_rts":"[763,364,365]","trial_type":"fractal-mutation","trial_index":93,"time_elapsed":1599461,"internal_node_id":"0.0-5.0-39.0"},{"group":"hexagon_tri","fractal_assignment":["../images/pnk_blu.png","../images/cyn_red.png","../images/blu_wht.png","../images/ylw_slt.png","../images/org_blu.png","../images/gry_blk.png"],"mutagen_generator_assignment":[0,1],"goal":1,"start":5,"action_noise":0.15,"location_history":"[5,4,2,3,2,3,2,3,2,3,2,3,2,3,2,1]","action_history":"[0,1,1,0,1,0,0,1,1,1,1,0,1,0,0]","mutagen_history":"[0,1,1,0,1,0,0,1,1,1,1,0,1,0,0]","location_rts":"[1766,267,411,268,395,335,312,324,366,428,442,995,322,234,285]","trial_type":"fractal-mutation","trial_index":94,"time_elapsed":1626343,"internal_node_id":"0.0-5.0-40.0"},{"group":"hexagon_tri","fractal_assignment":["../images/pnk_blu.png","../images/cyn_red.png","../images/blu_wht.png","../images/ylw_slt.png","../images/org_blu.png","../images/gry_blk.png"],"mutagen_generator_assignment":[0,1],"goal":2,"start":1,"action_noise":0.15,"location_history":"[1,5,4,2]","action_history":"[1,0,1]","mutagen_history":"[1,0,1]","location_rts":"[718,307,354]","trial_type":"fractal-mutation","trial_index":95,"time_elapsed":1634466,"internal_node_id":"0.0-5.0-41.0"},{"group":"hexagon_tri","fractal_assignment":["../images/pnk_blu.png","../images/cyn_red.png","../images/blu_wht.png","../images/ylw_slt.png","../images/org_blu.png","../images/gry_blk.png"],"mutagen_generator_assignment":[0,1],"goal":4,"start":2,"action_noise":0.15,"location_history":"[2,3,2,3,2,1,3,4]","action_history":"[1,0,1,0,0,0,1]","mutagen_history":"[1,0,1,0,0,0,1]","location_rts":"[1534,326,283,199,315,607,300]","trial_type":"fractal-mutation","trial_index":96,"time_elapsed":1649099,"internal_node_id":"0.0-5.0-42.0"},{"group":"hexagon_tri","fractal_assignment":["../images/pnk_blu.png","../images/cyn_red.png","../images/blu_wht.png","../images/ylw_slt.png","../images/org_blu.png","../images/gry_blk.png"],"mutagen_generator_assignment":[0,1],"goal":0,"start":4,"action_noise":0.15,"location_history":"[4,2,3,2,3,4,2,1,5,0]","action_history":"[1,1,1,1,1,1,1,1,1]","mutagen_history":"[1,1,1,1,1,1,1,1,1]","location_rts":"[1981,377,330,336,389,373,318,660,399]","trial_type":"fractal-mutation","trial_index":97,"time_elapsed":1667534,"internal_node_id":"0.0-5.0-43.0"},{"group":"hexagon_tri","fractal_assignment":["../images/pnk_blu.png","../images/cyn_red.png","../images/blu_wht.png","../images/ylw_slt.png","../images/org_blu.png","../images/gry_blk.png"],"mutagen_generator_assignment":[0,1],"goal":3,"start":0,"action_noise":0.15,"location_history":"[0,1,5,0,1,5,4,0,5,0,1,3]","action_history":"[1,1,1,1,1,0,0,0,1,1,0]","mutagen_history":"[1,1,1,1,1,0,0,0,1,1,0]","location_rts":"[1271,376,116,163,345,48,371,630,159,421,239]","trial_type":"fractal-mutation","trial_index":98,"time_elapsed":1687075,"internal_node_id":"0.0-5.0-44.0"},{"group":"hexagon_tri","fractal_assignment":["../images/pnk_blu.png","../images/cyn_red.png","../images/blu_wht.png","../images/ylw_slt.png","../images/org_blu.png","../images/gry_blk.png"],"mutagen_generator_assignment":[0,1],"goal":0,"start":3,"action_noise":0.15,"location_history":"[3,2,1,5,0]","action_history":"[1,1,1,1]","mutagen_history":"[1,1,1,1]","location_rts":"[569,92,30,187]","trial_type":"fractal-mutation","trial_index":99,"time_elapsed":1695769,"internal_node_id":"0.0-5.0-45.0"},{"group":"hexagon_tri","fractal_assignment":["../images/pnk_blu.png","../images/cyn_red.png","../images/blu_wht.png","../images/ylw_slt.png","../images/org_blu.png","../images/gry_blk.png"],"mutagen_generator_assignment":[0,1],"goal":4,"start":0,"action_noise":0.15,"location_history":"[0,1,5,0,5,4]","action_history":"[0,1,1,0,0]","mutagen_history":"[0,1,1,0,0]","location_rts":"[4259,292,543,23,356]","trial_type":"fractal-mutation","trial_index":100,"time_elapsed":1710151,"internal_node_id":"0.0-5.0-46.0"},{"group":"hexagon_tri","fractal_assignment":["../images/pnk_blu.png","../images/cyn_red.png","../images/blu_wht.png","../images/ylw_slt.png","../images/org_blu.png","../images/gry_blk.png"],"mutagen_generator_assignment":[0,1],"goal":5,"start":4,"action_noise":0.15,"location_history":"[4,2,3,2,3,4,2,3,4,2,3,4,0,5]","action_history":"[1,1,0,1,1,1,1,1,1,1,1,0,0]","mutagen_history":"[1,1,0,1,1,1,1,1,1,1,1,0,0]","location_rts":"[1036,372,338,165,164,347,403,569,355,347,335,645,388]","trial_type":"fractal-mutation","trial_index":101,"time_elapsed":1733164,"internal_node_id":"0.0-5.0-47.0"},{"group":"hexagon_tri","fractal_assignment":["../images/pnk_blu.png","../images/cyn_red.png","../images/blu_wht.png","../images/ylw_slt.png","../images/org_blu.png","../images/gry_blk.png"],"mutagen_generator_assignment":[0,1],"goal":2,"start":5,"action_noise":0.15,"location_history":"[5,0,1,5,0,1,5,0,1,3,4,0,5,0,1,3,2]","action_history":"[1,1,1,1,1,1,1,1,0,1,0,0,1,1,0,0]","mutagen_history":"[1,1,1,1,1,1,1,1,0,1,0,0,1,1,0,0]","location_rts":"[1936,415,307,175,331,344,181,185,14,346,316,263,132,357,163,319]","trial_type":"fractal-mutation","trial_index":102,"time_elapsed":1759745,"internal_node_id":"0.0-5.0-48.0"},{"group":"hexagon_tri","fractal_assignment":["../images/pnk_blu.png","../images/cyn_red.png","../images/blu_wht.png","../images/ylw_slt.png","../images/org_blu.png","../images/gry_blk.png"],"mutagen_generator_assignment":[0,1],"goal":1,"start":2,"action_noise":0.15,"location_history":"[2,3,4,2,3,4,0,5,0,1]","action_history":"[1,1,1,0,1,0,0,1,1]","mutagen_history":"[1,1,1,0,1,0,0,1,1]","location_rts":"[1904,301,320,273,368,384,555,307,354]","trial_type":"fractal-mutation","trial_index":103,"time_elapsed":1777790,"internal_node_id":"0.0-5.0-49.0"},{"view_history":"[{\"page_index\":0,\"viewing_time\":2026}]","rt":2027,"trial_type":"instructions","trial_index":104,"time_elapsed":1780819,"internal_node_id":"0.0-6.0"},{"rt":20870,"responses":"{\"Q0\":\"How quickly one can learn patterns over time\"}","trial_type":"survey-text","trial_index":105,"time_elapsed":1802697,"internal_node_id":"0.0-7.0-0.0"},{"rt":7830,"responses":"{\"Q0\":\"Confirming the first\"}","trial_type":"survey-text","trial_index":106,"time_elapsed":1811531,"internal_node_id":"0.0-7.0-1.0"},{"rt":23972,"responses":"{\"Q0\":\"<img src='../images/diagrams/hexagon_tri.png'>\"}","trial_type":"survey-multi-choice","trial_index":107,"time_elapsed":1836510,"internal_node_id":"0.0-7.0-2.0"},{"rt":27341,"assignments":["../images/pnk_blu.png","../images/org_blu.png","../images/ylw_slt.png","../images/gry_blk.png","../images/blu_wht.png","../images/cyn_red.png"],"trial_type":"drag-drop-on-image","trial_index":108,"time_elapsed":1864855,"internal_node_id":"0.0-7.0-3.0"},{"rt":5991,"responses":"{\"Q0\":\"1\"}","trial_type":"survey-likert","trial_index":109,"time_elapsed":1871855,"internal_node_id":"0.0-7.0-4.0"},{"rt":45029,"responses":"{\"Q0\":\"That it took one door or gamma ray/acid to get to the other. And then reversed to get back.\"}","trial_type":"survey-text","trial_index":110,"time_elapsed":1917891,"internal_node_id":"0.0-7.0-5.0"},{"rt":5436,"responses":"{\"Q0\":\"No\"}","trial_type":"survey-multi-choice","trial_index":111,"time_elapsed":1924333,"internal_node_id":"0.0-7.0-6.0"},{"rt":4355,"responses":"{\"Q0\":\"Did not notice\"}","trial_type":"survey-multi-choice","trial_index":112,"time_elapsed":1929693,"internal_node_id":"0.0-7.0-7.0"},{"rt":2724,"responses":"{\"Q0\":\"\"}","trial_type":"survey-text","trial_index":113,"time_elapsed":1933420,"internal_node_id":"0.0-7.0-8.0"},{"rt":5242,"responses":"{\"Q0\":\"1\"}","trial_type":"survey-likert","trial_index":114,"time_elapsed":1939669,"internal_node_id":"0.0-7.0-9.0"},{"rt":9575,"responses":"{\"Q0\":\"Different structure\"}","trial_type":"survey-multi-choice","trial_index":115,"time_elapsed":1950253,"internal_node_id":"0.0-7.0-10.0"},{"rt":38533,"responses":"{\"Q0\":\"left (black) door = ray, right (white) door = acid\",\"Q1\":\"Slightly confident\"}","trial_type":"survey-multi-choice","trial_index":116,"time_elapsed":1989796,"internal_node_id":"0.0-7.0-11.0"},{"rt":8476,"responses":"{\"Q0\":\"<25\",\"Q1\":\"Associates or other two-year degree\",\"Q2\":\"Female\",\"Q3\":\"Hispanic\"}","trial_type":"survey-multi-choice","trial_index":117,"time_elapsed":1999288,"internal_node_id":"0.0-8.0"},{"rt":1221,"responses":"{\"Q0\":\"\"}","trial_type":"survey-text","trial_index":118,"time_elapsed":2001511,"internal_node_id":"0.0-9.0"}]