[{"view_history":"[{\"page_index\":0,\"viewing_time\":6120},{\"page_index\":1,\"viewing_time\":19121}]","rt":25242,"trial_type":"instructions","trial_index":0,"time_elapsed":25245,"internal_node_id":"0.0-0.0"},{"view_history":"[{\"page_index\":0,\"viewing_time\":2289},{\"page_index\":1,\"viewing_time\":69283}]","rt":71572,"trial_type":"instructions","trial_index":1,"time_elapsed":97818,"internal_node_id":"0.0-1.0"},{"group":"hexagon_bi","room_assignment":["red","blue","green","purple","grey","yellow"],"door_color_assignment":["white","black"],"door_generator_assignment":[1,0],"goal":2,"start":1,"action_noise":0.15,"location_history":"[1,2]","action_history":"[0]","door_history":"[1]","location_rts":"[2076]","trial_type":"two-door-navigation","trial_index":2,"time_elapsed":104433,"internal_node_id":"0.0-2.0-0.0"},{"group":"hexagon_bi","room_assignment":["red","blue","green","purple","grey","yellow"],"door_color_assignment":["white","black"],"door_generator_assignment":[1,0],"goal":0,"start":2,"action_noise":0.15,"location_history":"[2,1,2,3,4,3,2,3,2,1,0]","action_history":"[0,0,1,0,0,1,1,1,0,1]","door_history":"[1,1,0,1,1,0,0,0,1,0]","location_rts":"[3752,2651,386,2666,1893,367,1084,1562,1003,1709]","trial_type":"two-door-navigation","trial_index":3,"time_elapsed":135345,"internal_node_id":"0.0-2.0-1.0"},{"group":"hexagon_bi","room_assignment":["red","blue","green","purple","grey","yellow"],"door_color_assignment":["white","black"],"door_generator_assignment":[1,0],"goal":5,"start":0,"action_noise":0.15,"location_history":"[0,5]","action_history":"[0]","door_history":"[1]","location_rts":"[4003]","trial_type":"two-door-navigation","trial_index":4,"time_elapsed":143877,"internal_node_id":"0.0-2.0-2.0"},{"group":"hexagon_bi","room_assignment":["red","blue","green","purple","grey","yellow"],"door_color_assignment":["white","black"],"door_generator_assignment":[1,0],"goal":1,"start":5,"action_noise":0.15,"location_history":"[5,4,3,2,3,4,5,0,1]","action_history":"[1,0,1,1,0,1,0,1]","door_history":"[0,1,0,0,1,0,1,0]","location_rts":"[3339,2870,1408,2421,1659,1450,2484,2232]","trial_type":"two-door-navigation","trial_index":5,"time_elapsed":173512,"internal_node_id":"0.0-2.0-3.0"},{"group":"hexagon_bi","room_assignment":["red","blue","green","purple","grey","yellow"],"door_color_assignment":["white","black"],"door_generator_assignment":[1,0],"goal":3,"start":1,"action_noise":0.15,"location_history":"[1,2,3]","action_history":"[0,1]","door_history":"[1,0]","location_rts":"[4397,2722]","trial_type":"two-door-navigation","trial_index":6,"time_elapsed":186181,"internal_node_id":"0.0-2.0-4.0"},{"group":"hexagon_bi","room_assignment":["red","blue","green","purple","grey","yellow"],"door_color_assignment":["white","black"],"door_generator_assignment":[1,0],"goal":5,"start":3,"action_noise":0.15,"location_history":"[3,2,1,2,3,4,5]","action_history":"[1,0,0,1,0,1]","door_history":"[0,1,1,0,1,0]","location_rts":"[6895,3860,4120,881,1797,805]","trial_type":"two-door-navigation","trial_index":7,"time_elapsed":214199,"internal_node_id":"0.0-2.0-5.0"},{"group":"hexagon_bi","room_assignment":["red","blue","green","purple","grey","yellow"],"door_color_assignment":["white","black"],"door_generator_assignment":[1,0],"goal":4,"start":5,"action_noise":0.15,"location_history":"[5,4]","action_history":"[1]","door_history":"[0]","location_rts":"[2811]","trial_type":"two-door-navigation","trial_index":8,"time_elapsed":221539,"internal_node_id":"0.0-2.0-6.0"},{"group":"hexagon_bi","room_assignment":["red","blue","green","purple","grey","yellow"],"door_color_assignment":["white","black"],"door_generator_assignment":[1,0],"goal":0,"start":4,"action_noise":0.15,"location_history":"[4,5,4,3,4,3,2,3,4,5,4,5,0]","action_history":"[0,1,1,0,1,1,0,0,1,1,1,0]","door_history":"[1,0,0,1,0,0,1,1,0,0,0,1]","location_rts":"[2154,9628,962,3634,1557,362,2870,1499,470,4173,609,480]","trial_type":"two-door-navigation","trial_index":9,"time_elapsed":265743,"internal_node_id":"0.0-2.0-7.0"},{"group":"hexagon_bi","room_assignment":["red","blue","green","purple","grey","yellow"],"door_color_assignment":["white","black"],"door_generator_assignment":[1,0],"goal":2,"start":0,"action_noise":0.15,"location_history":"[0,5,4,3,4,5,4,5,0,5,4,3,4,3,2]","action_history":"[0,1,1,0,0,1,1,0,1,1,0,0,1,1]","door_history":"[1,0,0,1,1,0,0,1,0,0,1,1,0,0]","location_rts":"[2184,2124,1186,2292,921,961,667,2065,4597,5624,891,716,443,551]","trial_type":"two-door-navigation","trial_index":10,"time_elapsed":308851,"internal_node_id":"0.0-2.0-8.0"},{"group":"hexagon_bi","room_assignment":["red","blue","green","purple","grey","yellow"],"door_color_assignment":["white","black"],"door_generator_assignment":[1,0],"goal":4,"start":2,"action_noise":0.15,"location_history":"[2,1,0,1,0,5,4]","action_history":"[0,1,1,1,0,1]","door_history":"[1,0,0,0,1,0]","location_rts":"[1997,697,944,1002,835,1943]","trial_type":"two-door-navigation","trial_index":11,"time_elapsed":325926,"internal_node_id":"0.0-2.0-9.0"},{"group":"hexagon_bi","room_assignment":["red","blue","green","purple","grey","yellow"],"door_color_assignment":["white","black"],"door_generator_assignment":[1,0],"goal":2,"start":4,"action_noise":0.15,"location_history":"[4,5,0,5,4,3,4,5,0,5,0,1,2]","action_history":"[1,1,0,1,0,1,1,0,0,0,1,0]","door_history":"[0,0,1,0,1,0,0,1,1,1,0,1]","location_rts":"[8020,4203,5274,1629,1343,2235,1337,815,648,714,1235,2436]","trial_type":"two-door-navigation","trial_index":12,"time_elapsed":371635,"internal_node_id":"0.0-2.0-10.0"},{"group":"hexagon_bi","room_assignment":["red","blue","green","purple","grey","yellow"],"door_color_assignment":["white","black"],"door_generator_assignment":[1,0],"goal":3,"start":2,"action_noise":0.15,"location_history":"[2,3]","action_history":"[1]","door_history":"[0]","location_rts":"[5478]","trial_type":"two-door-navigation","trial_index":13,"time_elapsed":381644,"internal_node_id":"0.0-2.0-11.0"},{"group":"hexagon_bi","room_assignment":["red","blue","green","purple","grey","yellow"],"door_color_assignment":["white","black"],"door_generator_assignment":[1,0],"goal":0,"start":3,"action_noise":0.15,"location_history":"[3,4,3,4,3,4,5,4,5,0]","action_history":"[0,1,1,0,0,1,1,0,1]","door_history":"[1,0,0,1,1,0,0,1,0]","location_rts":"[8084,1881,918,1443,613,1322,9080,1917,337]","trial_type":"two-door-navigation","trial_index":14,"time_elapsed":420008,"internal_node_id":"0.0-2.0-12.0"},{"group":"hexagon_bi","room_assignment":["red","blue","green","purple","grey","yellow"],"door_color_assignment":["white","black"],"door_generator_assignment":[1,0],"goal":5,"start":0,"action_noise":0.15,"location_history":"[0,1,2,3,4,3,2,3,2,3,4,3,2,3,2,1,0,5]","action_history":"[1,0,1,0,0,1,1,1,1,0,0,1,1,1,0,1,0]","door_history":"[0,1,0,1,1,0,0,0,0,1,1,0,0,0,1,0,1]","location_rts":"[5937,4334,2757,2643,1066,940,561,496,658,1127,584,1156,523,900,1647,2189,4246]","trial_type":"two-door-navigation","trial_index":15,"time_elapsed":472842,"internal_node_id":"0.0-2.0-13.0"},{"group":"hexagon_bi","room_assignment":["red","blue","green","purple","grey","yellow"],"door_color_assignment":["white","black"],"door_generator_assignment":[1,0],"goal":1,"start":5,"action_noise":0.15,"location_history":"[5,0,5,4,5,0,5,4,5,4,3,4,3,4,3,2,1]","action_history":"[1,0,1,1,0,1,0,1,1,0,0,0,1,1,1,1]","door_history":"[0,1,0,0,1,0,1,0,0,1,1,1,0,0,0,0]","location_rts":"[4066,1761,3529,1129,462,933,2071,897,1791,1395,4076,1119,1056,967,922,3756]","trial_type":"two-door-navigation","trial_index":16,"time_elapsed":522789,"internal_node_id":"0.0-2.0-14.0"},{"group":"hexagon_bi","room_assignment":["red","blue","green","purple","grey","yellow"],"door_color_assignment":["white","black"],"door_generator_assignment":[1,0],"goal":5,"start":1,"action_noise":0.15,"location_history":"[1,2,1,0,1,2,3,2,3,4,5]","action_history":"[0,1,1,1,0,0,1,1,0,1]","door_history":"[1,0,0,0,1,1,0,0,1,0]","location_rts":"[2732,1344,1555,2597,1265,1957,963,504,1253,402]","trial_type":"two-door-navigation","trial_index":17,"time_elapsed":551169,"internal_node_id":"0.0-2.0-15.0"},{"group":"hexagon_bi","room_assignment":["red","blue","green","purple","grey","yellow"],"door_color_assignment":["white","black"],"door_generator_assignment":[1,0],"goal":3,"start":5,"action_noise":0.15,"location_history":"[5,0,1,0,5,4,5,0,5,4,3]","action_history":"[0,1,1,0,1,1,0,0,1,0]","door_history":"[1,0,0,1,0,0,1,1,0,1]","location_rts":"[1829,433,594,966,1088,1329,1444,1914,627,1254]","trial_type":"two-door-navigation","trial_index":18,"time_elapsed":576408,"internal_node_id":"0.0-2.0-16.0"},{"group":"hexagon_bi","room_assignment":["red","blue","green","purple","grey","yellow"],"door_color_assignment":["white","black"],"door_generator_assignment":[1,0],"goal":2,"start":3,"action_noise":0.15,"location_history":"[3,2]","action_history":"[0]","door_history":"[1]","location_rts":"[1979]","trial_type":"two-door-navigation","trial_index":19,"time_elapsed":582963,"internal_node_id":"0.0-2.0-17.0"},{"group":"hexagon_bi","room_assignment":["red","blue","green","purple","grey","yellow"],"door_color_assignment":["white","black"],"door_generator_assignment":[1,0],"goal":1,"start":2,"action_noise":0.15,"location_history":"[2,3,2,1]","action_history":"[1,1,0]","door_history":"[0,0,1]","location_rts":"[5979,2370,470]","trial_type":"two-door-navigation","trial_index":20,"time_elapsed":598393,"internal_node_id":"0.0-2.0-18.0"},{"group":"hexagon_bi","room_assignment":["red","blue","green","purple","grey","yellow"],"door_color_assignment":["white","black"],"door_generator_assignment":[1,0],"goal":4,"start":1,"action_noise":0.15,"location_history":"[1,2,3,4]","action_history":"[0,1,0]","door_history":"[1,0,1]","location_rts":"[3348,708,1990]","trial_type":"two-door-navigation","trial_index":21,"time_elapsed":611080,"internal_node_id":"0.0-2.0-19.0"},{"group":"hexagon_bi","room_assignment":["red","blue","green","purple","grey","yellow"],"door_color_assignment":["white","black"],"door_generator_assignment":[1,0],"goal":0,"start":4,"action_noise":0.15,"location_history":"[4,3,4,3,2,3,4,3,4,5,4,3,4,3,2,1,2,1,0]","action_history":"[1,0,0,1,1,0,0,0,1,1,0,0,0,1,1,0,0,1]","door_history":"[0,1,1,0,0,1,1,1,0,0,1,1,1,0,0,1,1,0]","location_rts":"[3409,4696,2398,1335,2066,2213,1163,1243,1020,609,2753,1152,2458,616,1776,6825,2113,796]","trial_type":"two-door-navigation","trial_index":22,"time_elapsed":671771,"internal_node_id":"0.0-2.0-20.0"},{"group":"hexagon_bi","room_assignment":["red","blue","green","purple","grey","yellow"],"door_color_assignment":["white","black"],"door_generator_assignment":[1,0],"goal":3,"start":0,"action_noise":0.15,"location_history":"[0,5,4,5,4,3]","action_history":"[0,0,1,1,0]","door_history":"[1,1,0,0,1]","location_rts":"[2989,3947,2901,1472,650]","trial_type":"two-door-navigation","trial_index":23,"time_elapsed":692384,"internal_node_id":"0.0-2.0-21.0"},{"group":"hexagon_bi","room_assignment":["red","blue","green","purple","grey","yellow"],"door_color_assignment":["white","black"],"door_generator_assignment":[1,0],"goal":1,"start":3,"action_noise":0.15,"location_history":"[3,2,1]","action_history":"[1,0]","door_history":"[0,1]","location_rts":"[4073,3743]","trial_type":"two-door-navigation","trial_index":24,"time_elapsed":705750,"internal_node_id":"0.0-2.0-22.0"},{"group":"hexagon_bi","room_assignment":["red","blue","green","purple","grey","yellow"],"door_color_assignment":["white","black"],"door_generator_assignment":[1,0],"goal":0,"start":1,"action_noise":0.15,"location_history":"[1,0]","action_history":"[1]","door_history":"[0]","location_rts":"[7462]","trial_type":"two-door-navigation","trial_index":25,"time_elapsed":717744,"internal_node_id":"0.0-2.0-23.0"},{"group":"hexagon_bi","room_assignment":["red","blue","green","purple","grey","yellow"],"door_color_assignment":["white","black"],"door_generator_assignment":[1,0],"goal":2,"start":0,"action_noise":0.15,"location_history":"[0,1,2]","action_history":"[1,0]","door_history":"[0,1]","location_rts":"[3290,3595]","trial_type":"two-door-navigation","trial_index":26,"time_elapsed":730174,"internal_node_id":"0.0-2.0-24.0"},{"group":"hexagon_bi","room_assignment":["red","blue","green","purple","grey","yellow"],"door_color_assignment":["white","black"],"door_generator_assignment":[1,0],"goal":4,"start":2,"action_noise":0.15,"location_history":"[2,3,4]","action_history":"[1,0]","door_history":"[0,1]","location_rts":"[4119,4403]","trial_type":"two-door-navigation","trial_index":27,"time_elapsed":744285,"internal_node_id":"0.0-2.0-25.0"},{"group":"hexagon_bi","room_assignment":["red","blue","green","purple","grey","yellow"],"door_color_assignment":["white","black"],"door_generator_assignment":[1,0],"goal":5,"start":4,"action_noise":0.15,"location_history":"[4,5]","action_history":"[1]","door_history":"[0]","location_rts":"[2518]","trial_type":"two-door-navigation","trial_index":28,"time_elapsed":751333,"internal_node_id":"0.0-2.0-26.0"},{"group":"hexagon_bi","room_assignment":["red","blue","green","purple","grey","yellow"],"door_color_assignment":["white","black"],"door_generator_assignment":[1,0],"goal":2,"start":5,"action_noise":0.15,"location_history":"[5,4,3,4,5,0,1,2]","action_history":"[1,0,0,1,0,1,0]","door_history":"[0,1,1,0,1,0,1]","location_rts":"[4167,2813,6046,1473,2653,2640,2967]","trial_type":"two-door-navigation","trial_index":29,"time_elapsed":784873,"internal_node_id":"0.0-2.0-27.0"},{"group":"hexagon_bi","room_assignment":["red","blue","green","purple","grey","yellow"],"door_color_assignment":["white","black"],"door_generator_assignment":[1,0],"goal":3,"start":2,"action_noise":0.15,"location_history":"[2,1,2,3]","action_history":"[1,0,1]","door_history":"[0,1,0]","location_rts":"[2455,3288,4632]","trial_type":"two-door-navigation","trial_index":30,"time_elapsed":801944,"internal_node_id":"0.0-2.0-28.0"},{"group":"hexagon_bi","room_assignment":["red","blue","green","purple","grey","yellow"],"door_color_assignment":["white","black"],"door_generator_assignment":[1,0],"goal":1,"start":3,"action_noise":0.15,"location_history":"[3,2,3,2,3,4,5,4,3,2,1]","action_history":"[1,1,1,0,0,1,1,0,1,0]","door_history":"[0,0,0,1,1,0,0,1,0,1]","location_rts":"[15935,4337,2084,491,3524,2857,5957,2329,893,8710]","trial_type":"two-door-navigation","trial_index":31,"time_elapsed":862938,"internal_node_id":"0.0-2.0-29.0"},{"group":"hexagon_bi","room_assignment":["red","blue","green","purple","grey","yellow"],"door_color_assignment":["white","black"],"door_generator_assignment":[1,0],"goal":4,"start":1,"action_noise":0.15,"location_history":"[1,0,5,4]","action_history":"[1,1,0]","door_history":"[0,0,1]","location_rts":"[7248,5684,2965]","trial_type":"two-door-navigation","trial_index":32,"time_elapsed":885418,"internal_node_id":"0.0-2.0-30.0"},{"group":"hexagon_bi","room_assignment":["red","blue","green","purple","grey","yellow"],"door_color_assignment":["white","black"],"door_generator_assignment":[1,0],"goal":5,"start":4,"action_noise":0.15,"location_history":"[4,5]","action_history":"[1]","door_history":"[0]","location_rts":"[3502]","trial_type":"two-door-navigation","trial_index":33,"time_elapsed":893445,"internal_node_id":"0.0-2.0-31.0"},{"group":"hexagon_bi","room_assignment":["red","blue","green","purple","grey","yellow"],"door_color_assignment":["white","black"],"door_generator_assignment":[1,0],"goal":0,"start":5,"action_noise":0.15,"location_history":"[5,0]","action_history":"[0]","door_history":"[1]","location_rts":"[11517]","trial_type":"two-door-navigation","trial_index":34,"time_elapsed":909487,"internal_node_id":"0.0-2.0-32.0"},{"group":"hexagon_bi","room_assignment":["red","blue","green","purple","grey","yellow"],"door_color_assignment":["white","black"],"door_generator_assignment":[1,0],"goal":2,"start":0,"action_noise":0.15,"location_history":"[0,5,4,5,4,3,2]","action_history":"[0,1,1,1,0,1]","door_history":"[1,0,0,0,1,0]","location_rts":"[5407,2946,1604,1995,1694,5208]","trial_type":"two-door-navigation","trial_index":35,"time_elapsed":938096,"internal_node_id":"0.0-2.0-33.0"},{"group":"hexagon_bi","room_assignment":["red","blue","green","purple","grey","yellow"],"door_color_assignment":["white","black"],"door_generator_assignment":[1,0],"goal":0,"start":2,"action_noise":0.15,"location_history":"[2,1,0]","action_history":"[0,1]","door_history":"[1,0]","location_rts":"[3545,2522]","trial_type":"two-door-navigation","trial_index":36,"time_elapsed":949713,"internal_node_id":"0.0-2.0-34.0"},{"group":"hexagon_bi","room_assignment":["red","blue","green","purple","grey","yellow"],"door_color_assignment":["white","black"],"door_generator_assignment":[1,0],"goal":5,"start":0,"action_noise":0.15,"location_history":"[0,1,2,1,0,1,2,1,2,3,2,1,2,1,0,5]","action_history":"[1,0,0,1,1,0,0,0,1,1,0,0,1,1,0]","door_history":"[0,1,1,0,0,1,1,1,0,0,1,1,0,0,1]","location_rts":"[5640,5121,4494,2328,4497,1236,511,1656,2440,2333,3778,2987,467,413,683]","trial_type":"two-door-navigation","trial_index":37,"time_elapsed":1007292,"internal_node_id":"0.0-2.0-35.0"},{"group":"hexagon_bi","room_assignment":["red","blue","green","purple","grey","yellow"],"door_color_assignment":["white","black"],"door_generator_assignment":[1,0],"goal":1,"start":5,"action_noise":0.15,"location_history":"[5,4,3,2,3,4,5,4,5,0,1]","action_history":"[1,0,1,1,0,1,1,1,0,0]","door_history":"[0,1,0,0,1,0,0,0,1,1]","location_rts":"[5867,4226,2748,4491,1756,1342,509,857,1877,3534]","trial_type":"two-door-navigation","trial_index":38,"time_elapsed":1048334,"internal_node_id":"0.0-2.0-36.0"},{"group":"hexagon_bi","room_assignment":["red","blue","green","purple","grey","yellow"],"door_color_assignment":["white","black"],"door_generator_assignment":[1,0],"goal":4,"start":1,"action_noise":0.15,"location_history":"[1,0,1,2,1,0,1,0,5,4]","action_history":"[1,1,0,0,1,1,1,0,1]","door_history":"[0,0,1,1,0,0,0,1,0]","location_rts":"[6438,5838,4743,5534,1641,1939,632,3738,3221]","trial_type":"two-door-navigation","trial_index":39,"time_elapsed":1094850,"internal_node_id":"0.0-2.0-37.0"},{"group":"hexagon_bi","room_assignment":["red","blue","green","purple","grey","yellow"],"door_color_assignment":["white","black"],"door_generator_assignment":[1,0],"goal":3,"start":4,"action_noise":0.15,"location_history":"[4,3]","action_history":"[0]","door_history":"[1]","location_rts":"[3489]","trial_type":"two-door-navigation","trial_index":40,"time_elapsed":1102864,"internal_node_id":"0.0-2.0-38.0"},{"group":"hexagon_bi","room_assignment":["red","blue","green","purple","grey","yellow"],"door_color_assignment":["white","black"],"door_generator_assignment":[1,0],"goal":5,"start":3,"action_noise":0.15,"location_history":"[3,2,1,0,1,2,1,2,3,2,1,0,1,2,3,2,3,2,3,4,3,2,3,2,1,0,5]","action_history":"[1,0,1,1,0,0,0,1,1,0,1,0,0,1,1,1,1,1,0,1,1,1,1,0,1,0]","door_history":"[0,1,0,0,1,1,1,0,0,1,0,1,1,0,0,0,0,0,1,0,0,0,0,1,0,1]","location_rts":"[4908,2573,1037,1737,806,576,3178,1815,2738,1902,2318,2993,1735,1059,395,912,646,1002,826,1241,1630,3573,1485,13834,1439,1496]","trial_type":"two-door-navigation","trial_index":41,"time_elapsed":1191095,"internal_node_id":"0.0-2.0-39.0"},{"group":"hexagon_bi","room_assignment":["red","blue","green","purple","grey","yellow"],"door_color_assignment":["white","black"],"door_generator_assignment":[1,0],"goal":1,"start":5,"action_noise":0.15,"location_history":"[5,0,1]","action_history":"[0,1]","door_history":"[1,0]","location_rts":"[2699,2679]","trial_type":"two-door-navigation","trial_index":42,"time_elapsed":1202027,"internal_node_id":"0.0-2.0-40.0"},{"group":"hexagon_bi","room_assignment":["red","blue","green","purple","grey","yellow"],"door_color_assignment":["white","black"],"door_generator_assignment":[1,0],"goal":2,"start":1,"action_noise":0.15,"location_history":"[1,0,5,4,5,0,1,0,1,2]","action_history":"[0,0,1,1,0,1,1,1,0]","door_history":"[1,1,0,0,1,0,0,0,1]","location_rts":"[5951,1923,1852,2077,2420,2072,1641,1478,1190]","trial_type":"two-door-navigation","trial_index":43,"time_elapsed":1235407,"internal_node_id":"0.0-2.0-41.0"},{"group":"hexagon_bi","room_assignment":["red","blue","green","purple","grey","yellow"],"door_color_assignment":["white","black"],"door_generator_assignment":[1,0],"goal":4,"start":2,"action_noise":0.15,"location_history":"[2,3,2,1,2,3,2,3,4]","action_history":"[1,0,0,1,1,1,1,0]","door_history":"[0,1,1,0,0,0,0,1]","location_rts":"[6883,2235,6755,1369,880,796,3556,3581]","trial_type":"two-door-navigation","trial_index":44,"time_elapsed":1273272,"internal_node_id":"0.0-2.0-42.0"},{"group":"hexagon_bi","room_assignment":["red","blue","green","purple","grey","yellow"],"door_color_assignment":["white","black"],"door_generator_assignment":[1,0],"goal":0,"start":4,"action_noise":0.15,"location_history":"[4,3,2,1,0]","action_history":"[1,1,0,1]","door_history":"[0,0,1,0]","location_rts":"[8418,2477,2093,2971]","trial_type":"two-door-navigation","trial_index":45,"time_elapsed":1296833,"internal_node_id":"0.0-2.0-43.0"},{"group":"hexagon_bi","room_assignment":["red","blue","green","purple","grey","yellow"],"door_color_assignment":["white","black"],"door_generator_assignment":[1,0],"goal":3,"start":0,"action_noise":0.15,"location_history":"[0,1,2,1,2,3]","action_history":"[1,0,0,1,1]","door_history":"[0,1,1,0,0]","location_rts":"[3622,1249,711,1011,767]","trial_type":"two-door-navigation","trial_index":46,"time_elapsed":1312869,"internal_node_id":"0.0-2.0-44.0"},{"group":"hexagon_bi","room_assignment":["red","blue","green","purple","grey","yellow"],"door_color_assignment":["white","black"],"door_generator_assignment":[1,0],"goal":0,"start":3,"action_noise":0.15,"location_history":"[3,4,3,2,1,2,1,0]","action_history":"[0,0,1,0,0,0,1]","door_history":"[1,1,0,1,1,1,0]","location_rts":"[1913,2951,782,3270,4736,1717,641]","trial_type":"two-door-navigation","trial_index":47,"time_elapsed":1339585,"internal_node_id":"0.0-2.0-45.0"},{"group":"hexagon_bi","room_assignment":["red","blue","green","purple","grey","yellow"],"door_color_assignment":["white","black"],"door_generator_assignment":[1,0],"goal":4,"start":0,"action_noise":0.15,"location_history":"[0,5,0,5,4]","action_history":"[1,0,0,1]","door_history":"[0,1,1,0]","location_rts":"[8536,5329,1202,1234]","trial_type":"two-door-navigation","trial_index":48,"time_elapsed":1363486,"internal_node_id":"0.0-2.0-46.0"},{"group":"hexagon_bi","room_assignment":["red","blue","green","purple","grey","yellow"],"door_color_assignment":["white","black"],"door_generator_assignment":[1,0],"goal":5,"start":4,"action_noise":0.15,"location_history":"[4,5]","action_history":"[1]","door_history":"[0]","location_rts":"[2085]","trial_type":"two-door-navigation","trial_index":49,"time_elapsed":1370103,"internal_node_id":"0.0-2.0-47.0"},{"group":"hexagon_bi","room_assignment":["red","blue","green","purple","grey","yellow"],"door_color_assignment":["white","black"],"door_generator_assignment":[1,0],"goal":2,"start":5,"action_noise":0.15,"location_history":"[5,0,1,0,5,0,5,4,5,4,3,2]","action_history":"[0,0,1,0,0,0,1,1,1,1,0]","door_history":"[1,1,0,1,1,1,0,0,0,0,1]","location_rts":"[3299,3805,3246,1375,991,1779,1114,887,1161,958,3542]","trial_type":"two-door-navigation","trial_index":50,"time_elapsed":1407124,"internal_node_id":"0.0-2.0-48.0"},{"group":"hexagon_bi","room_assignment":["red","blue","green","purple","grey","yellow"],"door_color_assignment":["white","black"],"door_generator_assignment":[1,0],"goal":1,"start":2,"action_noise":0.15,"location_history":"[2,1]","action_history":"[0]","door_history":"[1]","location_rts":"[11054]","trial_type":"two-door-navigation","trial_index":51,"time_elapsed":1422711,"internal_node_id":"0.0-2.0-49.0"},{"view_history":"[{\"page_index\":0,\"viewing_time\":2287}]","rt":2287,"trial_type":"instructions","trial_index":52,"time_elapsed":1425999,"internal_node_id":"0.0-3.0"},{"view_history":"[{\"page_index\":0,\"viewing_time\":10307},{\"page_index\":1,\"viewing_time\":6359}]","rt":16666,"trial_type":"instructions","trial_index":53,"time_elapsed":1443666,"internal_node_id":"0.0-4.0"},{"group":"hexagon_tri","fractal_assignment":["../images/cyn_red.png","../images/org_blu.png","../images/ylw_slt.png","../images/pnk_blu.png","../images/gry_blk.png","../images/blu_wht.png"],"mutagen_generator_assignment":[0,1],"goal":2,"start":1,"action_noise":0.15,"location_history":"[1,5,4,0,1,5,4,2]","action_history":"[1,0,0,1,1,0,1]","mutagen_history":"[1,0,0,1,1,0,1]","location_rts":"[5258,1596,2450,913,515,1625,904]","trial_type":"fractal-mutation","trial_index":54,"time_elapsed":1467808,"internal_node_id":"0.0-5.0-0.0"},{"group":"hexagon_tri","fractal_assignment":["../images/cyn_red.png","../images/org_blu.png","../images/ylw_slt.png","../images/pnk_blu.png","../images/gry_blk.png","../images/blu_wht.png"],"mutagen_generator_assignment":[0,1],"goal":0,"start":2,"action_noise":0.15,"location_history":"[2,3,4,2,3,2,3,4,2,3,2,1,3,4,2,3,2,1,3,2,3,2,3,2,3,4,0]","action_history":"[0,1,1,0,0,0,1,1,1,0,0,0,1,1,1,0,0,0,0,1,1,1,0,1,1,0]","mutagen_history":"[0,1,1,0,0,0,1,1,1,0,0,0,1,1,1,0,0,0,0,1,1,1,0,1,1,0]","location_rts":"[5041,1240,771,559,738,709,708,1023,711,1226,182,444,468,459,501,451,1297,4796,1585,980,701,427,490,1012,472,307]","trial_type":"fractal-mutation","trial_index":55,"time_elapsed":1525864,"internal_node_id":"0.0-5.0-1.0"},{"group":"hexagon_tri","fractal_assignment":["../images/cyn_red.png","../images/org_blu.png","../images/ylw_slt.png","../images/pnk_blu.png","../images/gry_blk.png","../images/blu_wht.png"],"mutagen_generator_assignment":[0,1],"goal":5,"start":0,"action_noise":0.15,"location_history":"[0,1,3,4,2,3,4,0,1,3,2,3,4,0,5]","action_history":"[1,0,0,1,1,1,1,1,0,0,1,1,0,0]","mutagen_history":"[1,0,0,1,1,1,1,1,0,0,1,1,0,0]","location_rts":"[2642,2107,2037,714,602,908,2071,1005,987,641,423,418,374,348]","trial_type":"fractal-mutation","trial_index":56,"time_elapsed":1559399,"internal_node_id":"0.0-5.0-2.0"},{"group":"hexagon_tri","fractal_assignment":["../images/cyn_red.png","../images/org_blu.png","../images/ylw_slt.png","../images/pnk_blu.png","../images/gry_blk.png","../images/blu_wht.png"],"mutagen_generator_assignment":[0,1],"goal":1,"start":5,"action_noise":0.15,"location_history":"[5,0,1]","action_history":"[1,1]","mutagen_history":"[1,1]","location_rts":"[1875,991]","trial_type":"fractal-mutation","trial_index":57,"time_elapsed":1567874,"internal_node_id":"0.0-5.0-3.0"},{"group":"hexagon_tri","fractal_assignment":["../images/cyn_red.png","../images/org_blu.png","../images/ylw_slt.png","../images/pnk_blu.png","../images/gry_blk.png","../images/blu_wht.png"],"mutagen_generator_assignment":[0,1],"goal":3,"start":1,"action_noise":0.15,"location_history":"[1,3]","action_history":"[0]","mutagen_history":"[0]","location_rts":"[1794]","trial_type":"fractal-mutation","trial_index":58,"time_elapsed":1574289,"internal_node_id":"0.0-5.0-4.0"},{"group":"hexagon_tri","fractal_assignment":["../images/cyn_red.png","../images/org_blu.png","../images/ylw_slt.png","../images/pnk_blu.png","../images/gry_blk.png","../images/blu_wht.png"],"mutagen_generator_assignment":[0,1],"goal":5,"start":3,"action_noise":0.15,"location_history":"[3,4,2,1,5]","action_history":"[1,0,0,1]","mutagen_history":"[1,0,0,1]","location_rts":"[4364,735,770,878]","trial_type":"fractal-mutation","trial_index":59,"time_elapsed":1588715,"internal_node_id":"0.0-5.0-5.0"},{"group":"hexagon_tri","fractal_assignment":["../images/cyn_red.png","../images/org_blu.png","../images/ylw_slt.png","../images/pnk_blu.png","../images/gry_blk.png","../images/blu_wht.png"],"mutagen_generator_assignment":[0,1],"goal":4,"start":5,"action_noise":0.15,"location_history":"[5,0,5,4]","action_history":"[1,0,0]","mutagen_history":"[1,0,0]","location_rts":"[1373,893,1216]","trial_type":"fractal-mutation","trial_index":60,"time_elapsed":1598855,"internal_node_id":"0.0-5.0-6.0"},{"group":"hexagon_tri","fractal_assignment":["../images/cyn_red.png","../images/org_blu.png","../images/ylw_slt.png","../images/pnk_blu.png","../images/gry_blk.png","../images/blu_wht.png"],"mutagen_generator_assignment":[0,1],"goal":0,"start":4,"action_noise":0.15,"location_history":"[4,0]","action_history":"[1]","mutagen_history":"[1]","location_rts":"[1936]","trial_type":"fractal-mutation","trial_index":61,"time_elapsed":1605392,"internal_node_id":"0.0-5.0-7.0"},{"group":"hexagon_tri","fractal_assignment":["../images/cyn_red.png","../images/org_blu.png","../images/ylw_slt.png","../images/pnk_blu.png","../images/gry_blk.png","../images/blu_wht.png"],"mutagen_generator_assignment":[0,1],"goal":2,"start":0,"action_noise":0.15,"location_history":"[0,5,4,2]","action_history":"[0,0,1]","mutagen_history":"[0,0,1]","location_rts":"[2090,2081,796]","trial_type":"fractal-mutation","trial_index":62,"time_elapsed":1616980,"internal_node_id":"0.0-5.0-8.0"},{"group":"hexagon_tri","fractal_assignment":["../images/cyn_red.png","../images/org_blu.png","../images/ylw_slt.png","../images/pnk_blu.png","../images/gry_blk.png","../images/blu_wht.png"],"mutagen_generator_assignment":[0,1],"goal":4,"start":2,"action_noise":0.15,"location_history":"[2,1,3,2,1,3,2,1,5,0,1,3,2,1,5,0,1,5,4]","action_history":"[0,1,1,1,0,0,0,0,1,1,0,0,0,1,1,1,1,0]","mutagen_history":"[0,1,1,1,0,0,0,0,1,1,0,0,0,1,1,1,1,0]","location_rts":"[3424,823,938,769,951,790,689,622,981,1212,873,807,1067,448,416,523,654,753]","trial_type":"fractal-mutation","trial_index":63,"time_elapsed":1656256,"internal_node_id":"0.0-5.0-9.0"},{"group":"hexagon_tri","fractal_assignment":["../images/cyn_red.png","../images/org_blu.png","../images/ylw_slt.png","../images/pnk_blu.png","../images/gry_blk.png","../images/blu_wht.png"],"mutagen_generator_assignment":[0,1],"goal":2,"start":4,"action_noise":0.15,"location_history":"[4,2]","action_history":"[1]","mutagen_history":"[1]","location_rts":"[5687]","trial_type":"fractal-mutation","trial_index":64,"time_elapsed":1666504,"internal_node_id":"0.0-5.0-10.0"},{"group":"hexagon_tri","fractal_assignment":["../images/cyn_red.png","../images/org_blu.png","../images/ylw_slt.png","../images/pnk_blu.png","../images/gry_blk.png","../images/blu_wht.png"],"mutagen_generator_assignment":[0,1],"goal":3,"start":2,"action_noise":0.15,"location_history":"[2,3]","action_history":"[1]","mutagen_history":"[1]","location_rts":"[4632]","trial_type":"fractal-mutation","trial_index":65,"time_elapsed":1675689,"internal_node_id":"0.0-5.0-11.0"},{"group":"hexagon_tri","fractal_assignment":["../images/cyn_red.png","../images/org_blu.png","../images/ylw_slt.png","../images/pnk_blu.png","../images/gry_blk.png","../images/blu_wht.png"],"mutagen_generator_assignment":[0,1],"goal":0,"start":3,"action_noise":0.15,"location_history":"[3,4,0]","action_history":"[1,0]","mutagen_history":"[1,0]","location_rts":"[2727,818]","trial_type":"fractal-mutation","trial_index":66,"time_elapsed":1684828,"internal_node_id":"0.0-5.0-12.0"},{"group":"hexagon_tri","fractal_assignment":["../images/cyn_red.png","../images/org_blu.png","../images/ylw_slt.png","../images/pnk_blu.png","../images/gry_blk.png","../images/blu_wht.png"],"mutagen_generator_assignment":[0,1],"goal":5,"start":0,"action_noise":0.15,"location_history":"[0,5]","action_history":"[0]","mutagen_history":"[0]","location_rts":"[5041]","trial_type":"fractal-mutation","trial_index":67,"time_elapsed":1694411,"internal_node_id":"0.0-5.0-13.0"},{"group":"hexagon_tri","fractal_assignment":["../images/cyn_red.png","../images/org_blu.png","../images/ylw_slt.png","../images/pnk_blu.png","../images/gry_blk.png","../images/blu_wht.png"],"mutagen_generator_assignment":[0,1],"goal":1,"start":5,"action_noise":0.15,"location_history":"[5,4,0,1]","action_history":"[0,0,1]","mutagen_history":"[0,0,1]","location_rts":"[2048,2475,829]","trial_type":"fractal-mutation","trial_index":68,"time_elapsed":1706396,"internal_node_id":"0.0-5.0-14.0"},{"group":"hexagon_tri","fractal_assignment":["../images/cyn_red.png","../images/org_blu.png","../images/ylw_slt.png","../images/pnk_blu.png","../images/gry_blk.png","../images/blu_wht.png"],"mutagen_generator_assignment":[0,1],"goal":5,"start":1,"action_noise":0.15,"location_history":"[1,3,4,2,1,3,2,3,4,0,1,5]","action_history":"[0,1,1,0,0,0,0,1,0,0,1]","mutagen_history":"[0,1,1,0,0,0,0,1,0,0,1]","location_rts":"[6025,1681,995,711,831,1715,1726,395,1693,3895,2071]","trial_type":"fractal-mutation","trial_index":69,"time_elapsed":1743150,"internal_node_id":"0.0-5.0-15.0"},{"group":"hexagon_tri","fractal_assignment":["../images/cyn_red.png","../images/org_blu.png","../images/ylw_slt.png","../images/pnk_blu.png","../images/gry_blk.png","../images/blu_wht.png"],"mutagen_generator_assignment":[0,1],"goal":3,"start":5,"action_noise":0.15,"location_history":"[5,0,5,4,2,1,5,4,0,5,4,0,1,3]","action_history":"[1,0,0,1,0,1,0,0,0,0,0,1,0]","mutagen_history":"[1,0,0,1,0,1,0,0,0,0,0,1,0]","location_rts":"[4086,2445,1012,2825,1615,1780,1526,971,1008,1243,1070,1052,1628]","trial_type":"fractal-mutation","trial_index":70,"time_elapsed":1782571,"internal_node_id":"0.0-5.0-16.0"},{"group":"hexagon_tri","fractal_assignment":["../images/cyn_red.png","../images/org_blu.png","../images/ylw_slt.png","../images/pnk_blu.png","../images/gry_blk.png","../images/blu_wht.png"],"mutagen_generator_assignment":[0,1],"goal":2,"start":3,"action_noise":0.15,"location_history":"[3,4,0,5,0,1,5,0,1,3,2]","action_history":"[1,0,0,1,1,0,1,1,0,0]","mutagen_history":"[1,0,0,1,1,0,1,1,0,0]","location_rts":"[2272,605,450,842,3415,1290,1423,1436,562,1668]","trial_type":"fractal-mutation","trial_index":71,"time_elapsed":1810590,"internal_node_id":"0.0-5.0-17.0"},{"group":"hexagon_tri","fractal_assignment":["../images/cyn_red.png","../images/org_blu.png","../images/ylw_slt.png","../images/pnk_blu.png","../images/gry_blk.png","../images/blu_wht.png"],"mutagen_generator_assignment":[0,1],"goal":1,"start":2,"action_noise":0.15,"location_history":"[2,1]","action_history":"[0]","mutagen_history":"[0]","location_rts":"[3193]","trial_type":"fractal-mutation","trial_index":72,"time_elapsed":1818324,"internal_node_id":"0.0-5.0-18.0"},{"group":"hexagon_tri","fractal_assignment":["../images/cyn_red.png","../images/org_blu.png","../images/ylw_slt.png","../images/pnk_blu.png","../images/gry_blk.png","../images/blu_wht.png"],"mutagen_generator_assignment":[0,1],"goal":4,"start":1,"action_noise":0.15,"location_history":"[1,3,2,3,4]","action_history":"[0,1,1,1]","mutagen_history":"[0,1,1,1]","location_rts":"[3140,1184,2419,846]","trial_type":"fractal-mutation","trial_index":73,"time_elapsed":1833578,"internal_node_id":"0.0-5.0-19.0"},{"group":"hexagon_tri","fractal_assignment":["../images/cyn_red.png","../images/org_blu.png","../images/ylw_slt.png","../images/pnk_blu.png","../images/gry_blk.png","../images/blu_wht.png"],"mutagen_generator_assignment":[0,1],"goal":0,"start":4,"action_noise":0.15,"location_history":"[4,2,1,3,4,2,3,4,0]","action_history":"[1,0,0,1,1,1,1,1]","mutagen_history":"[1,0,0,1,1,1,1,1]","location_rts":"[8677,2280,2697,994,712,602,615,820]","trial_type":"fractal-mutation","trial_index":74,"time_elapsed":1862894,"internal_node_id":"0.0-5.0-20.0"},{"group":"hexagon_tri","fractal_assignment":["../images/cyn_red.png","../images/org_blu.png","../images/ylw_slt.png","../images/pnk_blu.png","../images/gry_blk.png","../images/blu_wht.png"],"mutagen_generator_assignment":[0,1],"goal":3,"start":0,"action_noise":0.15,"location_history":"[0,5,0,1,3]","action_history":"[1,1,1,1]","mutagen_history":"[1,1,1,1]","location_rts":"[4809,3391,780,916]","trial_type":"fractal-mutation","trial_index":75,"time_elapsed":1880501,"internal_node_id":"0.0-5.0-21.0"},{"group":"hexagon_tri","fractal_assignment":["../images/cyn_red.png","../images/org_blu.png","../images/ylw_slt.png","../images/pnk_blu.png","../images/gry_blk.png","../images/blu_wht.png"],"mutagen_generator_assignment":[0,1],"goal":1,"start":3,"action_noise":0.15,"location_history":"[3,4,2,1]","action_history":"[1,1,0]","mutagen_history":"[1,1,0]","location_rts":"[5556,1996,1079]","trial_type":"fractal-mutation","trial_index":76,"time_elapsed":1895770,"internal_node_id":"0.0-5.0-22.0"},{"group":"hexagon_tri","fractal_assignment":["../images/cyn_red.png","../images/org_blu.png","../images/ylw_slt.png","../images/pnk_blu.png","../images/gry_blk.png","../images/blu_wht.png"],"mutagen_generator_assignment":[0,1],"goal":0,"start":1,"action_noise":0.15,"location_history":"[1,5,4,2,3,2,3,2,3,2,1,5,4,2,3,2,1,3,2,1,3,2,3,2,1,5,0]","action_history":"[1,0,1,1,0,1,1,1,0,0,1,0,1,1,0,0,1,1,0,0,0,1,1,0,1,1]","mutagen_history":"[1,0,1,1,0,1,1,1,0,0,1,0,1,1,0,0,1,1,0,0,0,1,1,0,1,1]","location_rts":"[7492,5091,1052,853,884,951,1783,684,1009,835,1374,1289,1682,992,914,1081,724,547,412,515,613,344,464,429,1031,3544]","trial_type":"fractal-mutation","trial_index":77,"time_elapsed":1963175,"internal_node_id":"0.0-5.0-23.0"},{"group":"hexagon_tri","fractal_assignment":["../images/cyn_red.png","../images/org_blu.png","../images/ylw_slt.png","../images/pnk_blu.png","../images/gry_blk.png","../images/blu_wht.png"],"mutagen_generator_assignment":[0,1],"goal":2,"start":0,"action_noise":0.15,"location_history":"[0,1,3,2]","action_history":"[1,0,0]","mutagen_history":"[1,0,0]","location_rts":"[2684,1129,3353]","trial_type":"fractal-mutation","trial_index":78,"time_elapsed":1976973,"internal_node_id":"0.0-5.0-24.0"},{"group":"hexagon_tri","fractal_assignment":["../images/cyn_red.png","../images/org_blu.png","../images/ylw_slt.png","../images/pnk_blu.png","../images/gry_blk.png","../images/blu_wht.png"],"mutagen_generator_assignment":[0,1],"goal":4,"start":2,"action_noise":0.15,"location_history":"[2,1,3,4]","action_history":"[0,0,1]","mutagen_history":"[0,0,1]","location_rts":"[4282,2361,897]","trial_type":"fractal-mutation","trial_index":79,"time_elapsed":1991271,"internal_node_id":"0.0-5.0-25.0"},{"group":"hexagon_tri","fractal_assignment":["../images/cyn_red.png","../images/org_blu.png","../images/ylw_slt.png","../images/pnk_blu.png","../images/gry_blk.png","../images/blu_wht.png"],"mutagen_generator_assignment":[0,1],"goal":5,"start":4,"action_noise":0.15,"location_history":"[4,2,1,5]","action_history":"[1,0,1]","mutagen_history":"[1,0,1]","location_rts":"[2277,1008,1176]","trial_type":"fractal-mutation","trial_index":80,"time_elapsed":2002371,"internal_node_id":"0.0-5.0-26.0"},{"group":"hexagon_tri","fractal_assignment":["../images/cyn_red.png","../images/org_blu.png","../images/ylw_slt.png","../images/pnk_blu.png","../images/gry_blk.png","../images/blu_wht.png"],"mutagen_generator_assignment":[0,1],"goal":2,"start":5,"action_noise":0.15,"location_history":"[5,4,0,1,5,4,0,5,4,2]","action_history":"[0,0,1,1,0,0,0,0,1]","mutagen_history":"[0,0,1,1,0,0,0,0,1]","location_rts":"[1609,1272,1132,1066,972,1885,1395,4586,823]","trial_type":"fractal-mutation","trial_index":81,"time_elapsed":2030127,"internal_node_id":"0.0-5.0-27.0"},{"group":"hexagon_tri","fractal_assignment":["../images/cyn_red.png","../images/org_blu.png","../images/ylw_slt.png","../images/pnk_blu.png","../images/gry_blk.png","../images/blu_wht.png"],"mutagen_generator_assignment":[0,1],"goal":3,"start":2,"action_noise":0.15,"location_history":"[2,1,5,4,0,5,0,1,3]","action_history":"[1,0,0,0,0,1,0,0]","mutagen_history":"[1,0,0,0,0,1,0,0]","location_rts":"[7380,587,4693,2298,1949,4979,826,604]","trial_type":"fractal-mutation","trial_index":82,"time_elapsed":2065326,"internal_node_id":"0.0-5.0-28.0"},{"group":"hexagon_tri","fractal_assignment":["../images/cyn_red.png","../images/org_blu.png","../images/ylw_slt.png","../images/pnk_blu.png","../images/gry_blk.png","../images/blu_wht.png"],"mutagen_generator_assignment":[0,1],"goal":1,"start":3,"action_noise":0.15,"location_history":"[3,2,3,2,3,2,3,4,2,3,4,2,3,2,1]","action_history":"[1,1,0,1,0,0,1,1,0,0,1,1,0,0]","mutagen_history":"[1,1,0,1,0,0,1,1,0,0,1,1,0,0]","location_rts":"[4156,1874,2569,678,1575,318,1775,1755,802,709,275,952,425,387]","trial_type":"fractal-mutation","trial_index":83,"time_elapsed":2101700,"internal_node_id":"0.0-5.0-29.0"},{"group":"hexagon_tri","fractal_assignment":["../images/cyn_red.png","../images/org_blu.png","../images/ylw_slt.png","../images/pnk_blu.png","../images/gry_blk.png","../images/blu_wht.png"],"mutagen_generator_assignment":[0,1],"goal":4,"start":1,"action_noise":0.15,"location_history":"[1,5,4]","action_history":"[1,0]","mutagen_history":"[1,0]","location_rts":"[3924,591]","trial_type":"fractal-mutation","trial_index":84,"time_elapsed":2111811,"internal_node_id":"0.0-5.0-30.0"},{"group":"hexagon_tri","fractal_assignment":["../images/cyn_red.png","../images/org_blu.png","../images/ylw_slt.png","../images/pnk_blu.png","../images/gry_blk.png","../images/blu_wht.png"],"mutagen_generator_assignment":[0,1],"goal":5,"start":4,"action_noise":0.15,"location_history":"[4,0,1,3,2,1,3,2,1,5]","action_history":"[0,0,0,1,0,0,0,0,0]","mutagen_history":"[0,0,0,1,0,0,0,0,0]","location_rts":"[4405,2013,1291,1567,630,1287,1737,1348,645]","trial_type":"fractal-mutation","trial_index":85,"time_elapsed":2139616,"internal_node_id":"0.0-5.0-31.0"},{"group":"hexagon_tri","fractal_assignment":["../images/cyn_red.png","../images/org_blu.png","../images/ylw_slt.png","../images/pnk_blu.png","../images/gry_blk.png","../images/blu_wht.png"],"mutagen_generator_assignment":[0,1],"goal":0,"start":5,"action_noise":0.15,"location_history":"[5,0]","action_history":"[1]","mutagen_history":"[1]","location_rts":"[2182]","trial_type":"fractal-mutation","trial_index":86,"time_elapsed":2146357,"internal_node_id":"0.0-5.0-32.0"},{"group":"hexagon_tri","fractal_assignment":["../images/cyn_red.png","../images/org_blu.png","../images/ylw_slt.png","../images/pnk_blu.png","../images/gry_blk.png","../images/blu_wht.png"],"mutagen_generator_assignment":[0,1],"goal":2,"start":0,"action_noise":0.15,"location_history":"[0,1,3,4,2]","action_history":"[1,0,1,1]","mutagen_history":"[1,0,1,1]","location_rts":"[4223,1493,1330,990]","trial_type":"fractal-mutation","trial_index":87,"time_elapsed":2162094,"internal_node_id":"0.0-5.0-33.0"},{"group":"hexagon_tri","fractal_assignment":["../images/cyn_red.png","../images/org_blu.png","../images/ylw_slt.png","../images/pnk_blu.png","../images/gry_blk.png","../images/blu_wht.png"],"mutagen_generator_assignment":[0,1],"goal":0,"start":2,"action_noise":0.15,"location_history":"[2,1,3,4,0]","action_history":"[0,0,1,0]","mutagen_history":"[0,0,1,0]","location_rts":"[1609,1883,425,965]","trial_type":"fractal-mutation","trial_index":88,"time_elapsed":2174638,"internal_node_id":"0.0-5.0-34.0"},{"group":"hexagon_tri","fractal_assignment":["../images/cyn_red.png","../images/org_blu.png","../images/ylw_slt.png","../images/pnk_blu.png","../images/gry_blk.png","../images/blu_wht.png"],"mutagen_generator_assignment":[0,1],"goal":5,"start":0,"action_noise":0.15,"location_history":"[0,5]","action_history":"[0]","mutagen_history":"[0]","location_rts":"[1723]","trial_type":"fractal-mutation","trial_index":89,"time_elapsed":2180905,"internal_node_id":"0.0-5.0-35.0"},{"group":"hexagon_tri","fractal_assignment":["../images/cyn_red.png","../images/org_blu.png","../images/ylw_slt.png","../images/pnk_blu.png","../images/gry_blk.png","../images/blu_wht.png"],"mutagen_generator_assignment":[0,1],"goal":1,"start":5,"action_noise":0.15,"location_history":"[5,4,0,1]","action_history":"[0,0,1]","mutagen_history":"[0,0,1]","location_rts":"[11990,1473,2888]","trial_type":"fractal-mutation","trial_index":90,"time_elapsed":2203895,"internal_node_id":"0.0-5.0-36.0"},{"group":"hexagon_tri","fractal_assignment":["../images/cyn_red.png","../images/org_blu.png","../images/ylw_slt.png","../images/pnk_blu.png","../images/gry_blk.png","../images/blu_wht.png"],"mutagen_generator_assignment":[0,1],"goal":4,"start":1,"action_noise":0.15,"location_history":"[1,3,4]","action_history":"[0,0]","mutagen_history":"[0,0]","location_rts":"[2975,1792]","trial_type":"fractal-mutation","trial_index":91,"time_elapsed":2214234,"internal_node_id":"0.0-5.0-37.0"},{"group":"hexagon_tri","fractal_assignment":["../images/cyn_red.png","../images/org_blu.png","../images/ylw_slt.png","../images/pnk_blu.png","../images/gry_blk.png","../images/blu_wht.png"],"mutagen_generator_assignment":[0,1],"goal":3,"start":4,"action_noise":0.15,"location_history":"[4,2,1,3]","action_history":"[1,0,0]","mutagen_history":"[1,0,0]","location_rts":"[3044,2169,914]","trial_type":"fractal-mutation","trial_index":92,"time_elapsed":2227001,"internal_node_id":"0.0-5.0-38.0"},{"group":"hexagon_tri","fractal_assignment":["../images/cyn_red.png","../images/org_blu.png","../images/ylw_slt.png","../images/pnk_blu.png","../images/gry_blk.png","../images/blu_wht.png"],"mutagen_generator_assignment":[0,1],"goal":5,"start":3,"action_noise":0.15,"location_history":"[3,4,2,3,2,1,5]","action_history":"[1,1,1,0,0,1]","mutagen_history":"[1,1,1,0,0,1]","location_rts":"[11053,4019,1323,803,1011,595]","trial_type":"fractal-mutation","trial_index":93,"time_elapsed":2255606,"internal_node_id":"0.0-5.0-39.0"},{"group":"hexagon_tri","fractal_assignment":["../images/cyn_red.png","../images/org_blu.png","../images/ylw_slt.png","../images/pnk_blu.png","../images/gry_blk.png","../images/blu_wht.png"],"mutagen_generator_assignment":[0,1],"goal":1,"start":5,"action_noise":0.15,"location_history":"[5,4,0,1]","action_history":"[0,0,1]","mutagen_history":"[0,0,1]","location_rts":"[10204,2666,941]","trial_type":"fractal-mutation","trial_index":94,"time_elapsed":2276044,"internal_node_id":"0.0-5.0-40.0"},{"group":"hexagon_tri","fractal_assignment":["../images/cyn_red.png","../images/org_blu.png","../images/ylw_slt.png","../images/pnk_blu.png","../images/gry_blk.png","../images/blu_wht.png"],"mutagen_generator_assignment":[0,1],"goal":2,"start":1,"action_noise":0.15,"location_history":"[1,5,0,5,0,5,4,2]","action_history":"[1,1,0,0,0,0,1]","mutagen_history":"[1,1,0,0,0,0,1]","location_rts":"[2176,2228,946,897,2362,960,1202]","trial_type":"fractal-mutation","trial_index":95,"time_elapsed":2297636,"internal_node_id":"0.0-5.0-41.0"},{"group":"hexagon_tri","fractal_assignment":["../images/cyn_red.png","../images/org_blu.png","../images/ylw_slt.png","../images/pnk_blu.png","../images/gry_blk.png","../images/blu_wht.png"],"mutagen_generator_assignment":[0,1],"goal":4,"start":2,"action_noise":0.15,"location_history":"[2,3,2,1,3,2,1,3,2,1,5,4]","action_history":"[1,0,0,0,1,0,0,0,0,1,0]","mutagen_history":"[1,0,0,0,1,0,0,0,0,1,0]","location_rts":"[7289,836,657,1317,487,1069,650,581,2759,773,1551]","trial_type":"fractal-mutation","trial_index":96,"time_elapsed":2330557,"internal_node_id":"0.0-5.0-42.0"},{"group":"hexagon_tri","fractal_assignment":["../images/cyn_red.png","../images/org_blu.png","../images/ylw_slt.png","../images/pnk_blu.png","../images/gry_blk.png","../images/blu_wht.png"],"mutagen_generator_assignment":[0,1],"goal":0,"start":4,"action_noise":0.15,"location_history":"[4,2,1,3,2,1,3,4,0]","action_history":"[1,1,0,0,0,1,0,0]","mutagen_history":"[1,1,0,0,0,1,0,0]","location_rts":"[3043,1483,1698,1351,1191,1024,1542,700]","trial_type":"fractal-mutation","trial_index":97,"time_elapsed":2354439,"internal_node_id":"0.0-5.0-43.0"},{"group":"hexagon_tri","fractal_assignment":["../images/cyn_red.png","../images/org_blu.png","../images/ylw_slt.png","../images/pnk_blu.png","../images/gry_blk.png","../images/blu_wht.png"],"mutagen_generator_assignment":[0,1],"goal":3,"start":0,"action_noise":0.15,"location_history":"[0,1,5,0,1,5,0,1,5,4,0,1,5,0,5,4,2,1,5,0,1,3]","action_history":"[1,1,0,1,1,1,1,0,0,0,1,1,1,1,0,1,0,1,1,0,0]","mutagen_history":"[1,1,0,1,1,1,1,0,0,0,1,1,1,1,0,1,0,1,1,0,0]","location_rts":"[5883,2009,2244,1335,1125,750,1619,512,777,1268,1616,750,969,713,1139,817,2339,899,948,914,1751]","trial_type":"fractal-mutation","trial_index":98,"time_elapsed":2410309,"internal_node_id":"0.0-5.0-44.0"},{"group":"hexagon_tri","fractal_assignment":["../images/cyn_red.png","../images/org_blu.png","../images/ylw_slt.png","../images/pnk_blu.png","../images/gry_blk.png","../images/blu_wht.png"],"mutagen_generator_assignment":[0,1],"goal":0,"start":3,"action_noise":0.15,"location_history":"[3,4,2,3,2,1,5,0]","action_history":"[1,1,1,0,0,1,1]","mutagen_history":"[1,1,1,0,0,1,1]","location_rts":"[3878,2776,1007,878,796,1245,2557]","trial_type":"fractal-mutation","trial_index":99,"time_elapsed":2434303,"internal_node_id":"0.0-5.0-45.0"},{"group":"hexagon_tri","fractal_assignment":["../images/cyn_red.png","../images/org_blu.png","../images/ylw_slt.png","../images/pnk_blu.png","../images/gry_blk.png","../images/blu_wht.png"],"mutagen_generator_assignment":[0,1],"goal":4,"start":0,"action_noise":0.15,"location_history":"[0,5,0,1,3,4]","action_history":"[0,1,1,0,0]","mutagen_history":"[0,1,1,0,0]","location_rts":"[3894,1548,853,1211,1432]","trial_type":"fractal-mutation","trial_index":100,"time_elapsed":2451956,"internal_node_id":"0.0-5.0-46.0"},{"group":"hexagon_tri","fractal_assignment":["../images/cyn_red.png","../images/org_blu.png","../images/ylw_slt.png","../images/pnk_blu.png","../images/gry_blk.png","../images/blu_wht.png"],"mutagen_generator_assignment":[0,1],"goal":5,"start":4,"action_noise":0.15,"location_history":"[4,0,1,3,4,2,1,3,2,3,2,1,5]","action_history":"[0,0,0,1,1,0,0,0,1,0,0,1]","mutagen_history":"[0,0,0,1,1,0,0,0,1,0,0,1]","location_rts":"[2074,1457,1310,1508,2244,810,1045,1026,1226,1652,1482,1413]","trial_type":"fractal-mutation","trial_index":101,"time_elapsed":2485244,"internal_node_id":"0.0-5.0-47.0"},{"group":"hexagon_tri","fractal_assignment":["../images/cyn_red.png","../images/org_blu.png","../images/ylw_slt.png","../images/pnk_blu.png","../images/gry_blk.png","../images/blu_wht.png"],"mutagen_generator_assignment":[0,1],"goal":2,"start":5,"action_noise":0.15,"location_history":"[5,4,2]","action_history":"[0,1]","mutagen_history":"[0,1]","location_rts":"[4663,1548]","trial_type":"fractal-mutation","trial_index":102,"time_elapsed":2497044,"internal_node_id":"0.0-5.0-48.0"},{"group":"hexagon_tri","fractal_assignment":["../images/cyn_red.png","../images/org_blu.png","../images/ylw_slt.png","../images/pnk_blu.png","../images/gry_blk.png","../images/blu_wht.png"],"mutagen_generator_assignment":[0,1],"goal":1,"start":2,"action_noise":0.15,"location_history":"[2,1]","action_history":"[0]","mutagen_history":"[0]","location_rts":"[11627]","trial_type":"fractal-mutation","trial_index":103,"time_elapsed":2513212,"internal_node_id":"0.0-5.0-49.0"},{"view_history":"[{\"page_index\":0,\"viewing_time\":10847}]","rt":10848,"trial_type":"instructions","trial_index":104,"time_elapsed":2525062,"internal_node_id":"0.0-6.0"},{"rt":242749,"responses":"{\"Q0\":\"Well, both experiments are generally similar, in the sense that the patterns frequently change. That said, for me anyway, using the graphics involved, was to actually succeed in visualizing what I was doing as spatial, rather than ever-moving target pattern. When I could imagine I was actually moving through rooms (that changed position), I was better able to navigate than when I just saw screens of changing color with the same two doors.\"}","trial_type":"survey-text","trial_index":105,"time_elapsed":2768816,"internal_node_id":"0.0-7.0-0.0"},{"rt":103292,"responses":"{\"Q0\":\"As I mentioned previously, this one seemed (a little) easier. But as I mentioned yesterday, this felt like an exercise of creating pattern keys so as to get to the desired destination. I'm tired today, so I don't think I did as well, but I hope my participation was still useful.\"}","trial_type":"survey-text","trial_index":106,"time_elapsed":2873111,"internal_node_id":"0.0-7.0-1.0"},{"rt":34247,"responses":"{\"Q0\":\"<img src='../images/diagrams/hexagon_tri.png'>\"}","trial_type":"survey-multi-choice","trial_index":107,"time_elapsed":2908368,"internal_node_id":"0.0-7.0-2.0"},{"rt":35582,"assignments":["../images/cyn_red.png","../images/org_blu.png","../images/pnk_blu.png","../images/gry_blk.png","../images/ylw_slt.png","../images/blu_wht.png"],"trial_type":"drag-drop-on-image","trial_index":108,"time_elapsed":2944956,"internal_node_id":"0.0-7.0-3.0"},{"rt":5167,"responses":"{\"Q0\":\"2\"}","trial_type":"survey-likert","trial_index":109,"time_elapsed":2951130,"internal_node_id":"0.0-7.0-4.0"},{"rt":147570,"responses":"{\"Q0\":\"Both constituted a process of pathfinding.\"}","trial_type":"survey-text","trial_index":110,"time_elapsed":3099702,"internal_node_id":"0.0-7.0-5.0"},{"rt":6202,"responses":"{\"Q0\":\"Yes\"}","trial_type":"survey-multi-choice","trial_index":111,"time_elapsed":3106911,"internal_node_id":"0.0-7.0-6.0"},{"rt":6375,"responses":"{\"Q0\":\"During session 1\"}","trial_type":"survey-multi-choice","trial_index":112,"time_elapsed":3114288,"internal_node_id":"0.0-7.0-7.0"},{"rt":21193,"responses":"{\"Q0\":\"I believe I've already described this previously.\"}","trial_type":"survey-text","trial_index":113,"time_elapsed":3136487,"internal_node_id":"0.0-7.0-8.0"},{"rt":7867,"responses":"{\"Q0\":\"3\"}","trial_type":"survey-likert","trial_index":114,"time_elapsed":3145356,"internal_node_id":"0.0-7.0-9.0"},{"rt":14029,"responses":"{\"Q0\":\"Same structure\"}","trial_type":"survey-multi-choice","trial_index":115,"time_elapsed":3160391,"internal_node_id":"0.0-7.0-10.0"},{"rt":31044,"responses":"{\"Q1\":\"Not at all confident\"}","trial_type":"survey-multi-choice","trial_index":116,"time_elapsed":3192445,"internal_node_id":"0.0-7.0-11.0"},{"rt":19149,"responses":"{\"Q0\":\"55-65\",\"Q1\":\"Bachelor's degree\",\"Q2\":\"Female\",\"Q3\":\"White\"}","trial_type":"survey-multi-choice","trial_index":117,"time_elapsed":3212607,"internal_node_id":"0.0-8.0"},{"rt":58000,"responses":"{\"Q0\":\"Thanks for both a fun HIT (experiments are my favorite in mturk), and the most fair compensation. I'd be willing to participate in your studies any time.\"}","trial_type":"survey-text","trial_index":118,"time_elapsed":3271610,"internal_node_id":"0.0-9.0"}]