[{"view_history":"[{\"page_index\":0,\"viewing_time\":1398},{\"page_index\":1,\"viewing_time\":5073}]","rt":6473,"trial_type":"instructions","trial_index":0,"time_elapsed":6475,"internal_node_id":"0.0-0.0"},{"view_history":"[{\"page_index\":0,\"viewing_time\":1435},{\"page_index\":1,\"viewing_time\":1633}]","rt":3069,"trial_type":"instructions","trial_index":1,"time_elapsed":10547,"internal_node_id":"0.0-1.0"},{"group":"hexagon_bi","room_assignment":["blue","green","yellow","red","purple","grey"],"door_color_assignment":["black","white"],"door_generator_assignment":[1,0],"goal":2,"start":1,"action_noise":0.15,"location_history":"[1,0,5,4,3,2]","action_history":"[1,0,1,0,1]","door_history":"[0,1,0,1,0]","location_rts":"[13566,318,349,2724,3367]","trial_type":"two-door-navigation","trial_index":2,"time_elapsed":39457,"internal_node_id":"0.0-2.0-0.0"},{"group":"hexagon_bi","room_assignment":["blue","green","yellow","red","purple","grey"],"door_color_assignment":["black","white"],"door_generator_assignment":[1,0],"goal":0,"start":2,"action_noise":0.15,"location_history":"[2,3,2,3,4,5,0]","action_history":"[1,0,1,0,1,0]","door_history":"[0,1,0,1,0,1]","location_rts":"[2027,641,407,313,97,209]","trial_type":"two-door-navigation","trial_index":3,"time_elapsed":52739,"internal_node_id":"0.0-2.0-1.0"},{"group":"hexagon_bi","room_assignment":["blue","green","yellow","red","purple","grey"],"door_color_assignment":["black","white"],"door_generator_assignment":[1,0],"goal":5,"start":0,"action_noise":0.15,"location_history":"[0,5]","action_history":"[0]","door_history":"[1]","location_rts":"[2840]","trial_type":"two-door-navigation","trial_index":4,"time_elapsed":60096,"internal_node_id":"0.0-2.0-2.0"},{"group":"hexagon_bi","room_assignment":["blue","green","yellow","red","purple","grey"],"door_color_assignment":["black","white"],"door_generator_assignment":[1,0],"goal":1,"start":5,"action_noise":0.15,"location_history":"[5,0,5,0,5,0,1]","action_history":"[0,1,0,1,0,1]","door_history":"[1,0,1,0,1,0]","location_rts":"[3817,265,190,144,126,234]","trial_type":"two-door-navigation","trial_index":5,"time_elapsed":74435,"internal_node_id":"0.0-2.0-3.0"},{"group":"hexagon_bi","room_assignment":["blue","green","yellow","red","purple","grey"],"door_color_assignment":["black","white"],"door_generator_assignment":[1,0],"goal":3,"start":1,"action_noise":0.15,"location_history":"[1,2,3]","action_history":"[0,1]","door_history":"[1,0]","location_rts":"[21639,452]","trial_type":"two-door-navigation","trial_index":6,"time_elapsed":102058,"internal_node_id":"0.0-2.0-4.0"},{"group":"hexagon_bi","room_assignment":["blue","green","yellow","red","purple","grey"],"door_color_assignment":["black","white"],"door_generator_assignment":[1,0],"goal":5,"start":3,"action_noise":0.15,"location_history":"[3,2,1,0,1,2,1,0,5]","action_history":"[1,0,1,1,0,0,1,0]","door_history":"[0,1,0,0,1,1,0,1]","location_rts":"[3525,371,146,9284,108,1409,194,3154]","trial_type":"two-door-navigation","trial_index":7,"time_elapsed":131837,"internal_node_id":"0.0-2.0-5.0"},{"group":"hexagon_bi","room_assignment":["blue","green","yellow","red","purple","grey"],"door_color_assignment":["black","white"],"door_generator_assignment":[1,0],"goal":4,"start":5,"action_noise":0.15,"location_history":"[5,4]","action_history":"[0]","door_history":"[1]","location_rts":"[394]","trial_type":"two-door-navigation","trial_index":8,"time_elapsed":136746,"internal_node_id":"0.0-2.0-6.0"},{"group":"hexagon_bi","room_assignment":["blue","green","yellow","red","purple","grey"],"door_color_assignment":["black","white"],"door_generator_assignment":[1,0],"goal":0,"start":4,"action_noise":0.15,"location_history":"[4,3,2,3,2,1,0]","action_history":"[0,1,0,1,0,1]","door_history":"[1,0,1,0,1,0]","location_rts":"[547,121,71,267,1377,185]","trial_type":"two-door-navigation","trial_index":9,"time_elapsed":148869,"internal_node_id":"0.0-2.0-7.0"},{"group":"hexagon_bi","room_assignment":["blue","green","yellow","red","purple","grey"],"door_color_assignment":["black","white"],"door_generator_assignment":[1,0],"goal":2,"start":0,"action_noise":0.15,"location_history":"[0,5,4,3,2]","action_history":"[0,1,0,1]","door_history":"[1,0,1,0]","location_rts":"[2599,1916,2566,2985]","trial_type":"two-door-navigation","trial_index":10,"time_elapsed":166472,"internal_node_id":"0.0-2.0-8.0"},{"group":"hexagon_bi","room_assignment":["blue","green","yellow","red","purple","grey"],"door_color_assignment":["black","white"],"door_generator_assignment":[1,0],"goal":4,"start":2,"action_noise":0.15,"location_history":"[2,1,2,3,2,1,0,5,4]","action_history":"[0,1,0,1,0,1,0,1]","door_history":"[1,0,1,0,1,0,1,0]","location_rts":"[496,1016,527,450,4697,67,146,1158]","trial_type":"two-door-navigation","trial_index":11,"time_elapsed":186629,"internal_node_id":"0.0-2.0-9.0"},{"group":"hexagon_bi","room_assignment":["blue","green","yellow","red","purple","grey"],"door_color_assignment":["black","white"],"door_generator_assignment":[1,0],"goal":2,"start":4,"action_noise":0.15,"location_history":"[4,3,4,5,0,5,4,3,2]","action_history":"[0,0,0,1,0,1,0,1]","door_history":"[1,1,1,0,1,0,1,0]","location_rts":"[693,2097,11028,616,869,428,227,1937]","trial_type":"two-door-navigation","trial_index":12,"time_elapsed":216086,"internal_node_id":"0.0-2.0-10.0"},{"group":"hexagon_bi","room_assignment":["blue","green","yellow","red","purple","grey"],"door_color_assignment":["black","white"],"door_generator_assignment":[1,0],"goal":3,"start":2,"action_noise":0.15,"location_history":"[2,1,0,5,4,3]","action_history":"[0,1,0,1,0]","door_history":"[1,0,1,0,1]","location_rts":"[634,1929,16430,202,40]","trial_type":"two-door-navigation","trial_index":13,"time_elapsed":243874,"internal_node_id":"0.0-2.0-11.0"},{"group":"hexagon_bi","room_assignment":["blue","green","yellow","red","purple","grey"],"door_color_assignment":["black","white"],"door_generator_assignment":[1,0],"goal":0,"start":3,"action_noise":0.15,"location_history":"[3,2,1,0]","action_history":"[1,0,1]","door_history":"[0,1,0]","location_rts":"[3896,28,131]","trial_type":"two-door-navigation","trial_index":14,"time_elapsed":254471,"internal_node_id":"0.0-2.0-12.0"},{"group":"hexagon_bi","room_assignment":["blue","green","yellow","red","purple","grey"],"door_color_assignment":["black","white"],"door_generator_assignment":[1,0],"goal":5,"start":0,"action_noise":0.15,"location_history":"[0,5]","action_history":"[0]","door_history":"[1]","location_rts":"[3890]","trial_type":"two-door-navigation","trial_index":15,"time_elapsed":262882,"internal_node_id":"0.0-2.0-13.0"},{"group":"hexagon_bi","room_assignment":["blue","green","yellow","red","purple","grey"],"door_color_assignment":["black","white"],"door_generator_assignment":[1,0],"goal":1,"start":5,"action_noise":0.15,"location_history":"[5,0,1]","action_history":"[0,1]","door_history":"[1,0]","location_rts":"[6985,324]","trial_type":"two-door-navigation","trial_index":16,"time_elapsed":275712,"internal_node_id":"0.0-2.0-14.0"},{"group":"hexagon_bi","room_assignment":["blue","green","yellow","red","purple","grey"],"door_color_assignment":["black","white"],"door_generator_assignment":[1,0],"goal":5,"start":1,"action_noise":0.15,"location_history":"[1,2,3,4,5]","action_history":"[0,1,0,1]","door_history":"[1,0,1,0]","location_rts":"[3594,941,13680,623]","trial_type":"two-door-navigation","trial_index":17,"time_elapsed":302090,"internal_node_id":"0.0-2.0-15.0"},{"group":"hexagon_bi","room_assignment":["blue","green","yellow","red","purple","grey"],"door_color_assignment":["black","white"],"door_generator_assignment":[1,0],"goal":3,"start":5,"action_noise":0.15,"location_history":"[5,4,5,0,1,0,1,0,5,0,1,2,1,2,1,2,1,0,5,0,5,4,5,0,1,2,3]","action_history":"[0,1,0,1,0,1,1,1,0,1,0,1,0,0,1,0,1,0,1,0,1,1,0,1,0,1]","door_history":"[1,0,1,0,1,0,0,0,1,0,1,0,1,1,0,1,0,1,0,1,0,0,1,0,1,0]","location_rts":"[922,167,133,516,984,292,1032,1438,81,278,143,178,7,2944,206,150,948,2138,358,369,156,310,46,522,362,242]","trial_type":"two-door-navigation","trial_index":18,"time_elapsed":346823,"internal_node_id":"0.0-2.0-16.0"},{"group":"hexagon_bi","room_assignment":["blue","green","yellow","red","purple","grey"],"door_color_assignment":["black","white"],"door_generator_assignment":[1,0],"goal":2,"start":3,"action_noise":0.15,"location_history":"[3,4,5,0,1,2]","action_history":"[0,1,0,1,0]","door_history":"[1,0,1,0,1]","location_rts":"[4418,57,33,5,21]","trial_type":"two-door-navigation","trial_index":19,"time_elapsed":359933,"internal_node_id":"0.0-2.0-17.0"},{"group":"hexagon_bi","room_assignment":["blue","green","yellow","red","purple","grey"],"door_color_assignment":["black","white"],"door_generator_assignment":[1,0],"goal":1,"start":2,"action_noise":0.15,"location_history":"[2,1]","action_history":"[0]","door_history":"[1]","location_rts":"[4603]","trial_type":"two-door-navigation","trial_index":20,"time_elapsed":369050,"internal_node_id":"0.0-2.0-18.0"},{"group":"hexagon_bi","room_assignment":["blue","green","yellow","red","purple","grey"],"door_color_assignment":["black","white"],"door_generator_assignment":[1,0],"goal":4,"start":1,"action_noise":0.15,"location_history":"[1,2,3,4]","action_history":"[0,1,0]","door_history":"[1,0,1]","location_rts":"[264,777,30]","trial_type":"two-door-navigation","trial_index":21,"time_elapsed":376676,"internal_node_id":"0.0-2.0-19.0"},{"group":"hexagon_bi","room_assignment":["blue","green","yellow","red","purple","grey"],"door_color_assignment":["black","white"],"door_generator_assignment":[1,0],"goal":0,"start":4,"action_noise":0.15,"location_history":"[4,5,4,3,4,3,2,1,0]","action_history":"[0,1,0,1,0,1,0,1]","door_history":"[1,0,1,0,1,0,1,0]","location_rts":"[360,85,49,66,805,464,123,192]","trial_type":"two-door-navigation","trial_index":22,"time_elapsed":390412,"internal_node_id":"0.0-2.0-20.0"},{"group":"hexagon_bi","room_assignment":["blue","green","yellow","red","purple","grey"],"door_color_assignment":["black","white"],"door_generator_assignment":[1,0],"goal":3,"start":0,"action_noise":0.15,"location_history":"[0,5,4,3]","action_history":"[0,1,0]","door_history":"[1,0,1]","location_rts":"[3527,638,1782]","trial_type":"two-door-navigation","trial_index":23,"time_elapsed":402888,"internal_node_id":"0.0-2.0-21.0"},{"group":"hexagon_bi","room_assignment":["blue","green","yellow","red","purple","grey"],"door_color_assignment":["black","white"],"door_generator_assignment":[1,0],"goal":1,"start":3,"action_noise":0.15,"location_history":"[3,2,1]","action_history":"[1,0]","door_history":"[0,1]","location_rts":"[2292,37]","trial_type":"two-door-navigation","trial_index":24,"time_elapsed":410737,"internal_node_id":"0.0-2.0-22.0"},{"group":"hexagon_bi","room_assignment":["blue","green","yellow","red","purple","grey"],"door_color_assignment":["black","white"],"door_generator_assignment":[1,0],"goal":0,"start":1,"action_noise":0.15,"location_history":"[1,0]","action_history":"[1]","door_history":"[0]","location_rts":"[1064]","trial_type":"two-door-navigation","trial_index":25,"time_elapsed":416312,"internal_node_id":"0.0-2.0-23.0"},{"group":"hexagon_bi","room_assignment":["blue","green","yellow","red","purple","grey"],"door_color_assignment":["black","white"],"door_generator_assignment":[1,0],"goal":2,"start":0,"action_noise":0.15,"location_history":"[0,1,0,1,2]","action_history":"[1,0,1,0]","door_history":"[0,1,0,1]","location_rts":"[4201,260,1075,253]","trial_type":"two-door-navigation","trial_index":26,"time_elapsed":429652,"internal_node_id":"0.0-2.0-24.0"},{"group":"hexagon_bi","room_assignment":["blue","green","yellow","red","purple","grey"],"door_color_assignment":["black","white"],"door_generator_assignment":[1,0],"goal":4,"start":2,"action_noise":0.15,"location_history":"[2,1,0,5,4]","action_history":"[0,1,0,1]","door_history":"[1,0,1,0]","location_rts":"[2708,68,724,161]","trial_type":"two-door-navigation","trial_index":27,"time_elapsed":440856,"internal_node_id":"0.0-2.0-25.0"},{"group":"hexagon_bi","room_assignment":["blue","green","yellow","red","purple","grey"],"door_color_assignment":["black","white"],"door_generator_assignment":[1,0],"goal":5,"start":4,"action_noise":0.15,"location_history":"[4,3,2,1,2,3,2,1,2,1,0,5]","action_history":"[0,1,0,1,0,1,0,1,0,1,0]","door_history":"[1,0,1,0,1,0,1,0,1,0,1]","location_rts":"[1217,127,69,297,382,457,2183,2100,657,469,410]","trial_type":"two-door-navigation","trial_index":28,"time_elapsed":463846,"internal_node_id":"0.0-2.0-26.0"},{"group":"hexagon_bi","room_assignment":["blue","green","yellow","red","purple","grey"],"door_color_assignment":["black","white"],"door_generator_assignment":[1,0],"goal":2,"start":5,"action_noise":0.15,"location_history":"[5,0,5,0,5,4,5,4,3,4,5,0,1,2]","action_history":"[1,0,1,0,0,1,0,1,0,1,0,1,0]","door_history":"[0,1,0,1,1,0,1,0,1,0,1,0,1]","location_rts":"[2733,13,125,202,387,55,130,40,63,117,334,9,473]","trial_type":"two-door-navigation","trial_index":29,"time_elapsed":485229,"internal_node_id":"0.0-2.0-27.0"},{"group":"hexagon_bi","room_assignment":["blue","green","yellow","red","purple","grey"],"door_color_assignment":["black","white"],"door_generator_assignment":[1,0],"goal":3,"start":2,"action_noise":0.15,"location_history":"[2,3]","action_history":"[1]","door_history":"[0]","location_rts":"[13136]","trial_type":"two-door-navigation","trial_index":30,"time_elapsed":502898,"internal_node_id":"0.0-2.0-28.0"},{"group":"hexagon_bi","room_assignment":["blue","green","yellow","red","purple","grey"],"door_color_assignment":["black","white"],"door_generator_assignment":[1,0],"goal":1,"start":3,"action_noise":0.15,"location_history":"[3,2,1]","action_history":"[1,0]","door_history":"[0,1]","location_rts":"[624,539]","trial_type":"two-door-navigation","trial_index":31,"time_elapsed":509589,"internal_node_id":"0.0-2.0-29.0"},{"group":"hexagon_bi","room_assignment":["blue","green","yellow","red","purple","grey"],"door_color_assignment":["black","white"],"door_generator_assignment":[1,0],"goal":4,"start":1,"action_noise":0.15,"location_history":"[1,2,1,0,5,4]","action_history":"[1,0,1,0,1]","door_history":"[0,1,0,1,0]","location_rts":"[568,133,56,49,70]","trial_type":"two-door-navigation","trial_index":32,"time_elapsed":519036,"internal_node_id":"0.0-2.0-30.0"},{"group":"hexagon_bi","room_assignment":["blue","green","yellow","red","purple","grey"],"door_color_assignment":["black","white"],"door_generator_assignment":[1,0],"goal":5,"start":4,"action_noise":0.15,"location_history":"[4,3,2,3,2,1,0,5]","action_history":"[0,1,0,1,0,1,0]","door_history":"[1,0,1,0,1,0,1]","location_rts":"[329,230,551,122,98,72,1343]","trial_type":"two-door-navigation","trial_index":33,"time_elapsed":532353,"internal_node_id":"0.0-2.0-31.0"},{"group":"hexagon_bi","room_assignment":["blue","green","yellow","red","purple","grey"],"door_color_assignment":["black","white"],"door_generator_assignment":[1,0],"goal":0,"start":5,"action_noise":0.15,"location_history":"[5,4,3,4,3,2,1,0]","action_history":"[1,0,1,0,1,0,1]","door_history":"[0,1,0,1,0,1,0]","location_rts":"[8641,501,2802,531,394,1855,199]","trial_type":"two-door-navigation","trial_index":34,"time_elapsed":557842,"internal_node_id":"0.0-2.0-32.0"},{"group":"hexagon_bi","room_assignment":["blue","green","yellow","red","purple","grey"],"door_color_assignment":["black","white"],"door_generator_assignment":[1,0],"goal":2,"start":0,"action_noise":0.15,"location_history":"[0,5,4,3,4,5,4,3,2]","action_history":"[0,1,0,0,1,0,0,1]","door_history":"[1,0,1,1,0,1,1,0]","location_rts":"[419,225,513,865,95,356,3008,934]","trial_type":"two-door-navigation","trial_index":35,"time_elapsed":575844,"internal_node_id":"0.0-2.0-33.0"},{"group":"hexagon_bi","room_assignment":["blue","green","yellow","red","purple","grey"],"door_color_assignment":["black","white"],"door_generator_assignment":[1,0],"goal":0,"start":2,"action_noise":0.15,"location_history":"[2,1,0]","action_history":"[0,1]","door_history":"[1,0]","location_rts":"[3994,73]","trial_type":"two-door-navigation","trial_index":36,"time_elapsed":585433,"internal_node_id":"0.0-2.0-34.0"},{"group":"hexagon_bi","room_assignment":["blue","green","yellow","red","purple","grey"],"door_color_assignment":["black","white"],"door_generator_assignment":[1,0],"goal":5,"start":0,"action_noise":0.15,"location_history":"[0,5]","action_history":"[0]","door_history":"[1]","location_rts":"[1295]","trial_type":"two-door-navigation","trial_index":37,"time_elapsed":591243,"internal_node_id":"0.0-2.0-35.0"},{"group":"hexagon_bi","room_assignment":["blue","green","yellow","red","purple","grey"],"door_color_assignment":["black","white"],"door_generator_assignment":[1,0],"goal":1,"start":5,"action_noise":0.15,"location_history":"[5,4,5,0,1]","action_history":"[0,1,0,1]","door_history":"[1,0,1,0]","location_rts":"[928,392,214,265]","trial_type":"two-door-navigation","trial_index":38,"time_elapsed":600597,"internal_node_id":"0.0-2.0-36.0"},{"group":"hexagon_bi","room_assignment":["blue","green","yellow","red","purple","grey"],"door_color_assignment":["black","white"],"door_generator_assignment":[1,0],"goal":4,"start":1,"action_noise":0.15,"location_history":"[1,2,3,4]","action_history":"[0,1,0]","door_history":"[1,0,1]","location_rts":"[1624,196,22]","trial_type":"two-door-navigation","trial_index":39,"time_elapsed":608975,"internal_node_id":"0.0-2.0-37.0"},{"group":"hexagon_bi","room_assignment":["blue","green","yellow","red","purple","grey"],"door_color_assignment":["black","white"],"door_generator_assignment":[1,0],"goal":3,"start":4,"action_noise":0.15,"location_history":"[4,5,0,1,2,1,0,1,0,5,4,3]","action_history":"[1,0,1,0,1,0,1,1,0,1,0]","door_history":"[0,1,0,1,0,1,0,0,1,0,1]","location_rts":"[1270,384,95,409,181,151,41,1292,26,144,443]","trial_type":"two-door-navigation","trial_index":40,"time_elapsed":628004,"internal_node_id":"0.0-2.0-38.0"},{"group":"hexagon_bi","room_assignment":["blue","green","yellow","red","purple","grey"],"door_color_assignment":["black","white"],"door_generator_assignment":[1,0],"goal":5,"start":3,"action_noise":0.15,"location_history":"[3,4,5]","action_history":"[0,1]","door_history":"[1,0]","location_rts":"[363,180]","trial_type":"two-door-navigation","trial_index":41,"time_elapsed":634074,"internal_node_id":"0.0-2.0-39.0"},{"group":"hexagon_bi","room_assignment":["blue","green","yellow","red","purple","grey"],"door_color_assignment":["black","white"],"door_generator_assignment":[1,0],"goal":1,"start":5,"action_noise":0.15,"location_history":"[5,0,1]","action_history":"[0,1]","door_history":"[1,0]","location_rts":"[2440,407]","trial_type":"two-door-navigation","trial_index":42,"time_elapsed":642460,"internal_node_id":"0.0-2.0-40.0"},{"group":"hexagon_bi","room_assignment":["blue","green","yellow","red","purple","grey"],"door_color_assignment":["black","white"],"door_generator_assignment":[1,0],"goal":2,"start":1,"action_noise":0.15,"location_history":"[1,2]","action_history":"[0]","door_history":"[1]","location_rts":"[716]","trial_type":"two-door-navigation","trial_index":43,"time_elapsed":647685,"internal_node_id":"0.0-2.0-41.0"},{"group":"hexagon_bi","room_assignment":["blue","green","yellow","red","purple","grey"],"door_color_assignment":["black","white"],"door_generator_assignment":[1,0],"goal":4,"start":2,"action_noise":0.15,"location_history":"[2,3,4]","action_history":"[1,0]","door_history":"[0,1]","location_rts":"[1505,2199]","trial_type":"two-door-navigation","trial_index":44,"time_elapsed":656931,"internal_node_id":"0.0-2.0-42.0"},{"group":"hexagon_bi","room_assignment":["blue","green","yellow","red","purple","grey"],"door_color_assignment":["black","white"],"door_generator_assignment":[1,0],"goal":0,"start":4,"action_noise":0.15,"location_history":"[4,3,4,5,0]","action_history":"[0,0,1,0]","door_history":"[1,1,0,1]","location_rts":"[361,1763,236,119]","trial_type":"two-door-navigation","trial_index":45,"time_elapsed":666977,"internal_node_id":"0.0-2.0-43.0"},{"group":"hexagon_bi","room_assignment":["blue","green","yellow","red","purple","grey"],"door_color_assignment":["black","white"],"door_generator_assignment":[1,0],"goal":3,"start":0,"action_noise":0.15,"location_history":"[0,5,4,3]","action_history":"[0,1,0]","door_history":"[1,0,1]","location_rts":"[477,244,438]","trial_type":"two-door-navigation","trial_index":46,"time_elapsed":674687,"internal_node_id":"0.0-2.0-44.0"},{"group":"hexagon_bi","room_assignment":["blue","green","yellow","red","purple","grey"],"door_color_assignment":["black","white"],"door_generator_assignment":[1,0],"goal":0,"start":3,"action_noise":0.15,"location_history":"[3,4,5,4,3,2,1,2,1,2,1,2,3,4,5,0]","action_history":"[0,1,1,0,1,0,1,0,0,1,0,1,0,1,0]","door_history":"[1,0,0,1,0,1,0,1,1,0,1,0,1,0,1]","location_rts":"[5651,573,944,146,79,251,440,469,3041,14,860,367,1959,386,36]","trial_type":"two-door-navigation","trial_index":47,"time_elapsed":708566,"internal_node_id":"0.0-2.0-45.0"},{"group":"hexagon_bi","room_assignment":["blue","green","yellow","red","purple","grey"],"door_color_assignment":["black","white"],"door_generator_assignment":[1,0],"goal":4,"start":0,"action_noise":0.15,"location_history":"[0,1,0,1,2,3,4]","action_history":"[0,1,1,0,1,0]","door_history":"[1,0,0,1,0,1]","location_rts":"[382,186,2710,558,17,595]","trial_type":"two-door-navigation","trial_index":48,"time_elapsed":722585,"internal_node_id":"0.0-2.0-46.0"},{"group":"hexagon_bi","room_assignment":["blue","green","yellow","red","purple","grey"],"door_color_assignment":["black","white"],"door_generator_assignment":[1,0],"goal":5,"start":4,"action_noise":0.15,"location_history":"[4,3,2,3,2,3,2,1,0,5]","action_history":"[0,1,0,1,0,1,0,1,0]","door_history":"[1,0,1,0,1,0,1,0,1]","location_rts":"[279,274,1812,335,479,484,1665,302,209]","trial_type":"two-door-navigation","trial_index":49,"time_elapsed":741025,"internal_node_id":"0.0-2.0-47.0"},{"group":"hexagon_bi","room_assignment":["blue","green","yellow","red","purple","grey"],"door_color_assignment":["black","white"],"door_generator_assignment":[1,0],"goal":2,"start":5,"action_noise":0.15,"location_history":"[5,4,3,2]","action_history":"[1,0,1]","door_history":"[0,1,0]","location_rts":"[12885,30,168]","trial_type":"two-door-navigation","trial_index":50,"time_elapsed":760648,"internal_node_id":"0.0-2.0-48.0"},{"group":"hexagon_bi","room_assignment":["blue","green","yellow","red","purple","grey"],"door_color_assignment":["black","white"],"door_generator_assignment":[1,0],"goal":1,"start":2,"action_noise":0.15,"location_history":"[2,3,4,5,0,1]","action_history":"[1,0,1,0,1]","door_history":"[0,1,0,1,0]","location_rts":"[815,48,113,91,241]","trial_type":"two-door-navigation","trial_index":51,"time_elapsed":770526,"internal_node_id":"0.0-2.0-49.0"},{"view_history":"[{\"page_index\":0,\"viewing_time\":1252}]","rt":1254,"trial_type":"instructions","trial_index":52,"time_elapsed":772781,"internal_node_id":"0.0-3.0"},{"view_history":"[{\"page_index\":0,\"viewing_time\":1650},{\"page_index\":1,\"viewing_time\":7307}]","rt":8957,"trial_type":"instructions","trial_index":53,"time_elapsed":782738,"internal_node_id":"0.0-4.0"},{"group":"hexagon_tri","fractal_assignment":["../images/org_blu.png","../images/pnk_blu.png","../images/gry_blk.png","../images/ylw_slt.png","../images/cyn_red.png","../images/blu_wht.png"],"mutagen_generator_assignment":[0,1],"goal":2,"start":1,"action_noise":0.15,"location_history":"[1,3,4,2]","action_history":"[0,1,1]","mutagen_history":"[0,1,1]","location_rts":"[1933,1908,754]","trial_type":"fractal-mutation","trial_index":54,"time_elapsed":794628,"internal_node_id":"0.0-5.0-0.0"},{"group":"hexagon_tri","fractal_assignment":["../images/org_blu.png","../images/pnk_blu.png","../images/gry_blk.png","../images/ylw_slt.png","../images/cyn_red.png","../images/blu_wht.png"],"mutagen_generator_assignment":[0,1],"goal":0,"start":2,"action_noise":0.15,"location_history":"[2,1,5,0]","action_history":"[0,1,1]","mutagen_history":"[0,1,1]","location_rts":"[309,338,470]","trial_type":"fractal-mutation","trial_index":55,"time_elapsed":803020,"internal_node_id":"0.0-5.0-1.0"},{"group":"hexagon_tri","fractal_assignment":["../images/org_blu.png","../images/pnk_blu.png","../images/gry_blk.png","../images/ylw_slt.png","../images/cyn_red.png","../images/blu_wht.png"],"mutagen_generator_assignment":[0,1],"goal":5,"start":0,"action_noise":0.15,"location_history":"[0,5]","action_history":"[0]","mutagen_history":"[0]","location_rts":"[415]","trial_type":"fractal-mutation","trial_index":56,"time_elapsed":808132,"internal_node_id":"0.0-5.0-2.0"},{"group":"hexagon_tri","fractal_assignment":["../images/org_blu.png","../images/pnk_blu.png","../images/gry_blk.png","../images/ylw_slt.png","../images/cyn_red.png","../images/blu_wht.png"],"mutagen_generator_assignment":[0,1],"goal":1,"start":5,"action_noise":0.15,"location_history":"[5,4,0,1]","action_history":"[0,0,0]","mutagen_history":"[0,0,0]","location_rts":"[3108,787,649]","trial_type":"fractal-mutation","trial_index":57,"time_elapsed":819639,"internal_node_id":"0.0-5.0-3.0"},{"group":"hexagon_tri","fractal_assignment":["../images/org_blu.png","../images/pnk_blu.png","../images/gry_blk.png","../images/ylw_slt.png","../images/cyn_red.png","../images/blu_wht.png"],"mutagen_generator_assignment":[0,1],"goal":3,"start":1,"action_noise":0.15,"location_history":"[1,3]","action_history":"[0]","mutagen_history":"[0]","location_rts":"[667]","trial_type":"fractal-mutation","trial_index":58,"time_elapsed":824956,"internal_node_id":"0.0-5.0-4.0"},{"group":"hexagon_tri","fractal_assignment":["../images/org_blu.png","../images/pnk_blu.png","../images/gry_blk.png","../images/ylw_slt.png","../images/cyn_red.png","../images/blu_wht.png"],"mutagen_generator_assignment":[0,1],"goal":5,"start":3,"action_noise":0.15,"location_history":"[3,2,3,2,1,5]","action_history":"[1,0,0,0,0]","mutagen_history":"[1,0,0,0,0]","location_rts":"[2720,565,501,440,355]","trial_type":"fractal-mutation","trial_index":59,"time_elapsed":838992,"internal_node_id":"0.0-5.0-5.0"},{"group":"hexagon_tri","fractal_assignment":["../images/org_blu.png","../images/pnk_blu.png","../images/gry_blk.png","../images/ylw_slt.png","../images/cyn_red.png","../images/blu_wht.png"],"mutagen_generator_assignment":[0,1],"goal":4,"start":5,"action_noise":0.15,"location_history":"[5,0,1,5,4]","action_history":"[0,1,1,0]","mutagen_history":"[0,1,1,0]","location_rts":"[10131,706,535,636]","trial_type":"fractal-mutation","trial_index":60,"time_elapsed":859387,"internal_node_id":"0.0-5.0-6.0"},{"group":"hexagon_tri","fractal_assignment":["../images/org_blu.png","../images/pnk_blu.png","../images/gry_blk.png","../images/ylw_slt.png","../images/cyn_red.png","../images/blu_wht.png"],"mutagen_generator_assignment":[0,1],"goal":0,"start":4,"action_noise":0.15,"location_history":"[4,2,1,3,2,3,4,2,1,5,4,2,3,2,1,3,2,3,2,3,4,0]","action_history":"[1,1,0,0,1,0,0,0,1,0,1,1,1,0,0,0,1,0,1,1,0]","mutagen_history":"[1,1,0,0,1,0,0,0,1,0,1,1,1,0,0,0,1,0,1,1,0]","location_rts":"[3682,818,749,771,485,424,607,494,9169,426,399,317,546,537,406,733,1331,519,2102,260,750]","trial_type":"fractal-mutation","trial_index":61,"time_elapsed":913957,"internal_node_id":"0.0-5.0-7.0"},{"group":"hexagon_tri","fractal_assignment":["../images/org_blu.png","../images/pnk_blu.png","../images/gry_blk.png","../images/ylw_slt.png","../images/cyn_red.png","../images/blu_wht.png"],"mutagen_generator_assignment":[0,1],"goal":2,"start":0,"action_noise":0.15,"location_history":"[0,1,5,4,2]","action_history":"[0,1,0,1]","mutagen_history":"[0,1,0,1]","location_rts":"[867,339,1694,810]","trial_type":"fractal-mutation","trial_index":62,"time_elapsed":926005,"internal_node_id":"0.0-5.0-8.0"},{"group":"hexagon_tri","fractal_assignment":["../images/org_blu.png","../images/pnk_blu.png","../images/gry_blk.png","../images/ylw_slt.png","../images/cyn_red.png","../images/blu_wht.png"],"mutagen_generator_assignment":[0,1],"goal":4,"start":2,"action_noise":0.15,"location_history":"[2,1,5,0,5,4]","action_history":"[0,1,1,0,0]","mutagen_history":"[0,1,1,0,0]","location_rts":"[8466,568,439,423,484]","trial_type":"fractal-mutation","trial_index":63,"time_elapsed":945921,"internal_node_id":"0.0-5.0-9.0"},{"group":"hexagon_tri","fractal_assignment":["../images/org_blu.png","../images/pnk_blu.png","../images/gry_blk.png","../images/ylw_slt.png","../images/cyn_red.png","../images/blu_wht.png"],"mutagen_generator_assignment":[0,1],"goal":2,"start":4,"action_noise":0.15,"location_history":"[4,0,1,3,2]","action_history":"[0,1,0,0]","mutagen_history":"[0,1,0,0]","location_rts":"[809,1273,2063,675]","trial_type":"fractal-mutation","trial_index":64,"time_elapsed":958993,"internal_node_id":"0.0-5.0-10.0"},{"group":"hexagon_tri","fractal_assignment":["../images/org_blu.png","../images/pnk_blu.png","../images/gry_blk.png","../images/ylw_slt.png","../images/cyn_red.png","../images/blu_wht.png"],"mutagen_generator_assignment":[0,1],"goal":3,"start":2,"action_noise":0.15,"location_history":"[2,3]","action_history":"[1]","mutagen_history":"[1]","location_rts":"[444]","trial_type":"fractal-mutation","trial_index":65,"time_elapsed":964226,"internal_node_id":"0.0-5.0-11.0"},{"group":"hexagon_tri","fractal_assignment":["../images/org_blu.png","../images/pnk_blu.png","../images/gry_blk.png","../images/ylw_slt.png","../images/cyn_red.png","../images/blu_wht.png"],"mutagen_generator_assignment":[0,1],"goal":0,"start":3,"action_noise":0.15,"location_history":"[3,2,3,2,3,4,2,3,4,0]","action_history":"[0,1,0,0,1,1,1,0,0]","mutagen_history":"[0,1,0,0,1,1,1,0,0]","location_rts":"[1412,260,350,513,1143,785,500,241,659]","trial_type":"fractal-mutation","trial_index":66,"time_elapsed":984460,"internal_node_id":"0.0-5.0-12.0"},{"group":"hexagon_tri","fractal_assignment":["../images/org_blu.png","../images/pnk_blu.png","../images/gry_blk.png","../images/ylw_slt.png","../images/cyn_red.png","../images/blu_wht.png"],"mutagen_generator_assignment":[0,1],"goal":5,"start":0,"action_noise":0.15,"location_history":"[0,1,3,4,2,1,5]","action_history":"[1,0,1,1,0,1]","mutagen_history":"[1,0,1,1,0,1]","location_rts":"[627,2005,348,361,347,496]","trial_type":"fractal-mutation","trial_index":67,"time_elapsed":999515,"internal_node_id":"0.0-5.0-13.0"},{"group":"hexagon_tri","fractal_assignment":["../images/org_blu.png","../images/pnk_blu.png","../images/gry_blk.png","../images/ylw_slt.png","../images/cyn_red.png","../images/blu_wht.png"],"mutagen_generator_assignment":[0,1],"goal":1,"start":5,"action_noise":0.15,"location_history":"[5,0,1]","action_history":"[0,1]","mutagen_history":"[0,1]","location_rts":"[1398,394]","trial_type":"fractal-mutation","trial_index":68,"time_elapsed":1007232,"internal_node_id":"0.0-5.0-14.0"},{"group":"hexagon_tri","fractal_assignment":["../images/org_blu.png","../images/pnk_blu.png","../images/gry_blk.png","../images/ylw_slt.png","../images/cyn_red.png","../images/blu_wht.png"],"mutagen_generator_assignment":[0,1],"goal":5,"start":1,"action_noise":0.15,"location_history":"[1,5]","action_history":"[1]","mutagen_history":"[1]","location_rts":"[310]","trial_type":"fractal-mutation","trial_index":69,"time_elapsed":1012316,"internal_node_id":"0.0-5.0-15.0"},{"group":"hexagon_tri","fractal_assignment":["../images/org_blu.png","../images/pnk_blu.png","../images/gry_blk.png","../images/ylw_slt.png","../images/cyn_red.png","../images/blu_wht.png"],"mutagen_generator_assignment":[0,1],"goal":3,"start":5,"action_noise":0.15,"location_history":"[5,0,1,3]","action_history":"[0,1,0]","mutagen_history":"[0,1,0]","location_rts":"[1741,208,105]","trial_type":"fractal-mutation","trial_index":70,"time_elapsed":1021447,"internal_node_id":"0.0-5.0-16.0"},{"group":"hexagon_tri","fractal_assignment":["../images/org_blu.png","../images/pnk_blu.png","../images/gry_blk.png","../images/ylw_slt.png","../images/cyn_red.png","../images/blu_wht.png"],"mutagen_generator_assignment":[0,1],"goal":2,"start":3,"action_noise":0.15,"location_history":"[3,2]","action_history":"[0]","mutagen_history":"[0]","location_rts":"[17813]","trial_type":"fractal-mutation","trial_index":71,"time_elapsed":1043932,"internal_node_id":"0.0-5.0-17.0"},{"group":"hexagon_tri","fractal_assignment":["../images/org_blu.png","../images/pnk_blu.png","../images/gry_blk.png","../images/ylw_slt.png","../images/cyn_red.png","../images/blu_wht.png"],"mutagen_generator_assignment":[0,1],"goal":1,"start":2,"action_noise":0.15,"location_history":"[2,3,2,3,4,0,5,0,5,0,1]","action_history":"[1,0,1,0,0,0,1,0,1,0]","mutagen_history":"[1,0,1,0,0,0,1,0,1,0]","location_rts":"[567,265,1202,352,7325,7509,534,3261,753,918]","trial_type":"fractal-mutation","trial_index":72,"time_elapsed":1082679,"internal_node_id":"0.0-5.0-18.0"},{"group":"hexagon_tri","fractal_assignment":["../images/org_blu.png","../images/pnk_blu.png","../images/gry_blk.png","../images/ylw_slt.png","../images/cyn_red.png","../images/blu_wht.png"],"mutagen_generator_assignment":[0,1],"goal":4,"start":1,"action_noise":0.15,"location_history":"[1,5,0,1,3,2,1,3,2,1,5,4]","action_history":"[0,1,1,0,0,1,0,0,0,0,1]","mutagen_history":"[0,1,1,0,0,1,0,0,0,0,1]","location_rts":"[998,306,558,364,408,425,367,80,245,390,409]","trial_type":"fractal-mutation","trial_index":73,"time_elapsed":1103876,"internal_node_id":"0.0-5.0-19.0"},{"group":"hexagon_tri","fractal_assignment":["../images/org_blu.png","../images/pnk_blu.png","../images/gry_blk.png","../images/ylw_slt.png","../images/cyn_red.png","../images/blu_wht.png"],"mutagen_generator_assignment":[0,1],"goal":0,"start":4,"action_noise":0.15,"location_history":"[4,0]","action_history":"[0]","mutagen_history":"[0]","location_rts":"[3556]","trial_type":"fractal-mutation","trial_index":74,"time_elapsed":1112089,"internal_node_id":"0.0-5.0-20.0"},{"group":"hexagon_tri","fractal_assignment":["../images/org_blu.png","../images/pnk_blu.png","../images/gry_blk.png","../images/ylw_slt.png","../images/cyn_red.png","../images/blu_wht.png"],"mutagen_generator_assignment":[0,1],"goal":3,"start":0,"action_noise":0.15,"location_history":"[0,5,4,2,3]","action_history":"[0,1,1,1]","mutagen_history":"[0,1,1,1]","location_rts":"[317,184,372,387]","trial_type":"fractal-mutation","trial_index":75,"time_elapsed":1121794,"internal_node_id":"0.0-5.0-21.0"},{"group":"hexagon_tri","fractal_assignment":["../images/org_blu.png","../images/pnk_blu.png","../images/gry_blk.png","../images/ylw_slt.png","../images/cyn_red.png","../images/blu_wht.png"],"mutagen_generator_assignment":[0,1],"goal":1,"start":3,"action_noise":0.15,"location_history":"[3,2,3,4,2,1]","action_history":"[0,1,1,1,0]","mutagen_history":"[0,1,1,1,0]","location_rts":"[373,404,646,628,454]","trial_type":"fractal-mutation","trial_index":76,"time_elapsed":1133899,"internal_node_id":"0.0-5.0-22.0"},{"group":"hexagon_tri","fractal_assignment":["../images/org_blu.png","../images/pnk_blu.png","../images/gry_blk.png","../images/ylw_slt.png","../images/cyn_red.png","../images/blu_wht.png"],"mutagen_generator_assignment":[0,1],"goal":0,"start":1,"action_noise":0.15,"location_history":"[1,5,4,2,3,2,3,2,1,5,4,2,3,4,2,1,5,4,2,3,4,2,3,4,0]","action_history":"[1,0,1,0,1,1,0,0,0,0,0,1,1,1,0,1,0,1,1,0,1,0,1,0]","mutagen_history":"[1,0,1,0,1,1,0,0,0,0,0,1,1,1,0,1,0,1,1,0,1,0,1,0]","location_rts":"[4158,443,391,383,1235,431,451,253,444,419,506,706,441,518,162,183,330,448,264,140,417,133,232,1010]","trial_type":"fractal-mutation","trial_index":77,"time_elapsed":1180504,"internal_node_id":"0.0-5.0-23.0"},{"group":"hexagon_tri","fractal_assignment":["../images/org_blu.png","../images/pnk_blu.png","../images/gry_blk.png","../images/ylw_slt.png","../images/cyn_red.png","../images/blu_wht.png"],"mutagen_generator_assignment":[0,1],"goal":2,"start":0,"action_noise":0.15,"location_history":"[0,1,3,2]","action_history":"[1,0,0]","mutagen_history":"[1,0,0]","location_rts":"[3004,90,325]","trial_type":"fractal-mutation","trial_index":78,"time_elapsed":1191000,"internal_node_id":"0.0-5.0-24.0"},{"group":"hexagon_tri","fractal_assignment":["../images/org_blu.png","../images/pnk_blu.png","../images/gry_blk.png","../images/ylw_slt.png","../images/cyn_red.png","../images/blu_wht.png"],"mutagen_generator_assignment":[0,1],"goal":4,"start":2,"action_noise":0.15,"location_history":"[2,1,5,0,1,3,2,3,4]","action_history":"[0,1,1,1,0,0,1,1]","mutagen_history":"[0,1,1,1,0,0,1,1]","location_rts":"[492,135,193,482,346,392,187,1156]","trial_type":"fractal-mutation","trial_index":79,"time_elapsed":1207647,"internal_node_id":"0.0-5.0-25.0"},{"group":"hexagon_tri","fractal_assignment":["../images/org_blu.png","../images/pnk_blu.png","../images/gry_blk.png","../images/ylw_slt.png","../images/cyn_red.png","../images/blu_wht.png"],"mutagen_generator_assignment":[0,1],"goal":5,"start":4,"action_noise":0.15,"location_history":"[4,0,1,5]","action_history":"[0,1,1]","mutagen_history":"[0,1,1]","location_rts":"[634,379,349]","trial_type":"fractal-mutation","trial_index":80,"time_elapsed":1216201,"internal_node_id":"0.0-5.0-26.0"},{"group":"hexagon_tri","fractal_assignment":["../images/org_blu.png","../images/pnk_blu.png","../images/gry_blk.png","../images/ylw_slt.png","../images/cyn_red.png","../images/blu_wht.png"],"mutagen_generator_assignment":[0,1],"goal":2,"start":5,"action_noise":0.15,"location_history":"[5,4,2]","action_history":"[0,1]","mutagen_history":"[0,1]","location_rts":"[445,569]","trial_type":"fractal-mutation","trial_index":81,"time_elapsed":1223147,"internal_node_id":"0.0-5.0-27.0"},{"group":"hexagon_tri","fractal_assignment":["../images/org_blu.png","../images/pnk_blu.png","../images/gry_blk.png","../images/ylw_slt.png","../images/cyn_red.png","../images/blu_wht.png"],"mutagen_generator_assignment":[0,1],"goal":3,"start":2,"action_noise":0.15,"location_history":"[2,1,5,0,5,0,1,5,4,0,5,4,2,1,3]","action_history":"[0,1,1,0,1,1,1,0,0,0,0,1,0,0]","mutagen_history":"[0,1,1,0,1,1,1,0,0,0,0,1,0,0]","location_rts":"[2310,697,751,462,339,120,507,548,258,487,617,556,649,611]","trial_type":"fractal-mutation","trial_index":82,"time_elapsed":1252390,"internal_node_id":"0.0-5.0-28.0"},{"group":"hexagon_tri","fractal_assignment":["../images/org_blu.png","../images/pnk_blu.png","../images/gry_blk.png","../images/ylw_slt.png","../images/cyn_red.png","../images/blu_wht.png"],"mutagen_generator_assignment":[0,1],"goal":1,"start":3,"action_noise":0.15,"location_history":"[3,2,3,2,1]","action_history":"[0,1,0,0]","mutagen_history":"[0,1,0,0]","location_rts":"[2552,288,236,378]","trial_type":"fractal-mutation","trial_index":83,"time_elapsed":1264105,"internal_node_id":"0.0-5.0-29.0"},{"group":"hexagon_tri","fractal_assignment":["../images/org_blu.png","../images/pnk_blu.png","../images/gry_blk.png","../images/ylw_slt.png","../images/cyn_red.png","../images/blu_wht.png"],"mutagen_generator_assignment":[0,1],"goal":4,"start":1,"action_noise":0.15,"location_history":"[1,5,0,5,4]","action_history":"[0,1,0,0]","mutagen_history":"[0,1,0,0]","location_rts":"[2791,307,85,261]","trial_type":"fractal-mutation","trial_index":84,"time_elapsed":1275753,"internal_node_id":"0.0-5.0-30.0"},{"group":"hexagon_tri","fractal_assignment":["../images/org_blu.png","../images/pnk_blu.png","../images/gry_blk.png","../images/ylw_slt.png","../images/cyn_red.png","../images/blu_wht.png"],"mutagen_generator_assignment":[0,1],"goal":5,"start":4,"action_noise":0.15,"location_history":"[4,0,1,5]","action_history":"[0,1,1]","mutagen_history":"[0,1,1]","location_rts":"[243,315,278]","trial_type":"fractal-mutation","trial_index":85,"time_elapsed":1283773,"internal_node_id":"0.0-5.0-31.0"},{"group":"hexagon_tri","fractal_assignment":["../images/org_blu.png","../images/pnk_blu.png","../images/gry_blk.png","../images/ylw_slt.png","../images/cyn_red.png","../images/blu_wht.png"],"mutagen_generator_assignment":[0,1],"goal":0,"start":5,"action_noise":0.15,"location_history":"[5,4,2,1,3,2,3,4,0]","action_history":"[0,1,1,0,0,0,1,0]","mutagen_history":"[0,1,1,0,0,0,1,0]","location_rts":"[162,1529,332,279,305,528,661,2451]","trial_type":"fractal-mutation","trial_index":86,"time_elapsed":1303143,"internal_node_id":"0.0-5.0-32.0"},{"group":"hexagon_tri","fractal_assignment":["../images/org_blu.png","../images/pnk_blu.png","../images/gry_blk.png","../images/ylw_slt.png","../images/cyn_red.png","../images/blu_wht.png"],"mutagen_generator_assignment":[0,1],"goal":2,"start":0,"action_noise":0.15,"location_history":"[0,1,5,4,0,1,3,4,0,1,3,2]","action_history":"[0,1,0,0,1,0,1,0,1,0,0]","mutagen_history":"[0,1,0,0,1,0,1,0,1,0,0]","location_rts":"[6072,839,177,477,1085,602,333,105,182,352,1118]","trial_type":"fractal-mutation","trial_index":87,"time_elapsed":1331112,"internal_node_id":"0.0-5.0-33.0"},{"group":"hexagon_tri","fractal_assignment":["../images/org_blu.png","../images/pnk_blu.png","../images/gry_blk.png","../images/ylw_slt.png","../images/cyn_red.png","../images/blu_wht.png"],"mutagen_generator_assignment":[0,1],"goal":0,"start":2,"action_noise":0.15,"location_history":"[2,1,5,4,2,1,3,4,0]","action_history":"[1,0,0,1,0,0,1,0]","mutagen_history":"[1,0,0,1,0,0,1,0]","location_rts":"[1667,275,416,60,145,630,351,367]","trial_type":"fractal-mutation","trial_index":88,"time_elapsed":1348104,"internal_node_id":"0.0-5.0-34.0"},{"group":"hexagon_tri","fractal_assignment":["../images/org_blu.png","../images/pnk_blu.png","../images/gry_blk.png","../images/ylw_slt.png","../images/cyn_red.png","../images/blu_wht.png"],"mutagen_generator_assignment":[0,1],"goal":5,"start":0,"action_noise":0.15,"location_history":"[0,1,5]","action_history":"[0,1]","mutagen_history":"[0,1]","location_rts":"[340,1923]","trial_type":"fractal-mutation","trial_index":89,"time_elapsed":1356378,"internal_node_id":"0.0-5.0-35.0"},{"group":"hexagon_tri","fractal_assignment":["../images/org_blu.png","../images/pnk_blu.png","../images/gry_blk.png","../images/ylw_slt.png","../images/cyn_red.png","../images/blu_wht.png"],"mutagen_generator_assignment":[0,1],"goal":1,"start":5,"action_noise":0.15,"location_history":"[5,4,2,1]","action_history":"[0,1,0]","mutagen_history":"[0,1,0]","location_rts":"[2023,197,426]","trial_type":"fractal-mutation","trial_index":90,"time_elapsed":1366109,"internal_node_id":"0.0-5.0-36.0"},{"group":"hexagon_tri","fractal_assignment":["../images/org_blu.png","../images/pnk_blu.png","../images/gry_blk.png","../images/ylw_slt.png","../images/cyn_red.png","../images/blu_wht.png"],"mutagen_generator_assignment":[0,1],"goal":4,"start":1,"action_noise":0.15,"location_history":"[1,5,4]","action_history":"[1,0]","mutagen_history":"[1,0]","location_rts":"[1582,173]","trial_type":"fractal-mutation","trial_index":91,"time_elapsed":1373781,"internal_node_id":"0.0-5.0-37.0"},{"group":"hexagon_tri","fractal_assignment":["../images/org_blu.png","../images/pnk_blu.png","../images/gry_blk.png","../images/ylw_slt.png","../images/cyn_red.png","../images/blu_wht.png"],"mutagen_generator_assignment":[0,1],"goal":3,"start":4,"action_noise":0.15,"location_history":"[4,2,1,5,0,5,0,1,3]","action_history":"[1,0,0,1,0,1,1,0]","mutagen_history":"[1,0,0,1,0,1,1,0]","location_rts":"[845,10,297,320,376,1039,369,436]","trial_type":"fractal-mutation","trial_index":92,"time_elapsed":1390637,"internal_node_id":"0.0-5.0-38.0"},{"group":"hexagon_tri","fractal_assignment":["../images/org_blu.png","../images/pnk_blu.png","../images/gry_blk.png","../images/ylw_slt.png","../images/cyn_red.png","../images/blu_wht.png"],"mutagen_generator_assignment":[0,1],"goal":5,"start":3,"action_noise":0.15,"location_history":"[3,2,3,2,3,2,1,5]","action_history":"[0,1,1,1,0,0,1]","mutagen_history":"[0,1,1,1,0,0,1]","location_rts":"[576,287,420,686,293,292,779]","trial_type":"fractal-mutation","trial_index":93,"time_elapsed":1406043,"internal_node_id":"0.0-5.0-39.0"},{"group":"hexagon_tri","fractal_assignment":["../images/org_blu.png","../images/pnk_blu.png","../images/gry_blk.png","../images/ylw_slt.png","../images/cyn_red.png","../images/blu_wht.png"],"mutagen_generator_assignment":[0,1],"goal":1,"start":5,"action_noise":0.15,"location_history":"[5,4,2,1]","action_history":"[0,1,0]","mutagen_history":"[0,1,0]","location_rts":"[1035,158,12]","trial_type":"fractal-mutation","trial_index":94,"time_elapsed":1414348,"internal_node_id":"0.0-5.0-40.0"},{"group":"hexagon_tri","fractal_assignment":["../images/org_blu.png","../images/pnk_blu.png","../images/gry_blk.png","../images/ylw_slt.png","../images/cyn_red.png","../images/blu_wht.png"],"mutagen_generator_assignment":[0,1],"goal":2,"start":1,"action_noise":0.15,"location_history":"[1,3,4,0,1,3,2]","action_history":"[0,1,0,1,1,1]","mutagen_history":"[0,1,0,1,1,1]","location_rts":"[771,658,204,262,173,468]","trial_type":"fractal-mutation","trial_index":95,"time_elapsed":1427803,"internal_node_id":"0.0-5.0-41.0"},{"group":"hexagon_tri","fractal_assignment":["../images/org_blu.png","../images/pnk_blu.png","../images/gry_blk.png","../images/ylw_slt.png","../images/cyn_red.png","../images/blu_wht.png"],"mutagen_generator_assignment":[0,1],"goal":4,"start":2,"action_noise":0.15,"location_history":"[2,1,5,4]","action_history":"[0,1,0]","mutagen_history":"[0,1,0]","location_rts":"[1851,198,101]","trial_type":"fractal-mutation","trial_index":96,"time_elapsed":1437026,"internal_node_id":"0.0-5.0-42.0"},{"group":"hexagon_tri","fractal_assignment":["../images/org_blu.png","../images/pnk_blu.png","../images/gry_blk.png","../images/ylw_slt.png","../images/cyn_red.png","../images/blu_wht.png"],"mutagen_generator_assignment":[0,1],"goal":0,"start":4,"action_noise":0.15,"location_history":"[4,0]","action_history":"[0]","mutagen_history":"[0]","location_rts":"[330]","trial_type":"fractal-mutation","trial_index":97,"time_elapsed":1442024,"internal_node_id":"0.0-5.0-43.0"},{"group":"hexagon_tri","fractal_assignment":["../images/org_blu.png","../images/pnk_blu.png","../images/gry_blk.png","../images/ylw_slt.png","../images/cyn_red.png","../images/blu_wht.png"],"mutagen_generator_assignment":[0,1],"goal":3,"start":0,"action_noise":0.15,"location_history":"[0,5,4,0,1,3]","action_history":"[0,0,0,1,0]","mutagen_history":"[0,0,0,1,0]","location_rts":"[1310,433,445,337,3]","trial_type":"fractal-mutation","trial_index":98,"time_elapsed":1453990,"internal_node_id":"0.0-5.0-44.0"},{"group":"hexagon_tri","fractal_assignment":["../images/org_blu.png","../images/pnk_blu.png","../images/gry_blk.png","../images/ylw_slt.png","../images/cyn_red.png","../images/blu_wht.png"],"mutagen_generator_assignment":[0,1],"goal":0,"start":3,"action_noise":0.15,"location_history":"[3,2,3,2,1,3,4,2,1,3,4,0]","action_history":"[0,1,1,0,0,1,1,0,1,1,0]","mutagen_history":"[0,1,1,0,0,1,1,0,1,1,0]","location_rts":"[1219,46,285,275,371,327,327,465,313,473,404]","trial_type":"fractal-mutation","trial_index":99,"time_elapsed":1475434,"internal_node_id":"0.0-5.0-45.0"},{"group":"hexagon_tri","fractal_assignment":["../images/org_blu.png","../images/pnk_blu.png","../images/gry_blk.png","../images/ylw_slt.png","../images/cyn_red.png","../images/blu_wht.png"],"mutagen_generator_assignment":[0,1],"goal":4,"start":0,"action_noise":0.15,"location_history":"[0,1,3,4]","action_history":"[1,0,1]","mutagen_history":"[1,0,1]","location_rts":"[64,883,231]","trial_type":"fractal-mutation","trial_index":100,"time_elapsed":1483851,"internal_node_id":"0.0-5.0-46.0"},{"group":"hexagon_tri","fractal_assignment":["../images/org_blu.png","../images/pnk_blu.png","../images/gry_blk.png","../images/ylw_slt.png","../images/cyn_red.png","../images/blu_wht.png"],"mutagen_generator_assignment":[0,1],"goal":5,"start":4,"action_noise":0.15,"location_history":"[4,0,1,3,2,1,5]","action_history":"[0,1,0,0,0,0]","mutagen_history":"[0,1,0,0,0,0]","location_rts":"[608,227,410,530,1232,1354]","trial_type":"fractal-mutation","trial_index":101,"time_elapsed":1498748,"internal_node_id":"0.0-5.0-47.0"},{"group":"hexagon_tri","fractal_assignment":["../images/org_blu.png","../images/pnk_blu.png","../images/gry_blk.png","../images/ylw_slt.png","../images/cyn_red.png","../images/blu_wht.png"],"mutagen_generator_assignment":[0,1],"goal":2,"start":5,"action_noise":0.15,"location_history":"[5,4,0,5,0,5,4,2]","action_history":"[0,1,0,1,0,1,1]","mutagen_history":"[0,1,0,1,0,1,1]","location_rts":"[792,276,337,284,377,1624,264]","trial_type":"fractal-mutation","trial_index":102,"time_elapsed":1514928,"internal_node_id":"0.0-5.0-48.0"},{"group":"hexagon_tri","fractal_assignment":["../images/org_blu.png","../images/pnk_blu.png","../images/gry_blk.png","../images/ylw_slt.png","../images/cyn_red.png","../images/blu_wht.png"],"mutagen_generator_assignment":[0,1],"goal":1,"start":2,"action_noise":0.15,"location_history":"[2,1]","action_history":"[0]","mutagen_history":"[0]","location_rts":"[503]","trial_type":"fractal-mutation","trial_index":103,"time_elapsed":1520085,"internal_node_id":"0.0-5.0-49.0"},{"view_history":"[{\"page_index\":0,\"viewing_time\":2324}]","rt":2324,"trial_type":"instructions","trial_index":104,"time_elapsed":1523408,"internal_node_id":"0.0-6.0"},{"rt":13105,"responses":"{\"Q0\":\"Your memory \"}","trial_type":"survey-text","trial_index":105,"time_elapsed":1537525,"internal_node_id":"0.0-7.0-0.0"},{"rt":21259,"responses":"{\"Q0\":\"Memory of getting to the pattern the best route\"}","trial_type":"survey-text","trial_index":106,"time_elapsed":1559791,"internal_node_id":"0.0-7.0-1.0"},{"rt":31078,"responses":"{\"Q0\":\"<img src='../images/diagrams/hexagon_bi.png'>\"}","trial_type":"survey-multi-choice","trial_index":107,"time_elapsed":1591882,"internal_node_id":"0.0-7.0-2.0"},{"rt":24821,"assignments":["../images/org_blu.png","../images/cyn_red.png","../images/blu_wht.png","../images/pnk_blu.png","../images/gry_blk.png","../images/ylw_slt.png"],"trial_type":"drag-drop-on-image","trial_index":108,"time_elapsed":1617787,"internal_node_id":"0.0-7.0-3.0"},{"rt":5022,"responses":"{\"Q0\":\"2\"}","trial_type":"survey-likert","trial_index":109,"time_elapsed":1623828,"internal_node_id":"0.0-7.0-4.0"},{"rt":44326,"responses":"{\"Q0\":\"The pattern corresponds with the spatial\"}","trial_type":"survey-text","trial_index":110,"time_elapsed":1669161,"internal_node_id":"0.0-7.0-5.0"},{"rt":5865,"responses":"{\"Q0\":\"Yes\"}","trial_type":"survey-multi-choice","trial_index":111,"time_elapsed":1676032,"internal_node_id":"0.0-7.0-6.0"},{"rt":7188,"responses":"{\"Q0\":\"Between sessions 1 and 2\"}","trial_type":"survey-multi-choice","trial_index":112,"time_elapsed":1684230,"internal_node_id":"0.0-7.0-7.0"},{"rt":8691,"responses":"{\"Q0\":\"\"}","trial_type":"survey-text","trial_index":113,"time_elapsed":1693923,"internal_node_id":"0.0-7.0-8.0"},{"rt":6464,"responses":"{\"Q0\":\"2\"}","trial_type":"survey-likert","trial_index":114,"time_elapsed":1701392,"internal_node_id":"0.0-7.0-9.0"},{"rt":9621,"responses":"{\"Q0\":\"Same structure\"}","trial_type":"survey-multi-choice","trial_index":115,"time_elapsed":1712020,"internal_node_id":"0.0-7.0-10.0"},{"rt":22071,"responses":"{\"Q0\":\"left (black) door = ray, right (white) door = acid\",\"Q1\":\"Slightly confident\"}","trial_type":"survey-multi-choice","trial_index":116,"time_elapsed":1735104,"internal_node_id":"0.0-7.0-11.0"},{"rt":7331,"responses":"{\"Q0\":\"25-35\",\"Q1\":\"Associates or other two-year degree\",\"Q2\":\"Male\",\"Q3\":\"Asian\"}","trial_type":"survey-multi-choice","trial_index":117,"time_elapsed":1743459,"internal_node_id":"0.0-8.0"},{"rt":4053,"responses":"{\"Q0\":\"\"}","trial_type":"survey-text","trial_index":118,"time_elapsed":1748514,"internal_node_id":"0.0-9.0"}]