[{"view_history":"[{\"page_index\":0,\"viewing_time\":23375},{\"page_index\":1,\"viewing_time\":14476}]","rt":37854,"trial_type":"instructions","trial_index":0,"time_elapsed":37857,"internal_node_id":"0.0-0.0"},{"view_history":"[{\"page_index\":0,\"viewing_time\":5561},{\"page_index\":1,\"viewing_time\":13764}]","rt":19325,"trial_type":"instructions","trial_index":1,"time_elapsed":58273,"internal_node_id":"0.0-1.0"},{"group":"hexagon_bi","room_assignment":["red","blue","purple","yellow","grey","green"],"door_color_assignment":["black","white"],"door_generator_assignment":[0,1],"goal":2,"start":1,"action_noise":0.15,"location_history":"[1,2]","action_history":"[0]","door_history":"[0]","location_rts":"[2074]","trial_type":"two-door-navigation","trial_index":2,"time_elapsed":65087,"internal_node_id":"0.0-2.0-0.0"},{"group":"hexagon_bi","room_assignment":["red","blue","purple","yellow","grey","green"],"door_color_assignment":["black","white"],"door_generator_assignment":[0,1],"goal":0,"start":2,"action_noise":0.15,"location_history":"[2,3,4,3,4,3,2,1,0]","action_history":"[1,0,1,0,0,1,0,1]","door_history":"[1,0,1,0,0,1,0,1]","location_rts":"[2167,970,1085,2164,907,606,1166,516]","trial_type":"two-door-navigation","trial_index":3,"time_elapsed":89035,"internal_node_id":"0.0-2.0-1.0"},{"group":"hexagon_bi","room_assignment":["red","blue","purple","yellow","grey","green"],"door_color_assignment":["black","white"],"door_generator_assignment":[0,1],"goal":5,"start":0,"action_noise":0.15,"location_history":"[0,1,0,5]","action_history":"[1,1,0]","door_history":"[1,1,0]","location_rts":"[1625,2080,2002]","trial_type":"two-door-navigation","trial_index":4,"time_elapsed":101283,"internal_node_id":"0.0-2.0-2.0"},{"group":"hexagon_bi","room_assignment":["red","blue","purple","yellow","grey","green"],"door_color_assignment":["black","white"],"door_generator_assignment":[0,1],"goal":1,"start":5,"action_noise":0.15,"location_history":"[5,4,5,0,1]","action_history":"[1,1,1,0]","door_history":"[1,1,1,0]","location_rts":"[2686,1363,1090,315]","trial_type":"two-door-navigation","trial_index":5,"time_elapsed":115866,"internal_node_id":"0.0-2.0-3.0"},{"group":"hexagon_bi","room_assignment":["red","blue","purple","yellow","grey","green"],"door_color_assignment":["black","white"],"door_generator_assignment":[0,1],"goal":3,"start":1,"action_noise":0.15,"location_history":"[1,0,1,2,3]","action_history":"[1,1,0,1]","door_history":"[1,1,0,1]","location_rts":"[4564,1862,1135,1233]","trial_type":"two-door-navigation","trial_index":6,"time_elapsed":133270,"internal_node_id":"0.0-2.0-4.0"},{"group":"hexagon_bi","room_assignment":["red","blue","purple","yellow","grey","green"],"door_color_assignment":["black","white"],"door_generator_assignment":[0,1],"goal":5,"start":3,"action_noise":0.15,"location_history":"[3,2,3,4,5]","action_history":"[1,1,0,1]","door_history":"[1,1,0,1]","location_rts":"[1580,1088,594,828]","trial_type":"two-door-navigation","trial_index":7,"time_elapsed":147681,"internal_node_id":"0.0-2.0-5.0"},{"group":"hexagon_bi","room_assignment":["red","blue","purple","yellow","grey","green"],"door_color_assignment":["black","white"],"door_generator_assignment":[0,1],"goal":4,"start":5,"action_noise":0.15,"location_history":"[5,0,1,0,1,2,3,4]","action_history":"[1,1,0,1,0,1,0]","door_history":"[1,1,0,1,0,1,0]","location_rts":"[2688,1272,707,382,674,387,708]","trial_type":"two-door-navigation","trial_index":8,"time_elapsed":165930,"internal_node_id":"0.0-2.0-6.0"},{"group":"hexagon_bi","room_assignment":["red","blue","purple","yellow","grey","green"],"door_color_assignment":["black","white"],"door_generator_assignment":[0,1],"goal":0,"start":4,"action_noise":0.15,"location_history":"[4,5,4,3,2,1,0]","action_history":"[1,0,0,1,0,1]","door_history":"[1,0,0,1,0,1]","location_rts":"[17531,1447,1970,565,1533,332]","trial_type":"two-door-navigation","trial_index":9,"time_elapsed":202838,"internal_node_id":"0.0-2.0-7.0"},{"group":"hexagon_bi","room_assignment":["red","blue","purple","yellow","grey","green"],"door_color_assignment":["black","white"],"door_generator_assignment":[0,1],"goal":2,"start":0,"action_noise":0.15,"location_history":"[0,1,2]","action_history":"[1,0]","door_history":"[1,0]","location_rts":"[2266,946]","trial_type":"two-door-navigation","trial_index":10,"time_elapsed":213028,"internal_node_id":"0.0-2.0-8.0"},{"group":"hexagon_bi","room_assignment":["red","blue","purple","yellow","grey","green"],"door_color_assignment":["black","white"],"door_generator_assignment":[0,1],"goal":4,"start":2,"action_noise":0.15,"location_history":"[2,3,4]","action_history":"[1,1]","door_history":"[1,1]","location_rts":"[7909,544]","trial_type":"two-door-navigation","trial_index":11,"time_elapsed":227149,"internal_node_id":"0.0-2.0-9.0"},{"group":"hexagon_bi","room_assignment":["red","blue","purple","yellow","grey","green"],"door_color_assignment":["black","white"],"door_generator_assignment":[0,1],"goal":2,"start":4,"action_noise":0.15,"location_history":"[4,3,4,3,2]","action_history":"[1,0,0,1]","door_history":"[1,0,0,1]","location_rts":"[3154,1560,1026,742]","trial_type":"two-door-navigation","trial_index":12,"time_elapsed":242261,"internal_node_id":"0.0-2.0-10.0"},{"group":"hexagon_bi","room_assignment":["red","blue","purple","yellow","grey","green"],"door_color_assignment":["black","white"],"door_generator_assignment":[0,1],"goal":3,"start":2,"action_noise":0.15,"location_history":"[2,1,0,5,4,5,4,3]","action_history":"[0,1,1,0,1,1,0]","door_history":"[0,1,1,0,1,1,0]","location_rts":"[2587,728,563,1132,1308,1595,436]","trial_type":"two-door-navigation","trial_index":13,"time_elapsed":262309,"internal_node_id":"0.0-2.0-11.0"},{"group":"hexagon_bi","room_assignment":["red","blue","purple","yellow","grey","green"],"door_color_assignment":["black","white"],"door_generator_assignment":[0,1],"goal":0,"start":3,"action_noise":0.15,"location_history":"[3,2,3,2,1,0]","action_history":"[1,0,0,0,1]","door_history":"[1,0,0,0,1]","location_rts":"[1563,2036,2068,1123,1274]","trial_type":"two-door-navigation","trial_index":14,"time_elapsed":280359,"internal_node_id":"0.0-2.0-12.0"},{"group":"hexagon_bi","room_assignment":["red","blue","purple","yellow","grey","green"],"door_color_assignment":["black","white"],"door_generator_assignment":[0,1],"goal":5,"start":0,"action_noise":0.15,"location_history":"[0,1,0,5]","action_history":"[1,1,0]","door_history":"[1,1,0]","location_rts":"[2023,1192,565]","trial_type":"two-door-navigation","trial_index":15,"time_elapsed":291863,"internal_node_id":"0.0-2.0-13.0"},{"group":"hexagon_bi","room_assignment":["red","blue","purple","yellow","grey","green"],"door_color_assignment":["black","white"],"door_generator_assignment":[0,1],"goal":1,"start":5,"action_noise":0.15,"location_history":"[5,4,3,2,1]","action_history":"[1,0,1,0]","door_history":"[1,0,1,0]","location_rts":"[2650,696,1074,1062]","trial_type":"two-door-navigation","trial_index":16,"time_elapsed":306198,"internal_node_id":"0.0-2.0-14.0"},{"group":"hexagon_bi","room_assignment":["red","blue","purple","yellow","grey","green"],"door_color_assignment":["black","white"],"door_generator_assignment":[0,1],"goal":5,"start":1,"action_noise":0.15,"location_history":"[1,0,1,0,5]","action_history":"[0,0,0,0]","door_history":"[0,0,0,0]","location_rts":"[1490,869,792,539]","trial_type":"two-door-navigation","trial_index":17,"time_elapsed":318784,"internal_node_id":"0.0-2.0-15.0"},{"group":"hexagon_bi","room_assignment":["red","blue","purple","yellow","grey","green"],"door_color_assignment":["black","white"],"door_generator_assignment":[0,1],"goal":3,"start":5,"action_noise":0.15,"location_history":"[5,4,3]","action_history":"[1,0]","door_history":"[1,0]","location_rts":"[1165,1216]","trial_type":"two-door-navigation","trial_index":18,"time_elapsed":326934,"internal_node_id":"0.0-2.0-16.0"},{"group":"hexagon_bi","room_assignment":["red","blue","purple","yellow","grey","green"],"door_color_assignment":["black","white"],"door_generator_assignment":[0,1],"goal":2,"start":3,"action_noise":0.15,"location_history":"[3,4,3,4,5,0,1,2]","action_history":"[1,0,0,1,0,1,0]","door_history":"[1,0,0,1,0,1,0]","location_rts":"[3501,554,731,988,583,1932,424]","trial_type":"two-door-navigation","trial_index":19,"time_elapsed":347133,"internal_node_id":"0.0-2.0-17.0"},{"group":"hexagon_bi","room_assignment":["red","blue","purple","yellow","grey","green"],"door_color_assignment":["black","white"],"door_generator_assignment":[0,1],"goal":1,"start":2,"action_noise":0.15,"location_history":"[2,1]","action_history":"[0]","door_history":"[0]","location_rts":"[1203]","trial_type":"two-door-navigation","trial_index":20,"time_elapsed":352928,"internal_node_id":"0.0-2.0-18.0"},{"group":"hexagon_bi","room_assignment":["red","blue","purple","yellow","grey","green"],"door_color_assignment":["black","white"],"door_generator_assignment":[0,1],"goal":4,"start":1,"action_noise":0.15,"location_history":"[1,0,5,0,1,2,1,0,5,4]","action_history":"[1,1,0,0,0,0,1,0,1]","door_history":"[1,1,0,0,0,0,1,0,1]","location_rts":"[2032,921,746,1139,1106,1211,271,557,901]","trial_type":"two-door-navigation","trial_index":21,"time_elapsed":376131,"internal_node_id":"0.0-2.0-19.0"},{"group":"hexagon_bi","room_assignment":["red","blue","purple","yellow","grey","green"],"door_color_assignment":["black","white"],"door_generator_assignment":[0,1],"goal":0,"start":4,"action_noise":0.15,"location_history":"[4,3,4,3,4,3,4,5,4,3,2,1,0]","action_history":"[0,0,0,1,0,0,1,1,0,0,0,1]","door_history":"[0,0,0,1,0,0,1,1,0,0,0,1]","location_rts":"[2076,1564,954,250,1136,540,866,1183,958,558,1636,338]","trial_type":"two-door-navigation","trial_index":22,"time_elapsed":405612,"internal_node_id":"0.0-2.0-20.0"},{"group":"hexagon_bi","room_assignment":["red","blue","purple","yellow","grey","green"],"door_color_assignment":["black","white"],"door_generator_assignment":[0,1],"goal":3,"start":0,"action_noise":0.15,"location_history":"[0,1,0,5,0,5,0,5,4,3]","action_history":"[1,0,0,0,0,0,0,1,0]","door_history":"[1,0,0,0,0,0,0,1,0]","location_rts":"[2501,905,670,993,851,407,915,280,825]","trial_type":"two-door-navigation","trial_index":23,"time_elapsed":427845,"internal_node_id":"0.0-2.0-21.0"},{"group":"hexagon_bi","room_assignment":["red","blue","purple","yellow","grey","green"],"door_color_assignment":["black","white"],"door_generator_assignment":[0,1],"goal":1,"start":3,"action_noise":0.15,"location_history":"[3,2,1]","action_history":"[1,0]","door_history":"[1,0]","location_rts":"[1571,1033]","trial_type":"two-door-navigation","trial_index":24,"time_elapsed":437510,"internal_node_id":"0.0-2.0-22.0"},{"group":"hexagon_bi","room_assignment":["red","blue","purple","yellow","grey","green"],"door_color_assignment":["black","white"],"door_generator_assignment":[0,1],"goal":0,"start":1,"action_noise":0.15,"location_history":"[1,0]","action_history":"[1]","door_history":"[1]","location_rts":"[2054]","trial_type":"two-door-navigation","trial_index":25,"time_elapsed":444668,"internal_node_id":"0.0-2.0-23.0"},{"group":"hexagon_bi","room_assignment":["red","blue","purple","yellow","grey","green"],"door_color_assignment":["black","white"],"door_generator_assignment":[0,1],"goal":2,"start":0,"action_noise":0.15,"location_history":"[0,5,0,1,2]","action_history":"[0,0,1,0]","door_history":"[0,0,1,0]","location_rts":"[1815,1148,350,652]","trial_type":"two-door-navigation","trial_index":26,"time_elapsed":456211,"internal_node_id":"0.0-2.0-24.0"},{"group":"hexagon_bi","room_assignment":["red","blue","purple","yellow","grey","green"],"door_color_assignment":["black","white"],"door_generator_assignment":[0,1],"goal":4,"start":2,"action_noise":0.15,"location_history":"[2,3,4]","action_history":"[1,0]","door_history":"[1,0]","location_rts":"[1659,587]","trial_type":"two-door-navigation","trial_index":27,"time_elapsed":464838,"internal_node_id":"0.0-2.0-25.0"},{"group":"hexagon_bi","room_assignment":["red","blue","purple","yellow","grey","green"],"door_color_assignment":["black","white"],"door_generator_assignment":[0,1],"goal":5,"start":4,"action_noise":0.15,"location_history":"[4,3,2,1,0,5]","action_history":"[0,1,0,1,0]","door_history":"[0,1,0,1,0]","location_rts":"[1916,1028,685,932,382]","trial_type":"two-door-navigation","trial_index":28,"time_elapsed":478978,"internal_node_id":"0.0-2.0-26.0"},{"group":"hexagon_bi","room_assignment":["red","blue","purple","yellow","grey","green"],"door_color_assignment":["black","white"],"door_generator_assignment":[0,1],"goal":2,"start":5,"action_noise":0.15,"location_history":"[5,4,3,4,3,4,3,2]","action_history":"[1,0,1,0,0,0,1]","door_history":"[1,0,1,0,0,0,1]","location_rts":"[2571,1821,1296,635,224,464,388]","trial_type":"two-door-navigation","trial_index":29,"time_elapsed":498857,"internal_node_id":"0.0-2.0-27.0"},{"group":"hexagon_bi","room_assignment":["red","blue","purple","yellow","grey","green"],"door_color_assignment":["black","white"],"door_generator_assignment":[0,1],"goal":3,"start":2,"action_noise":0.15,"location_history":"[2,1,2,1,2,3]","action_history":"[0,1,0,0,1]","door_history":"[0,1,0,0,1]","location_rts":"[2297,957,1237,598,659]","trial_type":"two-door-navigation","trial_index":30,"time_elapsed":514317,"internal_node_id":"0.0-2.0-28.0"},{"group":"hexagon_bi","room_assignment":["red","blue","purple","yellow","grey","green"],"door_color_assignment":["black","white"],"door_generator_assignment":[0,1],"goal":1,"start":3,"action_noise":0.15,"location_history":"[3,2,3,4,3,4,3,4,5,4,5,4,3,4,5,0,1]","action_history":"[1,0,0,0,1,0,0,1,1,1,0,0,0,1,0,1]","door_history":"[1,0,0,0,1,0,0,1,1,1,0,0,0,1,0,1]","location_rts":"[3093,1869,878,523,526,465,485,1206,1890,621,411,745,525,374,502,1408]","trial_type":"two-door-navigation","trial_index":31,"time_elapsed":552943,"internal_node_id":"0.0-2.0-29.0"},{"group":"hexagon_bi","room_assignment":["red","blue","purple","yellow","grey","green"],"door_color_assignment":["black","white"],"door_generator_assignment":[0,1],"goal":4,"start":1,"action_noise":0.15,"location_history":"[1,2,3,2,3,2,3,4]","action_history":"[0,1,0,1,1,1,0]","door_history":"[0,1,0,1,1,1,0]","location_rts":"[1584,652,675,541,337,613,830]","trial_type":"two-door-navigation","trial_index":32,"time_elapsed":570255,"internal_node_id":"0.0-2.0-30.0"},{"group":"hexagon_bi","room_assignment":["red","blue","purple","yellow","grey","green"],"door_color_assignment":["black","white"],"door_generator_assignment":[0,1],"goal":5,"start":4,"action_noise":0.15,"location_history":"[4,5]","action_history":"[1]","door_history":"[1]","location_rts":"[1777]","trial_type":"two-door-navigation","trial_index":33,"time_elapsed":576586,"internal_node_id":"0.0-2.0-31.0"},{"group":"hexagon_bi","room_assignment":["red","blue","purple","yellow","grey","green"],"door_color_assignment":["black","white"],"door_generator_assignment":[0,1],"goal":0,"start":5,"action_noise":0.15,"location_history":"[5,4,3,2,3,2,1,2,1,0]","action_history":"[1,0,1,0,1,0,1,0,1]","door_history":"[1,0,1,0,1,0,1,0,1]","location_rts":"[1978,1447,808,862,289,2402,380,1494,348]","trial_type":"two-door-navigation","trial_index":34,"time_elapsed":600338,"internal_node_id":"0.0-2.0-32.0"},{"group":"hexagon_bi","room_assignment":["red","blue","purple","yellow","grey","green"],"door_color_assignment":["black","white"],"door_generator_assignment":[0,1],"goal":2,"start":0,"action_noise":0.15,"location_history":"[0,1,2]","action_history":"[1,0]","door_history":"[1,0]","location_rts":"[6072,266]","trial_type":"two-door-navigation","trial_index":35,"time_elapsed":612894,"internal_node_id":"0.0-2.0-33.0"},{"group":"hexagon_bi","room_assignment":["red","blue","purple","yellow","grey","green"],"door_color_assignment":["black","white"],"door_generator_assignment":[0,1],"goal":0,"start":2,"action_noise":0.15,"location_history":"[2,1,0]","action_history":"[0,1]","door_history":"[0,1]","location_rts":"[2327,328]","trial_type":"two-door-navigation","trial_index":36,"time_elapsed":621071,"internal_node_id":"0.0-2.0-34.0"},{"group":"hexagon_bi","room_assignment":["red","blue","purple","yellow","grey","green"],"door_color_assignment":["black","white"],"door_generator_assignment":[0,1],"goal":5,"start":0,"action_noise":0.15,"location_history":"[0,1,0,5]","action_history":"[1,1,0]","door_history":"[1,1,0]","location_rts":"[3116,715,312]","trial_type":"two-door-navigation","trial_index":37,"time_elapsed":631846,"internal_node_id":"0.0-2.0-35.0"},{"group":"hexagon_bi","room_assignment":["red","blue","purple","yellow","grey","green"],"door_color_assignment":["black","white"],"door_generator_assignment":[0,1],"goal":1,"start":5,"action_noise":0.15,"location_history":"[5,0,1]","action_history":"[0,1]","door_history":"[0,1]","location_rts":"[3978,565]","trial_type":"two-door-navigation","trial_index":38,"time_elapsed":643095,"internal_node_id":"0.0-2.0-36.0"},{"group":"hexagon_bi","room_assignment":["red","blue","purple","yellow","grey","green"],"door_color_assignment":["black","white"],"door_generator_assignment":[0,1],"goal":4,"start":1,"action_noise":0.15,"location_history":"[1,2,1,0,5,0,1,2,3,2,3,4]","action_history":"[0,1,1,0,1,1,0,1,1,1,0]","door_history":"[0,1,1,0,1,1,0,1,1,1,0]","location_rts":"[1532,1020,739,629,422,1165,144,378,572,862,325]","trial_type":"two-door-navigation","trial_index":39,"time_elapsed":666050,"internal_node_id":"0.0-2.0-37.0"},{"group":"hexagon_bi","room_assignment":["red","blue","purple","yellow","grey","green"],"door_color_assignment":["black","white"],"door_generator_assignment":[0,1],"goal":3,"start":4,"action_noise":0.15,"location_history":"[4,3]","action_history":"[0]","door_history":"[0]","location_rts":"[1762]","trial_type":"two-door-navigation","trial_index":40,"time_elapsed":672331,"internal_node_id":"0.0-2.0-38.0"},{"group":"hexagon_bi","room_assignment":["red","blue","purple","yellow","grey","green"],"door_color_assignment":["black","white"],"door_generator_assignment":[0,1],"goal":5,"start":3,"action_noise":0.15,"location_history":"[3,4,5]","action_history":"[0,1]","door_history":"[0,1]","location_rts":"[1878,1426]","trial_type":"two-door-navigation","trial_index":41,"time_elapsed":682181,"internal_node_id":"0.0-2.0-39.0"},{"group":"hexagon_bi","room_assignment":["red","blue","purple","yellow","grey","green"],"door_color_assignment":["black","white"],"door_generator_assignment":[0,1],"goal":1,"start":5,"action_noise":0.15,"location_history":"[5,4,5,0,1]","action_history":"[1,1,0,1]","door_history":"[1,1,0,1]","location_rts":"[3319,465,262,767]","trial_type":"two-door-navigation","trial_index":42,"time_elapsed":695741,"internal_node_id":"0.0-2.0-40.0"},{"group":"hexagon_bi","room_assignment":["red","blue","purple","yellow","grey","green"],"door_color_assignment":["black","white"],"door_generator_assignment":[0,1],"goal":2,"start":1,"action_noise":0.15,"location_history":"[1,2]","action_history":"[0]","door_history":"[0]","location_rts":"[1270]","trial_type":"two-door-navigation","trial_index":43,"time_elapsed":701580,"internal_node_id":"0.0-2.0-41.0"},{"group":"hexagon_bi","room_assignment":["red","blue","purple","yellow","grey","green"],"door_color_assignment":["black","white"],"door_generator_assignment":[0,1],"goal":4,"start":2,"action_noise":0.15,"location_history":"[2,3,4]","action_history":"[1,0]","door_history":"[1,0]","location_rts":"[2433,724]","trial_type":"two-door-navigation","trial_index":44,"time_elapsed":710297,"internal_node_id":"0.0-2.0-42.0"},{"group":"hexagon_bi","room_assignment":["red","blue","purple","yellow","grey","green"],"door_color_assignment":["black","white"],"door_generator_assignment":[0,1],"goal":0,"start":4,"action_noise":0.15,"location_history":"[4,3,2,1,0]","action_history":"[0,1,0,1]","door_history":"[0,1,0,1]","location_rts":"[2001,746,783,380]","trial_type":"two-door-navigation","trial_index":45,"time_elapsed":722406,"internal_node_id":"0.0-2.0-43.0"},{"group":"hexagon_bi","room_assignment":["red","blue","purple","yellow","grey","green"],"door_color_assignment":["black","white"],"door_generator_assignment":[0,1],"goal":3,"start":0,"action_noise":0.15,"location_history":"[0,1,0,5,0,5,4,3]","action_history":"[1,1,0,0,0,1,0]","door_history":"[1,1,0,0,0,1,0]","location_rts":"[1573,2074,748,1790,592,316,580]","trial_type":"two-door-navigation","trial_index":46,"time_elapsed":741226,"internal_node_id":"0.0-2.0-44.0"},{"group":"hexagon_bi","room_assignment":["red","blue","purple","yellow","grey","green"],"door_color_assignment":["black","white"],"door_generator_assignment":[0,1],"goal":0,"start":3,"action_noise":0.15,"location_history":"[3,4,5,4,3,4,5,0]","action_history":"[1,1,0,0,0,1,0]","door_history":"[1,1,0,0,0,1,0]","location_rts":"[2128,1333,1653,1143,1347,408,1185]","trial_type":"two-door-navigation","trial_index":47,"time_elapsed":761629,"internal_node_id":"0.0-2.0-45.0"},{"group":"hexagon_bi","room_assignment":["red","blue","purple","yellow","grey","green"],"door_color_assignment":["black","white"],"door_generator_assignment":[0,1],"goal":4,"start":0,"action_noise":0.15,"location_history":"[0,5,0,5,4]","action_history":"[0,0,0,1]","door_history":"[0,0,0,1]","location_rts":"[1573,1932,464,387]","trial_type":"two-door-navigation","trial_index":48,"time_elapsed":773584,"internal_node_id":"0.0-2.0-46.0"},{"group":"hexagon_bi","room_assignment":["red","blue","purple","yellow","grey","green"],"door_color_assignment":["black","white"],"door_generator_assignment":[0,1],"goal":5,"start":4,"action_noise":0.15,"location_history":"[4,3,4,5]","action_history":"[0,0,1]","door_history":"[0,0,1]","location_rts":"[2576,1954,593]","trial_type":"two-door-navigation","trial_index":49,"time_elapsed":785383,"internal_node_id":"0.0-2.0-47.0"},{"group":"hexagon_bi","room_assignment":["red","blue","purple","yellow","grey","green"],"door_color_assignment":["black","white"],"door_generator_assignment":[0,1],"goal":2,"start":5,"action_noise":0.15,"location_history":"[5,4,3,4,5,4,5,0,1,2]","action_history":"[1,0,0,1,1,1,0,1,0]","door_history":"[1,0,0,1,1,1,0,1,0]","location_rts":"[1675,340,607,814,488,725,682,2332,645]","trial_type":"two-door-navigation","trial_index":50,"time_elapsed":806419,"internal_node_id":"0.0-2.0-48.0"},{"group":"hexagon_bi","room_assignment":["red","blue","purple","yellow","grey","green"],"door_color_assignment":["black","white"],"door_generator_assignment":[0,1],"goal":1,"start":2,"action_noise":0.15,"location_history":"[2,1]","action_history":"[0]","door_history":"[0]","location_rts":"[1235]","trial_type":"two-door-navigation","trial_index":51,"time_elapsed":812171,"internal_node_id":"0.0-2.0-49.0"},{"view_history":"[{\"page_index\":0,\"viewing_time\":15081}]","rt":15083,"trial_type":"instructions","trial_index":52,"time_elapsed":828256,"internal_node_id":"0.0-3.0"},{"view_history":"[{\"page_index\":0,\"viewing_time\":4923},{\"page_index\":1,\"viewing_time\":9154}]","rt":14079,"trial_type":"instructions","trial_index":53,"time_elapsed":843335,"internal_node_id":"0.0-4.0"},{"group":"hexagon_tri","fractal_assignment":["../images/pnk_blu.png","../images/gry_blk.png","../images/org_blu.png","../images/blu_wht.png","../images/cyn_red.png","../images/ylw_slt.png"],"mutagen_generator_assignment":[1,0],"goal":2,"start":1,"action_noise":0.15,"location_history":"[1,5,0,1,3,2]","action_history":"[1,1,1,0,0]","mutagen_history":"[0,0,0,1,1]","location_rts":"[2492,1037,861,296,471]","trial_type":"fractal-mutation","trial_index":54,"time_elapsed":858446,"internal_node_id":"0.0-5.0-0.0"},{"group":"hexagon_tri","fractal_assignment":["../images/pnk_blu.png","../images/gry_blk.png","../images/org_blu.png","../images/blu_wht.png","../images/cyn_red.png","../images/ylw_slt.png"],"mutagen_generator_assignment":[1,0],"goal":0,"start":2,"action_noise":0.15,"location_history":"[2,3,4,2,3,4,0]","action_history":"[1,1,1,1,1,0]","mutagen_history":"[0,0,0,0,0,1]","location_rts":"[1710,438,462,775,1262,605]","trial_type":"fractal-mutation","trial_index":55,"time_elapsed":875058,"internal_node_id":"0.0-5.0-1.0"},{"group":"hexagon_tri","fractal_assignment":["../images/pnk_blu.png","../images/gry_blk.png","../images/org_blu.png","../images/blu_wht.png","../images/cyn_red.png","../images/ylw_slt.png"],"mutagen_generator_assignment":[1,0],"goal":5,"start":0,"action_noise":0.15,"location_history":"[0,5]","action_history":"[1]","mutagen_history":"[0]","location_rts":"[1639]","trial_type":"fractal-mutation","trial_index":56,"time_elapsed":881812,"internal_node_id":"0.0-5.0-2.0"},{"group":"hexagon_tri","fractal_assignment":["../images/pnk_blu.png","../images/gry_blk.png","../images/org_blu.png","../images/blu_wht.png","../images/cyn_red.png","../images/ylw_slt.png"],"mutagen_generator_assignment":[1,0],"goal":1,"start":5,"action_noise":0.15,"location_history":"[5,0,1]","action_history":"[1,0]","mutagen_history":"[0,1]","location_rts":"[2659,596]","trial_type":"fractal-mutation","trial_index":57,"time_elapsed":890855,"internal_node_id":"0.0-5.0-3.0"},{"group":"hexagon_tri","fractal_assignment":["../images/pnk_blu.png","../images/gry_blk.png","../images/org_blu.png","../images/blu_wht.png","../images/cyn_red.png","../images/ylw_slt.png"],"mutagen_generator_assignment":[1,0],"goal":3,"start":1,"action_noise":0.15,"location_history":"[1,3]","action_history":"[0]","mutagen_history":"[1]","location_rts":"[1299]","trial_type":"fractal-mutation","trial_index":58,"time_elapsed":897082,"internal_node_id":"0.0-5.0-4.0"},{"group":"hexagon_tri","fractal_assignment":["../images/pnk_blu.png","../images/gry_blk.png","../images/org_blu.png","../images/blu_wht.png","../images/cyn_red.png","../images/ylw_slt.png"],"mutagen_generator_assignment":[1,0],"goal":5,"start":3,"action_noise":0.15,"location_history":"[3,4,2,3,2,3,2,3,2,1,5]","action_history":"[1,1,1,0,1,1,1,1,0,1]","mutagen_history":"[0,0,0,1,0,0,0,0,1,0]","location_rts":"[1427,430,468,839,436,522,405,802,442,802]","trial_type":"fractal-mutation","trial_index":59,"time_elapsed":918972,"internal_node_id":"0.0-5.0-5.0"},{"group":"hexagon_tri","fractal_assignment":["../images/pnk_blu.png","../images/gry_blk.png","../images/org_blu.png","../images/blu_wht.png","../images/cyn_red.png","../images/ylw_slt.png"],"mutagen_generator_assignment":[1,0],"goal":4,"start":5,"action_noise":0.15,"location_history":"[5,4]","action_history":"[0]","mutagen_history":"[1]","location_rts":"[1868]","trial_type":"fractal-mutation","trial_index":60,"time_elapsed":926100,"internal_node_id":"0.0-5.0-6.0"},{"group":"hexagon_tri","fractal_assignment":["../images/pnk_blu.png","../images/gry_blk.png","../images/org_blu.png","../images/blu_wht.png","../images/cyn_red.png","../images/ylw_slt.png"],"mutagen_generator_assignment":[1,0],"goal":0,"start":4,"action_noise":0.15,"location_history":"[4,2,3,2,3,4,0]","action_history":"[0,1,0,1,0,0]","mutagen_history":"[1,0,1,0,1,1]","location_rts":"[1903,558,494,495,433,79]","trial_type":"fractal-mutation","trial_index":61,"time_elapsed":942255,"internal_node_id":"0.0-5.0-7.0"},{"group":"hexagon_tri","fractal_assignment":["../images/pnk_blu.png","../images/gry_blk.png","../images/org_blu.png","../images/blu_wht.png","../images/cyn_red.png","../images/ylw_slt.png"],"mutagen_generator_assignment":[1,0],"goal":2,"start":0,"action_noise":0.15,"location_history":"[0,1,5,0,1,3,2]","action_history":"[1,1,1,1,0,0]","mutagen_history":"[0,0,0,0,1,1]","location_rts":"[1647,555,1005,1074,1536,892]","trial_type":"fractal-mutation","trial_index":62,"time_elapsed":960295,"internal_node_id":"0.0-5.0-8.0"},{"group":"hexagon_tri","fractal_assignment":["../images/pnk_blu.png","../images/gry_blk.png","../images/org_blu.png","../images/blu_wht.png","../images/cyn_red.png","../images/ylw_slt.png"],"mutagen_generator_assignment":[1,0],"goal":4,"start":2,"action_noise":0.15,"location_history":"[2,1,3,2,1,3,4]","action_history":"[0,0,0,0,0,1]","mutagen_history":"[1,1,1,1,1,0]","location_rts":"[1411,724,348,1339,745,347]","trial_type":"fractal-mutation","trial_index":63,"time_elapsed":977044,"internal_node_id":"0.0-5.0-9.0"},{"group":"hexagon_tri","fractal_assignment":["../images/pnk_blu.png","../images/gry_blk.png","../images/org_blu.png","../images/blu_wht.png","../images/cyn_red.png","../images/ylw_slt.png"],"mutagen_generator_assignment":[1,0],"goal":2,"start":4,"action_noise":0.15,"location_history":"[4,2]","action_history":"[1]","mutagen_history":"[0]","location_rts":"[1042]","trial_type":"fractal-mutation","trial_index":64,"time_elapsed":982821,"internal_node_id":"0.0-5.0-10.0"},{"group":"hexagon_tri","fractal_assignment":["../images/pnk_blu.png","../images/gry_blk.png","../images/org_blu.png","../images/blu_wht.png","../images/cyn_red.png","../images/ylw_slt.png"],"mutagen_generator_assignment":[1,0],"goal":3,"start":2,"action_noise":0.15,"location_history":"[2,1,3]","action_history":"[0,0]","mutagen_history":"[1,1]","location_rts":"[1341,741]","trial_type":"fractal-mutation","trial_index":65,"time_elapsed":991200,"internal_node_id":"0.0-5.0-11.0"},{"group":"hexagon_tri","fractal_assignment":["../images/pnk_blu.png","../images/gry_blk.png","../images/org_blu.png","../images/blu_wht.png","../images/cyn_red.png","../images/ylw_slt.png"],"mutagen_generator_assignment":[1,0],"goal":0,"start":3,"action_noise":0.15,"location_history":"[3,4,2,1,5,4,0]","action_history":"[1,1,0,0,0,0]","mutagen_history":"[0,0,1,1,1,1]","location_rts":"[1077,367,468,433,440,949]","trial_type":"fractal-mutation","trial_index":66,"time_elapsed":1005773,"internal_node_id":"0.0-5.0-12.0"},{"group":"hexagon_tri","fractal_assignment":["../images/pnk_blu.png","../images/gry_blk.png","../images/org_blu.png","../images/blu_wht.png","../images/cyn_red.png","../images/ylw_slt.png"],"mutagen_generator_assignment":[1,0],"goal":5,"start":0,"action_noise":0.15,"location_history":"[0,1,5]","action_history":"[1,1]","mutagen_history":"[0,0]","location_rts":"[921,914]","trial_type":"fractal-mutation","trial_index":67,"time_elapsed":1013815,"internal_node_id":"0.0-5.0-13.0"},{"group":"hexagon_tri","fractal_assignment":["../images/pnk_blu.png","../images/gry_blk.png","../images/org_blu.png","../images/blu_wht.png","../images/cyn_red.png","../images/ylw_slt.png"],"mutagen_generator_assignment":[1,0],"goal":1,"start":5,"action_noise":0.15,"location_history":"[5,4,2,3,2,1]","action_history":"[0,1,1,0,0]","mutagen_history":"[1,0,0,1,1]","location_rts":"[2983,873,470,914,554]","trial_type":"fractal-mutation","trial_index":68,"time_elapsed":1029477,"internal_node_id":"0.0-5.0-14.0"},{"group":"hexagon_tri","fractal_assignment":["../images/pnk_blu.png","../images/gry_blk.png","../images/org_blu.png","../images/blu_wht.png","../images/cyn_red.png","../images/ylw_slt.png"],"mutagen_generator_assignment":[1,0],"goal":5,"start":1,"action_noise":0.15,"location_history":"[1,5]","action_history":"[1]","mutagen_history":"[0]","location_rts":"[1070]","trial_type":"fractal-mutation","trial_index":69,"time_elapsed":1035489,"internal_node_id":"0.0-5.0-15.0"},{"group":"hexagon_tri","fractal_assignment":["../images/pnk_blu.png","../images/gry_blk.png","../images/org_blu.png","../images/blu_wht.png","../images/cyn_red.png","../images/ylw_slt.png"],"mutagen_generator_assignment":[1,0],"goal":3,"start":5,"action_noise":0.15,"location_history":"[5,4,0,1,5,0,5,0,1,5,4,0,5,4,2,1,3]","action_history":"[0,0,1,0,0,0,1,1,0,0,0,0,0,1,0,0]","mutagen_history":"[1,1,0,1,1,1,0,0,1,1,1,1,1,0,1,1]","location_rts":"[1114,413,649,845,700,960,579,665,546,594,339,784,437,1114,527,576]","trial_type":"fractal-mutation","trial_index":70,"time_elapsed":1069989,"internal_node_id":"0.0-5.0-16.0"},{"group":"hexagon_tri","fractal_assignment":["../images/pnk_blu.png","../images/gry_blk.png","../images/org_blu.png","../images/blu_wht.png","../images/cyn_red.png","../images/ylw_slt.png"],"mutagen_generator_assignment":[1,0],"goal":2,"start":3,"action_noise":0.15,"location_history":"[3,4,0,5,4,0,1,3,2]","action_history":"[1,0,0,0,0,1,0,0]","mutagen_history":"[0,1,1,1,1,0,1,1]","location_rts":"[1209,1181,411,483,1195,519,930,466]","trial_type":"fractal-mutation","trial_index":71,"time_elapsed":1089070,"internal_node_id":"0.0-5.0-17.0"},{"group":"hexagon_tri","fractal_assignment":["../images/pnk_blu.png","../images/gry_blk.png","../images/org_blu.png","../images/blu_wht.png","../images/cyn_red.png","../images/ylw_slt.png"],"mutagen_generator_assignment":[1,0],"goal":1,"start":2,"action_noise":0.15,"location_history":"[2,3,2,3,4,0,1]","action_history":"[1,0,1,1,0,0]","mutagen_history":"[0,1,0,0,1,1]","location_rts":"[1775,1581,584,496,986,567]","trial_type":"fractal-mutation","trial_index":72,"time_elapsed":1108136,"internal_node_id":"0.0-5.0-18.0"},{"group":"hexagon_tri","fractal_assignment":["../images/pnk_blu.png","../images/gry_blk.png","../images/org_blu.png","../images/blu_wht.png","../images/cyn_red.png","../images/ylw_slt.png"],"mutagen_generator_assignment":[1,0],"goal":4,"start":1,"action_noise":0.15,"location_history":"[1,3,2,3,4]","action_history":"[0,0,0,1]","mutagen_history":"[1,1,1,0]","location_rts":"[1485,1217,487,458]","trial_type":"fractal-mutation","trial_index":73,"time_elapsed":1120239,"internal_node_id":"0.0-5.0-19.0"},{"group":"hexagon_tri","fractal_assignment":["../images/pnk_blu.png","../images/gry_blk.png","../images/org_blu.png","../images/blu_wht.png","../images/cyn_red.png","../images/ylw_slt.png"],"mutagen_generator_assignment":[1,0],"goal":0,"start":4,"action_noise":0.15,"location_history":"[4,2,3,2,1,3,4,0]","action_history":"[1,1,0,0,0,1,0]","mutagen_history":"[0,0,1,1,1,0,1]","location_rts":"[1257,1106,590,422,480,629,119]","trial_type":"fractal-mutation","trial_index":74,"time_elapsed":1137342,"internal_node_id":"0.0-5.0-20.0"},{"group":"hexagon_tri","fractal_assignment":["../images/pnk_blu.png","../images/gry_blk.png","../images/org_blu.png","../images/blu_wht.png","../images/cyn_red.png","../images/ylw_slt.png"],"mutagen_generator_assignment":[1,0],"goal":3,"start":0,"action_noise":0.15,"location_history":"[0,1,3]","action_history":"[1,0]","mutagen_history":"[0,1]","location_rts":"[1661,719]","trial_type":"fractal-mutation","trial_index":75,"time_elapsed":1146954,"internal_node_id":"0.0-5.0-21.0"},{"group":"hexagon_tri","fractal_assignment":["../images/pnk_blu.png","../images/gry_blk.png","../images/org_blu.png","../images/blu_wht.png","../images/cyn_red.png","../images/ylw_slt.png"],"mutagen_generator_assignment":[1,0],"goal":1,"start":3,"action_noise":0.15,"location_history":"[3,4,0,1]","action_history":"[1,1,1]","mutagen_history":"[0,0,0]","location_rts":"[1163,547,704]","trial_type":"fractal-mutation","trial_index":76,"time_elapsed":1156424,"internal_node_id":"0.0-5.0-22.0"},{"group":"hexagon_tri","fractal_assignment":["../images/pnk_blu.png","../images/gry_blk.png","../images/org_blu.png","../images/blu_wht.png","../images/cyn_red.png","../images/ylw_slt.png"],"mutagen_generator_assignment":[1,0],"goal":0,"start":1,"action_noise":0.15,"location_history":"[1,3,4,0]","action_history":"[0,1,0]","mutagen_history":"[1,0,1]","location_rts":"[1530,3050,274]","trial_type":"fractal-mutation","trial_index":77,"time_elapsed":1168186,"internal_node_id":"0.0-5.0-23.0"},{"group":"hexagon_tri","fractal_assignment":["../images/pnk_blu.png","../images/gry_blk.png","../images/org_blu.png","../images/blu_wht.png","../images/cyn_red.png","../images/ylw_slt.png"],"mutagen_generator_assignment":[1,0],"goal":2,"start":0,"action_noise":0.15,"location_history":"[0,5,0,5,4,0,1,5,4,0,5,4,2]","action_history":"[1,0,1,0,0,1,0,0,0,0,0,0]","mutagen_history":"[0,1,0,1,1,0,1,1,1,1,1,1]","location_rts":"[1420,881,596,453,1239,560,1325,317,800,532,544,418]","trial_type":"fractal-mutation","trial_index":78,"time_elapsed":1195858,"internal_node_id":"0.0-5.0-24.0"},{"group":"hexagon_tri","fractal_assignment":["../images/pnk_blu.png","../images/gry_blk.png","../images/org_blu.png","../images/blu_wht.png","../images/cyn_red.png","../images/ylw_slt.png"],"mutagen_generator_assignment":[1,0],"goal":4,"start":2,"action_noise":0.15,"location_history":"[2,3,2,1,3,4]","action_history":"[1,0,0,0,1]","mutagen_history":"[0,1,1,1,0]","location_rts":"[1276,507,1012,1079,328]","trial_type":"fractal-mutation","trial_index":79,"time_elapsed":1210135,"internal_node_id":"0.0-5.0-25.0"},{"group":"hexagon_tri","fractal_assignment":["../images/pnk_blu.png","../images/gry_blk.png","../images/org_blu.png","../images/blu_wht.png","../images/cyn_red.png","../images/ylw_slt.png"],"mutagen_generator_assignment":[1,0],"goal":5,"start":4,"action_noise":0.15,"location_history":"[4,0,1,5]","action_history":"[1,1,1]","mutagen_history":"[0,0,0]","location_rts":"[1461,785,1303]","trial_type":"fractal-mutation","trial_index":80,"time_elapsed":1220677,"internal_node_id":"0.0-5.0-26.0"},{"group":"hexagon_tri","fractal_assignment":["../images/pnk_blu.png","../images/gry_blk.png","../images/org_blu.png","../images/blu_wht.png","../images/cyn_red.png","../images/ylw_slt.png"],"mutagen_generator_assignment":[1,0],"goal":2,"start":5,"action_noise":0.15,"location_history":"[5,4,0,5,0,5,4,2]","action_history":"[0,0,0,1,0,0,0]","mutagen_history":"[1,1,1,0,1,1,1]","location_rts":"[731,3754,570,651,333,558,654]","trial_type":"fractal-mutation","trial_index":81,"time_elapsed":1244643,"internal_node_id":"0.0-5.0-27.0"},{"group":"hexagon_tri","fractal_assignment":["../images/pnk_blu.png","../images/gry_blk.png","../images/org_blu.png","../images/blu_wht.png","../images/cyn_red.png","../images/ylw_slt.png"],"mutagen_generator_assignment":[1,0],"goal":3,"start":2,"action_noise":0.15,"location_history":"[2,3]","action_history":"[1]","mutagen_history":"[0]","location_rts":"[1897]","trial_type":"fractal-mutation","trial_index":82,"time_elapsed":1251314,"internal_node_id":"0.0-5.0-28.0"},{"group":"hexagon_tri","fractal_assignment":["../images/pnk_blu.png","../images/gry_blk.png","../images/org_blu.png","../images/blu_wht.png","../images/cyn_red.png","../images/ylw_slt.png"],"mutagen_generator_assignment":[1,0],"goal":1,"start":3,"action_noise":0.15,"location_history":"[3,4,0,1]","action_history":"[0,1,1]","mutagen_history":"[1,0,0]","location_rts":"[1888,576,364]","trial_type":"fractal-mutation","trial_index":83,"time_elapsed":1261180,"internal_node_id":"0.0-5.0-29.0"},{"group":"hexagon_tri","fractal_assignment":["../images/pnk_blu.png","../images/gry_blk.png","../images/org_blu.png","../images/blu_wht.png","../images/cyn_red.png","../images/ylw_slt.png"],"mutagen_generator_assignment":[1,0],"goal":4,"start":1,"action_noise":0.15,"location_history":"[1,3,4]","action_history":"[0,1]","mutagen_history":"[1,0]","location_rts":"[1410,167]","trial_type":"fractal-mutation","trial_index":84,"time_elapsed":1269784,"internal_node_id":"0.0-5.0-30.0"},{"group":"hexagon_tri","fractal_assignment":["../images/pnk_blu.png","../images/gry_blk.png","../images/org_blu.png","../images/blu_wht.png","../images/cyn_red.png","../images/ylw_slt.png"],"mutagen_generator_assignment":[1,0],"goal":5,"start":4,"action_noise":0.15,"location_history":"[4,0,1,5]","action_history":"[1,1,1]","mutagen_history":"[0,0,0]","location_rts":"[1419,584,591]","trial_type":"fractal-mutation","trial_index":85,"time_elapsed":1281076,"internal_node_id":"0.0-5.0-31.0"},{"group":"hexagon_tri","fractal_assignment":["../images/pnk_blu.png","../images/gry_blk.png","../images/org_blu.png","../images/blu_wht.png","../images/cyn_red.png","../images/ylw_slt.png"],"mutagen_generator_assignment":[1,0],"goal":0,"start":5,"action_noise":0.15,"location_history":"[5,4,0]","action_history":"[0,0]","mutagen_history":"[1,1]","location_rts":"[2048,1211]","trial_type":"fractal-mutation","trial_index":86,"time_elapsed":1291129,"internal_node_id":"0.0-5.0-32.0"},{"group":"hexagon_tri","fractal_assignment":["../images/pnk_blu.png","../images/gry_blk.png","../images/org_blu.png","../images/blu_wht.png","../images/cyn_red.png","../images/ylw_slt.png"],"mutagen_generator_assignment":[1,0],"goal":2,"start":0,"action_noise":0.15,"location_history":"[0,1,3,2]","action_history":"[1,0,0]","mutagen_history":"[0,1,1]","location_rts":"[827,546,443]","trial_type":"fractal-mutation","trial_index":87,"time_elapsed":1301136,"internal_node_id":"0.0-5.0-33.0"},{"group":"hexagon_tri","fractal_assignment":["../images/pnk_blu.png","../images/gry_blk.png","../images/org_blu.png","../images/blu_wht.png","../images/cyn_red.png","../images/ylw_slt.png"],"mutagen_generator_assignment":[1,0],"goal":0,"start":2,"action_noise":0.15,"location_history":"[2,3,2,3,4,2,1,3,4,0]","action_history":"[1,0,1,1,0,0,0,1,0]","mutagen_history":"[0,1,0,0,1,1,1,0,1]","location_rts":"[3189,2162,660,509,190,576,433,503,131]","trial_type":"fractal-mutation","trial_index":88,"time_elapsed":1324634,"internal_node_id":"0.0-5.0-34.0"},{"group":"hexagon_tri","fractal_assignment":["../images/pnk_blu.png","../images/gry_blk.png","../images/org_blu.png","../images/blu_wht.png","../images/cyn_red.png","../images/ylw_slt.png"],"mutagen_generator_assignment":[1,0],"goal":5,"start":0,"action_noise":0.15,"location_history":"[0,1,5]","action_history":"[1,1]","mutagen_history":"[0,0]","location_rts":"[978,527]","trial_type":"fractal-mutation","trial_index":89,"time_elapsed":1332085,"internal_node_id":"0.0-5.0-35.0"},{"group":"hexagon_tri","fractal_assignment":["../images/pnk_blu.png","../images/gry_blk.png","../images/org_blu.png","../images/blu_wht.png","../images/cyn_red.png","../images/ylw_slt.png"],"mutagen_generator_assignment":[1,0],"goal":1,"start":5,"action_noise":0.15,"location_history":"[5,4,0,1]","action_history":"[1,0,1]","mutagen_history":"[0,1,0]","location_rts":"[1203,815,365]","trial_type":"fractal-mutation","trial_index":90,"time_elapsed":1342394,"internal_node_id":"0.0-5.0-36.0"},{"group":"hexagon_tri","fractal_assignment":["../images/pnk_blu.png","../images/gry_blk.png","../images/org_blu.png","../images/blu_wht.png","../images/cyn_red.png","../images/ylw_slt.png"],"mutagen_generator_assignment":[1,0],"goal":4,"start":1,"action_noise":0.15,"location_history":"[1,3,4]","action_history":"[0,1]","mutagen_history":"[1,0]","location_rts":"[1235,338]","trial_type":"fractal-mutation","trial_index":91,"time_elapsed":1350830,"internal_node_id":"0.0-5.0-37.0"},{"group":"hexagon_tri","fractal_assignment":["../images/pnk_blu.png","../images/gry_blk.png","../images/org_blu.png","../images/blu_wht.png","../images/cyn_red.png","../images/ylw_slt.png"],"mutagen_generator_assignment":[1,0],"goal":3,"start":4,"action_noise":0.15,"location_history":"[4,0,1,3]","action_history":"[0,1,0]","mutagen_history":"[1,0,1]","location_rts":"[1704,597,694]","trial_type":"fractal-mutation","trial_index":92,"time_elapsed":1361846,"internal_node_id":"0.0-5.0-38.0"},{"group":"hexagon_tri","fractal_assignment":["../images/pnk_blu.png","../images/gry_blk.png","../images/org_blu.png","../images/blu_wht.png","../images/cyn_red.png","../images/ylw_slt.png"],"mutagen_generator_assignment":[1,0],"goal":5,"start":3,"action_noise":0.15,"location_history":"[3,4,2,3,4,0,1,5]","action_history":"[1,1,1,1,0,1,1]","mutagen_history":"[0,0,0,0,1,0,0]","location_rts":"[3512,350,570,577,297,912,579]","trial_type":"fractal-mutation","trial_index":93,"time_elapsed":1381377,"internal_node_id":"0.0-5.0-39.0"},{"group":"hexagon_tri","fractal_assignment":["../images/pnk_blu.png","../images/gry_blk.png","../images/org_blu.png","../images/blu_wht.png","../images/cyn_red.png","../images/ylw_slt.png"],"mutagen_generator_assignment":[1,0],"goal":1,"start":5,"action_noise":0.15,"location_history":"[5,0,5,4,0,5,4,2,3,4,0,5,4,0,5,0,1]","action_history":"[1,0,1,0,0,0,1,1,1,0,0,0,0,0,1,1]","mutagen_history":"[0,1,0,1,1,1,0,0,0,1,1,1,1,1,0,0]","location_rts":"[1801,870,297,498,476,523,567,482,900,719,295,667,5,501,636,400]","trial_type":"fractal-mutation","trial_index":94,"time_elapsed":1415362,"internal_node_id":"0.0-5.0-40.0"},{"group":"hexagon_tri","fractal_assignment":["../images/pnk_blu.png","../images/gry_blk.png","../images/org_blu.png","../images/blu_wht.png","../images/cyn_red.png","../images/ylw_slt.png"],"mutagen_generator_assignment":[1,0],"goal":2,"start":1,"action_noise":0.15,"location_history":"[1,3,2]","action_history":"[0,0]","mutagen_history":"[1,1]","location_rts":"[1424,581]","trial_type":"fractal-mutation","trial_index":95,"time_elapsed":1423603,"internal_node_id":"0.0-5.0-41.0"},{"group":"hexagon_tri","fractal_assignment":["../images/pnk_blu.png","../images/gry_blk.png","../images/org_blu.png","../images/blu_wht.png","../images/cyn_red.png","../images/ylw_slt.png"],"mutagen_generator_assignment":[1,0],"goal":4,"start":2,"action_noise":0.15,"location_history":"[2,3,4]","action_history":"[0,1]","mutagen_history":"[1,0]","location_rts":"[1179,1572]","trial_type":"fractal-mutation","trial_index":96,"time_elapsed":1432301,"internal_node_id":"0.0-5.0-42.0"},{"group":"hexagon_tri","fractal_assignment":["../images/pnk_blu.png","../images/gry_blk.png","../images/org_blu.png","../images/blu_wht.png","../images/cyn_red.png","../images/ylw_slt.png"],"mutagen_generator_assignment":[1,0],"goal":0,"start":4,"action_noise":0.15,"location_history":"[4,2,1,3,4,0]","action_history":"[1,0,0,1,0]","mutagen_history":"[0,1,1,0,1]","location_rts":"[2447,543,609,1820,360]","trial_type":"fractal-mutation","trial_index":97,"time_elapsed":1448321,"internal_node_id":"0.0-5.0-43.0"},{"group":"hexagon_tri","fractal_assignment":["../images/pnk_blu.png","../images/gry_blk.png","../images/org_blu.png","../images/blu_wht.png","../images/cyn_red.png","../images/ylw_slt.png"],"mutagen_generator_assignment":[1,0],"goal":3,"start":0,"action_noise":0.15,"location_history":"[0,1,3]","action_history":"[0,0]","mutagen_history":"[1,1]","location_rts":"[2503,971]","trial_type":"fractal-mutation","trial_index":98,"time_elapsed":1457736,"internal_node_id":"0.0-5.0-44.0"},{"group":"hexagon_tri","fractal_assignment":["../images/pnk_blu.png","../images/gry_blk.png","../images/org_blu.png","../images/blu_wht.png","../images/cyn_red.png","../images/ylw_slt.png"],"mutagen_generator_assignment":[1,0],"goal":0,"start":3,"action_noise":0.15,"location_history":"[3,4,0]","action_history":"[1,0]","mutagen_history":"[0,1]","location_rts":"[3223,303]","trial_type":"fractal-mutation","trial_index":99,"time_elapsed":1467160,"internal_node_id":"0.0-5.0-45.0"},{"group":"hexagon_tri","fractal_assignment":["../images/pnk_blu.png","../images/gry_blk.png","../images/org_blu.png","../images/blu_wht.png","../images/cyn_red.png","../images/ylw_slt.png"],"mutagen_generator_assignment":[1,0],"goal":4,"start":0,"action_noise":0.15,"location_history":"[0,5,4]","action_history":"[0,0]","mutagen_history":"[1,1]","location_rts":"[1646,973]","trial_type":"fractal-mutation","trial_index":100,"time_elapsed":1475844,"internal_node_id":"0.0-5.0-46.0"},{"group":"hexagon_tri","fractal_assignment":["../images/pnk_blu.png","../images/gry_blk.png","../images/org_blu.png","../images/blu_wht.png","../images/cyn_red.png","../images/ylw_slt.png"],"mutagen_generator_assignment":[1,0],"goal":5,"start":4,"action_noise":0.15,"location_history":"[4,2,3,2,3,4,2,3,2,3,4,2,3,2,1,5]","action_history":"[1,1,0,1,1,1,1,1,1,0,1,1,0,0,1]","mutagen_history":"[0,0,1,0,0,0,0,0,0,1,0,0,1,1,0]","location_rts":"[1145,851,2049,546,272,672,670,530,930,429,559,511,654,379,921]","trial_type":"fractal-mutation","trial_index":101,"time_elapsed":1510059,"internal_node_id":"0.0-5.0-47.0"},{"group":"hexagon_tri","fractal_assignment":["../images/pnk_blu.png","../images/gry_blk.png","../images/org_blu.png","../images/blu_wht.png","../images/cyn_red.png","../images/ylw_slt.png"],"mutagen_generator_assignment":[1,0],"goal":2,"start":5,"action_noise":0.15,"location_history":"[5,4,0,5,4,0,1,3,4,0,1,3,2]","action_history":"[0,0,0,0,1,1,0,0,0,1,0,0]","mutagen_history":"[1,1,1,1,0,0,1,1,1,0,1,1]","location_rts":"[2563,1872,841,808,708,811,1221,316,1228,775,888,307]","trial_type":"fractal-mutation","trial_index":102,"time_elapsed":1542152,"internal_node_id":"0.0-5.0-48.0"},{"group":"hexagon_tri","fractal_assignment":["../images/pnk_blu.png","../images/gry_blk.png","../images/org_blu.png","../images/blu_wht.png","../images/cyn_red.png","../images/ylw_slt.png"],"mutagen_generator_assignment":[1,0],"goal":1,"start":2,"action_noise":0.15,"location_history":"[2,3,4,2,3,2,1]","action_history":"[1,0,1,1,0,0]","mutagen_history":"[0,1,0,0,1,1]","location_rts":"[1266,1405,623,657,1273,271]","trial_type":"fractal-mutation","trial_index":103,"time_elapsed":1558109,"internal_node_id":"0.0-5.0-49.0"},{"view_history":"[{\"page_index\":0,\"viewing_time\":26260}]","rt":26260,"trial_type":"instructions","trial_index":104,"time_elapsed":1585370,"internal_node_id":"0.0-6.0"},{"rt":32050,"responses":"{\"Q0\":\"Memorization of patterns based on awarenness of surroundings.\"}","trial_type":"survey-text","trial_index":105,"time_elapsed":1618434,"internal_node_id":"0.0-7.0-0.0"},{"rt":41883,"responses":"{\"Q0\":\"Memorizing patterns based on cause and effect.\"}","trial_type":"survey-text","trial_index":106,"time_elapsed":1661325,"internal_node_id":"0.0-7.0-1.0"},{"rt":37710,"responses":"{\"Q0\":\"<img src='../images/diagrams/hexagon_tri.png'>\"}","trial_type":"survey-multi-choice","trial_index":107,"time_elapsed":1700053,"internal_node_id":"0.0-7.0-2.0"},{"rt":114626,"assignments":["../images/pnk_blu.png","../images/cyn_red.png","../images/blu_wht.png","../images/org_blu.png","../images/gry_blk.png","../images/ylw_slt.png"],"trial_type":"drag-drop-on-image","trial_index":108,"time_elapsed":1815695,"internal_node_id":"0.0-7.0-3.0"},{"rt":13707,"responses":"{\"Q0\":\"3\"}","trial_type":"survey-likert","trial_index":109,"time_elapsed":1830412,"internal_node_id":"0.0-7.0-4.0"},{"rt":271354,"responses":"{\"Q0\":\"I noticed certain choices led to the same result for a majority of the decisions.  The black door in certain rooms would most of the time lead to another certain room, for example blue to purple.  This also happened in the visual pattern experiment with acid or gamma ray leading to another pattern for most choices.  Both experiments seemed to throw in a change in the pattern randomly.\"}","trial_type":"survey-text","trial_index":110,"time_elapsed":2102770,"internal_node_id":"0.0-7.0-5.0"},{"rt":11093,"responses":"{\"Q0\":\"Yes\"}","trial_type":"survey-multi-choice","trial_index":111,"time_elapsed":2114885,"internal_node_id":"0.0-7.0-6.0"},{"rt":22419,"responses":"{\"Q0\":\"During these questions/I wasn't aware until you pointed it out\"}","trial_type":"survey-multi-choice","trial_index":112,"time_elapsed":2138320,"internal_node_id":"0.0-7.0-7.0"},{"rt":94749,"responses":"{\"Q0\":\"I felt like the black (left) door corresponded with the acid (a) and th white (right) door corresponded with the gamma ray (g).  I interpreted (a) as left and (g) as right in my mind as well.\"}","trial_type":"survey-text","trial_index":113,"time_elapsed":2234075,"internal_node_id":"0.0-7.0-8.0"},{"rt":11726,"responses":"{\"Q0\":\"3\"}","trial_type":"survey-likert","trial_index":114,"time_elapsed":2246807,"internal_node_id":"0.0-7.0-9.0"},{"rt":15363,"responses":"{\"Q0\":\"Same structure\"}","trial_type":"survey-multi-choice","trial_index":115,"time_elapsed":2263181,"internal_node_id":"0.0-7.0-10.0"},{"rt":32805,"responses":"{\"Q0\":\"left (black) door = acid, right (white) door = ray\",\"Q1\":\"Pretty confident\"}","trial_type":"survey-multi-choice","trial_index":116,"time_elapsed":2297006,"internal_node_id":"0.0-7.0-11.0"},{"rt":32882,"responses":"{\"Q0\":\"35-45\",\"Q1\":\"High school degree or GED\",\"Q2\":\"Male\",\"Q3\":\"Asian\"}","trial_type":"survey-multi-choice","trial_index":117,"time_elapsed":2330928,"internal_node_id":"0.0-8.0"},{"rt":49818,"responses":"{\"Q0\":\"One of the more enjoyable experiments I have participated in on MTurk.  I looked forward to it each day and it never got boring.  I would definitely be interested in similar experiments in the future.\"}","trial_type":"survey-text","trial_index":118,"time_elapsed":2381750,"internal_node_id":"0.0-9.0"}]