[{"view_history":"[{\"page_index\":0,\"viewing_time\":4962},{\"page_index\":1,\"viewing_time\":16000}]","rt":20962,"trial_type":"instructions","trial_index":0,"time_elapsed":20962,"internal_node_id":"0.0-0.0"},{"view_history":"[{\"page_index\":0,\"viewing_time\":1606},{\"page_index\":1,\"viewing_time\":1360}]","rt":2966,"trial_type":"instructions","trial_index":1,"time_elapsed":24930,"internal_node_id":"0.0-1.0"},{"group":"hexagon_tri","room_assignment":["grey","yellow","purple","red","green","blue"],"door_color_assignment":["black","white"],"door_generator_assignment":[0,1],"goal":2,"start":1,"action_noise":0.15,"location_history":"[1,5,0,5,4,2]","action_history":"[1,1,1,1,1]","door_history":"[1,1,1,1,1]","location_rts":"[55848,507,347,526,485]","trial_type":"two-door-navigation","trial_index":2,"time_elapsed":91262,"internal_node_id":"0.0-2.0-0.0"},{"group":"hexagon_tri","room_assignment":["grey","yellow","purple","red","green","blue"],"door_color_assignment":["black","white"],"door_generator_assignment":[0,1],"goal":0,"start":2,"action_noise":0.15,"location_history":"[2,3,4,2,3,2,1,5,0]","action_history":"[1,1,1,0,0,0,1,1]","door_history":"[1,1,1,0,0,0,1,1]","location_rts":"[811,350,484,1146,314,273,797,227]","trial_type":"two-door-navigation","trial_index":3,"time_elapsed":107350,"internal_node_id":"0.0-2.0-1.0"},{"group":"hexagon_tri","room_assignment":["grey","yellow","purple","red","green","blue"],"door_color_assignment":["black","white"],"door_generator_assignment":[0,1],"goal":5,"start":0,"action_noise":0.15,"location_history":"[0,5]","action_history":"[0]","door_history":"[0]","location_rts":"[785]","trial_type":"two-door-navigation","trial_index":4,"time_elapsed":112668,"internal_node_id":"0.0-2.0-2.0"},{"group":"hexagon_tri","room_assignment":["grey","yellow","purple","red","green","blue"],"door_color_assignment":["black","white"],"door_generator_assignment":[0,1],"goal":1,"start":5,"action_noise":0.15,"location_history":"[5,4,0,5,0,1]","action_history":"[0,0,0,1,1]","door_history":"[0,0,0,1,1]","location_rts":"[694,364,370,777,547]","trial_type":"two-door-navigation","trial_index":5,"time_elapsed":124044,"internal_node_id":"0.0-2.0-3.0"},{"group":"hexagon_tri","room_assignment":["grey","yellow","purple","red","green","blue"],"door_color_assignment":["black","white"],"door_generator_assignment":[0,1],"goal":3,"start":1,"action_noise":0.15,"location_history":"[1,5,0,1,3]","action_history":"[1,1,1,0]","door_history":"[1,1,1,0]","location_rts":"[996,354,323,708]","trial_type":"two-door-navigation","trial_index":6,"time_elapsed":134016,"internal_node_id":"0.0-2.0-4.0"},{"group":"hexagon_tri","room_assignment":["grey","yellow","purple","red","green","blue"],"door_color_assignment":["black","white"],"door_generator_assignment":[0,1],"goal":5,"start":3,"action_noise":0.15,"location_history":"[3,2,1,3,4,2,3,4,2,3,4,0,5]","action_history":"[0,0,0,1,1,1,1,1,1,1,1,0]","door_history":"[0,0,0,1,1,1,1,1,1,1,1,0]","location_rts":"[1265,366,340,705,389,496,426,30326,676,316,434,227]","trial_type":"two-door-navigation","trial_index":7,"time_elapsed":185725,"internal_node_id":"0.0-2.0-5.0"},{"group":"hexagon_tri","room_assignment":["grey","yellow","purple","red","green","blue"],"door_color_assignment":["black","white"],"door_generator_assignment":[0,1],"goal":4,"start":5,"action_noise":0.15,"location_history":"[5,4]","action_history":"[0]","door_history":"[0]","location_rts":"[573]","trial_type":"two-door-navigation","trial_index":8,"time_elapsed":190890,"internal_node_id":"0.0-2.0-6.0"},{"group":"hexagon_tri","room_assignment":["grey","yellow","purple","red","green","blue"],"door_color_assignment":["black","white"],"door_generator_assignment":[0,1],"goal":0,"start":4,"action_noise":0.15,"location_history":"[4,0]","action_history":"[0]","door_history":"[0]","location_rts":"[43621]","trial_type":"two-door-navigation","trial_index":9,"time_elapsed":239081,"internal_node_id":"0.0-2.0-7.0"},{"group":"hexagon_tri","room_assignment":["grey","yellow","purple","red","green","blue"],"door_color_assignment":["black","white"],"door_generator_assignment":[0,1],"goal":2,"start":0,"action_noise":0.15,"location_history":"[0,5,4,2]","action_history":"[0,0,0]","door_history":"[0,0,0]","location_rts":"[841,326,442]","trial_type":"two-door-navigation","trial_index":10,"time_elapsed":247886,"internal_node_id":"0.0-2.0-8.0"},{"group":"hexagon_tri","room_assignment":["grey","yellow","purple","red","green","blue"],"door_color_assignment":["black","white"],"door_generator_assignment":[0,1],"goal":4,"start":2,"action_noise":0.15,"location_history":"[2,1,5,4]","action_history":"[0,0,0]","door_history":"[0,0,0]","location_rts":"[13622,350,5425]","trial_type":"two-door-navigation","trial_index":11,"time_elapsed":274836,"internal_node_id":"0.0-2.0-9.0"},{"group":"hexagon_tri","room_assignment":["grey","yellow","purple","red","green","blue"],"door_color_assignment":["black","white"],"door_generator_assignment":[0,1],"goal":2,"start":4,"action_noise":0.15,"location_history":"[4,0,1,5,0,5,4,2]","action_history":"[0,0,0,0,0,0,1]","door_history":"[0,0,0,0,0,0,1]","location_rts":"[587,363,333,541,333,418,1431]","trial_type":"two-door-navigation","trial_index":12,"time_elapsed":289484,"internal_node_id":"0.0-2.0-10.0"},{"group":"hexagon_tri","room_assignment":["grey","yellow","purple","red","green","blue"],"door_color_assignment":["black","white"],"door_generator_assignment":[0,1],"goal":3,"start":2,"action_noise":0.15,"location_history":"[2,3]","action_history":"[1]","door_history":"[1]","location_rts":"[492]","trial_type":"two-door-navigation","trial_index":13,"time_elapsed":294501,"internal_node_id":"0.0-2.0-11.0"},{"group":"hexagon_tri","room_assignment":["grey","yellow","purple","red","green","blue"],"door_color_assignment":["black","white"],"door_generator_assignment":[0,1],"goal":0,"start":3,"action_noise":0.15,"location_history":"[3,2,3,2,3,4,2,1,3,2,1,3,2,3,4,0]","action_history":"[1,1,0,0,1,1,1,1,0,0,0,0,1,1,0]","door_history":"[1,1,0,0,1,1,1,1,0,0,0,0,1,1,0]","location_rts":"[2778,341,1141,437,951,373,397,445,885,358,352,488,381,227,372]","trial_type":"two-door-navigation","trial_index":14,"time_elapsed":323204,"internal_node_id":"0.0-2.0-12.0"},{"group":"hexagon_tri","room_assignment":["grey","yellow","purple","red","green","blue"],"door_color_assignment":["black","white"],"door_generator_assignment":[0,1],"goal":5,"start":0,"action_noise":0.15,"location_history":"[0,5]","action_history":"[0]","door_history":"[0]","location_rts":"[510]","trial_type":"two-door-navigation","trial_index":15,"time_elapsed":328239,"internal_node_id":"0.0-2.0-13.0"},{"group":"hexagon_tri","room_assignment":["grey","yellow","purple","red","green","blue"],"door_color_assignment":["black","white"],"door_generator_assignment":[0,1],"goal":1,"start":5,"action_noise":0.15,"location_history":"[5,4,0,5,0,5,0,5,4,0,5,4,2,1]","action_history":"[0,0,0,0,0,1,1,0,0,0,0,1,1]","door_history":"[0,0,0,0,0,1,1,0,0,0,0,1,1]","location_rts":"[30368,421,507,7570,324,1004,308,1083,340,465,541,367,306]","trial_type":"two-door-navigation","trial_index":16,"time_elapsed":388602,"internal_node_id":"0.0-2.0-14.0"},{"group":"hexagon_tri","room_assignment":["grey","yellow","purple","red","green","blue"],"door_color_assignment":["black","white"],"door_generator_assignment":[0,1],"goal":5,"start":1,"action_noise":0.15,"location_history":"[1,3,4,0,5]","action_history":"[0,0,0,0]","door_history":"[0,0,0,0]","location_rts":"[478,376,307,363]","trial_type":"two-door-navigation","trial_index":17,"time_elapsed":397708,"internal_node_id":"0.0-2.0-15.0"},{"group":"hexagon_tri","room_assignment":["grey","yellow","purple","red","green","blue"],"door_color_assignment":["black","white"],"door_generator_assignment":[0,1],"goal":3,"start":5,"action_noise":0.15,"location_history":"[5,4,0,5,0,5,0,5,4,2,3]","action_history":"[0,0,0,1,1,0,0,0,1,1]","door_history":"[0,0,0,1,1,0,0,0,1,1]","location_rts":"[629,234,286,723,306,816,316,453,339,243]","trial_type":"two-door-navigation","trial_index":18,"time_elapsed":415754,"internal_node_id":"0.0-2.0-16.0"},{"group":"hexagon_tri","room_assignment":["grey","yellow","purple","red","green","blue"],"door_color_assignment":["black","white"],"door_generator_assignment":[0,1],"goal":2,"start":3,"action_noise":0.15,"location_history":"[3,2]","action_history":"[0]","door_history":"[0]","location_rts":"[792]","trial_type":"two-door-navigation","trial_index":19,"time_elapsed":421068,"internal_node_id":"0.0-2.0-17.0"},{"group":"hexagon_tri","room_assignment":["grey","yellow","purple","red","green","blue"],"door_color_assignment":["black","white"],"door_generator_assignment":[0,1],"goal":1,"start":2,"action_noise":0.15,"location_history":"[2,1]","action_history":"[0]","door_history":"[0]","location_rts":"[636]","trial_type":"two-door-navigation","trial_index":20,"time_elapsed":426228,"internal_node_id":"0.0-2.0-18.0"},{"group":"hexagon_tri","room_assignment":["grey","yellow","purple","red","green","blue"],"door_color_assignment":["black","white"],"door_generator_assignment":[0,1],"goal":4,"start":1,"action_noise":0.15,"location_history":"[1,3,2,3,2,1,3,4]","action_history":"[0,0,0,0,0,1,1]","door_history":"[0,0,0,0,0,1,1]","location_rts":"[828,573,604,388,355,14,391]","trial_type":"two-door-navigation","trial_index":21,"time_elapsed":440020,"internal_node_id":"0.0-2.0-19.0"},{"group":"hexagon_tri","room_assignment":["grey","yellow","purple","red","green","blue"],"door_color_assignment":["black","white"],"door_generator_assignment":[0,1],"goal":0,"start":4,"action_noise":0.15,"location_history":"[4,2,1,5,0]","action_history":"[1,0,1,0]","door_history":"[1,0,1,0]","location_rts":"[18545,1340,637,550]","trial_type":"two-door-navigation","trial_index":22,"time_elapsed":468677,"internal_node_id":"0.0-2.0-20.0"},{"group":"hexagon_tri","room_assignment":["grey","yellow","purple","red","green","blue"],"door_color_assignment":["black","white"],"door_generator_assignment":[0,1],"goal":3,"start":0,"action_noise":0.15,"location_history":"[0,5,4,2,1,5,0,1,5,4,0,1,5,4,0,5,4,2,1,5,4,2,1,5,0,1,3]","action_history":"[0,0,0,0,1,1,1,1,0,0,0,1,0,0,1,0,1,0,0,0,0,0,1,1,1,1]","door_history":"[0,0,0,0,1,1,1,1,0,0,0,1,0,0,1,0,1,0,0,0,0,0,1,1,1,1]","location_rts":"[8309,651,364,420,684,437,316,692,146,376,340,989,336,271,303,346,317,446,284,323,284,414,453,392,286,437]","trial_type":"two-door-navigation","trial_index":23,"time_elapsed":517301,"internal_node_id":"0.0-2.0-21.0"},{"group":"hexagon_tri","room_assignment":["grey","yellow","purple","red","green","blue"],"door_color_assignment":["black","white"],"door_generator_assignment":[0,1],"goal":1,"start":3,"action_noise":0.15,"location_history":"[3,2,3,4,2,1]","action_history":"[0,1,1,1,0]","door_history":"[0,1,1,1,0]","location_rts":"[660,483,330,317,945]","trial_type":"two-door-navigation","trial_index":24,"time_elapsed":528630,"internal_node_id":"0.0-2.0-22.0"},{"group":"hexagon_tri","room_assignment":["grey","yellow","purple","red","green","blue"],"door_color_assignment":["black","white"],"door_generator_assignment":[0,1],"goal":0,"start":1,"action_noise":0.15,"location_history":"[1,5,4,0]","action_history":"[0,0,0]","door_history":"[0,0,0]","location_rts":"[28077,389,518]","trial_type":"two-door-navigation","trial_index":25,"time_elapsed":564424,"internal_node_id":"0.0-2.0-23.0"},{"group":"hexagon_tri","room_assignment":["grey","yellow","purple","red","green","blue"],"door_color_assignment":["black","white"],"door_generator_assignment":[0,1],"goal":2,"start":0,"action_noise":0.15,"location_history":"[0,5,4,2]","action_history":"[0,0,0]","door_history":"[0,0,0]","location_rts":"[560,450,352]","trial_type":"two-door-navigation","trial_index":26,"time_elapsed":572344,"internal_node_id":"0.0-2.0-24.0"},{"group":"hexagon_tri","room_assignment":["grey","yellow","purple","red","green","blue"],"door_color_assignment":["black","white"],"door_generator_assignment":[0,1],"goal":4,"start":2,"action_noise":0.15,"location_history":"[2,1,3,2,3,4]","action_history":"[0,0,0,1,1]","door_history":"[0,0,0,1,1]","location_rts":"[369,339,348,782,303]","trial_type":"two-door-navigation","trial_index":27,"time_elapsed":583084,"internal_node_id":"0.0-2.0-25.0"},{"group":"hexagon_tri","room_assignment":["grey","yellow","purple","red","green","blue"],"door_color_assignment":["black","white"],"door_generator_assignment":[0,1],"goal":5,"start":4,"action_noise":0.15,"location_history":"[4,2,3,4,2,1,3,2,1,5]","action_history":"[1,1,1,0,0,0,0,0,0]","door_history":"[1,1,1,0,0,0,0,0,0]","location_rts":"[1549,659,278,1852,280,453,400,594,466]","trial_type":"two-door-navigation","trial_index":28,"time_elapsed":602294,"internal_node_id":"0.0-2.0-26.0"},{"group":"hexagon_tri","room_assignment":["grey","yellow","purple","red","green","blue"],"door_color_assignment":["black","white"],"door_generator_assignment":[0,1],"goal":2,"start":5,"action_noise":0.15,"location_history":"[5,4,0,5,0,1,5,4,0,1,5,4,2]","action_history":"[0,0,0,1,1,1,0,1,0,1,0,1]","door_history":"[0,0,0,1,1,1,0,1,0,1,0,1]","location_rts":"[746,316,461,762,348,476,809,476,392,398,533,310]","trial_type":"two-door-navigation","trial_index":29,"time_elapsed":624053,"internal_node_id":"0.0-2.0-27.0"},{"group":"hexagon_tri","room_assignment":["grey","yellow","purple","red","green","blue"],"door_color_assignment":["black","white"],"door_generator_assignment":[0,1],"goal":3,"start":2,"action_noise":0.15,"location_history":"[2,1,3]","action_history":"[0,0]","door_history":"[0,0]","location_rts":"[690,817]","trial_type":"two-door-navigation","trial_index":30,"time_elapsed":631100,"internal_node_id":"0.0-2.0-28.0"},{"group":"hexagon_tri","room_assignment":["grey","yellow","purple","red","green","blue"],"door_color_assignment":["black","white"],"door_generator_assignment":[0,1],"goal":1,"start":3,"action_noise":0.15,"location_history":"[3,2,1]","action_history":"[0,0]","door_history":"[0,0]","location_rts":"[405,374]","trial_type":"two-door-navigation","trial_index":31,"time_elapsed":637422,"internal_node_id":"0.0-2.0-29.0"},{"group":"hexagon_tri","room_assignment":["grey","yellow","purple","red","green","blue"],"door_color_assignment":["black","white"],"door_generator_assignment":[0,1],"goal":4,"start":1,"action_noise":0.15,"location_history":"[1,3,2,1,3,4]","action_history":"[0,0,0,0,1]","door_history":"[0,0,0,0,1]","location_rts":"[507,302,395,407,286]","trial_type":"two-door-navigation","trial_index":32,"time_elapsed":647914,"internal_node_id":"0.0-2.0-30.0"},{"group":"hexagon_tri","room_assignment":["grey","yellow","purple","red","green","blue"],"door_color_assignment":["black","white"],"door_generator_assignment":[0,1],"goal":5,"start":4,"action_noise":0.15,"location_history":"[4,2,3,4,0,5]","action_history":"[1,1,1,0,0]","door_history":"[1,1,1,0,0]","location_rts":"[926,350,309,1763,333]","trial_type":"two-door-navigation","trial_index":33,"time_elapsed":660202,"internal_node_id":"0.0-2.0-31.0"},{"group":"hexagon_tri","room_assignment":["grey","yellow","purple","red","green","blue"],"door_color_assignment":["black","white"],"door_generator_assignment":[0,1],"goal":0,"start":5,"action_noise":0.15,"location_history":"[5,4,0]","action_history":"[0,0]","door_history":"[0,0]","location_rts":"[525,387]","trial_type":"two-door-navigation","trial_index":34,"time_elapsed":666659,"internal_node_id":"0.0-2.0-32.0"},{"group":"hexagon_tri","room_assignment":["grey","yellow","purple","red","green","blue"],"door_color_assignment":["black","white"],"door_generator_assignment":[0,1],"goal":2,"start":0,"action_noise":0.15,"location_history":"[0,5,4,0,1,3,4,2]","action_history":"[0,0,0,1,1,1,1]","door_history":"[0,0,0,1,1,1,1]","location_rts":"[605,489,423,1135,395,428,429]","trial_type":"two-door-navigation","trial_index":35,"time_elapsed":681201,"internal_node_id":"0.0-2.0-33.0"},{"group":"hexagon_tri","room_assignment":["grey","yellow","purple","red","green","blue"],"door_color_assignment":["black","white"],"door_generator_assignment":[0,1],"goal":0,"start":2,"action_noise":0.15,"location_history":"[2,3,4,2,3,2,1,3,2,1,3,2,1,5,4,2,3,4,0]","action_history":"[1,1,1,1,0,0,0,0,1,0,1,0,1,0,1,1,0,0]","door_history":"[1,1,1,1,0,0,0,0,1,0,1,0,1,0,1,1,0,0]","location_rts":"[719,431,305,441,358,333,391,459,421,455,244,336,376,323,398,343,328,270]","trial_type":"two-door-navigation","trial_index":36,"time_elapsed":709975,"internal_node_id":"0.0-2.0-34.0"},{"group":"hexagon_tri","room_assignment":["grey","yellow","purple","red","green","blue"],"door_color_assignment":["black","white"],"door_generator_assignment":[0,1],"goal":5,"start":0,"action_noise":0.15,"location_history":"[0,5]","action_history":"[0]","door_history":"[0]","location_rts":"[647]","trial_type":"two-door-navigation","trial_index":37,"time_elapsed":715149,"internal_node_id":"0.0-2.0-35.0"},{"group":"hexagon_tri","room_assignment":["grey","yellow","purple","red","green","blue"],"door_color_assignment":["black","white"],"door_generator_assignment":[0,1],"goal":1,"start":5,"action_noise":0.15,"location_history":"[5,4,2,1]","action_history":"[0,0,0]","door_history":"[0,0,0]","location_rts":"[620,438,276]","trial_type":"two-door-navigation","trial_index":38,"time_elapsed":723045,"internal_node_id":"0.0-2.0-36.0"},{"group":"hexagon_tri","room_assignment":["grey","yellow","purple","red","green","blue"],"door_color_assignment":["black","white"],"door_generator_assignment":[0,1],"goal":4,"start":1,"action_noise":0.15,"location_history":"[1,3,2,1,3,4]","action_history":"[0,0,0,0,1]","door_history":"[0,0,0,0,1]","location_rts":"[460,295,333,406,629]","trial_type":"two-door-navigation","trial_index":39,"time_elapsed":733774,"internal_node_id":"0.0-2.0-37.0"},{"group":"hexagon_tri","room_assignment":["grey","yellow","purple","red","green","blue"],"door_color_assignment":["black","white"],"door_generator_assignment":[0,1],"goal":3,"start":4,"action_noise":0.15,"location_history":"[4,0,1,5,0,1,5,4,2,1,3]","action_history":"[1,1,1,1,1,1,0,0,0,0]","door_history":"[1,1,1,1,1,1,0,0,0,0]","location_rts":"[8571,315,869,475,460,684,437,366,791,327]","trial_type":"two-door-navigation","trial_index":40,"time_elapsed":760762,"internal_node_id":"0.0-2.0-38.0"},{"group":"hexagon_tri","room_assignment":["grey","yellow","purple","red","green","blue"],"door_color_assignment":["black","white"],"door_generator_assignment":[0,1],"goal":5,"start":3,"action_noise":0.15,"location_history":"[3,2,3,4,2,3,4,0,1,5]","action_history":"[0,0,0,1,1,1,0,1,0]","door_history":"[0,0,0,1,1,1,0,1,0]","location_rts":"[1710,540,813,382,439,521,1335,460,938]","trial_type":"two-door-navigation","trial_index":41,"time_elapsed":780579,"internal_node_id":"0.0-2.0-39.0"},{"group":"hexagon_tri","room_assignment":["grey","yellow","purple","red","green","blue"],"door_color_assignment":["black","white"],"door_generator_assignment":[0,1],"goal":1,"start":5,"action_noise":0.15,"location_history":"[5,0,1]","action_history":"[1,1]","door_history":"[1,1]","location_rts":"[1054,389]","trial_type":"two-door-navigation","trial_index":42,"time_elapsed":787565,"internal_node_id":"0.0-2.0-40.0"},{"group":"hexagon_tri","room_assignment":["grey","yellow","purple","red","green","blue"],"door_color_assignment":["black","white"],"door_generator_assignment":[0,1],"goal":2,"start":1,"action_noise":0.15,"location_history":"[1,5,0,1,5,4,0,1,5,0,5,4,0,1,3,4,0,5,4,2]","action_history":"[1,1,1,1,0,0,0,0,1,1,0,0,1,0,1,0,1,0,1]","door_history":"[1,1,1,1,0,0,0,0,1,1,0,0,1,0,1,0,1,0,1]","location_rts":"[413,470,309,326,366,284,277,269,368,326,527,373,390,426,291,423,363,383,301]","trial_type":"two-door-navigation","trial_index":43,"time_elapsed":817313,"internal_node_id":"0.0-2.0-41.0"},{"group":"hexagon_tri","room_assignment":["grey","yellow","purple","red","green","blue"],"door_color_assignment":["black","white"],"door_generator_assignment":[0,1],"goal":4,"start":2,"action_noise":0.15,"location_history":"[2,1,3,2,1,5,4]","action_history":"[0,0,0,0,1,1]","door_history":"[0,0,0,0,1,1]","location_rts":"[50416,410,293,739,2941,256]","trial_type":"two-door-navigation","trial_index":44,"time_elapsed":881990,"internal_node_id":"0.0-2.0-42.0"},{"group":"hexagon_tri","room_assignment":["grey","yellow","purple","red","green","blue"],"door_color_assignment":["black","white"],"door_generator_assignment":[0,1],"goal":0,"start":4,"action_noise":0.15,"location_history":"[4,0]","action_history":"[0]","door_history":"[0]","location_rts":"[1360]","trial_type":"two-door-navigation","trial_index":45,"time_elapsed":887876,"internal_node_id":"0.0-2.0-43.0"},{"group":"hexagon_tri","room_assignment":["grey","yellow","purple","red","green","blue"],"door_color_assignment":["black","white"],"door_generator_assignment":[0,1],"goal":3,"start":0,"action_noise":0.15,"location_history":"[0,5,4,0,1,3]","action_history":"[0,0,0,1,1]","door_history":"[0,0,0,1,1]","location_rts":"[389,338,359,1343,445]","trial_type":"two-door-navigation","trial_index":46,"time_elapsed":899350,"internal_node_id":"0.0-2.0-44.0"},{"group":"hexagon_tri","room_assignment":["grey","yellow","purple","red","green","blue"],"door_color_assignment":["black","white"],"door_generator_assignment":[0,1],"goal":0,"start":3,"action_noise":0.15,"location_history":"[3,2,3,2,1,3,2,3,2,3,2,3,2,3,4,0]","action_history":"[1,1,0,0,0,0,1,0,1,0,1,0,1,0,0]","door_history":"[1,1,0,0,0,0,1,0,1,0,1,0,1,0,0]","location_rts":"[388,312,968,269,295,644,404,683,343,247,348,327,329,300,373]","trial_type":"two-door-navigation","trial_index":47,"time_elapsed":924355,"internal_node_id":"0.0-2.0-45.0"},{"group":"hexagon_tri","room_assignment":["grey","yellow","purple","red","green","blue"],"door_color_assignment":["black","white"],"door_generator_assignment":[0,1],"goal":4,"start":0,"action_noise":0.15,"location_history":"[0,1,5,0,5,4]","action_history":"[1,1,1,0,0]","door_history":"[1,1,1,0,0]","location_rts":"[422,374,356,949,320]","trial_type":"two-door-navigation","trial_index":48,"time_elapsed":935377,"internal_node_id":"0.0-2.0-46.0"},{"group":"hexagon_tri","room_assignment":["grey","yellow","purple","red","green","blue"],"door_color_assignment":["black","white"],"door_generator_assignment":[0,1],"goal":5,"start":4,"action_noise":0.15,"location_history":"[4,0,1,3,2,1,3,2,1,3,2,1,3,2,3,4,2,1,5]","action_history":"[0,0,0,0,0,0,0,0,0,0,0,0,0,1,1,1,0,1]","door_history":"[0,0,0,0,0,0,0,0,0,0,0,0,0,1,1,1,0,1]","location_rts":"[407,287,315,631,536,484,418,526,602,410,571,445,327,807,295,394,1600,431]","trial_type":"two-door-navigation","trial_index":49,"time_elapsed":966716,"internal_node_id":"0.0-2.0-47.0"},{"group":"hexagon_tri","room_assignment":["grey","yellow","purple","red","green","blue"],"door_color_assignment":["black","white"],"door_generator_assignment":[0,1],"goal":2,"start":5,"action_noise":0.15,"location_history":"[5,4,0,5,0,1,5,0,1,5,4,0,5,0,5,0,1,3,2]","action_history":"[0,0,0,1,1,1,1,0,1,0,1,0,1,0,0,1,0,1]","door_history":"[0,0,0,1,1,1,1,0,1,0,1,0,1,0,0,1,0,1]","location_rts":"[381,297,353,950,317,315,475,600,283,263,314,254,406,319,448,275,452,966]","trial_type":"two-door-navigation","trial_index":50,"time_elapsed":996225,"internal_node_id":"0.0-2.0-48.0"},{"group":"hexagon_tri","room_assignment":["grey","yellow","purple","red","green","blue"],"door_color_assignment":["black","white"],"door_generator_assignment":[0,1],"goal":1,"start":2,"action_noise":0.15,"location_history":"[2,3,4,2,3,2,1]","action_history":"[1,1,1,1,0,0]","door_history":"[1,1,1,1,0,0]","location_rts":"[471,469,361,339,353,491]","trial_type":"two-door-navigation","trial_index":51,"time_elapsed":1008332,"internal_node_id":"0.0-2.0-49.0"},{"view_history":"[{\"page_index\":0,\"viewing_time\":2237}]","rt":2237,"trial_type":"instructions","trial_index":52,"time_elapsed":1011570,"internal_node_id":"0.0-3.0"},{"view_history":"[{\"page_index\":0,\"viewing_time\":983},{\"page_index\":1,\"viewing_time\":1600}]","rt":2584,"trial_type":"instructions","trial_index":53,"time_elapsed":1015155,"internal_node_id":"0.0-4.0"},{"group":"hexagon_bi","fractal_assignment":["../images/gry_blk.png","../images/cyn_red.png","../images/org_blu.png","../images/ylw_slt.png","../images/pnk_blu.png","../images/blu_wht.png"],"mutagen_generator_assignment":[1,0],"goal":2,"start":1,"action_noise":0.15,"location_history":"[1,0,5,4,3,2]","action_history":"[1,0,1,0,1]","mutagen_history":"[0,1,0,1,0]","location_rts":"[7583,434,412,354,382]","trial_type":"fractal-mutation","trial_index":54,"time_elapsed":1032994,"internal_node_id":"0.0-5.0-0.0"},{"group":"hexagon_bi","fractal_assignment":["../images/gry_blk.png","../images/cyn_red.png","../images/org_blu.png","../images/ylw_slt.png","../images/pnk_blu.png","../images/blu_wht.png"],"mutagen_generator_assignment":[1,0],"goal":0,"start":2,"action_noise":0.15,"location_history":"[2,3,4,5,0]","action_history":"[1,0,1,0]","mutagen_history":"[0,1,0,1]","location_rts":"[695,1755,558,2026]","trial_type":"fractal-mutation","trial_index":55,"time_elapsed":1045661,"internal_node_id":"0.0-5.0-1.0"},{"group":"hexagon_bi","fractal_assignment":["../images/gry_blk.png","../images/cyn_red.png","../images/org_blu.png","../images/ylw_slt.png","../images/pnk_blu.png","../images/blu_wht.png"],"mutagen_generator_assignment":[1,0],"goal":5,"start":0,"action_noise":0.15,"location_history":"[0,1,0,1,2,3,4,5]","action_history":"[1,0,1,0,1,0,1]","mutagen_history":"[0,1,0,1,0,1,0]","location_rts":"[556,422,408,412,482,400,529]","trial_type":"fractal-mutation","trial_index":56,"time_elapsed":1059576,"internal_node_id":"0.0-5.0-2.0"},{"group":"hexagon_bi","fractal_assignment":["../images/gry_blk.png","../images/cyn_red.png","../images/org_blu.png","../images/ylw_slt.png","../images/pnk_blu.png","../images/blu_wht.png"],"mutagen_generator_assignment":[1,0],"goal":1,"start":5,"action_noise":0.15,"location_history":"[5,0,5,0,1]","action_history":"[0,1,0,1]","mutagen_history":"[1,0,1,0]","location_rts":"[1728,629,721,376]","trial_type":"fractal-mutation","trial_index":57,"time_elapsed":1070652,"internal_node_id":"0.0-5.0-3.0"},{"group":"hexagon_bi","fractal_assignment":["../images/gry_blk.png","../images/cyn_red.png","../images/org_blu.png","../images/ylw_slt.png","../images/pnk_blu.png","../images/blu_wht.png"],"mutagen_generator_assignment":[1,0],"goal":3,"start":1,"action_noise":0.15,"location_history":"[1,2,3]","action_history":"[0,1]","mutagen_history":"[1,0]","location_rts":"[522,479]","trial_type":"fractal-mutation","trial_index":58,"time_elapsed":1077218,"internal_node_id":"0.0-5.0-4.0"},{"group":"hexagon_bi","fractal_assignment":["../images/gry_blk.png","../images/cyn_red.png","../images/org_blu.png","../images/ylw_slt.png","../images/pnk_blu.png","../images/blu_wht.png"],"mutagen_generator_assignment":[1,0],"goal":5,"start":3,"action_noise":0.15,"location_history":"[3,4,5]","action_history":"[0,1]","mutagen_history":"[1,0]","location_rts":"[575,407]","trial_type":"fractal-mutation","trial_index":59,"time_elapsed":1083754,"internal_node_id":"0.0-5.0-5.0"},{"group":"hexagon_bi","fractal_assignment":["../images/gry_blk.png","../images/cyn_red.png","../images/org_blu.png","../images/ylw_slt.png","../images/pnk_blu.png","../images/blu_wht.png"],"mutagen_generator_assignment":[1,0],"goal":4,"start":5,"action_noise":0.15,"location_history":"[5,0,5,0,1,2,3,2,3,4]","action_history":"[0,1,0,1,0,1,0,1,0]","mutagen_history":"[1,0,1,0,1,0,1,0,1]","location_rts":"[441,476,344,393,384,388,358,387,423]","trial_type":"fractal-mutation","trial_index":60,"time_elapsed":1100110,"internal_node_id":"0.0-5.0-6.0"},{"group":"hexagon_bi","fractal_assignment":["../images/gry_blk.png","../images/cyn_red.png","../images/org_blu.png","../images/ylw_slt.png","../images/pnk_blu.png","../images/blu_wht.png"],"mutagen_generator_assignment":[1,0],"goal":0,"start":4,"action_noise":0.15,"location_history":"[4,5,0]","action_history":"[1,0]","mutagen_history":"[0,1]","location_rts":"[457,428]","trial_type":"fractal-mutation","trial_index":61,"time_elapsed":1106566,"internal_node_id":"0.0-5.0-7.0"},{"group":"hexagon_bi","fractal_assignment":["../images/gry_blk.png","../images/cyn_red.png","../images/org_blu.png","../images/ylw_slt.png","../images/pnk_blu.png","../images/blu_wht.png"],"mutagen_generator_assignment":[1,0],"goal":2,"start":0,"action_noise":0.15,"location_history":"[0,5,4,3,2]","action_history":"[0,1,0,1]","mutagen_history":"[1,0,1,0]","location_rts":"[402,374,472,360]","trial_type":"fractal-mutation","trial_index":62,"time_elapsed":1115792,"internal_node_id":"0.0-5.0-8.0"},{"group":"hexagon_bi","fractal_assignment":["../images/gry_blk.png","../images/cyn_red.png","../images/org_blu.png","../images/ylw_slt.png","../images/pnk_blu.png","../images/blu_wht.png"],"mutagen_generator_assignment":[1,0],"goal":4,"start":2,"action_noise":0.15,"location_history":"[2,1,0,5,4]","action_history":"[0,1,0,1]","mutagen_history":"[1,0,1,0]","location_rts":"[664,552,450,577]","trial_type":"fractal-mutation","trial_index":63,"time_elapsed":1125648,"internal_node_id":"0.0-5.0-9.0"},{"group":"hexagon_bi","fractal_assignment":["../images/gry_blk.png","../images/cyn_red.png","../images/org_blu.png","../images/ylw_slt.png","../images/pnk_blu.png","../images/blu_wht.png"],"mutagen_generator_assignment":[1,0],"goal":2,"start":4,"action_noise":0.15,"location_history":"[4,5,0,1,2]","action_history":"[1,0,1,0]","mutagen_history":"[0,1,0,1]","location_rts":"[1063,415,438,555]","trial_type":"fractal-mutation","trial_index":64,"time_elapsed":1135735,"internal_node_id":"0.0-5.0-10.0"},{"group":"hexagon_bi","fractal_assignment":["../images/gry_blk.png","../images/cyn_red.png","../images/org_blu.png","../images/ylw_slt.png","../images/pnk_blu.png","../images/blu_wht.png"],"mutagen_generator_assignment":[1,0],"goal":3,"start":2,"action_noise":0.15,"location_history":"[2,3]","action_history":"[1]","mutagen_history":"[0]","location_rts":"[489]","trial_type":"fractal-mutation","trial_index":65,"time_elapsed":1140751,"internal_node_id":"0.0-5.0-11.0"},{"group":"hexagon_bi","fractal_assignment":["../images/gry_blk.png","../images/cyn_red.png","../images/org_blu.png","../images/ylw_slt.png","../images/pnk_blu.png","../images/blu_wht.png"],"mutagen_generator_assignment":[1,0],"goal":0,"start":3,"action_noise":0.15,"location_history":"[3,4,5,0]","action_history":"[0,1,0]","mutagen_history":"[1,0,1]","location_rts":"[617,435,365]","trial_type":"fractal-mutation","trial_index":66,"time_elapsed":1148763,"internal_node_id":"0.0-5.0-12.0"},{"group":"hexagon_bi","fractal_assignment":["../images/gry_blk.png","../images/cyn_red.png","../images/org_blu.png","../images/ylw_slt.png","../images/pnk_blu.png","../images/blu_wht.png"],"mutagen_generator_assignment":[1,0],"goal":5,"start":0,"action_noise":0.15,"location_history":"[0,1,0,1,2,3,4,5]","action_history":"[1,0,1,0,1,0,1]","mutagen_history":"[0,1,0,1,0,1,0]","location_rts":"[383,405,549,425,342,414,435]","trial_type":"fractal-mutation","trial_index":67,"time_elapsed":1162411,"internal_node_id":"0.0-5.0-13.0"},{"group":"hexagon_bi","fractal_assignment":["../images/gry_blk.png","../images/cyn_red.png","../images/org_blu.png","../images/ylw_slt.png","../images/pnk_blu.png","../images/blu_wht.png"],"mutagen_generator_assignment":[1,0],"goal":1,"start":5,"action_noise":0.15,"location_history":"[5,4,3,2,1]","action_history":"[1,0,1,0]","mutagen_history":"[0,1,0,1]","location_rts":"[33108,980,423,370]","trial_type":"fractal-mutation","trial_index":68,"time_elapsed":1204891,"internal_node_id":"0.0-5.0-14.0"},{"group":"hexagon_bi","fractal_assignment":["../images/gry_blk.png","../images/cyn_red.png","../images/org_blu.png","../images/ylw_slt.png","../images/pnk_blu.png","../images/blu_wht.png"],"mutagen_generator_assignment":[1,0],"goal":5,"start":1,"action_noise":0.15,"location_history":"[1,0,5]","action_history":"[1,0]","mutagen_history":"[0,1]","location_rts":"[590,407]","trial_type":"fractal-mutation","trial_index":69,"time_elapsed":1211445,"internal_node_id":"0.0-5.0-15.0"},{"group":"hexagon_bi","fractal_assignment":["../images/gry_blk.png","../images/cyn_red.png","../images/org_blu.png","../images/ylw_slt.png","../images/pnk_blu.png","../images/blu_wht.png"],"mutagen_generator_assignment":[1,0],"goal":3,"start":5,"action_noise":0.15,"location_history":"[5,4,3]","action_history":"[1,0]","mutagen_history":"[0,1]","location_rts":"[666,643]","trial_type":"fractal-mutation","trial_index":70,"time_elapsed":1218317,"internal_node_id":"0.0-5.0-16.0"},{"group":"hexagon_bi","fractal_assignment":["../images/gry_blk.png","../images/cyn_red.png","../images/org_blu.png","../images/ylw_slt.png","../images/pnk_blu.png","../images/blu_wht.png"],"mutagen_generator_assignment":[1,0],"goal":2,"start":3,"action_noise":0.15,"location_history":"[3,2]","action_history":"[1]","mutagen_history":"[0]","location_rts":"[508]","trial_type":"fractal-mutation","trial_index":71,"time_elapsed":1223354,"internal_node_id":"0.0-5.0-17.0"},{"group":"hexagon_bi","fractal_assignment":["../images/gry_blk.png","../images/cyn_red.png","../images/org_blu.png","../images/ylw_slt.png","../images/pnk_blu.png","../images/blu_wht.png"],"mutagen_generator_assignment":[1,0],"goal":1,"start":2,"action_noise":0.15,"location_history":"[2,3,2,3,4,5,0,1]","action_history":"[1,0,1,0,1,0,1]","mutagen_history":"[0,1,0,1,0,1,0]","location_rts":"[581,452,718,449,728,454,524]","trial_type":"fractal-mutation","trial_index":72,"time_elapsed":1237964,"internal_node_id":"0.0-5.0-18.0"},{"group":"hexagon_bi","fractal_assignment":["../images/gry_blk.png","../images/cyn_red.png","../images/org_blu.png","../images/ylw_slt.png","../images/pnk_blu.png","../images/blu_wht.png"],"mutagen_generator_assignment":[1,0],"goal":4,"start":1,"action_noise":0.15,"location_history":"[1,2,3,2,3,2,3,2,1,2,1,0,5,4]","action_history":"[1,0,1,0,1,0,1,0,1,0,1,0,1]","mutagen_history":"[0,1,0,1,0,1,0,1,0,1,0,1,0]","location_rts":"[707,814,446,1089,487,453,494,712,774,731,761,468,507]","trial_type":"fractal-mutation","trial_index":73,"time_elapsed":1263300,"internal_node_id":"0.0-5.0-19.0"},{"group":"hexagon_bi","fractal_assignment":["../images/gry_blk.png","../images/cyn_red.png","../images/org_blu.png","../images/ylw_slt.png","../images/pnk_blu.png","../images/blu_wht.png"],"mutagen_generator_assignment":[1,0],"goal":0,"start":4,"action_noise":0.15,"location_history":"[4,3,2,1,0]","action_history":"[0,1,0,1]","mutagen_history":"[1,0,1,0]","location_rts":"[493,1038,602,456]","trial_type":"fractal-mutation","trial_index":74,"time_elapsed":1273500,"internal_node_id":"0.0-5.0-20.0"},{"group":"hexagon_bi","fractal_assignment":["../images/gry_blk.png","../images/cyn_red.png","../images/org_blu.png","../images/ylw_slt.png","../images/pnk_blu.png","../images/blu_wht.png"],"mutagen_generator_assignment":[1,0],"goal":3,"start":0,"action_noise":0.15,"location_history":"[0,5,4,3]","action_history":"[0,1,0]","mutagen_history":"[1,0,1]","location_rts":"[501,476,976]","trial_type":"fractal-mutation","trial_index":75,"time_elapsed":1282051,"internal_node_id":"0.0-5.0-21.0"},{"group":"hexagon_bi","fractal_assignment":["../images/gry_blk.png","../images/cyn_red.png","../images/org_blu.png","../images/ylw_slt.png","../images/pnk_blu.png","../images/blu_wht.png"],"mutagen_generator_assignment":[1,0],"goal":1,"start":3,"action_noise":0.15,"location_history":"[3,4,5,0,1]","action_history":"[0,1,0,1]","mutagen_history":"[1,0,1,0]","location_rts":"[542,596,652,2127]","trial_type":"fractal-mutation","trial_index":76,"time_elapsed":1293587,"internal_node_id":"0.0-5.0-22.0"},{"group":"hexagon_bi","fractal_assignment":["../images/gry_blk.png","../images/cyn_red.png","../images/org_blu.png","../images/ylw_slt.png","../images/pnk_blu.png","../images/blu_wht.png"],"mutagen_generator_assignment":[1,0],"goal":0,"start":1,"action_noise":0.15,"location_history":"[1,0]","action_history":"[1]","mutagen_history":"[0]","location_rts":"[579]","trial_type":"fractal-mutation","trial_index":77,"time_elapsed":1298705,"internal_node_id":"0.0-5.0-23.0"},{"group":"hexagon_bi","fractal_assignment":["../images/gry_blk.png","../images/cyn_red.png","../images/org_blu.png","../images/ylw_slt.png","../images/pnk_blu.png","../images/blu_wht.png"],"mutagen_generator_assignment":[1,0],"goal":2,"start":0,"action_noise":0.15,"location_history":"[0,1,0,1,2]","action_history":"[1,0,1,0]","mutagen_history":"[0,1,0,1]","location_rts":"[838,2045,1045,439]","trial_type":"fractal-mutation","trial_index":78,"time_elapsed":1310699,"internal_node_id":"0.0-5.0-24.0"},{"group":"hexagon_bi","fractal_assignment":["../images/gry_blk.png","../images/cyn_red.png","../images/org_blu.png","../images/ylw_slt.png","../images/pnk_blu.png","../images/blu_wht.png"],"mutagen_generator_assignment":[1,0],"goal":4,"start":2,"action_noise":0.15,"location_history":"[2,3,4]","action_history":"[1,0]","mutagen_history":"[0,1]","location_rts":"[508,441]","trial_type":"fractal-mutation","trial_index":79,"time_elapsed":1317211,"internal_node_id":"0.0-5.0-25.0"},{"group":"hexagon_bi","fractal_assignment":["../images/gry_blk.png","../images/cyn_red.png","../images/org_blu.png","../images/ylw_slt.png","../images/pnk_blu.png","../images/blu_wht.png"],"mutagen_generator_assignment":[1,0],"goal":5,"start":4,"action_noise":0.15,"location_history":"[4,3,4,5]","action_history":"[1,0,1]","mutagen_history":"[0,1,0]","location_rts":"[510,373,507]","trial_type":"fractal-mutation","trial_index":80,"time_elapsed":1325187,"internal_node_id":"0.0-5.0-26.0"},{"group":"hexagon_bi","fractal_assignment":["../images/gry_blk.png","../images/cyn_red.png","../images/org_blu.png","../images/ylw_slt.png","../images/pnk_blu.png","../images/blu_wht.png"],"mutagen_generator_assignment":[1,0],"goal":2,"start":5,"action_noise":0.15,"location_history":"[5,4,3,2]","action_history":"[1,0,1]","mutagen_history":"[0,1,0]","location_rts":"[423,395,506]","trial_type":"fractal-mutation","trial_index":81,"time_elapsed":1333105,"internal_node_id":"0.0-5.0-27.0"},{"group":"hexagon_bi","fractal_assignment":["../images/gry_blk.png","../images/cyn_red.png","../images/org_blu.png","../images/ylw_slt.png","../images/pnk_blu.png","../images/blu_wht.png"],"mutagen_generator_assignment":[1,0],"goal":3,"start":2,"action_noise":0.15,"location_history":"[2,3]","action_history":"[1]","mutagen_history":"[0]","location_rts":"[510]","trial_type":"fractal-mutation","trial_index":82,"time_elapsed":1338147,"internal_node_id":"0.0-5.0-28.0"},{"group":"hexagon_bi","fractal_assignment":["../images/gry_blk.png","../images/cyn_red.png","../images/org_blu.png","../images/ylw_slt.png","../images/pnk_blu.png","../images/blu_wht.png"],"mutagen_generator_assignment":[1,0],"goal":1,"start":3,"action_noise":0.15,"location_history":"[3,2,1]","action_history":"[1,0]","mutagen_history":"[0,1]","location_rts":"[540,1278]","trial_type":"fractal-mutation","trial_index":83,"time_elapsed":1345540,"internal_node_id":"0.0-5.0-29.0"},{"group":"hexagon_bi","fractal_assignment":["../images/gry_blk.png","../images/cyn_red.png","../images/org_blu.png","../images/ylw_slt.png","../images/pnk_blu.png","../images/blu_wht.png"],"mutagen_generator_assignment":[1,0],"goal":4,"start":1,"action_noise":0.15,"location_history":"[1,2,1,0,5,0,5,4]","action_history":"[1,0,1,0,1,0,1]","mutagen_history":"[0,1,0,1,0,1,0]","location_rts":"[388,441,917,455,725,508,538]","trial_type":"fractal-mutation","trial_index":84,"time_elapsed":1360200,"internal_node_id":"0.0-5.0-30.0"},{"group":"hexagon_bi","fractal_assignment":["../images/gry_blk.png","../images/cyn_red.png","../images/org_blu.png","../images/ylw_slt.png","../images/pnk_blu.png","../images/blu_wht.png"],"mutagen_generator_assignment":[1,0],"goal":5,"start":4,"action_noise":0.15,"location_history":"[4,5]","action_history":"[1]","mutagen_history":"[0]","location_rts":"[416]","trial_type":"fractal-mutation","trial_index":85,"time_elapsed":1365151,"internal_node_id":"0.0-5.0-31.0"},{"group":"hexagon_bi","fractal_assignment":["../images/gry_blk.png","../images/cyn_red.png","../images/org_blu.png","../images/ylw_slt.png","../images/pnk_blu.png","../images/blu_wht.png"],"mutagen_generator_assignment":[1,0],"goal":0,"start":5,"action_noise":0.15,"location_history":"[5,4,3,2,1,0]","action_history":"[1,0,1,0,1]","mutagen_history":"[0,1,0,1,0]","location_rts":"[473,870,1697,1254,442]","trial_type":"fractal-mutation","trial_index":86,"time_elapsed":1378534,"internal_node_id":"0.0-5.0-32.0"},{"group":"hexagon_bi","fractal_assignment":["../images/gry_blk.png","../images/cyn_red.png","../images/org_blu.png","../images/ylw_slt.png","../images/pnk_blu.png","../images/blu_wht.png"],"mutagen_generator_assignment":[1,0],"goal":2,"start":0,"action_noise":0.15,"location_history":"[0,1,2]","action_history":"[1,0]","mutagen_history":"[0,1]","location_rts":"[561,570]","trial_type":"fractal-mutation","trial_index":87,"time_elapsed":1385223,"internal_node_id":"0.0-5.0-33.0"},{"group":"hexagon_bi","fractal_assignment":["../images/gry_blk.png","../images/cyn_red.png","../images/org_blu.png","../images/ylw_slt.png","../images/pnk_blu.png","../images/blu_wht.png"],"mutagen_generator_assignment":[1,0],"goal":0,"start":2,"action_noise":0.15,"location_history":"[2,3,4,5,4,5,0]","action_history":"[1,0,1,0,1,0]","mutagen_history":"[0,1,0,1,0,1]","location_rts":"[472,501,611,578,423,722]","trial_type":"fractal-mutation","trial_index":88,"time_elapsed":1398192,"internal_node_id":"0.0-5.0-34.0"},{"group":"hexagon_bi","fractal_assignment":["../images/gry_blk.png","../images/cyn_red.png","../images/org_blu.png","../images/ylw_slt.png","../images/pnk_blu.png","../images/blu_wht.png"],"mutagen_generator_assignment":[1,0],"goal":5,"start":0,"action_noise":0.15,"location_history":"[0,5]","action_history":"[1]","mutagen_history":"[0]","location_rts":"[456]","trial_type":"fractal-mutation","trial_index":89,"time_elapsed":1403172,"internal_node_id":"0.0-5.0-35.0"},{"group":"hexagon_bi","fractal_assignment":["../images/gry_blk.png","../images/cyn_red.png","../images/org_blu.png","../images/ylw_slt.png","../images/pnk_blu.png","../images/blu_wht.png"],"mutagen_generator_assignment":[1,0],"goal":1,"start":5,"action_noise":0.15,"location_history":"[5,4,3,2,3,2,1]","action_history":"[1,0,1,0,1,0]","mutagen_history":"[0,1,0,1,0,1]","location_rts":"[484,515,479,929,433,647]","trial_type":"fractal-mutation","trial_index":90,"time_elapsed":1416307,"internal_node_id":"0.0-5.0-36.0"},{"group":"hexagon_bi","fractal_assignment":["../images/gry_blk.png","../images/cyn_red.png","../images/org_blu.png","../images/ylw_slt.png","../images/pnk_blu.png","../images/blu_wht.png"],"mutagen_generator_assignment":[1,0],"goal":4,"start":1,"action_noise":0.15,"location_history":"[1,2,3,2,1,0,5,4]","action_history":"[1,0,1,0,1,0,1]","mutagen_history":"[0,1,0,1,0,1,0]","location_rts":"[531,829,431,434,639,463,394]","trial_type":"fractal-mutation","trial_index":91,"time_elapsed":1430732,"internal_node_id":"0.0-5.0-37.0"},{"group":"hexagon_bi","fractal_assignment":["../images/gry_blk.png","../images/cyn_red.png","../images/org_blu.png","../images/ylw_slt.png","../images/pnk_blu.png","../images/blu_wht.png"],"mutagen_generator_assignment":[1,0],"goal":3,"start":4,"action_noise":0.15,"location_history":"[4,3]","action_history":"[0]","mutagen_history":"[1]","location_rts":"[461]","trial_type":"fractal-mutation","trial_index":92,"time_elapsed":1435731,"internal_node_id":"0.0-5.0-38.0"},{"group":"hexagon_bi","fractal_assignment":["../images/gry_blk.png","../images/cyn_red.png","../images/org_blu.png","../images/ylw_slt.png","../images/pnk_blu.png","../images/blu_wht.png"],"mutagen_generator_assignment":[1,0],"goal":5,"start":3,"action_noise":0.15,"location_history":"[3,4,5]","action_history":"[0,1]","mutagen_history":"[1,0]","location_rts":"[429,611]","trial_type":"fractal-mutation","trial_index":93,"time_elapsed":1442334,"internal_node_id":"0.0-5.0-39.0"},{"group":"hexagon_bi","fractal_assignment":["../images/gry_blk.png","../images/cyn_red.png","../images/org_blu.png","../images/ylw_slt.png","../images/pnk_blu.png","../images/blu_wht.png"],"mutagen_generator_assignment":[1,0],"goal":1,"start":5,"action_noise":0.15,"location_history":"[5,4,3,2,3,2,1]","action_history":"[1,0,1,0,1,0]","mutagen_history":"[0,1,0,1,0,1]","location_rts":"[393,490,588,425,665,757]","trial_type":"fractal-mutation","trial_index":94,"time_elapsed":1455332,"internal_node_id":"0.0-5.0-40.0"},{"group":"hexagon_bi","fractal_assignment":["../images/gry_blk.png","../images/cyn_red.png","../images/org_blu.png","../images/ylw_slt.png","../images/pnk_blu.png","../images/blu_wht.png"],"mutagen_generator_assignment":[1,0],"goal":2,"start":1,"action_noise":0.15,"location_history":"[1,0,1,0,5,4,3,2]","action_history":"[1,0,1,0,1,0,1]","mutagen_history":"[0,1,0,1,0,1,0]","location_rts":"[565,830,1198,832,735,514,408]","trial_type":"fractal-mutation","trial_index":95,"time_elapsed":1471095,"internal_node_id":"0.0-5.0-41.0"},{"group":"hexagon_bi","fractal_assignment":["../images/gry_blk.png","../images/cyn_red.png","../images/org_blu.png","../images/ylw_slt.png","../images/pnk_blu.png","../images/blu_wht.png"],"mutagen_generator_assignment":[1,0],"goal":4,"start":2,"action_noise":0.15,"location_history":"[2,1,0,5,4]","action_history":"[0,1,0,1]","mutagen_history":"[1,0,1,0]","location_rts":"[489,434,450,460]","trial_type":"fractal-mutation","trial_index":96,"time_elapsed":1480542,"internal_node_id":"0.0-5.0-42.0"},{"group":"hexagon_bi","fractal_assignment":["../images/gry_blk.png","../images/cyn_red.png","../images/org_blu.png","../images/ylw_slt.png","../images/pnk_blu.png","../images/blu_wht.png"],"mutagen_generator_assignment":[1,0],"goal":0,"start":4,"action_noise":0.15,"location_history":"[4,3,2,3,4,5,0]","action_history":"[1,0,1,0,1,0]","mutagen_history":"[0,1,0,1,0,1]","location_rts":"[419,661,405,399,416,468]","trial_type":"fractal-mutation","trial_index":97,"time_elapsed":1492974,"internal_node_id":"0.0-5.0-43.0"},{"group":"hexagon_bi","fractal_assignment":["../images/gry_blk.png","../images/cyn_red.png","../images/org_blu.png","../images/ylw_slt.png","../images/pnk_blu.png","../images/blu_wht.png"],"mutagen_generator_assignment":[1,0],"goal":3,"start":0,"action_noise":0.15,"location_history":"[0,1,0,5,4,3]","action_history":"[0,1,0,1,0]","mutagen_history":"[1,0,1,0,1]","location_rts":"[385,569,919,772,530]","trial_type":"fractal-mutation","trial_index":98,"time_elapsed":1504793,"internal_node_id":"0.0-5.0-44.0"},{"group":"hexagon_bi","fractal_assignment":["../images/gry_blk.png","../images/cyn_red.png","../images/org_blu.png","../images/ylw_slt.png","../images/pnk_blu.png","../images/blu_wht.png"],"mutagen_generator_assignment":[1,0],"goal":0,"start":3,"action_noise":0.15,"location_history":"[3,4,5,0]","action_history":"[0,1,0]","mutagen_history":"[1,0,1]","location_rts":"[791,586,477]","trial_type":"fractal-mutation","trial_index":99,"time_elapsed":1513232,"internal_node_id":"0.0-5.0-45.0"},{"group":"hexagon_bi","fractal_assignment":["../images/gry_blk.png","../images/cyn_red.png","../images/org_blu.png","../images/ylw_slt.png","../images/pnk_blu.png","../images/blu_wht.png"],"mutagen_generator_assignment":[1,0],"goal":4,"start":0,"action_noise":0.15,"location_history":"[0,1,2,3,4]","action_history":"[1,0,1,0]","mutagen_history":"[0,1,0,1]","location_rts":"[432,502,518,828]","trial_type":"fractal-mutation","trial_index":100,"time_elapsed":1523134,"internal_node_id":"0.0-5.0-46.0"},{"group":"hexagon_bi","fractal_assignment":["../images/gry_blk.png","../images/cyn_red.png","../images/org_blu.png","../images/ylw_slt.png","../images/pnk_blu.png","../images/blu_wht.png"],"mutagen_generator_assignment":[1,0],"goal":5,"start":4,"action_noise":0.15,"location_history":"[4,5]","action_history":"[1]","mutagen_history":"[0]","location_rts":"[522]","trial_type":"fractal-mutation","trial_index":101,"time_elapsed":1528187,"internal_node_id":"0.0-5.0-47.0"},{"group":"hexagon_bi","fractal_assignment":["../images/gry_blk.png","../images/cyn_red.png","../images/org_blu.png","../images/ylw_slt.png","../images/pnk_blu.png","../images/blu_wht.png"],"mutagen_generator_assignment":[1,0],"goal":2,"start":5,"action_noise":0.15,"location_history":"[5,0,5,0,1,0,1,0,1,2]","action_history":"[0,1,0,1,0,1,0,1,0]","mutagen_history":"[1,0,1,0,1,0,1,0,1]","location_rts":"[788,2095,809,1422,835,581,458,446,806]","trial_type":"fractal-mutation","trial_index":102,"time_elapsed":1549197,"internal_node_id":"0.0-5.0-48.0"},{"group":"hexagon_bi","fractal_assignment":["../images/gry_blk.png","../images/cyn_red.png","../images/org_blu.png","../images/ylw_slt.png","../images/pnk_blu.png","../images/blu_wht.png"],"mutagen_generator_assignment":[1,0],"goal":1,"start":2,"action_noise":0.15,"location_history":"[2,1]","action_history":"[0]","mutagen_history":"[1]","location_rts":"[562]","trial_type":"fractal-mutation","trial_index":103,"time_elapsed":1554291,"internal_node_id":"0.0-5.0-49.0"},{"view_history":"[{\"page_index\":0,\"viewing_time\":25237}]","rt":25237,"trial_type":"instructions","trial_index":104,"time_elapsed":1580530,"internal_node_id":"0.0-6.0"},{"rt":111252,"responses":"{\"Q0\":\"How much we would be deterred by the unpredictable nature of the task, since a strategy didn't always work.\"}","trial_type":"survey-text","trial_index":105,"time_elapsed":1692788,"internal_node_id":"0.0-7.0-0.0"},{"rt":33820,"responses":"{\"Q0\":\"If we could quickly figure of a strategy that we could use throughout the task. \"}","trial_type":"survey-text","trial_index":106,"time_elapsed":1727611,"internal_node_id":"0.0-7.0-1.0"},{"rt":54374,"responses":"{\"Q0\":\"<img src='../images/diagrams/hexagon_bi.png'>\"}","trial_type":"survey-multi-choice","trial_index":107,"time_elapsed":1782989,"internal_node_id":"0.0-7.0-2.0"},{"rt":77499,"assignments":["../images/gry_blk.png","../images/ylw_slt.png","../images/blu_wht.png","../images/pnk_blu.png","../images/cyn_red.png","../images/org_blu.png"],"trial_type":"drag-drop-on-image","trial_index":108,"time_elapsed":1861490,"internal_node_id":"0.0-7.0-3.0"},{"rt":25140,"responses":"{\"Q0\":\"1\"}","trial_type":"survey-likert","trial_index":109,"time_elapsed":1887635,"internal_node_id":"0.0-7.0-4.0"},{"rt":222117,"responses":"{\"Q0\":\"You could guess the right answer on the first try a few times, but mostly had to keep trying. This pattern seemed to follow on both experiments. \"}","trial_type":"survey-text","trial_index":110,"time_elapsed":2110755,"internal_node_id":"0.0-7.0-5.0"},{"rt":38168,"responses":"{\"Q0\":\"Yes\"}","trial_type":"survey-multi-choice","trial_index":111,"time_elapsed":2149933,"internal_node_id":"0.0-7.0-6.0"},{"rt":17735,"responses":"{\"Q0\":\"During session 1\"}","trial_type":"survey-multi-choice","trial_index":112,"time_elapsed":2168684,"internal_node_id":"0.0-7.0-7.0"},{"rt":195210,"responses":"{\"Q0\":\"While I didn't figure out what the correspondence was, I figured out that there had to be one - as both experiments had the same goal of finding the right pattern, they were just played slightly differently. \"}","trial_type":"survey-text","trial_index":113,"time_elapsed":2364898,"internal_node_id":"0.0-7.0-8.0"},{"rt":35028,"responses":"{\"Q0\":\"1\"}","trial_type":"survey-likert","trial_index":114,"time_elapsed":2400930,"internal_node_id":"0.0-7.0-9.0"},{"rt":23956,"responses":"{\"Q0\":\"Different structure\"}","trial_type":"survey-multi-choice","trial_index":115,"time_elapsed":2425893,"internal_node_id":"0.0-7.0-10.0"},{"rt":89702,"responses":"{\"Q0\":\"left (black) door = ray, right (white) door = acid\",\"Q1\":\"Slightly confident\"}","trial_type":"survey-multi-choice","trial_index":116,"time_elapsed":2516606,"internal_node_id":"0.0-7.0-11.0"},{"rt":9597,"responses":"{\"Q0\":\"45-55\",\"Q1\":\"Some college\",\"Q2\":\"Female\",\"Q3\":\"White\"}","trial_type":"survey-multi-choice","trial_index":117,"time_elapsed":2527220,"internal_node_id":"0.0-8.0"},{"rt":35228,"responses":"{\"Q0\":\"Thank you. It was quite an interesting experiment. \"}","trial_type":"survey-text","trial_index":118,"time_elapsed":2563450,"internal_node_id":"0.0-9.0"}]