[{"view_history":"[{\"page_index\":0,\"viewing_time\":2675},{\"page_index\":1,\"viewing_time\":35048}]","rt":37723,"trial_type":"instructions","trial_index":0,"time_elapsed":37724,"internal_node_id":"0.0-0.0"},{"view_history":"[{\"page_index\":0,\"viewing_time\":1486},{\"page_index\":1,\"viewing_time\":1392}]","rt":2879,"trial_type":"instructions","trial_index":1,"time_elapsed":41605,"internal_node_id":"0.0-1.0"},{"group":"hexagon_tri","room_assignment":["green","grey","purple","red","yellow","blue"],"door_color_assignment":["black","white"],"door_generator_assignment":[0,1],"goal":2,"start":1,"action_noise":0.15,"location_history":"[1,5,0,5,0,5,0,5,0,1,5,0,5,4,0,5,0,5,4,0,5,0,1,3,2]","action_history":"[1,1,0,0,0,1,1,1,1,1,1,0,0,0,0,0,0,0,1,1,1,1,0,0]","door_history":"[1,1,0,0,0,1,1,1,1,1,1,0,0,0,0,0,0,0,1,1,1,1,0,0]","location_rts":"[4376,951,515,580,618,883,538,648,574,670,680,477,595,630,581,610,657,575,624,566,625,582,1095,689]","trial_type":"two-door-navigation","trial_index":2,"time_elapsed":89282,"internal_node_id":"0.0-2.0-0.0"},{"group":"hexagon_tri","room_assignment":["green","grey","purple","red","yellow","blue"],"door_color_assignment":["black","white"],"door_generator_assignment":[0,1],"goal":0,"start":2,"action_noise":0.15,"location_history":"[2,1,5,0]","action_history":"[1,1,1]","door_history":"[1,1,1]","location_rts":"[9365,519,533]","trial_type":"two-door-navigation","trial_index":3,"time_elapsed":106313,"internal_node_id":"0.0-2.0-1.0"},{"group":"hexagon_tri","room_assignment":["green","grey","purple","red","yellow","blue"],"door_color_assignment":["black","white"],"door_generator_assignment":[0,1],"goal":5,"start":0,"action_noise":0.15,"location_history":"[0,5]","action_history":"[0]","door_history":"[0]","location_rts":"[2065]","trial_type":"two-door-navigation","trial_index":4,"time_elapsed":112916,"internal_node_id":"0.0-2.0-2.0"},{"group":"hexagon_tri","room_assignment":["green","grey","purple","red","yellow","blue"],"door_color_assignment":["black","white"],"door_generator_assignment":[0,1],"goal":1,"start":5,"action_noise":0.15,"location_history":"[5,0,1]","action_history":"[1,1]","door_history":"[1,1]","location_rts":"[2026,628]","trial_type":"two-door-navigation","trial_index":5,"time_elapsed":121141,"internal_node_id":"0.0-2.0-3.0"},{"group":"hexagon_tri","room_assignment":["green","grey","purple","red","yellow","blue"],"door_color_assignment":["black","white"],"door_generator_assignment":[0,1],"goal":3,"start":1,"action_noise":0.15,"location_history":"[1,3]","action_history":"[0]","door_history":"[0]","location_rts":"[1572]","trial_type":"two-door-navigation","trial_index":6,"time_elapsed":127256,"internal_node_id":"0.0-2.0-4.0"},{"group":"hexagon_tri","room_assignment":["green","grey","purple","red","yellow","blue"],"door_color_assignment":["black","white"],"door_generator_assignment":[0,1],"goal":5,"start":3,"action_noise":0.15,"location_history":"[3,4,2,3,4,2,1,3,2,1,3,2,3,4,2,3,4,2,3,4,0,5]","action_history":"[1,1,1,1,1,0,0,0,0,0,0,1,1,1,1,1,1,1,1,0,0]","door_history":"[1,1,1,1,1,0,0,0,0,0,0,1,1,1,1,1,1,1,1,0,0]","location_rts":"[1691,669,626,736,558,518,648,568,637,635,622,1147,621,597,715,664,681,733,638,961,820]","trial_type":"two-door-navigation","trial_index":7,"time_elapsed":167938,"internal_node_id":"0.0-2.0-5.0"},{"group":"hexagon_tri","room_assignment":["green","grey","purple","red","yellow","blue"],"door_color_assignment":["black","white"],"door_generator_assignment":[0,1],"goal":4,"start":5,"action_noise":0.15,"location_history":"[5,4]","action_history":"[0]","door_history":"[0]","location_rts":"[1724]","trial_type":"two-door-navigation","trial_index":8,"time_elapsed":174199,"internal_node_id":"0.0-2.0-6.0"},{"group":"hexagon_tri","room_assignment":["green","grey","purple","red","yellow","blue"],"door_color_assignment":["black","white"],"door_generator_assignment":[0,1],"goal":0,"start":4,"action_noise":0.15,"location_history":"[4,2,3,4,2,3,4,2,3,4,0]","action_history":"[1,1,1,1,1,1,1,1,1,1]","door_history":"[1,1,1,1,1,1,1,1,1,1]","location_rts":"[1966,622,697,779,782,735,703,783,841,742]","trial_type":"two-door-navigation","trial_index":9,"time_elapsed":196661,"internal_node_id":"0.0-2.0-7.0"},{"group":"hexagon_tri","room_assignment":["green","grey","purple","red","yellow","blue"],"door_color_assignment":["black","white"],"door_generator_assignment":[0,1],"goal":2,"start":0,"action_noise":0.15,"location_history":"[0,5,4,0,1,5,0,5,0,1,3,2]","action_history":"[0,0,0,1,1,1,1,1,1,0,0]","door_history":"[0,0,0,1,1,1,1,1,1,0,0]","location_rts":"[1209,534,594,630,1411,689,605,573,606,926,7248]","trial_type":"two-door-navigation","trial_index":10,"time_elapsed":226528,"internal_node_id":"0.0-2.0-8.0"},{"group":"hexagon_tri","room_assignment":["green","grey","purple","red","yellow","blue"],"door_color_assignment":["black","white"],"door_generator_assignment":[0,1],"goal":4,"start":2,"action_noise":0.15,"location_history":"[2,3,4]","action_history":"[1,1]","door_history":"[1,1]","location_rts":"[5498,1447]","trial_type":"two-door-navigation","trial_index":11,"time_elapsed":239040,"internal_node_id":"0.0-2.0-9.0"},{"group":"hexagon_tri","room_assignment":["green","grey","purple","red","yellow","blue"],"door_color_assignment":["black","white"],"door_generator_assignment":[0,1],"goal":2,"start":4,"action_noise":0.15,"location_history":"[4,0,5,4,2]","action_history":"[0,0,0,0]","door_history":"[0,0,0,0]","location_rts":"[2065,542,724,605]","trial_type":"two-door-navigation","trial_index":12,"time_elapsed":250613,"internal_node_id":"0.0-2.0-10.0"},{"group":"hexagon_tri","room_assignment":["green","grey","purple","red","yellow","blue"],"door_color_assignment":["black","white"],"door_generator_assignment":[0,1],"goal":3,"start":2,"action_noise":0.15,"location_history":"[2,3]","action_history":"[1]","door_history":"[1]","location_rts":"[10179]","trial_type":"two-door-navigation","trial_index":13,"time_elapsed":265331,"internal_node_id":"0.0-2.0-11.0"},{"group":"hexagon_tri","room_assignment":["green","grey","purple","red","yellow","blue"],"door_color_assignment":["black","white"],"door_generator_assignment":[0,1],"goal":0,"start":3,"action_noise":0.15,"location_history":"[3,2,1,5,4,0]","action_history":"[0,0,0,0,0]","door_history":"[0,0,0,0,0]","location_rts":"[4433,1016,721,584,731]","trial_type":"two-door-navigation","trial_index":14,"time_elapsed":281474,"internal_node_id":"0.0-2.0-12.0"},{"group":"hexagon_tri","room_assignment":["green","grey","purple","red","yellow","blue"],"door_color_assignment":["black","white"],"door_generator_assignment":[0,1],"goal":5,"start":0,"action_noise":0.15,"location_history":"[0,1,5]","action_history":"[1,1]","door_history":"[1,1]","location_rts":"[5479,5681]","trial_type":"two-door-navigation","trial_index":15,"time_elapsed":298201,"internal_node_id":"0.0-2.0-13.0"},{"group":"hexagon_tri","room_assignment":["green","grey","purple","red","yellow","blue"],"door_color_assignment":["black","white"],"door_generator_assignment":[0,1],"goal":1,"start":5,"action_noise":0.15,"location_history":"[5,0,5,4,0,5,0,5,4,0,5,4,2,3,4,2,3,4,2,1]","action_history":"[1,1,0,0,0,0,0,0,0,0,0,1,1,1,1,1,1,1,1]","door_history":"[1,1,0,0,0,0,0,0,0,0,0,1,1,1,1,1,1,1,1]","location_rts":"[3659,367,695,1188,5350,638,3656,832,771,853,548,486,1293,533,767,676,979,1796,710]","trial_type":"two-door-navigation","trial_index":16,"time_elapsed":347098,"internal_node_id":"0.0-2.0-14.0"},{"group":"hexagon_tri","room_assignment":["green","grey","purple","red","yellow","blue"],"door_color_assignment":["black","white"],"door_generator_assignment":[0,1],"goal":5,"start":1,"action_noise":0.15,"location_history":"[1,3,4,0,1,3,2,1,5]","action_history":"[0,0,0,0,0,0,0,0]","door_history":"[0,0,0,0,0,0,0,0]","location_rts":"[13808,586,709,984,871,1243,967,1227]","trial_type":"two-door-navigation","trial_index":17,"time_elapsed":379238,"internal_node_id":"0.0-2.0-15.0"},{"group":"hexagon_tri","room_assignment":["green","grey","purple","red","yellow","blue"],"door_color_assignment":["black","white"],"door_generator_assignment":[0,1],"goal":3,"start":5,"action_noise":0.15,"location_history":"[5,0,1,5,0,5,0,5,0,5,4,0,1,3]","action_history":"[1,1,1,1,1,1,1,0,0,0,0,0,0]","door_history":"[1,1,1,1,1,1,1,0,0,0,0,0,0]","location_rts":"[5550,501,545,421,625,2086,592,533,463,550,918,578,454]","trial_type":"two-door-navigation","trial_index":18,"time_elapsed":409957,"internal_node_id":"0.0-2.0-16.0"},{"group":"hexagon_tri","room_assignment":["green","grey","purple","red","yellow","blue"],"door_color_assignment":["black","white"],"door_generator_assignment":[0,1],"goal":2,"start":3,"action_noise":0.15,"location_history":"[3,4,2]","action_history":"[1,1]","door_history":"[1,1]","location_rts":"[1765,581]","trial_type":"two-door-navigation","trial_index":19,"time_elapsed":417869,"internal_node_id":"0.0-2.0-17.0"},{"group":"hexagon_tri","room_assignment":["green","grey","purple","red","yellow","blue"],"door_color_assignment":["black","white"],"door_generator_assignment":[0,1],"goal":1,"start":2,"action_noise":0.15,"location_history":"[2,3,4,2,3,4,2,3,4,2,3,4,2,3,2,3,2,1]","action_history":"[1,1,1,1,1,1,1,1,1,1,1,1,1,1,1,0,0]","door_history":"[1,1,1,1,1,1,1,1,1,1,1,1,1,1,1,0,0]","location_rts":"[3537,742,790,4458,612,617,699,1312,1151,622,626,514,545,599,456,281,489]","trial_type":"two-door-navigation","trial_index":20,"time_elapsed":456964,"internal_node_id":"0.0-2.0-18.0"},{"group":"hexagon_tri","room_assignment":["green","grey","purple","red","yellow","blue"],"door_color_assignment":["black","white"],"door_generator_assignment":[0,1],"goal":4,"start":1,"action_noise":0.15,"location_history":"[1,3,4]","action_history":"[1,1]","door_history":"[1,1]","location_rts":"[4054,4290]","trial_type":"two-door-navigation","trial_index":21,"time_elapsed":470875,"internal_node_id":"0.0-2.0-19.0"},{"group":"hexagon_tri","room_assignment":["green","grey","purple","red","yellow","blue"],"door_color_assignment":["black","white"],"door_generator_assignment":[0,1],"goal":0,"start":4,"action_noise":0.15,"location_history":"[4,2,1,5,0]","action_history":"[1,1,1,1]","door_history":"[1,1,1,1]","location_rts":"[2522,1808,616,891]","trial_type":"two-door-navigation","trial_index":22,"time_elapsed":484355,"internal_node_id":"0.0-2.0-20.0"},{"group":"hexagon_tri","room_assignment":["green","grey","purple","red","yellow","blue"],"door_color_assignment":["black","white"],"door_generator_assignment":[0,1],"goal":3,"start":0,"action_noise":0.15,"location_history":"[0,5,0,5,4,0,5,4,0,1,5,0,1,5,4,2,3]","action_history":"[0,0,0,0,0,0,0,0,1,1,1,1,1,1,1,0]","door_history":"[0,0,0,0,0,0,0,0,1,1,1,1,1,1,1,0]","location_rts":"[1990,673,903,804,817,2177,285,708,847,10083,13281,783,1091,1484,742,451]","trial_type":"two-door-navigation","trial_index":23,"time_elapsed":541473,"internal_node_id":"0.0-2.0-21.0"},{"group":"hexagon_tri","room_assignment":["green","grey","purple","red","yellow","blue"],"door_color_assignment":["black","white"],"door_generator_assignment":[0,1],"goal":1,"start":3,"action_noise":0.15,"location_history":"[3,4,2,3,4,0,5,0,1]","action_history":"[1,1,1,1,1,1,1,1]","door_history":"[1,1,1,1,1,1,1,1]","location_rts":"[1691,730,794,839,919,647,649,544]","trial_type":"two-door-navigation","trial_index":24,"time_elapsed":560032,"internal_node_id":"0.0-2.0-22.0"},{"group":"hexagon_tri","room_assignment":["green","grey","purple","red","yellow","blue"],"door_color_assignment":["black","white"],"door_generator_assignment":[0,1],"goal":0,"start":1,"action_noise":0.15,"location_history":"[1,3,2,3,2,3,2,3,2,1,5,0]","action_history":"[0,0,0,0,0,0,0,0,0,1,1]","door_history":"[0,0,0,0,0,0,0,0,0,1,1]","location_rts":"[5231,594,636,799,1929,793,727,1030,292,221,155]","trial_type":"two-door-navigation","trial_index":25,"time_elapsed":587279,"internal_node_id":"0.0-2.0-23.0"},{"group":"hexagon_tri","room_assignment":["green","grey","purple","red","yellow","blue"],"door_color_assignment":["black","white"],"door_generator_assignment":[0,1],"goal":2,"start":0,"action_noise":0.15,"location_history":"[0,1,5,4,2]","action_history":"[1,1,1,1]","door_history":"[1,1,1,1]","location_rts":"[2193,596,571,602]","trial_type":"two-door-navigation","trial_index":26,"time_elapsed":598888,"internal_node_id":"0.0-2.0-24.0"},{"group":"hexagon_tri","room_assignment":["green","grey","purple","red","yellow","blue"],"door_color_assignment":["black","white"],"door_generator_assignment":[0,1],"goal":4,"start":2,"action_noise":0.15,"location_history":"[2,1,5,4]","action_history":"[0,0,0]","door_history":"[0,0,0]","location_rts":"[2920,1357,657]","trial_type":"two-door-navigation","trial_index":27,"time_elapsed":610426,"internal_node_id":"0.0-2.0-25.0"},{"group":"hexagon_tri","room_assignment":["green","grey","purple","red","yellow","blue"],"door_color_assignment":["black","white"],"door_generator_assignment":[0,1],"goal":5,"start":4,"action_noise":0.15,"location_history":"[4,0,5]","action_history":"[0,0]","door_history":"[0,0]","location_rts":"[1475,620]","trial_type":"two-door-navigation","trial_index":28,"time_elapsed":618086,"internal_node_id":"0.0-2.0-26.0"},{"group":"hexagon_tri","room_assignment":["green","grey","purple","red","yellow","blue"],"door_color_assignment":["black","white"],"door_generator_assignment":[0,1],"goal":2,"start":5,"action_noise":0.15,"location_history":"[5,0,1,5,4,2]","action_history":"[1,1,1,1,1]","door_history":"[1,1,1,1,1]","location_rts":"[4460,5598,610,1056,908]","trial_type":"two-door-navigation","trial_index":29,"time_elapsed":639377,"internal_node_id":"0.0-2.0-27.0"},{"group":"hexagon_tri","room_assignment":["green","grey","purple","red","yellow","blue"],"door_color_assignment":["black","white"],"door_generator_assignment":[0,1],"goal":3,"start":2,"action_noise":0.15,"location_history":"[2,1,5,4,0,5,0,1,5,4,2,1,5,0,5,0,1,5,4,0,1,3]","action_history":"[0,0,0,0,0,0,0,0,0,1,1,1,1,0,1,1,1,0,0,0,0]","door_history":"[0,0,0,0,0,0,0,0,0,1,1,1,1,0,1,1,1,0,0,0,0]","location_rts":"[1477,1899,2653,767,832,933,1835,1927,1331,749,638,550,1000,238,1498,137,263,231,414,1095,216]","trial_type":"two-door-navigation","trial_index":30,"time_elapsed":685206,"internal_node_id":"0.0-2.0-28.0"},{"group":"hexagon_tri","room_assignment":["green","grey","purple","red","yellow","blue"],"door_color_assignment":["black","white"],"door_generator_assignment":[0,1],"goal":1,"start":3,"action_noise":0.15,"location_history":"[3,4,2,3,4,2,3,4,2,1]","action_history":"[1,1,1,1,1,1,1,1,1]","door_history":"[1,1,1,1,1,1,1,1,1]","location_rts":"[4183,831,1402,1567,646,658,521,561,518]","trial_type":"two-door-navigation","trial_index":31,"time_elapsed":708875,"internal_node_id":"0.0-2.0-29.0"},{"group":"hexagon_tri","room_assignment":["green","grey","purple","red","yellow","blue"],"door_color_assignment":["black","white"],"door_generator_assignment":[0,1],"goal":4,"start":1,"action_noise":0.15,"location_history":"[1,3,2,1,5,4]","action_history":"[0,0,0,0,0]","door_history":"[0,0,0,0,0]","location_rts":"[3312,824,3105,1075,619]","trial_type":"two-door-navigation","trial_index":32,"time_elapsed":726466,"internal_node_id":"0.0-2.0-30.0"},{"group":"hexagon_tri","room_assignment":["green","grey","purple","red","yellow","blue"],"door_color_assignment":["black","white"],"door_generator_assignment":[0,1],"goal":5,"start":4,"action_noise":0.15,"location_history":"[4,2,3,2,3,4,2,3,4,0,5]","action_history":"[1,1,1,1,1,1,1,1,0,0]","door_history":"[1,1,1,1,1,1,1,1,0,0]","location_rts":"[1638,2513,1504,1409,530301,1506,2074,656,6370,1157]","trial_type":"two-door-navigation","trial_index":33,"time_elapsed":1289366,"internal_node_id":"0.0-2.0-31.0"},{"group":"hexagon_tri","room_assignment":["green","grey","purple","red","yellow","blue"],"door_color_assignment":["black","white"],"door_generator_assignment":[0,1],"goal":0,"start":5,"action_noise":0.15,"location_history":"[5,0]","action_history":"[1]","door_history":"[1]","location_rts":"[6794]","trial_type":"two-door-navigation","trial_index":34,"time_elapsed":1300691,"internal_node_id":"0.0-2.0-32.0"},{"group":"hexagon_tri","room_assignment":["green","grey","purple","red","yellow","blue"],"door_color_assignment":["black","white"],"door_generator_assignment":[0,1],"goal":2,"start":0,"action_noise":0.15,"location_history":"[0,5,0,1,3,4,2]","action_history":"[0,1,1,0,1,1]","door_history":"[0,1,1,0,1,1]","location_rts":"[9365,726,1903,28886,831,561]","trial_type":"two-door-navigation","trial_index":35,"time_elapsed":1352598,"internal_node_id":"0.0-2.0-33.0"},{"group":"hexagon_tri","room_assignment":["green","grey","purple","red","yellow","blue"],"door_color_assignment":["black","white"],"door_generator_assignment":[0,1],"goal":0,"start":2,"action_noise":0.15,"location_history":"[2,3,4,2,3,4,2,3,4,2,3,4,2,1,3,4,2,3,2,3,2,3,2,1,3,2,1,3,2,1,5,0]","action_history":"[1,1,1,1,1,1,1,1,1,1,1,1,0,1,1,1,1,1,1,1,1,0,0,0,0,0,0,0,0,1,1]","door_history":"[1,1,1,1,1,1,1,1,1,1,1,1,0,1,1,1,1,1,1,1,1,0,0,0,0,0,0,0,0,1,1]","location_rts":"[3038,677,1607,5634,1001,1303,451,487,172,12450,571,991,332466,680,436,583,465,419,167,284,268,945,496,599,514,505,510,581,815,961,627]","trial_type":"two-door-navigation","trial_index":36,"time_elapsed":1758546,"internal_node_id":"0.0-2.0-34.0"},{"group":"hexagon_tri","room_assignment":["green","grey","purple","red","yellow","blue"],"door_color_assignment":["black","white"],"door_generator_assignment":[0,1],"goal":5,"start":0,"action_noise":0.15,"location_history":"[0,1,5]","action_history":"[1,1]","door_history":"[1,1]","location_rts":"[2043,654]","trial_type":"two-door-navigation","trial_index":37,"time_elapsed":1766796,"internal_node_id":"0.0-2.0-35.0"},{"group":"hexagon_tri","room_assignment":["green","grey","purple","red","yellow","blue"],"door_color_assignment":["black","white"],"door_generator_assignment":[0,1],"goal":1,"start":5,"action_noise":0.15,"location_history":"[5,0,1]","action_history":"[1,1]","door_history":"[1,1]","location_rts":"[1035,2312]","trial_type":"two-door-navigation","trial_index":38,"time_elapsed":1775694,"internal_node_id":"0.0-2.0-36.0"},{"group":"hexagon_tri","room_assignment":["green","grey","purple","red","yellow","blue"],"door_color_assignment":["black","white"],"door_generator_assignment":[0,1],"goal":4,"start":1,"action_noise":0.15,"location_history":"[1,5,0,5,0,1,3,4]","action_history":"[1,1,1,1,1,1,1]","door_history":"[1,1,1,1,1,1,1]","location_rts":"[1407,748,722,1124,316,670,974]","trial_type":"two-door-navigation","trial_index":39,"time_elapsed":1792332,"internal_node_id":"0.0-2.0-37.0"},{"group":"hexagon_tri","room_assignment":["green","grey","purple","red","yellow","blue"],"door_color_assignment":["black","white"],"door_generator_assignment":[0,1],"goal":3,"start":4,"action_noise":0.15,"location_history":"[4,0,1,5,4,0,5,4,0,5,4,2,3]","action_history":"[1,0,0,0,0,0,0,0,0,0,1,1]","door_history":"[1,0,0,0,0,0,0,0,0,0,1,1]","location_rts":"[462,706,683,897,785,938,549,7914,689,589,564,793]","trial_type":"two-door-navigation","trial_index":40,"time_elapsed":1823698,"internal_node_id":"0.0-2.0-38.0"},{"group":"hexagon_tri","room_assignment":["green","grey","purple","red","yellow","blue"],"door_color_assignment":["black","white"],"door_generator_assignment":[0,1],"goal":5,"start":3,"action_noise":0.15,"location_history":"[3,4,2,3,2,1,3,2,1,3,2,3,4,2,3,4,2,3,2,1,3,2,3,2,3,2,1,5]","action_history":"[1,1,1,1,0,0,0,0,0,0,0,1,1,1,1,1,1,0,0,0,0,0,0,1,1,0,1]","door_history":"[1,1,1,1,0,0,0,0,0,0,0,1,1,1,1,1,1,0,0,0,0,0,0,1,1,0,1]","location_rts":"[2366,802,794,2009,922,674,1129,548,640,664,873,4756,186,735,4874,16796,511,668,558,671,1188,828,1317,1031,1406,1051,11017]","trial_type":"two-door-navigation","trial_index":41,"time_elapsed":1913892,"internal_node_id":"0.0-2.0-39.0"},{"group":"hexagon_tri","room_assignment":["green","grey","purple","red","yellow","blue"],"door_color_assignment":["black","white"],"door_generator_assignment":[0,1],"goal":1,"start":5,"action_noise":0.15,"location_history":"[5,4,0,5,0,1]","action_history":"[0,0,0,1,1]","door_history":"[0,0,0,1,1]","location_rts":"[2136,2099,1176,1151,794]","trial_type":"two-door-navigation","trial_index":42,"time_elapsed":1929870,"internal_node_id":"0.0-2.0-40.0"},{"group":"hexagon_tri","room_assignment":["green","grey","purple","red","yellow","blue"],"door_color_assignment":["black","white"],"door_generator_assignment":[0,1],"goal":2,"start":1,"action_noise":0.15,"location_history":"[1,3,4,2]","action_history":"[1,1,1]","door_history":"[1,1,1]","location_rts":"[7646,498,592]","trial_type":"two-door-navigation","trial_index":43,"time_elapsed":1945186,"internal_node_id":"0.0-2.0-41.0"},{"group":"hexagon_tri","room_assignment":["green","grey","purple","red","yellow","blue"],"door_color_assignment":["black","white"],"door_generator_assignment":[0,1],"goal":4,"start":2,"action_noise":0.15,"location_history":"[2,1,3,2,1,5,4]","action_history":"[0,0,0,0,0,1]","door_history":"[0,0,0,0,0,1]","location_rts":"[1840,1343,735,942,1564,811]","trial_type":"two-door-navigation","trial_index":44,"time_elapsed":1962070,"internal_node_id":"0.0-2.0-42.0"},{"group":"hexagon_tri","room_assignment":["green","grey","purple","red","yellow","blue"],"door_color_assignment":["black","white"],"door_generator_assignment":[0,1],"goal":0,"start":4,"action_noise":0.15,"location_history":"[4,2,3,2,3,4,0]","action_history":"[1,1,1,1,1,1]","door_history":"[1,1,1,1,1,1]","location_rts":"[1751,606,539,545,578,816]","trial_type":"two-door-navigation","trial_index":45,"time_elapsed":1976566,"internal_node_id":"0.0-2.0-43.0"},{"group":"hexagon_tri","room_assignment":["green","grey","purple","red","yellow","blue"],"door_color_assignment":["black","white"],"door_generator_assignment":[0,1],"goal":3,"start":0,"action_noise":0.15,"location_history":"[0,5,4,0,1,3]","action_history":"[0,0,0,0,0]","door_history":"[0,0,0,0,0]","location_rts":"[3881,772,3108,1488,6040]","trial_type":"two-door-navigation","trial_index":46,"time_elapsed":2000496,"internal_node_id":"0.0-2.0-44.0"},{"group":"hexagon_tri","room_assignment":["green","grey","purple","red","yellow","blue"],"door_color_assignment":["black","white"],"door_generator_assignment":[0,1],"goal":0,"start":3,"action_noise":0.15,"location_history":"[3,4,2,3,4,2,1,3,4,2,1,3,2,1,3,2,1,3,2,3,4,2,3,2,1,3,4,0]","action_history":"[1,1,1,1,1,1,1,1,1,0,0,0,0,0,0,0,0,0,1,1,1,1,1,1,1,1,1]","door_history":"[1,1,1,1,1,1,1,1,1,0,0,0,0,0,0,0,0,0,1,1,1,1,1,1,1,1,1]","location_rts":"[1649,603,579,720,709,603,599,459,622,377,591,587,1206,751,1011,679,507,533,1467,1016,657,655,791,777,627,493,543]","trial_type":"two-door-navigation","trial_index":47,"time_elapsed":2051503,"internal_node_id":"0.0-2.0-45.0"},{"group":"hexagon_tri","room_assignment":["green","grey","purple","red","yellow","blue"],"door_color_assignment":["black","white"],"door_generator_assignment":[0,1],"goal":4,"start":0,"action_noise":0.15,"location_history":"[0,5,4]","action_history":"[0,0]","door_history":"[0,0]","location_rts":"[55558,1272]","trial_type":"two-door-navigation","trial_index":48,"time_elapsed":2113883,"internal_node_id":"0.0-2.0-46.0"},{"group":"hexagon_tri","room_assignment":["green","grey","purple","red","yellow","blue"],"door_color_assignment":["black","white"],"door_generator_assignment":[0,1],"goal":5,"start":4,"action_noise":0.15,"location_history":"[4,0,1,3,4,2,3,4,2,3,4,0,5]","action_history":"[1,1,1,1,1,1,1,1,1,1,0,0]","door_history":"[1,1,1,1,1,1,1,1,1,1,0,0]","location_rts":"[1591,869,1556,549,635,724,781,599,1387,827,857,906]","trial_type":"two-door-navigation","trial_index":49,"time_elapsed":2140957,"internal_node_id":"0.0-2.0-47.0"},{"group":"hexagon_tri","room_assignment":["green","grey","purple","red","yellow","blue"],"door_color_assignment":["black","white"],"door_generator_assignment":[0,1],"goal":2,"start":5,"action_noise":0.15,"location_history":"[5,0,1,3,4,2]","action_history":"[1,1,1,1,1]","door_history":"[1,1,1,1,1]","location_rts":"[4450,758,724,2102,296]","trial_type":"two-door-navigation","trial_index":50,"time_elapsed":2158774,"internal_node_id":"0.0-2.0-48.0"},{"group":"hexagon_tri","room_assignment":["green","grey","purple","red","yellow","blue"],"door_color_assignment":["black","white"],"door_generator_assignment":[0,1],"goal":1,"start":2,"action_noise":0.15,"location_history":"[2,3,4,2,1]","action_history":"[1,1,1,1]","door_history":"[1,1,1,1]","location_rts":"[1892,686,929,280]","trial_type":"two-door-navigation","trial_index":51,"time_elapsed":2170146,"internal_node_id":"0.0-2.0-49.0"},{"view_history":"[{\"page_index\":0,\"viewing_time\":3166}]","rt":3167,"trial_type":"instructions","trial_index":52,"time_elapsed":2174315,"internal_node_id":"0.0-3.0"},{"view_history":"[{\"page_index\":0,\"viewing_time\":23304},{\"page_index\":1,\"viewing_time\":1269}]","rt":24573,"trial_type":"instructions","trial_index":53,"time_elapsed":2200390,"internal_node_id":"0.0-4.0"},{"group":"hexagon_bi","fractal_assignment":["../images/blu_wht.png","../images/cyn_red.png","../images/gry_blk.png","../images/org_blu.png","../images/ylw_slt.png","../images/pnk_blu.png"],"mutagen_generator_assignment":[1,0],"goal":2,"start":1,"action_noise":0.15,"location_history":"[1,0,1,0,5,0,5,0,1,0,1,0,1,0,1,2]","action_history":"[1,1,1,0,0,0,0,1,1,1,1,1,1,0,0]","mutagen_history":"[0,0,0,1,1,1,1,0,0,0,0,0,0,1,1]","location_rts":"[6024,500,564,224,697,543,460,588,908,1348,945,748,537,890,744]","trial_type":"fractal-mutation","trial_index":54,"time_elapsed":2235084,"internal_node_id":"0.0-5.0-0.0"},{"group":"hexagon_bi","fractal_assignment":["../images/blu_wht.png","../images/cyn_red.png","../images/gry_blk.png","../images/org_blu.png","../images/ylw_slt.png","../images/pnk_blu.png"],"mutagen_generator_assignment":[1,0],"goal":0,"start":2,"action_noise":0.15,"location_history":"[2,3,2,1,0]","action_history":"[1,1,1,1]","mutagen_history":"[0,0,0,0]","location_rts":"[87683,476,763,485]","trial_type":"fractal-mutation","trial_index":55,"time_elapsed":2332116,"internal_node_id":"0.0-5.0-1.0"},{"group":"hexagon_bi","fractal_assignment":["../images/blu_wht.png","../images/cyn_red.png","../images/gry_blk.png","../images/org_blu.png","../images/ylw_slt.png","../images/pnk_blu.png"],"mutagen_generator_assignment":[1,0],"goal":5,"start":0,"action_noise":0.15,"location_history":"[0,5]","action_history":"[0]","mutagen_history":"[1]","location_rts":"[975]","trial_type":"fractal-mutation","trial_index":56,"time_elapsed":2337637,"internal_node_id":"0.0-5.0-2.0"},{"group":"hexagon_bi","fractal_assignment":["../images/blu_wht.png","../images/cyn_red.png","../images/gry_blk.png","../images/org_blu.png","../images/ylw_slt.png","../images/pnk_blu.png"],"mutagen_generator_assignment":[1,0],"goal":1,"start":5,"action_noise":0.15,"location_history":"[5,4,5,0,1]","action_history":"[1,1,1,1]","mutagen_history":"[0,0,0,0]","location_rts":"[1268,556,753,476]","trial_type":"fractal-mutation","trial_index":57,"time_elapsed":2348314,"internal_node_id":"0.0-5.0-3.0"},{"group":"hexagon_bi","fractal_assignment":["../images/blu_wht.png","../images/cyn_red.png","../images/gry_blk.png","../images/org_blu.png","../images/ylw_slt.png","../images/pnk_blu.png"],"mutagen_generator_assignment":[1,0],"goal":3,"start":1,"action_noise":0.15,"location_history":"[1,0,5,4,3]","action_history":"[1,0,1,1]","mutagen_history":"[0,1,0,0]","location_rts":"[2343,527,602,556]","trial_type":"fractal-mutation","trial_index":58,"time_elapsed":2359974,"internal_node_id":"0.0-5.0-4.0"},{"group":"hexagon_bi","fractal_assignment":["../images/blu_wht.png","../images/cyn_red.png","../images/gry_blk.png","../images/org_blu.png","../images/ylw_slt.png","../images/pnk_blu.png"],"mutagen_generator_assignment":[1,0],"goal":5,"start":3,"action_noise":0.15,"location_history":"[3,2,3,2,3,4,3,4,5]","action_history":"[1,1,1,1,0,0,0,0]","mutagen_history":"[0,0,0,0,1,1,1,1]","location_rts":"[3054,1089,2908,777,919,683,816,620]","trial_type":"fractal-mutation","trial_index":59,"time_elapsed":2382615,"internal_node_id":"0.0-5.0-5.0"},{"group":"hexagon_bi","fractal_assignment":["../images/blu_wht.png","../images/cyn_red.png","../images/gry_blk.png","../images/org_blu.png","../images/ylw_slt.png","../images/pnk_blu.png"],"mutagen_generator_assignment":[1,0],"goal":4,"start":5,"action_noise":0.15,"location_history":"[5,4]","action_history":"[1]","mutagen_history":"[0]","location_rts":"[62241]","trial_type":"fractal-mutation","trial_index":60,"time_elapsed":2449597,"internal_node_id":"0.0-5.0-6.0"},{"group":"hexagon_bi","fractal_assignment":["../images/blu_wht.png","../images/cyn_red.png","../images/gry_blk.png","../images/org_blu.png","../images/ylw_slt.png","../images/pnk_blu.png"],"mutagen_generator_assignment":[1,0],"goal":0,"start":4,"action_noise":0.15,"location_history":"[4,3,2,3,4,3,4,5,0]","action_history":"[0,0,0,0,0,0,0,0]","mutagen_history":"[1,1,1,1,1,1,1,1]","location_rts":"[972,650,773,699,734,598,837,685]","trial_type":"fractal-mutation","trial_index":61,"time_elapsed":2467312,"internal_node_id":"0.0-5.0-7.0"},{"group":"hexagon_bi","fractal_assignment":["../images/blu_wht.png","../images/cyn_red.png","../images/gry_blk.png","../images/org_blu.png","../images/ylw_slt.png","../images/pnk_blu.png"],"mutagen_generator_assignment":[1,0],"goal":2,"start":0,"action_noise":0.15,"location_history":"[0,5,4,5,4,5,4,5,4,5,4,5,0,5,0,5,4,5,0,1,0,1,0,5,4,5,0,5,0,5,0,1,2]","action_history":"[0,0,1,1,1,1,1,1,1,0,0,0,0,0,0,1,1,1,1,1,1,1,1,0,0,0,0,0,0,0,0,0]","mutagen_history":"[1,1,0,0,0,0,0,0,0,1,1,1,1,1,1,0,0,0,0,0,0,0,0,1,1,1,1,1,1,1,1,1]","location_rts":"[47106,359,242,313,363,324,897,904,3376,714,1268,471,411,162,433,662,497,551,461,838,434,705,573,431,402,391,507,513,505,3612,733,2532]","trial_type":"fractal-mutation","trial_index":62,"time_elapsed":2575500,"internal_node_id":"0.0-5.0-8.0"},{"group":"hexagon_bi","fractal_assignment":["../images/blu_wht.png","../images/cyn_red.png","../images/gry_blk.png","../images/org_blu.png","../images/ylw_slt.png","../images/pnk_blu.png"],"mutagen_generator_assignment":[1,0],"goal":4,"start":2,"action_noise":0.15,"location_history":"[2,3,2,1,2,3,4]","action_history":"[1,1,1,1,0,0]","mutagen_history":"[0,0,0,0,1,1]","location_rts":"[1887,1794,1297,369,2529,1193]","trial_type":"fractal-mutation","trial_index":63,"time_elapsed":2594266,"internal_node_id":"0.0-5.0-9.0"},{"group":"hexagon_bi","fractal_assignment":["../images/blu_wht.png","../images/cyn_red.png","../images/gry_blk.png","../images/org_blu.png","../images/ylw_slt.png","../images/pnk_blu.png"],"mutagen_generator_assignment":[1,0],"goal":2,"start":4,"action_noise":0.15,"location_history":"[4,3,4,5,4,5,4,5,4,5,4,5,4,5,4,3,4,3,4,5,0,1,0,1,2]","action_history":"[0,0,0,1,1,1,1,1,1,1,1,1,1,1,0,0,0,0,0,0,1,1,1,1]","mutagen_history":"[1,1,1,0,0,0,0,0,0,0,0,0,0,0,1,1,1,1,1,1,0,0,0,0]","location_rts":"[1269,435,727,463,421,611,2247,557,622,3347,1752,2435,1191,834,1019,1137,3558,2586,641,269,1069,199,1445,364]","trial_type":"fractal-mutation","trial_index":64,"time_elapsed":2651774,"internal_node_id":"0.0-5.0-10.0"},{"group":"hexagon_bi","fractal_assignment":["../images/blu_wht.png","../images/cyn_red.png","../images/gry_blk.png","../images/org_blu.png","../images/ylw_slt.png","../images/pnk_blu.png"],"mutagen_generator_assignment":[1,0],"goal":3,"start":2,"action_noise":0.15,"location_history":"[2,3]","action_history":"[1]","mutagen_history":"[0]","location_rts":"[1661]","trial_type":"fractal-mutation","trial_index":65,"time_elapsed":2657972,"internal_node_id":"0.0-5.0-11.0"},{"group":"hexagon_bi","fractal_assignment":["../images/blu_wht.png","../images/cyn_red.png","../images/gry_blk.png","../images/org_blu.png","../images/ylw_slt.png","../images/pnk_blu.png"],"mutagen_generator_assignment":[1,0],"goal":0,"start":3,"action_noise":0.15,"location_history":"[3,2,3,2,3,2,1,2,1,2,1,0]","action_history":"[1,1,1,1,1,1,0,0,0,0,0]","mutagen_history":"[0,0,0,0,0,0,1,1,1,1,1]","location_rts":"[1232,639,419,1354,711,325,52,736,425,763,418]","trial_type":"fractal-mutation","trial_index":66,"time_elapsed":2679914,"internal_node_id":"0.0-5.0-12.0"},{"group":"hexagon_bi","fractal_assignment":["../images/blu_wht.png","../images/cyn_red.png","../images/gry_blk.png","../images/org_blu.png","../images/ylw_slt.png","../images/pnk_blu.png"],"mutagen_generator_assignment":[1,0],"goal":5,"start":0,"action_noise":0.15,"location_history":"[0,5]","action_history":"[0]","mutagen_history":"[1]","location_rts":"[1321]","trial_type":"fractal-mutation","trial_index":67,"time_elapsed":2685780,"internal_node_id":"0.0-5.0-13.0"},{"group":"hexagon_bi","fractal_assignment":["../images/blu_wht.png","../images/cyn_red.png","../images/gry_blk.png","../images/org_blu.png","../images/ylw_slt.png","../images/pnk_blu.png"],"mutagen_generator_assignment":[1,0],"goal":1,"start":5,"action_noise":0.15,"location_history":"[5,4,5,4,5,4,5,4,5,4,3,4,3,4,3,2,3,2,3,2,3,2,3,4,3,2,3,4,5,4,5,0,1]","action_history":"[1,1,1,1,1,1,1,1,1,0,0,0,0,0,1,1,1,1,1,1,1,1,1,1,1,1,1,1,1,1,1,1]","mutagen_history":"[0,0,0,0,0,0,0,0,0,1,1,1,1,1,0,0,0,0,0,0,0,0,0,0,0,0,0,0,0,0,0,0]","location_rts":"[1398,1115,463,777,511,571,623,419,648,385,440,396,446,448,1537,640,501,687,568,709,413,879,242,1689,760,1368,374,599,480,437,289,489]","trial_type":"fractal-mutation","trial_index":68,"time_elapsed":2743597,"internal_node_id":"0.0-5.0-14.0"},{"group":"hexagon_bi","fractal_assignment":["../images/blu_wht.png","../images/cyn_red.png","../images/gry_blk.png","../images/org_blu.png","../images/ylw_slt.png","../images/pnk_blu.png"],"mutagen_generator_assignment":[1,0],"goal":5,"start":1,"action_noise":0.15,"location_history":"[1,0,1,0,1,2,1,2,3,4,3,2,1,0,1,0,1,0,1,0,1,2,3,2,3,4,3,4,3,4,3,2,1,2,3,2,3,2,1,2,3,4,3,4,3,2,1,2,1,2,1,2,3,2,3,2,3,2,3,2,3,2,1,2,1,2,1,0,1,0,1,0,1,0,1,0,5]","action_history":"[1,1,1,0,0,0,0,0,0,0,0,0,1,1,1,1,1,1,1,1,1,1,1,1,0,0,0,0,0,0,0,0,0,1,1,0,1,0,0,1,0,0,0,0,1,0,0,0,0,0,0,1,1,1,1,1,1,1,1,1,1,0,0,0,0,0,1,1,1,1,1,1,1,1,1,1]","mutagen_history":"[0,0,0,1,1,1,1,1,1,1,1,1,0,0,0,0,0,0,0,0,0,0,0,0,1,1,1,1,1,1,1,1,1,0,0,1,0,1,1,0,1,1,1,1,0,1,1,1,1,1,1,0,0,0,0,0,0,0,0,0,0,1,1,1,1,1,0,0,0,0,0,0,0,0,0,0]","location_rts":"[23887,1506,934,434,483,580,708,645,502,478,481,488,291,454,501,510,1700,575,770,1508,752,1080,1523,580,874,1134,822,968,281,1265,525,920,709,826,626,5062,5331,411,970,81356,4986,29427,385,69,93204,1171,552,512,503,440,444,892,1917,896,585,24483,1423,757,39,355,150,1598,654,1776,2084,1519,5763,1522,2504,2369,185,2285,415,2133,793,4260]","trial_type":"fractal-mutation","trial_index":69,"time_elapsed":3161984,"internal_node_id":"0.0-5.0-15.0"},{"group":"hexagon_bi","fractal_assignment":["../images/blu_wht.png","../images/cyn_red.png","../images/gry_blk.png","../images/org_blu.png","../images/ylw_slt.png","../images/pnk_blu.png"],"mutagen_generator_assignment":[1,0],"goal":3,"start":5,"action_noise":0.15,"location_history":"[5,0,5,4,3]","action_history":"[0,0,0,0]","mutagen_history":"[1,1,1,1]","location_rts":"[1519,568,820,582]","trial_type":"fractal-mutation","trial_index":70,"time_elapsed":3173116,"internal_node_id":"0.0-5.0-16.0"},{"group":"hexagon_bi","fractal_assignment":["../images/blu_wht.png","../images/cyn_red.png","../images/gry_blk.png","../images/org_blu.png","../images/ylw_slt.png","../images/pnk_blu.png"],"mutagen_generator_assignment":[1,0],"goal":2,"start":3,"action_noise":0.15,"location_history":"[3,2]","action_history":"[0]","mutagen_history":"[1]","location_rts":"[1810]","trial_type":"fractal-mutation","trial_index":71,"time_elapsed":3179461,"internal_node_id":"0.0-5.0-17.0"},{"group":"hexagon_bi","fractal_assignment":["../images/blu_wht.png","../images/cyn_red.png","../images/gry_blk.png","../images/org_blu.png","../images/ylw_slt.png","../images/pnk_blu.png"],"mutagen_generator_assignment":[1,0],"goal":1,"start":2,"action_noise":0.15,"location_history":"[2,1]","action_history":"[0]","mutagen_history":"[1]","location_rts":"[1488]","trial_type":"fractal-mutation","trial_index":72,"time_elapsed":3185481,"internal_node_id":"0.0-5.0-18.0"},{"group":"hexagon_bi","fractal_assignment":["../images/blu_wht.png","../images/cyn_red.png","../images/gry_blk.png","../images/org_blu.png","../images/ylw_slt.png","../images/pnk_blu.png"],"mutagen_generator_assignment":[1,0],"goal":4,"start":1,"action_noise":0.15,"location_history":"[1,2,1,2,3,4]","action_history":"[0,0,0,1,1]","mutagen_history":"[1,1,1,0,0]","location_rts":"[2526,2593,519,1495,800]","trial_type":"fractal-mutation","trial_index":73,"time_elapsed":3202081,"internal_node_id":"0.0-5.0-19.0"},{"group":"hexagon_bi","fractal_assignment":["../images/blu_wht.png","../images/cyn_red.png","../images/gry_blk.png","../images/org_blu.png","../images/ylw_slt.png","../images/pnk_blu.png"],"mutagen_generator_assignment":[1,0],"goal":0,"start":4,"action_noise":0.15,"location_history":"[4,5,0]","action_history":"[0,0]","mutagen_history":"[1,1]","location_rts":"[1988,8101]","trial_type":"fractal-mutation","trial_index":74,"time_elapsed":3217741,"internal_node_id":"0.0-5.0-20.0"},{"group":"hexagon_bi","fractal_assignment":["../images/blu_wht.png","../images/cyn_red.png","../images/gry_blk.png","../images/org_blu.png","../images/ylw_slt.png","../images/pnk_blu.png"],"mutagen_generator_assignment":[1,0],"goal":3,"start":0,"action_noise":0.15,"location_history":"[0,5,4,3]","action_history":"[0,1,0]","mutagen_history":"[1,0,1]","location_rts":"[1921,23851,548]","trial_type":"fractal-mutation","trial_index":75,"time_elapsed":3250659,"internal_node_id":"0.0-5.0-21.0"},{"group":"hexagon_bi","fractal_assignment":["../images/blu_wht.png","../images/cyn_red.png","../images/gry_blk.png","../images/org_blu.png","../images/ylw_slt.png","../images/pnk_blu.png"],"mutagen_generator_assignment":[1,0],"goal":1,"start":3,"action_noise":0.15,"location_history":"[3,4,3,4,3,4,3,4,3,2,3,2,3,2,3,2,1]","action_history":"[0,0,0,0,0,0,0,0,0,1,1,1,1,1,1,0]","mutagen_history":"[1,1,1,1,1,1,1,1,1,0,0,0,0,0,0,1]","location_rts":"[943,451,599,622,996,647,975,893,1049,527,1108,466,823,800,99,365]","trial_type":"fractal-mutation","trial_index":76,"time_elapsed":3282063,"internal_node_id":"0.0-5.0-22.0"},{"group":"hexagon_bi","fractal_assignment":["../images/blu_wht.png","../images/cyn_red.png","../images/gry_blk.png","../images/org_blu.png","../images/ylw_slt.png","../images/pnk_blu.png"],"mutagen_generator_assignment":[1,0],"goal":0,"start":1,"action_noise":0.15,"location_history":"[1,2,1,2,1,2,1,2,1,0]","action_history":"[0,0,0,0,0,0,0,0,1]","mutagen_history":"[1,1,1,1,1,1,1,1,0]","location_rts":"[836,470,310,593,1354,952,1649,1156,297]","trial_type":"fractal-mutation","trial_index":77,"time_elapsed":3302480,"internal_node_id":"0.0-5.0-23.0"},{"group":"hexagon_bi","fractal_assignment":["../images/blu_wht.png","../images/cyn_red.png","../images/gry_blk.png","../images/org_blu.png","../images/ylw_slt.png","../images/pnk_blu.png"],"mutagen_generator_assignment":[1,0],"goal":2,"start":0,"action_noise":0.15,"location_history":"[0,5,0,5,0,5,4,5,4,5,0,1,2]","action_history":"[0,0,0,0,0,1,1,1,1,1,1,0]","mutagen_history":"[1,1,1,1,1,0,0,0,0,0,0,1]","location_rts":"[892,357,1484,1664,3242,350,100,737,797,406,350,311]","trial_type":"fractal-mutation","trial_index":78,"time_elapsed":3329051,"internal_node_id":"0.0-5.0-24.0"},{"group":"hexagon_bi","fractal_assignment":["../images/blu_wht.png","../images/cyn_red.png","../images/gry_blk.png","../images/org_blu.png","../images/ylw_slt.png","../images/pnk_blu.png"],"mutagen_generator_assignment":[1,0],"goal":4,"start":2,"action_noise":0.15,"location_history":"[2,1,0,5,4]","action_history":"[0,0,0,0]","mutagen_history":"[1,1,1,1]","location_rts":"[1166,1856,341,102]","trial_type":"fractal-mutation","trial_index":79,"time_elapsed":3340154,"internal_node_id":"0.0-5.0-25.0"},{"group":"hexagon_bi","fractal_assignment":["../images/blu_wht.png","../images/cyn_red.png","../images/gry_blk.png","../images/org_blu.png","../images/ylw_slt.png","../images/pnk_blu.png"],"mutagen_generator_assignment":[1,0],"goal":5,"start":4,"action_noise":0.15,"location_history":"[4,3,4,3,2,1,2,3,4,3,4,3,4,3,4,3,4,5]","action_history":"[0,0,0,0,0,0,0,0,0,0,0,0,0,0,0,0,0]","mutagen_history":"[1,1,1,1,1,1,1,1,1,1,1,1,1,1,1,1,1]","location_rts":"[528,343,260,580,481,901,595,332,5344,307,699,700,901,1200,1346,332,830]","trial_type":"fractal-mutation","trial_index":80,"time_elapsed":3376929,"internal_node_id":"0.0-5.0-26.0"},{"group":"hexagon_bi","fractal_assignment":["../images/blu_wht.png","../images/cyn_red.png","../images/gry_blk.png","../images/org_blu.png","../images/ylw_slt.png","../images/pnk_blu.png"],"mutagen_generator_assignment":[1,0],"goal":2,"start":5,"action_noise":0.15,"location_history":"[5,4,5,0,1,0,1,0,1,0,1,2]","action_history":"[1,1,1,1,1,1,1,1,1,1,0]","mutagen_history":"[0,0,0,0,0,0,0,0,0,0,1]","location_rts":"[1020,254,355,1211,536,463,386,538,830,497,506]","trial_type":"fractal-mutation","trial_index":81,"time_elapsed":3398366,"internal_node_id":"0.0-5.0-27.0"},{"group":"hexagon_bi","fractal_assignment":["../images/blu_wht.png","../images/cyn_red.png","../images/gry_blk.png","../images/org_blu.png","../images/ylw_slt.png","../images/pnk_blu.png"],"mutagen_generator_assignment":[1,0],"goal":3,"start":2,"action_noise":0.15,"location_history":"[2,1,2,3]","action_history":"[0,0,0]","mutagen_history":"[1,1,1]","location_rts":"[1481,239,763]","trial_type":"fractal-mutation","trial_index":82,"time_elapsed":3407455,"internal_node_id":"0.0-5.0-28.0"},{"group":"hexagon_bi","fractal_assignment":["../images/blu_wht.png","../images/cyn_red.png","../images/gry_blk.png","../images/org_blu.png","../images/ylw_slt.png","../images/pnk_blu.png"],"mutagen_generator_assignment":[1,0],"goal":1,"start":3,"action_noise":0.15,"location_history":"[3,2,1]","action_history":"[0,0]","mutagen_history":"[1,1]","location_rts":"[985,538]","trial_type":"fractal-mutation","trial_index":83,"time_elapsed":3414559,"internal_node_id":"0.0-5.0-29.0"},{"group":"hexagon_bi","fractal_assignment":["../images/blu_wht.png","../images/cyn_red.png","../images/gry_blk.png","../images/org_blu.png","../images/ylw_slt.png","../images/pnk_blu.png"],"mutagen_generator_assignment":[1,0],"goal":4,"start":1,"action_noise":0.15,"location_history":"[1,2,1,0,1,0,1,0,1,0,1,0,5,4]","action_history":"[0,1,1,1,1,1,1,1,1,1,1,1,1]","mutagen_history":"[1,0,0,0,0,0,0,0,0,0,0,0,0]","location_rts":"[663,252,239,197,202,438,338,452,370,1323,1094,526,470]","trial_type":"fractal-mutation","trial_index":84,"time_elapsed":3438035,"internal_node_id":"0.0-5.0-30.0"},{"group":"hexagon_bi","fractal_assignment":["../images/blu_wht.png","../images/cyn_red.png","../images/gry_blk.png","../images/org_blu.png","../images/ylw_slt.png","../images/pnk_blu.png"],"mutagen_generator_assignment":[1,0],"goal":5,"start":4,"action_noise":0.15,"location_history":"[4,3,4,3,4,3,4,3,4,5]","action_history":"[0,0,0,0,0,0,0,0,0]","mutagen_history":"[1,1,1,1,1,1,1,1,1]","location_rts":"[1132,464,1149,300,793,2378,416,415,860]","trial_type":"fractal-mutation","trial_index":85,"time_elapsed":3458759,"internal_node_id":"0.0-5.0-31.0"},{"group":"hexagon_bi","fractal_assignment":["../images/blu_wht.png","../images/cyn_red.png","../images/gry_blk.png","../images/org_blu.png","../images/ylw_slt.png","../images/pnk_blu.png"],"mutagen_generator_assignment":[1,0],"goal":0,"start":5,"action_noise":0.15,"location_history":"[5,0]","action_history":"[0]","mutagen_history":"[1]","location_rts":"[696]","trial_type":"fractal-mutation","trial_index":86,"time_elapsed":3463996,"internal_node_id":"0.0-5.0-32.0"},{"group":"hexagon_bi","fractal_assignment":["../images/blu_wht.png","../images/cyn_red.png","../images/gry_blk.png","../images/org_blu.png","../images/ylw_slt.png","../images/pnk_blu.png"],"mutagen_generator_assignment":[1,0],"goal":2,"start":0,"action_noise":0.15,"location_history":"[0,1,2]","action_history":"[1,1]","mutagen_history":"[0,0]","location_rts":"[283,318]","trial_type":"fractal-mutation","trial_index":87,"time_elapsed":3470158,"internal_node_id":"0.0-5.0-33.0"},{"group":"hexagon_bi","fractal_assignment":["../images/blu_wht.png","../images/cyn_red.png","../images/gry_blk.png","../images/org_blu.png","../images/ylw_slt.png","../images/pnk_blu.png"],"mutagen_generator_assignment":[1,0],"goal":0,"start":2,"action_noise":0.15,"location_history":"[2,1,2,3,4,3,4,5,4,5,4,5,4,5,0]","action_history":"[0,0,0,0,0,0,0,1,1,1,1,1,1,1]","mutagen_history":"[1,1,1,1,1,1,1,0,0,0,0,0,0,0]","location_rts":"[442,1336,408,338,257,376,298,1004,736,534,471,420,428,396]","trial_type":"fractal-mutation","trial_index":88,"time_elapsed":3495568,"internal_node_id":"0.0-5.0-34.0"},{"group":"hexagon_bi","fractal_assignment":["../images/blu_wht.png","../images/cyn_red.png","../images/gry_blk.png","../images/org_blu.png","../images/ylw_slt.png","../images/pnk_blu.png"],"mutagen_generator_assignment":[1,0],"goal":5,"start":0,"action_noise":0.15,"location_history":"[0,1,2,3,2,1,2,1,2,3,2,3,2,3,4,3,4,3,4,3,2,1,2,1,0,5]","action_history":"[1,1,1,1,0,0,0,0,1,1,1,1,1,0,0,0,0,0,0,0,0,0,0,0,0]","mutagen_history":"[0,0,0,0,1,1,1,1,0,0,0,0,0,1,1,1,1,1,1,1,1,1,1,1,1]","location_rts":"[1317,550,643,481,1026,471,469,565,604,365,516,458,426,522,497,580,367,586,589,652,913,553,635,651,4826]","trial_type":"fractal-mutation","trial_index":89,"time_elapsed":3544167,"internal_node_id":"0.0-5.0-35.0"},{"group":"hexagon_bi","fractal_assignment":["../images/blu_wht.png","../images/cyn_red.png","../images/gry_blk.png","../images/org_blu.png","../images/ylw_slt.png","../images/pnk_blu.png"],"mutagen_generator_assignment":[1,0],"goal":1,"start":5,"action_noise":0.15,"location_history":"[5,0,5,0,5,0,5,0,5,0,5,0,1]","action_history":"[1,0,0,0,0,0,0,0,0,0,0,0]","mutagen_history":"[0,1,1,1,1,1,1,1,1,1,1,1]","location_rts":"[5379,7,384,899,1008,379,437,1451,2254,1358,166,723]","trial_type":"fractal-mutation","trial_index":90,"time_elapsed":3574531,"internal_node_id":"0.0-5.0-36.0"},{"group":"hexagon_bi","fractal_assignment":["../images/blu_wht.png","../images/cyn_red.png","../images/gry_blk.png","../images/org_blu.png","../images/ylw_slt.png","../images/pnk_blu.png"],"mutagen_generator_assignment":[1,0],"goal":4,"start":1,"action_noise":0.15,"location_history":"[1,2,1,2,1,2,1,2,1,2,1,0,1,0,1,2,1,2,1,2,1,2,1,0,1,2,1,0,1,0,1,2,3,2,1,2,1,2,3,4]","action_history":"[0,0,0,0,0,0,0,0,0,1,1,1,1,1,1,0,0,0,0,0,0,0,0,0,0,0,1,1,1,1,1,1,1,0,0,0,0,0,0]","mutagen_history":"[1,1,1,1,1,1,1,1,1,0,0,0,0,0,0,1,1,1,1,1,1,1,1,1,1,1,0,0,0,0,0,0,0,1,1,1,1,1,1]","location_rts":"[726,674,364,583,935,768,890,882,1976,916,449,335,358,915,4276,2334,773,1754,571,223,833,331,646,960,852,453,268,2587,462,760,481,470,666,1118,1046,530,1543,12,365]","trial_type":"fractal-mutation","trial_index":91,"time_elapsed":3653403,"internal_node_id":"0.0-5.0-37.0"},{"group":"hexagon_bi","fractal_assignment":["../images/blu_wht.png","../images/cyn_red.png","../images/gry_blk.png","../images/org_blu.png","../images/ylw_slt.png","../images/pnk_blu.png"],"mutagen_generator_assignment":[1,0],"goal":3,"start":4,"action_noise":0.15,"location_history":"[4,3]","action_history":"[0]","mutagen_history":"[1]","location_rts":"[4523]","trial_type":"fractal-mutation","trial_index":92,"time_elapsed":3662468,"internal_node_id":"0.0-5.0-38.0"},{"group":"hexagon_bi","fractal_assignment":["../images/blu_wht.png","../images/cyn_red.png","../images/gry_blk.png","../images/org_blu.png","../images/ylw_slt.png","../images/pnk_blu.png"],"mutagen_generator_assignment":[1,0],"goal":5,"start":3,"action_noise":0.15,"location_history":"[3,4,3,4,3,4,3,4,3,2,1,2,1,0,1,0,5]","action_history":"[0,0,0,0,0,0,0,0,0,0,0,0,1,1,1,1]","mutagen_history":"[1,1,1,1,1,1,1,1,1,1,1,1,0,0,0,0]","location_rts":"[1252,528,761,1017,716,650,597,463,997,403,278,771,563,625,550,876]","trial_type":"fractal-mutation","trial_index":93,"time_elapsed":3693563,"internal_node_id":"0.0-5.0-39.0"},{"group":"hexagon_bi","fractal_assignment":["../images/blu_wht.png","../images/cyn_red.png","../images/gry_blk.png","../images/org_blu.png","../images/ylw_slt.png","../images/pnk_blu.png"],"mutagen_generator_assignment":[1,0],"goal":1,"start":5,"action_noise":0.15,"location_history":"[5,0,5,0,5,0,5,0,5,0,1]","action_history":"[0,0,0,0,0,0,0,0,0,0]","mutagen_history":"[1,1,1,1,1,1,1,1,1,1]","location_rts":"[1259,458,1038,475,1903,2282,2819,3041,295,215]","trial_type":"fractal-mutation","trial_index":94,"time_elapsed":3721209,"internal_node_id":"0.0-5.0-40.0"},{"group":"hexagon_bi","fractal_assignment":["../images/blu_wht.png","../images/cyn_red.png","../images/gry_blk.png","../images/org_blu.png","../images/ylw_slt.png","../images/pnk_blu.png"],"mutagen_generator_assignment":[1,0],"goal":2,"start":1,"action_noise":0.15,"location_history":"[1,2]","action_history":"[0]","mutagen_history":"[1]","location_rts":"[12057]","trial_type":"fractal-mutation","trial_index":95,"time_elapsed":3737809,"internal_node_id":"0.0-5.0-41.0"},{"group":"hexagon_bi","fractal_assignment":["../images/blu_wht.png","../images/cyn_red.png","../images/gry_blk.png","../images/org_blu.png","../images/ylw_slt.png","../images/pnk_blu.png"],"mutagen_generator_assignment":[1,0],"goal":4,"start":2,"action_noise":0.15,"location_history":"[2,1,0,1,2,1,2,1,2,1,2,1,0,1,2,3,2,3,2,3,4]","action_history":"[0,0,0,0,0,0,0,0,0,0,0,0,0,0,1,1,1,1,1,0]","mutagen_history":"[1,1,1,1,1,1,1,1,1,1,1,1,1,1,0,0,0,0,0,1]","location_rts":"[1065,35,396,587,1127,355,996,366,786,379,351,446,1081,542,452,392,562,646,274,354]","trial_type":"fractal-mutation","trial_index":96,"time_elapsed":3773177,"internal_node_id":"0.0-5.0-42.0"},{"group":"hexagon_bi","fractal_assignment":["../images/blu_wht.png","../images/cyn_red.png","../images/gry_blk.png","../images/org_blu.png","../images/ylw_slt.png","../images/pnk_blu.png"],"mutagen_generator_assignment":[1,0],"goal":0,"start":4,"action_noise":0.15,"location_history":"[4,3,4,3,4,3,4,5,0]","action_history":"[0,0,0,0,0,0,0,0]","mutagen_history":"[1,1,1,1,1,1,1,1]","location_rts":"[1404,1013,839,1918,343,1077,721,451]","trial_type":"fractal-mutation","trial_index":97,"time_elapsed":3792731,"internal_node_id":"0.0-5.0-43.0"},{"group":"hexagon_bi","fractal_assignment":["../images/blu_wht.png","../images/cyn_red.png","../images/gry_blk.png","../images/org_blu.png","../images/ylw_slt.png","../images/pnk_blu.png"],"mutagen_generator_assignment":[1,0],"goal":3,"start":0,"action_noise":0.15,"location_history":"[0,1,0,1,0,5,4,5,4,3]","action_history":"[1,1,0,0,0,1,1,1,1]","mutagen_history":"[0,0,1,1,1,0,0,0,0]","location_rts":"[804,428,259,398,431,227,381,496,351]","trial_type":"fractal-mutation","trial_index":98,"time_elapsed":3809302,"internal_node_id":"0.0-5.0-44.0"},{"group":"hexagon_bi","fractal_assignment":["../images/blu_wht.png","../images/cyn_red.png","../images/gry_blk.png","../images/org_blu.png","../images/ylw_slt.png","../images/pnk_blu.png"],"mutagen_generator_assignment":[1,0],"goal":0,"start":3,"action_noise":0.15,"location_history":"[3,4,5,4,5,0]","action_history":"[0,1,1,1,0]","mutagen_history":"[1,0,0,0,1]","location_rts":"[7454,487,1955,608,2033]","trial_type":"fractal-mutation","trial_index":99,"time_elapsed":3830511,"internal_node_id":"0.0-5.0-45.0"},{"group":"hexagon_bi","fractal_assignment":["../images/blu_wht.png","../images/cyn_red.png","../images/gry_blk.png","../images/org_blu.png","../images/ylw_slt.png","../images/pnk_blu.png"],"mutagen_generator_assignment":[1,0],"goal":4,"start":0,"action_noise":0.15,"location_history":"[0,5,4]","action_history":"[1,1]","mutagen_history":"[0,0]","location_rts":"[994,266]","trial_type":"fractal-mutation","trial_index":100,"time_elapsed":3837343,"internal_node_id":"0.0-5.0-46.0"},{"group":"hexagon_bi","fractal_assignment":["../images/blu_wht.png","../images/cyn_red.png","../images/gry_blk.png","../images/org_blu.png","../images/ylw_slt.png","../images/pnk_blu.png"],"mutagen_generator_assignment":[1,0],"goal":5,"start":4,"action_noise":0.15,"location_history":"[4,5]","action_history":"[0]","mutagen_history":"[1]","location_rts":"[832]","trial_type":"fractal-mutation","trial_index":101,"time_elapsed":3842719,"internal_node_id":"0.0-5.0-47.0"},{"group":"hexagon_bi","fractal_assignment":["../images/blu_wht.png","../images/cyn_red.png","../images/gry_blk.png","../images/org_blu.png","../images/ylw_slt.png","../images/pnk_blu.png"],"mutagen_generator_assignment":[1,0],"goal":2,"start":5,"action_noise":0.15,"location_history":"[5,0,5,4,3,4,3,4,5,4,5,0,5,0,5,0,1,2]","action_history":"[0,0,0,0,0,0,0,1,1,1,0,0,0,0,0,0,0]","mutagen_history":"[1,1,1,1,1,1,1,0,0,0,1,1,1,1,1,1,1]","location_rts":"[1197,543,337,1178,2765,700,670,2414,425,292,1452,2055,433,2004,328,2797,496]","trial_type":"fractal-mutation","trial_index":102,"time_elapsed":3883900,"internal_node_id":"0.0-5.0-48.0"},{"group":"hexagon_bi","fractal_assignment":["../images/blu_wht.png","../images/cyn_red.png","../images/gry_blk.png","../images/org_blu.png","../images/ylw_slt.png","../images/pnk_blu.png"],"mutagen_generator_assignment":[1,0],"goal":1,"start":2,"action_noise":0.15,"location_history":"[2,3,4,5,4,3,2,3,4,5,4,5,4,5,0,5,0,1]","action_history":"[0,0,1,1,1,1,1,1,1,1,1,1,1,0,0,0,0]","mutagen_history":"[1,1,0,0,0,0,0,0,0,0,0,0,0,1,1,1,1]","location_rts":"[1085,473,434,451,378,381,294,437,410,425,466,796,1344,558,305,1430,375]","trial_type":"fractal-mutation","trial_index":103,"time_elapsed":3914995,"internal_node_id":"0.0-5.0-49.0"},{"view_history":"[{\"page_index\":0,\"viewing_time\":1905}]","rt":1905,"trial_type":"instructions","trial_index":104,"time_elapsed":3917901,"internal_node_id":"0.0-6.0"},{"rt":15136,"responses":"{\"Q0\":\"NOT SURE.  IF WE REMEMBER PATTERNS?\"}","trial_type":"survey-text","trial_index":105,"time_elapsed":3934045,"internal_node_id":"0.0-7.0-0.0"},{"rt":11816,"responses":"{\"Q0\":\"PATTERNS?\"}","trial_type":"survey-text","trial_index":106,"time_elapsed":3946863,"internal_node_id":"0.0-7.0-1.0"},{"rt":25748,"responses":"{\"Q0\":\"<img src='../images/diagrams/hexagon_bi.png'>\"}","trial_type":"survey-multi-choice","trial_index":107,"time_elapsed":3973616,"internal_node_id":"0.0-7.0-2.0"},{"rt":52118,"assignments":["../images/blu_wht.png","../images/org_blu.png","../images/gry_blk.png","../images/pnk_blu.png","../images/cyn_red.png","../images/ylw_slt.png"],"trial_type":"drag-drop-on-image","trial_index":108,"time_elapsed":4026737,"internal_node_id":"0.0-7.0-3.0"},{"rt":5265,"responses":"{\"Q0\":\"3\"}","trial_type":"survey-likert","trial_index":109,"time_elapsed":4033007,"internal_node_id":"0.0-7.0-4.0"},{"rt":11914,"responses":"{\"Q0\":\"nothing that stands out\"}","trial_type":"survey-text","trial_index":110,"time_elapsed":4045925,"internal_node_id":"0.0-7.0-5.0"},{"rt":5111,"responses":"{\"Q0\":\"Yes\"}","trial_type":"survey-multi-choice","trial_index":111,"time_elapsed":4052039,"internal_node_id":"0.0-7.0-6.0"},{"rt":9153,"responses":"{\"Q0\":\"During these questions/I wasn't aware until you pointed it out\"}","trial_type":"survey-multi-choice","trial_index":112,"time_elapsed":4062198,"internal_node_id":"0.0-7.0-7.0"},{"rt":38761,"responses":"{\"Q0\":\"Seems sometimes one works a certain way, then sometimes it doesn't\"}","trial_type":"survey-text","trial_index":113,"time_elapsed":4101962,"internal_node_id":"0.0-7.0-8.0"},{"rt":6796,"responses":"{\"Q0\":\"2\"}","trial_type":"survey-likert","trial_index":114,"time_elapsed":4109761,"internal_node_id":"0.0-7.0-9.0"},{"rt":4613,"responses":"{\"Q0\":\"Different structure\"}","trial_type":"survey-multi-choice","trial_index":115,"time_elapsed":4115378,"internal_node_id":"0.0-7.0-10.0"},{"rt":12948,"responses":"{\"Q0\":\"left (black) door = ray, right (white) door = acid\",\"Q1\":\"Not at all confident\"}","trial_type":"survey-multi-choice","trial_index":116,"time_elapsed":4129335,"internal_node_id":"0.0-7.0-11.0"},{"rt":9642,"responses":"{\"Q0\":\"35-45\",\"Q1\":\"High school degree or GED\",\"Q2\":\"Female\",\"Q3\":\"White\"}","trial_type":"survey-multi-choice","trial_index":117,"time_elapsed":4139988,"internal_node_id":"0.0-8.0"},{"rt":6533,"responses":"{\"Q0\":\"thanks\"}","trial_type":"survey-text","trial_index":118,"time_elapsed":4147525,"internal_node_id":"0.0-9.0"}]