[{"view_history":"[{\"page_index\":0,\"viewing_time\":2204},{\"page_index\":1,\"viewing_time\":10399}]","rt":12604,"trial_type":"instructions","trial_index":0,"time_elapsed":12606,"internal_node_id":"0.0-0.0"},{"view_history":"[{\"page_index\":0,\"viewing_time\":4520},{\"page_index\":1,\"viewing_time\":5891}]","rt":10412,"trial_type":"instructions","trial_index":1,"time_elapsed":24019,"internal_node_id":"0.0-1.0"},{"group":"hexagon_bi","room_assignment":["red","grey","yellow","purple","green","blue"],"door_color_assignment":["black","white"],"door_generator_assignment":[1,0],"goal":2,"start":1,"action_noise":0.15,"location_history":"[1,2]","action_history":"[0]","door_history":"[1]","location_rts":"[14594]","trial_type":"two-door-navigation","trial_index":2,"time_elapsed":43142,"internal_node_id":"0.0-2.0-0.0"},{"group":"hexagon_bi","room_assignment":["red","grey","yellow","purple","green","blue"],"door_color_assignment":["black","white"],"door_generator_assignment":[1,0],"goal":0,"start":2,"action_noise":0.15,"location_history":"[2,3,2,3,4,3,4,3,4,5,4,3,2,1,0]","action_history":"[1,1,1,0,0,0,1,0,1,0,0,1,0,1]","door_history":"[0,0,0,1,1,1,0,1,0,1,1,0,1,0]","location_rts":"[3075,10774,2341,898,2963,1510,439,895,1427,1120,1594,1288,2740,1393]","trial_type":"two-door-navigation","trial_index":3,"time_elapsed":93437,"internal_node_id":"0.0-2.0-1.0"},{"group":"hexagon_bi","room_assignment":["red","grey","yellow","purple","green","blue"],"door_color_assignment":["black","white"],"door_generator_assignment":[1,0],"goal":5,"start":0,"action_noise":0.15,"location_history":"[0,5]","action_history":"[0]","door_history":"[1]","location_rts":"[1875]","trial_type":"two-door-navigation","trial_index":4,"time_elapsed":99841,"internal_node_id":"0.0-2.0-2.0"},{"group":"hexagon_bi","room_assignment":["red","grey","yellow","purple","green","blue"],"door_color_assignment":["black","white"],"door_generator_assignment":[1,0],"goal":1,"start":5,"action_noise":0.15,"location_history":"[5,0,1]","action_history":"[1,1]","door_history":"[0,0]","location_rts":"[4534,4287]","trial_type":"two-door-navigation","trial_index":5,"time_elapsed":114208,"internal_node_id":"0.0-2.0-3.0"},{"group":"hexagon_bi","room_assignment":["red","grey","yellow","purple","green","blue"],"door_color_assignment":["black","white"],"door_generator_assignment":[1,0],"goal":3,"start":1,"action_noise":0.15,"location_history":"[1,0,1,0,5,4,3]","action_history":"[1,1,1,0,1,0]","door_history":"[0,0,0,1,0,1]","location_rts":"[19274,1245,1151,801,1558,2150]","trial_type":"two-door-navigation","trial_index":6,"time_elapsed":150024,"internal_node_id":"0.0-2.0-4.0"},{"group":"hexagon_bi","room_assignment":["red","grey","yellow","purple","green","blue"],"door_color_assignment":["black","white"],"door_generator_assignment":[1,0],"goal":5,"start":3,"action_noise":0.15,"location_history":"[3,4,5]","action_history":"[1,1]","door_history":"[0,0]","location_rts":"[2010,1882]","trial_type":"two-door-navigation","trial_index":7,"time_elapsed":159469,"internal_node_id":"0.0-2.0-5.0"},{"group":"hexagon_bi","room_assignment":["red","grey","yellow","purple","green","blue"],"door_color_assignment":["black","white"],"door_generator_assignment":[1,0],"goal":4,"start":5,"action_noise":0.15,"location_history":"[5,4]","action_history":"[1]","door_history":"[0]","location_rts":"[1751]","trial_type":"two-door-navigation","trial_index":8,"time_elapsed":165749,"internal_node_id":"0.0-2.0-6.0"},{"group":"hexagon_bi","room_assignment":["red","grey","yellow","purple","green","blue"],"door_color_assignment":["black","white"],"door_generator_assignment":[1,0],"goal":0,"start":4,"action_noise":0.15,"location_history":"[4,3,2,1,2,3,2,1,2,3,2,3,4,5,0]","action_history":"[0,1,1,0,1,1,0,0,1,1,1,0,1,0]","door_history":"[1,0,0,1,0,0,1,1,0,0,0,1,0,1]","location_rts":"[3412,1775,1489,1096,1594,1858,1542,1048,5566,1441,1960,1365,6021,1264]","trial_type":"two-door-navigation","trial_index":9,"time_elapsed":215006,"internal_node_id":"0.0-2.0-7.0"},{"group":"hexagon_bi","room_assignment":["red","grey","yellow","purple","green","blue"],"door_color_assignment":["black","white"],"door_generator_assignment":[1,0],"goal":2,"start":0,"action_noise":0.15,"location_history":"[0,5,0,1,2]","action_history":"[0,0,1,0]","door_history":"[1,1,0,1]","location_rts":"[2011,1323,823,2027]","trial_type":"two-door-navigation","trial_index":10,"time_elapsed":228790,"internal_node_id":"0.0-2.0-8.0"},{"group":"hexagon_bi","room_assignment":["red","grey","yellow","purple","green","blue"],"door_color_assignment":["black","white"],"door_generator_assignment":[1,0],"goal":4,"start":2,"action_noise":0.15,"location_history":"[2,1,2,3,4]","action_history":"[1,0,1,0]","door_history":"[0,1,0,1]","location_rts":"[13854,1175,1266,1729]","trial_type":"two-door-navigation","trial_index":11,"time_elapsed":254409,"internal_node_id":"0.0-2.0-9.0"},{"group":"hexagon_bi","room_assignment":["red","grey","yellow","purple","green","blue"],"door_color_assignment":["black","white"],"door_generator_assignment":[1,0],"goal":2,"start":4,"action_noise":0.15,"location_history":"[4,5,0,5,4,3,2]","action_history":"[1,1,0,1,0,1]","door_history":"[0,0,1,0,1,0]","location_rts":"[3220,2786,1797,865,2556,1249]","trial_type":"two-door-navigation","trial_index":12,"time_elapsed":276520,"internal_node_id":"0.0-2.0-10.0"},{"group":"hexagon_bi","room_assignment":["red","grey","yellow","purple","green","blue"],"door_color_assignment":["black","white"],"door_generator_assignment":[1,0],"goal":3,"start":2,"action_noise":0.15,"location_history":"[2,3]","action_history":"[1]","door_history":"[0]","location_rts":"[30404]","trial_type":"two-door-navigation","trial_index":13,"time_elapsed":311451,"internal_node_id":"0.0-2.0-11.0"},{"group":"hexagon_bi","room_assignment":["red","grey","yellow","purple","green","blue"],"door_color_assignment":["black","white"],"door_generator_assignment":[1,0],"goal":0,"start":3,"action_noise":0.15,"location_history":"[3,2,3,4,5,0]","action_history":"[1,1,0,1,0]","door_history":"[0,0,1,0,1]","location_rts":"[1799,2392,1856,2583,1906]","trial_type":"two-door-navigation","trial_index":14,"time_elapsed":330612,"internal_node_id":"0.0-2.0-12.0"},{"group":"hexagon_bi","room_assignment":["red","grey","yellow","purple","green","blue"],"door_color_assignment":["black","white"],"door_generator_assignment":[1,0],"goal":5,"start":0,"action_noise":0.15,"location_history":"[0,5]","action_history":"[0]","door_history":"[1]","location_rts":"[4061]","trial_type":"two-door-navigation","trial_index":15,"time_elapsed":339197,"internal_node_id":"0.0-2.0-13.0"},{"group":"hexagon_bi","room_assignment":["red","grey","yellow","purple","green","blue"],"door_color_assignment":["black","white"],"door_generator_assignment":[1,0],"goal":1,"start":5,"action_noise":0.15,"location_history":"[5,4,3,4,5,4,3,2,3,2,1]","action_history":"[1,1,0,1,1,0,1,1,1,0]","door_history":"[0,0,1,0,0,1,0,0,0,1]","location_rts":"[18541,1976,2212,1314,1416,1776,1896,1486,3998,1227]","trial_type":"two-door-navigation","trial_index":16,"time_elapsed":388777,"internal_node_id":"0.0-2.0-14.0"},{"group":"hexagon_bi","room_assignment":["red","grey","yellow","purple","green","blue"],"door_color_assignment":["black","white"],"door_generator_assignment":[1,0],"goal":5,"start":1,"action_noise":0.15,"location_history":"[1,0,5]","action_history":"[1,0]","door_history":"[0,1]","location_rts":"[9164,1580]","trial_type":"two-door-navigation","trial_index":17,"time_elapsed":405074,"internal_node_id":"0.0-2.0-15.0"},{"group":"hexagon_bi","room_assignment":["red","grey","yellow","purple","green","blue"],"door_color_assignment":["black","white"],"door_generator_assignment":[1,0],"goal":3,"start":5,"action_noise":0.15,"location_history":"[5,4,3]","action_history":"[1,0]","door_history":"[0,1]","location_rts":"[2007,4862]","trial_type":"two-door-navigation","trial_index":18,"time_elapsed":417493,"internal_node_id":"0.0-2.0-16.0"},{"group":"hexagon_bi","room_assignment":["red","grey","yellow","purple","green","blue"],"door_color_assignment":["black","white"],"door_generator_assignment":[1,0],"goal":2,"start":3,"action_noise":0.15,"location_history":"[3,2]","action_history":"[1]","door_history":"[0]","location_rts":"[2257]","trial_type":"two-door-navigation","trial_index":19,"time_elapsed":424276,"internal_node_id":"0.0-2.0-17.0"},{"group":"hexagon_bi","room_assignment":["red","grey","yellow","purple","green","blue"],"door_color_assignment":["black","white"],"door_generator_assignment":[1,0],"goal":1,"start":2,"action_noise":0.15,"location_history":"[2,1]","action_history":"[0]","door_history":"[1]","location_rts":"[2795]","trial_type":"two-door-navigation","trial_index":20,"time_elapsed":431604,"internal_node_id":"0.0-2.0-18.0"},{"group":"hexagon_bi","room_assignment":["red","grey","yellow","purple","green","blue"],"door_color_assignment":["black","white"],"door_generator_assignment":[1,0],"goal":4,"start":1,"action_noise":0.15,"location_history":"[1,0,5,0,5,0,1,2,3,4]","action_history":"[1,0,1,0,0,1,0,1,0]","door_history":"[0,1,0,1,1,0,1,0,1]","location_rts":"[1801,4098,502,1714,2050,777,2035,1379,1889]","trial_type":"two-door-navigation","trial_index":21,"time_elapsed":460556,"internal_node_id":"0.0-2.0-19.0"},{"group":"hexagon_bi","room_assignment":["red","grey","yellow","purple","green","blue"],"door_color_assignment":["black","white"],"door_generator_assignment":[1,0],"goal":0,"start":4,"action_noise":0.15,"location_history":"[4,5,0]","action_history":"[1,0]","door_history":"[0,1]","location_rts":"[716,1137]","trial_type":"two-door-navigation","trial_index":22,"time_elapsed":467962,"internal_node_id":"0.0-2.0-20.0"},{"group":"hexagon_bi","room_assignment":["red","grey","yellow","purple","green","blue"],"door_color_assignment":["black","white"],"door_generator_assignment":[1,0],"goal":3,"start":0,"action_noise":0.15,"location_history":"[0,1,0,1,2,1,0,5,4,3]","action_history":"[1,0,1,0,0,1,0,1,0]","door_history":"[0,1,0,1,1,0,1,0,1]","location_rts":"[906,1449,1293,1233,1777,985,8034,606,1281]","trial_type":"two-door-navigation","trial_index":23,"time_elapsed":498232,"internal_node_id":"0.0-2.0-21.0"},{"group":"hexagon_bi","room_assignment":["red","grey","yellow","purple","green","blue"],"door_color_assignment":["black","white"],"door_generator_assignment":[1,0],"goal":1,"start":3,"action_noise":0.15,"location_history":"[3,2,1]","action_history":"[1,0]","door_history":"[0,1]","location_rts":"[2001,1139]","trial_type":"two-door-navigation","trial_index":24,"time_elapsed":506925,"internal_node_id":"0.0-2.0-22.0"},{"group":"hexagon_bi","room_assignment":["red","grey","yellow","purple","green","blue"],"door_color_assignment":["black","white"],"door_generator_assignment":[1,0],"goal":0,"start":1,"action_noise":0.15,"location_history":"[1,2,1,0]","action_history":"[0,1,1]","door_history":"[1,0,0]","location_rts":"[3527,516,836]","trial_type":"two-door-navigation","trial_index":25,"time_elapsed":518381,"internal_node_id":"0.0-2.0-23.0"},{"group":"hexagon_bi","room_assignment":["red","grey","yellow","purple","green","blue"],"door_color_assignment":["black","white"],"door_generator_assignment":[1,0],"goal":2,"start":0,"action_noise":0.15,"location_history":"[0,1,2]","action_history":"[1,0]","door_history":"[0,1]","location_rts":"[2275,798]","trial_type":"two-door-navigation","trial_index":26,"time_elapsed":527007,"internal_node_id":"0.0-2.0-24.0"},{"group":"hexagon_bi","room_assignment":["red","grey","yellow","purple","green","blue"],"door_color_assignment":["black","white"],"door_generator_assignment":[1,0],"goal":4,"start":2,"action_noise":0.15,"location_history":"[2,3,4]","action_history":"[1,0]","door_history":"[0,1]","location_rts":"[4064,2052]","trial_type":"two-door-navigation","trial_index":27,"time_elapsed":538674,"internal_node_id":"0.0-2.0-25.0"},{"group":"hexagon_bi","room_assignment":["red","grey","yellow","purple","green","blue"],"door_color_assignment":["black","white"],"door_generator_assignment":[1,0],"goal":5,"start":4,"action_noise":0.15,"location_history":"[4,3,4,5]","action_history":"[1,0,1]","door_history":"[0,1,0]","location_rts":"[8329,1531,826]","trial_type":"two-door-navigation","trial_index":28,"time_elapsed":555929,"internal_node_id":"0.0-2.0-26.0"},{"group":"hexagon_bi","room_assignment":["red","grey","yellow","purple","green","blue"],"door_color_assignment":["black","white"],"door_generator_assignment":[1,0],"goal":2,"start":5,"action_noise":0.15,"location_history":"[5,4,3,4,5,0,1,2]","action_history":"[1,1,0,1,0,1,0]","door_history":"[0,0,1,0,1,0,1]","location_rts":"[1801,2044,1232,824,2042,858,2620]","trial_type":"two-door-navigation","trial_index":29,"time_elapsed":578016,"internal_node_id":"0.0-2.0-27.0"},{"group":"hexagon_bi","room_assignment":["red","grey","yellow","purple","green","blue"],"door_color_assignment":["black","white"],"door_generator_assignment":[1,0],"goal":3,"start":2,"action_noise":0.15,"location_history":"[2,3]","action_history":"[1]","door_history":"[0]","location_rts":"[1306]","trial_type":"two-door-navigation","trial_index":30,"time_elapsed":583852,"internal_node_id":"0.0-2.0-28.0"},{"group":"hexagon_bi","room_assignment":["red","grey","yellow","purple","green","blue"],"door_color_assignment":["black","white"],"door_generator_assignment":[1,0],"goal":1,"start":3,"action_noise":0.15,"location_history":"[3,2,1]","action_history":"[1,0]","door_history":"[0,1]","location_rts":"[2725,1352]","trial_type":"two-door-navigation","trial_index":31,"time_elapsed":593481,"internal_node_id":"0.0-2.0-29.0"},{"group":"hexagon_bi","room_assignment":["red","grey","yellow","purple","green","blue"],"door_color_assignment":["black","white"],"door_generator_assignment":[1,0],"goal":4,"start":1,"action_noise":0.15,"location_history":"[1,2,1,2,3,4]","action_history":"[1,0,0,1,0]","door_history":"[0,1,1,0,1]","location_rts":"[1562,1062,1873,959,1505]","trial_type":"two-door-navigation","trial_index":32,"time_elapsed":609062,"internal_node_id":"0.0-2.0-30.0"},{"group":"hexagon_bi","room_assignment":["red","grey","yellow","purple","green","blue"],"door_color_assignment":["black","white"],"door_generator_assignment":[1,0],"goal":5,"start":4,"action_noise":0.15,"location_history":"[4,5]","action_history":"[1]","door_history":"[0]","location_rts":"[1485]","trial_type":"two-door-navigation","trial_index":33,"time_elapsed":615071,"internal_node_id":"0.0-2.0-31.0"},{"group":"hexagon_bi","room_assignment":["red","grey","yellow","purple","green","blue"],"door_color_assignment":["black","white"],"door_generator_assignment":[1,0],"goal":0,"start":5,"action_noise":0.15,"location_history":"[5,0]","action_history":"[0]","door_history":"[1]","location_rts":"[1928]","trial_type":"two-door-navigation","trial_index":34,"time_elapsed":621525,"internal_node_id":"0.0-2.0-32.0"},{"group":"hexagon_bi","room_assignment":["red","grey","yellow","purple","green","blue"],"door_color_assignment":["black","white"],"door_generator_assignment":[1,0],"goal":2,"start":0,"action_noise":0.15,"location_history":"[0,1,2]","action_history":"[1,0]","door_history":"[0,1]","location_rts":"[1768,1024]","trial_type":"two-door-navigation","trial_index":35,"time_elapsed":629865,"internal_node_id":"0.0-2.0-33.0"},{"group":"hexagon_bi","room_assignment":["red","grey","yellow","purple","green","blue"],"door_color_assignment":["black","white"],"door_generator_assignment":[1,0],"goal":0,"start":2,"action_noise":0.15,"location_history":"[2,3,4,5,4,5,4,5,4,5,4,3,2,1,2,1,0]","action_history":"[1,0,1,0,1,0,1,0,0,0,0,1,0,0,1,1]","door_history":"[0,1,0,1,0,1,0,1,1,1,1,0,1,1,0,0]","location_rts":"[2141,1044,2577,1625,4236,971,1322,1401,1029,2190,1096,759,1152,1063,1325,3277]","trial_type":"two-door-navigation","trial_index":36,"time_elapsed":676950,"internal_node_id":"0.0-2.0-34.0"},{"group":"hexagon_bi","room_assignment":["red","grey","yellow","purple","green","blue"],"door_color_assignment":["black","white"],"door_generator_assignment":[1,0],"goal":5,"start":0,"action_noise":0.15,"location_history":"[0,5]","action_history":"[0]","door_history":"[1]","location_rts":"[2885]","trial_type":"two-door-navigation","trial_index":37,"time_elapsed":684363,"internal_node_id":"0.0-2.0-35.0"},{"group":"hexagon_bi","room_assignment":["red","grey","yellow","purple","green","blue"],"door_color_assignment":["black","white"],"door_generator_assignment":[1,0],"goal":1,"start":5,"action_noise":0.15,"location_history":"[5,4,5,4,3,2,3,2,1]","action_history":"[1,1,1,0,1,1,1,0]","door_history":"[0,0,0,1,0,0,0,1]","location_rts":"[2657,1349,1350,1020,1378,1128,684,699]","trial_type":"two-door-navigation","trial_index":38,"time_elapsed":706329,"internal_node_id":"0.0-2.0-36.0"},{"group":"hexagon_bi","room_assignment":["red","grey","yellow","purple","green","blue"],"door_color_assignment":["black","white"],"door_generator_assignment":[1,0],"goal":4,"start":1,"action_noise":0.15,"location_history":"[1,0,5,4]","action_history":"[1,0,1]","door_history":"[0,1,0]","location_rts":"[3421,2620,1176]","trial_type":"two-door-navigation","trial_index":39,"time_elapsed":720119,"internal_node_id":"0.0-2.0-37.0"},{"group":"hexagon_bi","room_assignment":["red","grey","yellow","purple","green","blue"],"door_color_assignment":["black","white"],"door_generator_assignment":[1,0],"goal":3,"start":4,"action_noise":0.15,"location_history":"[4,3]","action_history":"[0]","door_history":"[1]","location_rts":"[2310]","trial_type":"two-door-navigation","trial_index":40,"time_elapsed":726958,"internal_node_id":"0.0-2.0-38.0"},{"group":"hexagon_bi","room_assignment":["red","grey","yellow","purple","green","blue"],"door_color_assignment":["black","white"],"door_generator_assignment":[1,0],"goal":5,"start":3,"action_noise":0.15,"location_history":"[3,2,3,2,3,4,5]","action_history":"[1,0,1,1,0,1]","door_history":"[0,1,0,0,1,0]","location_rts":"[4754,7586,1627,2012,1342,1583]","trial_type":"two-door-navigation","trial_index":41,"time_elapsed":755507,"internal_node_id":"0.0-2.0-39.0"},{"group":"hexagon_bi","room_assignment":["red","grey","yellow","purple","green","blue"],"door_color_assignment":["black","white"],"door_generator_assignment":[1,0],"goal":1,"start":5,"action_noise":0.15,"location_history":"[5,4,5,0,1]","action_history":"[1,1,0,1]","door_history":"[0,0,1,0]","location_rts":"[11115,2798,2045,1825]","trial_type":"two-door-navigation","trial_index":42,"time_elapsed":780888,"internal_node_id":"0.0-2.0-40.0"},{"group":"hexagon_bi","room_assignment":["red","grey","yellow","purple","green","blue"],"door_color_assignment":["black","white"],"door_generator_assignment":[1,0],"goal":2,"start":1,"action_noise":0.15,"location_history":"[1,2]","action_history":"[0]","door_history":"[1]","location_rts":"[14390]","trial_type":"two-door-navigation","trial_index":43,"time_elapsed":799801,"internal_node_id":"0.0-2.0-41.0"},{"group":"hexagon_bi","room_assignment":["red","grey","yellow","purple","green","blue"],"door_color_assignment":["black","white"],"door_generator_assignment":[1,0],"goal":4,"start":2,"action_noise":0.15,"location_history":"[2,3,4]","action_history":"[1,1]","door_history":"[0,0]","location_rts":"[2390,4498]","trial_type":"two-door-navigation","trial_index":44,"time_elapsed":812229,"internal_node_id":"0.0-2.0-42.0"},{"group":"hexagon_bi","room_assignment":["red","grey","yellow","purple","green","blue"],"door_color_assignment":["black","white"],"door_generator_assignment":[1,0],"goal":0,"start":4,"action_noise":0.15,"location_history":"[4,3,2,3,4,3,4,3,2,3,4,3,2,1,0]","action_history":"[0,1,1,0,1,0,0,1,1,0,0,1,0,1]","door_history":"[1,0,0,1,0,1,1,0,0,1,1,0,1,0]","location_rts":"[2872,1489,20952,1518,1276,2135,963,1447,2397,2638,1706,2243,2185,1068]","trial_type":"two-door-navigation","trial_index":45,"time_elapsed":874944,"internal_node_id":"0.0-2.0-43.0"},{"group":"hexagon_bi","room_assignment":["red","grey","yellow","purple","green","blue"],"door_color_assignment":["black","white"],"door_generator_assignment":[1,0],"goal":3,"start":0,"action_noise":0.15,"location_history":"[0,1,2,3]","action_history":"[1,0,1]","door_history":"[0,1,0]","location_rts":"[2283,2104,1116]","trial_type":"two-door-navigation","trial_index":46,"time_elapsed":887023,"internal_node_id":"0.0-2.0-44.0"},{"group":"hexagon_bi","room_assignment":["red","grey","yellow","purple","green","blue"],"door_color_assignment":["black","white"],"door_generator_assignment":[1,0],"goal":0,"start":3,"action_noise":0.15,"location_history":"[3,4,5,0]","action_history":"[0,1,0]","door_history":"[1,0,1]","location_rts":"[8136,8722,3823]","trial_type":"two-door-navigation","trial_index":47,"time_elapsed":914269,"internal_node_id":"0.0-2.0-45.0"},{"group":"hexagon_bi","room_assignment":["red","grey","yellow","purple","green","blue"],"door_color_assignment":["black","white"],"door_generator_assignment":[1,0],"goal":4,"start":0,"action_noise":0.15,"location_history":"[0,5,4]","action_history":"[0,1]","door_history":"[1,0]","location_rts":"[3429,3220]","trial_type":"two-door-navigation","trial_index":48,"time_elapsed":926468,"internal_node_id":"0.0-2.0-46.0"},{"group":"hexagon_bi","room_assignment":["red","grey","yellow","purple","green","blue"],"door_color_assignment":["black","white"],"door_generator_assignment":[1,0],"goal":5,"start":4,"action_noise":0.15,"location_history":"[4,3,2,1,2,1,0,1,2,1,0,5]","action_history":"[0,1,0,1,0,1,0,0,1,1,0]","door_history":"[1,0,1,0,1,0,1,1,0,0,1]","location_rts":"[4148,4263,2862,1938,1212,1275,2401,4262,1180,1034,1232]","trial_type":"two-door-navigation","trial_index":49,"time_elapsed":967044,"internal_node_id":"0.0-2.0-47.0"},{"group":"hexagon_bi","room_assignment":["red","grey","yellow","purple","green","blue"],"door_color_assignment":["black","white"],"door_generator_assignment":[1,0],"goal":2,"start":5,"action_noise":0.15,"location_history":"[5,4,3,4,5,4,3,4,5,0,1,2]","action_history":"[1,0,0,1,1,0,1,1,0,1,0]","door_history":"[0,1,1,0,0,1,0,0,1,0,1]","location_rts":"[29666,876,979,1032,1203,1602,660,2068,462,876,1225]","trial_type":"two-door-navigation","trial_index":50,"time_elapsed":1022440,"internal_node_id":"0.0-2.0-48.0"},{"group":"hexagon_bi","room_assignment":["red","grey","yellow","purple","green","blue"],"door_color_assignment":["black","white"],"door_generator_assignment":[1,0],"goal":1,"start":2,"action_noise":0.15,"location_history":"[2,1]","action_history":"[0]","door_history":"[1]","location_rts":"[1656]","trial_type":"two-door-navigation","trial_index":51,"time_elapsed":1028625,"internal_node_id":"0.0-2.0-49.0"},{"view_history":"[{\"page_index\":0,\"viewing_time\":2958}]","rt":2958,"trial_type":"instructions","trial_index":52,"time_elapsed":1032586,"internal_node_id":"0.0-3.0"},{"view_history":"[{\"page_index\":0,\"viewing_time\":7253},{\"page_index\":1,\"viewing_time\":50520}]","rt":57773,"trial_type":"instructions","trial_index":53,"time_elapsed":1091360,"internal_node_id":"0.0-4.0"},{"group":"hexagon_bi","fractal_assignment":["../images/org_blu.png","../images/cyn_red.png","../images/gry_blk.png","../images/ylw_slt.png","../images/blu_wht.png","../images/pnk_blu.png"],"mutagen_generator_assignment":[0,1],"goal":2,"start":1,"action_noise":0.15,"location_history":"[1,2]","action_history":"[0]","mutagen_history":"[0]","location_rts":"[2316]","trial_type":"fractal-mutation","trial_index":54,"time_elapsed":1098224,"internal_node_id":"0.0-5.0-0.0"},{"group":"hexagon_bi","fractal_assignment":["../images/org_blu.png","../images/cyn_red.png","../images/gry_blk.png","../images/ylw_slt.png","../images/blu_wht.png","../images/pnk_blu.png"],"mutagen_generator_assignment":[0,1],"goal":0,"start":2,"action_noise":0.15,"location_history":"[2,1,2,3,4,5,0]","action_history":"[0,0,1,0,1,0]","mutagen_history":"[0,0,1,0,1,0]","location_rts":"[2695,1516,702,917,1626,715]","trial_type":"fractal-mutation","trial_index":55,"time_elapsed":1116136,"internal_node_id":"0.0-5.0-1.0"},{"group":"hexagon_bi","fractal_assignment":["../images/org_blu.png","../images/cyn_red.png","../images/gry_blk.png","../images/ylw_slt.png","../images/blu_wht.png","../images/pnk_blu.png"],"mutagen_generator_assignment":[0,1],"goal":5,"start":0,"action_noise":0.15,"location_history":"[0,1,0,5]","action_history":"[1,1,0]","mutagen_history":"[1,1,0]","location_rts":"[1600,1286,1772]","trial_type":"fractal-mutation","trial_index":56,"time_elapsed":1127422,"internal_node_id":"0.0-5.0-2.0"},{"group":"hexagon_bi","fractal_assignment":["../images/org_blu.png","../images/cyn_red.png","../images/gry_blk.png","../images/ylw_slt.png","../images/blu_wht.png","../images/pnk_blu.png"],"mutagen_generator_assignment":[0,1],"goal":1,"start":5,"action_noise":0.15,"location_history":"[5,4,3,2,1]","action_history":"[1,0,1,0]","mutagen_history":"[1,0,1,0]","location_rts":"[17467,1329,1954,661]","trial_type":"fractal-mutation","trial_index":57,"time_elapsed":1156494,"internal_node_id":"0.0-5.0-3.0"},{"group":"hexagon_bi","fractal_assignment":["../images/org_blu.png","../images/cyn_red.png","../images/gry_blk.png","../images/ylw_slt.png","../images/blu_wht.png","../images/pnk_blu.png"],"mutagen_generator_assignment":[0,1],"goal":3,"start":1,"action_noise":0.15,"location_history":"[1,0,5,0,1,2,3]","action_history":"[1,0,1,1,0,1]","mutagen_history":"[1,0,1,1,0,1]","location_rts":"[1464,860,865,894,782,1121]","trial_type":"fractal-mutation","trial_index":58,"time_elapsed":1172197,"internal_node_id":"0.0-5.0-4.0"},{"group":"hexagon_bi","fractal_assignment":["../images/org_blu.png","../images/cyn_red.png","../images/gry_blk.png","../images/ylw_slt.png","../images/blu_wht.png","../images/pnk_blu.png"],"mutagen_generator_assignment":[0,1],"goal":5,"start":3,"action_noise":0.15,"location_history":"[3,2,3,4,5]","action_history":"[0,1,1,1]","mutagen_history":"[0,1,1,1]","location_rts":"[2594,838,809,986]","trial_type":"fractal-mutation","trial_index":59,"time_elapsed":1185075,"internal_node_id":"0.0-5.0-5.0"},{"group":"hexagon_bi","fractal_assignment":["../images/org_blu.png","../images/cyn_red.png","../images/gry_blk.png","../images/ylw_slt.png","../images/blu_wht.png","../images/pnk_blu.png"],"mutagen_generator_assignment":[0,1],"goal":4,"start":5,"action_noise":0.15,"location_history":"[5,4]","action_history":"[0]","mutagen_history":"[0]","location_rts":"[1682]","trial_type":"fractal-mutation","trial_index":60,"time_elapsed":1191288,"internal_node_id":"0.0-5.0-6.0"},{"group":"hexagon_bi","fractal_assignment":["../images/org_blu.png","../images/cyn_red.png","../images/gry_blk.png","../images/ylw_slt.png","../images/blu_wht.png","../images/pnk_blu.png"],"mutagen_generator_assignment":[0,1],"goal":0,"start":4,"action_noise":0.15,"location_history":"[4,3,4,3,2,1,0]","action_history":"[1,0,0,1,0,0]","mutagen_history":"[1,0,0,1,0,0]","location_rts":"[1700,644,1012,872,1042,1152]","trial_type":"fractal-mutation","trial_index":61,"time_elapsed":1207428,"internal_node_id":"0.0-5.0-7.0"},{"group":"hexagon_bi","fractal_assignment":["../images/org_blu.png","../images/cyn_red.png","../images/gry_blk.png","../images/ylw_slt.png","../images/blu_wht.png","../images/pnk_blu.png"],"mutagen_generator_assignment":[0,1],"goal":2,"start":0,"action_noise":0.15,"location_history":"[0,1,2]","action_history":"[1,0]","mutagen_history":"[1,0]","location_rts":"[2339,1120]","trial_type":"fractal-mutation","trial_index":62,"time_elapsed":1216471,"internal_node_id":"0.0-5.0-8.0"},{"group":"hexagon_bi","fractal_assignment":["../images/org_blu.png","../images/cyn_red.png","../images/gry_blk.png","../images/ylw_slt.png","../images/blu_wht.png","../images/pnk_blu.png"],"mutagen_generator_assignment":[0,1],"goal":4,"start":2,"action_noise":0.15,"location_history":"[2,3,4]","action_history":"[1,0]","mutagen_history":"[1,0]","location_rts":"[2605,1384]","trial_type":"fractal-mutation","trial_index":63,"time_elapsed":1226039,"internal_node_id":"0.0-5.0-9.0"},{"group":"hexagon_bi","fractal_assignment":["../images/org_blu.png","../images/cyn_red.png","../images/gry_blk.png","../images/ylw_slt.png","../images/blu_wht.png","../images/pnk_blu.png"],"mutagen_generator_assignment":[0,1],"goal":2,"start":4,"action_noise":0.15,"location_history":"[4,5,0,5,0,5,4,5,0,5,0,1,0,5,4,5,4,3,2]","action_history":"[1,0,0,1,0,0,1,0,0,0,1,0,1,1,1,1,0,1]","mutagen_history":"[1,0,0,1,0,0,1,0,0,0,1,0,1,1,1,1,0,1]","location_rts":"[1640,660,1244,1010,666,794,1475,751,776,1001,934,1395,773,546,1523,1140,505,1284]","trial_type":"fractal-mutation","trial_index":64,"time_elapsed":1266300,"internal_node_id":"0.0-5.0-10.0"},{"group":"hexagon_bi","fractal_assignment":["../images/org_blu.png","../images/cyn_red.png","../images/gry_blk.png","../images/ylw_slt.png","../images/blu_wht.png","../images/pnk_blu.png"],"mutagen_generator_assignment":[0,1],"goal":3,"start":2,"action_noise":0.15,"location_history":"[2,1,2,1,0,1,2,3]","action_history":"[1,0,0,1,1,0,1]","mutagen_history":"[1,0,0,1,1,0,1]","location_rts":"[1676,839,1129,826,832,985,1059]","trial_type":"fractal-mutation","trial_index":65,"time_elapsed":1284400,"internal_node_id":"0.0-5.0-11.0"},{"group":"hexagon_bi","fractal_assignment":["../images/org_blu.png","../images/cyn_red.png","../images/gry_blk.png","../images/ylw_slt.png","../images/blu_wht.png","../images/pnk_blu.png"],"mutagen_generator_assignment":[0,1],"goal":0,"start":3,"action_noise":0.15,"location_history":"[3,4,3,2,1,2,3,4,3,2,1,0]","action_history":"[0,0,1,0,0,1,0,0,1,0,1]","mutagen_history":"[0,0,1,0,0,1,0,0,1,0,1]","location_rts":"[3156,1329,815,761,867,889,764,1470,1415,4467,1833]","trial_type":"fractal-mutation","trial_index":66,"time_elapsed":1317058,"internal_node_id":"0.0-5.0-12.0"},{"group":"hexagon_bi","fractal_assignment":["../images/org_blu.png","../images/cyn_red.png","../images/gry_blk.png","../images/ylw_slt.png","../images/blu_wht.png","../images/pnk_blu.png"],"mutagen_generator_assignment":[0,1],"goal":5,"start":0,"action_noise":0.15,"location_history":"[0,1,2,3,4,5]","action_history":"[1,0,1,1,1]","mutagen_history":"[1,0,1,1,1]","location_rts":"[4767,1076,791,814,877]","trial_type":"fractal-mutation","trial_index":67,"time_elapsed":1334075,"internal_node_id":"0.0-5.0-13.0"},{"group":"hexagon_bi","fractal_assignment":["../images/org_blu.png","../images/cyn_red.png","../images/gry_blk.png","../images/ylw_slt.png","../images/blu_wht.png","../images/pnk_blu.png"],"mutagen_generator_assignment":[0,1],"goal":1,"start":5,"action_noise":0.15,"location_history":"[5,0,1]","action_history":"[0,1]","mutagen_history":"[0,1]","location_rts":"[1713,1250]","trial_type":"fractal-mutation","trial_index":68,"time_elapsed":1342614,"internal_node_id":"0.0-5.0-14.0"},{"group":"hexagon_bi","fractal_assignment":["../images/org_blu.png","../images/cyn_red.png","../images/gry_blk.png","../images/ylw_slt.png","../images/blu_wht.png","../images/pnk_blu.png"],"mutagen_generator_assignment":[0,1],"goal":5,"start":1,"action_noise":0.15,"location_history":"[1,0,5]","action_history":"[0,1]","mutagen_history":"[0,1]","location_rts":"[1674,922]","trial_type":"fractal-mutation","trial_index":69,"time_elapsed":1350783,"internal_node_id":"0.0-5.0-15.0"},{"group":"hexagon_bi","fractal_assignment":["../images/org_blu.png","../images/cyn_red.png","../images/gry_blk.png","../images/ylw_slt.png","../images/blu_wht.png","../images/pnk_blu.png"],"mutagen_generator_assignment":[0,1],"goal":3,"start":5,"action_noise":0.15,"location_history":"[5,0,5,4,5,0,1,0,5,4,3]","action_history":"[1,0,1,1,0,1,1,0,1,0]","mutagen_history":"[1,0,1,1,0,1,1,0,1,0]","location_rts":"[2540,1191,829,1568,2347,1138,855,981,955,1606]","trial_type":"fractal-mutation","trial_index":70,"time_elapsed":1378672,"internal_node_id":"0.0-5.0-16.0"},{"group":"hexagon_bi","fractal_assignment":["../images/org_blu.png","../images/cyn_red.png","../images/gry_blk.png","../images/ylw_slt.png","../images/blu_wht.png","../images/pnk_blu.png"],"mutagen_generator_assignment":[0,1],"goal":2,"start":3,"action_noise":0.15,"location_history":"[3,4,5,0,5,0,1,0,1,0,1,0,5,4,5,0,5,4,5,0,1,2]","action_history":"[0,1,0,0,0,0,1,1,1,1,0,0,1,1,0,0,1,1,0,1,1]","mutagen_history":"[0,1,0,0,0,0,1,1,1,1,0,0,1,1,0,0,1,1,0,1,1]","location_rts":"[2164,856,764,659,1573,1125,510,816,1062,737,967,1137,1473,943,742,1059,1139,796,1425,1455,330]","trial_type":"fractal-mutation","trial_index":71,"time_elapsed":1425660,"internal_node_id":"0.0-5.0-17.0"},{"group":"hexagon_bi","fractal_assignment":["../images/org_blu.png","../images/cyn_red.png","../images/gry_blk.png","../images/ylw_slt.png","../images/blu_wht.png","../images/pnk_blu.png"],"mutagen_generator_assignment":[0,1],"goal":1,"start":2,"action_noise":0.15,"location_history":"[2,3,2,1]","action_history":"[1,1,0]","mutagen_history":"[1,1,0]","location_rts":"[1406,1204,1505]","trial_type":"fractal-mutation","trial_index":72,"time_elapsed":1436392,"internal_node_id":"0.0-5.0-18.0"},{"group":"hexagon_bi","fractal_assignment":["../images/org_blu.png","../images/cyn_red.png","../images/gry_blk.png","../images/ylw_slt.png","../images/blu_wht.png","../images/pnk_blu.png"],"mutagen_generator_assignment":[0,1],"goal":4,"start":1,"action_noise":0.15,"location_history":"[1,2,3,2,3,2,3,2,1,2,3,2,3,2,1,0,1,2,3,2,3,4]","action_history":"[0,1,1,1,0,1,1,0,1,1,0,1,1,0,1,1,0,1,1,1,0]","mutagen_history":"[0,1,1,1,0,1,1,0,1,1,0,1,1,0,1,1,0,1,1,1,0]","location_rts":"[1800,1379,1007,1705,737,1087,1107,991,1623,857,1413,1161,2200,2131,968,784,1015,815,707,997,867]","trial_type":"fractal-mutation","trial_index":73,"time_elapsed":1487035,"internal_node_id":"0.0-5.0-19.0"},{"group":"hexagon_bi","fractal_assignment":["../images/org_blu.png","../images/cyn_red.png","../images/gry_blk.png","../images/ylw_slt.png","../images/blu_wht.png","../images/pnk_blu.png"],"mutagen_generator_assignment":[0,1],"goal":0,"start":4,"action_noise":0.15,"location_history":"[4,3,2,1,2,3,4,3,2,3,2,1,0]","action_history":"[0,1,0,0,1,0,0,1,0,1,0,0]","mutagen_history":"[0,1,0,0,1,0,0,1,0,1,0,0]","location_rts":"[1220,1244,895,1576,1683,811,769,789,1262,1670,700,944]","trial_type":"fractal-mutation","trial_index":74,"time_elapsed":1516511,"internal_node_id":"0.0-5.0-20.0"},{"group":"hexagon_bi","fractal_assignment":["../images/org_blu.png","../images/cyn_red.png","../images/gry_blk.png","../images/ylw_slt.png","../images/blu_wht.png","../images/pnk_blu.png"],"mutagen_generator_assignment":[0,1],"goal":3,"start":0,"action_noise":0.15,"location_history":"[0,1,2,3]","action_history":"[1,0,1]","mutagen_history":"[1,0,1]","location_rts":"[2035,2615,1763]","trial_type":"fractal-mutation","trial_index":75,"time_elapsed":1529537,"internal_node_id":"0.0-5.0-21.0"},{"group":"hexagon_bi","fractal_assignment":["../images/org_blu.png","../images/cyn_red.png","../images/gry_blk.png","../images/ylw_slt.png","../images/blu_wht.png","../images/pnk_blu.png"],"mutagen_generator_assignment":[0,1],"goal":1,"start":3,"action_noise":0.15,"location_history":"[3,4,3,2,3,4,3,4,5,0,5,0,1]","action_history":"[0,0,1,1,0,0,0,1,0,1,0,0]","mutagen_history":"[0,0,1,1,0,0,0,1,0,1,0,0]","location_rts":"[2676,1620,522,1162,465,1082,1177,858,1527,1875,1529,960]","trial_type":"fractal-mutation","trial_index":76,"time_elapsed":1560903,"internal_node_id":"0.0-5.0-22.0"},{"group":"hexagon_bi","fractal_assignment":["../images/org_blu.png","../images/cyn_red.png","../images/gry_blk.png","../images/ylw_slt.png","../images/blu_wht.png","../images/pnk_blu.png"],"mutagen_generator_assignment":[0,1],"goal":0,"start":1,"action_noise":0.15,"location_history":"[1,0]","action_history":"[0]","mutagen_history":"[0]","location_rts":"[14196]","trial_type":"fractal-mutation","trial_index":77,"time_elapsed":1579633,"internal_node_id":"0.0-5.0-23.0"},{"group":"hexagon_bi","fractal_assignment":["../images/org_blu.png","../images/cyn_red.png","../images/gry_blk.png","../images/ylw_slt.png","../images/blu_wht.png","../images/pnk_blu.png"],"mutagen_generator_assignment":[0,1],"goal":2,"start":0,"action_noise":0.15,"location_history":"[0,5,0,1,0,1,2]","action_history":"[1,0,1,1,1,0]","mutagen_history":"[1,0,1,1,1,0]","location_rts":"[5896,1342,996,849,1775,4408]","trial_type":"fractal-mutation","trial_index":78,"time_elapsed":1604605,"internal_node_id":"0.0-5.0-24.0"},{"group":"hexagon_bi","fractal_assignment":["../images/org_blu.png","../images/cyn_red.png","../images/gry_blk.png","../images/ylw_slt.png","../images/blu_wht.png","../images/pnk_blu.png"],"mutagen_generator_assignment":[0,1],"goal":4,"start":2,"action_noise":0.15,"location_history":"[2,1,2,3,4]","action_history":"[1,0,1,0]","mutagen_history":"[1,0,1,0]","location_rts":"[2899,1804,855,1090]","trial_type":"fractal-mutation","trial_index":79,"time_elapsed":1618901,"internal_node_id":"0.0-5.0-25.0"},{"group":"hexagon_bi","fractal_assignment":["../images/org_blu.png","../images/cyn_red.png","../images/gry_blk.png","../images/ylw_slt.png","../images/blu_wht.png","../images/pnk_blu.png"],"mutagen_generator_assignment":[0,1],"goal":5,"start":4,"action_noise":0.15,"location_history":"[4,5]","action_history":"[1]","mutagen_history":"[1]","location_rts":"[2231]","trial_type":"fractal-mutation","trial_index":80,"time_elapsed":1625676,"internal_node_id":"0.0-5.0-26.0"},{"group":"hexagon_bi","fractal_assignment":["../images/org_blu.png","../images/cyn_red.png","../images/gry_blk.png","../images/ylw_slt.png","../images/blu_wht.png","../images/pnk_blu.png"],"mutagen_generator_assignment":[0,1],"goal":2,"start":5,"action_noise":0.15,"location_history":"[5,0,5,0,5,0,1,2]","action_history":"[0,1,0,0,1,1,0]","mutagen_history":"[0,1,0,0,1,1,0]","location_rts":"[3091,1694,1912,1635,671,877,859]","trial_type":"fractal-mutation","trial_index":81,"time_elapsed":1647163,"internal_node_id":"0.0-5.0-27.0"},{"group":"hexagon_bi","fractal_assignment":["../images/org_blu.png","../images/cyn_red.png","../images/gry_blk.png","../images/ylw_slt.png","../images/blu_wht.png","../images/pnk_blu.png"],"mutagen_generator_assignment":[0,1],"goal":3,"start":2,"action_noise":0.15,"location_history":"[2,3]","action_history":"[1]","mutagen_history":"[1]","location_rts":"[16212]","trial_type":"fractal-mutation","trial_index":82,"time_elapsed":1667914,"internal_node_id":"0.0-5.0-28.0"},{"group":"hexagon_bi","fractal_assignment":["../images/org_blu.png","../images/cyn_red.png","../images/gry_blk.png","../images/ylw_slt.png","../images/blu_wht.png","../images/pnk_blu.png"],"mutagen_generator_assignment":[0,1],"goal":1,"start":3,"action_noise":0.15,"location_history":"[3,2,3,2,1]","action_history":"[0,1,1,0]","mutagen_history":"[0,1,1,0]","location_rts":"[1244,1009,1201,1020]","trial_type":"fractal-mutation","trial_index":83,"time_elapsed":1680034,"internal_node_id":"0.0-5.0-29.0"},{"group":"hexagon_bi","fractal_assignment":["../images/org_blu.png","../images/cyn_red.png","../images/gry_blk.png","../images/ylw_slt.png","../images/blu_wht.png","../images/pnk_blu.png"],"mutagen_generator_assignment":[0,1],"goal":4,"start":1,"action_noise":0.15,"location_history":"[1,2,3,4]","action_history":"[0,1,1]","mutagen_history":"[0,1,1]","location_rts":"[1844,839,1249]","trial_type":"fractal-mutation","trial_index":84,"time_elapsed":1690584,"internal_node_id":"0.0-5.0-30.0"},{"group":"hexagon_bi","fractal_assignment":["../images/org_blu.png","../images/cyn_red.png","../images/gry_blk.png","../images/ylw_slt.png","../images/blu_wht.png","../images/pnk_blu.png"],"mutagen_generator_assignment":[0,1],"goal":5,"start":4,"action_noise":0.15,"location_history":"[4,5]","action_history":"[1]","mutagen_history":"[1]","location_rts":"[1492]","trial_type":"fractal-mutation","trial_index":85,"time_elapsed":1696623,"internal_node_id":"0.0-5.0-31.0"},{"group":"hexagon_bi","fractal_assignment":["../images/org_blu.png","../images/cyn_red.png","../images/gry_blk.png","../images/ylw_slt.png","../images/blu_wht.png","../images/pnk_blu.png"],"mutagen_generator_assignment":[0,1],"goal":0,"start":5,"action_noise":0.15,"location_history":"[5,0]","action_history":"[0]","mutagen_history":"[0]","location_rts":"[1742]","trial_type":"fractal-mutation","trial_index":86,"time_elapsed":1702895,"internal_node_id":"0.0-5.0-32.0"},{"group":"hexagon_bi","fractal_assignment":["../images/org_blu.png","../images/cyn_red.png","../images/gry_blk.png","../images/ylw_slt.png","../images/blu_wht.png","../images/pnk_blu.png"],"mutagen_generator_assignment":[0,1],"goal":2,"start":0,"action_noise":0.15,"location_history":"[0,1,2]","action_history":"[1,0]","mutagen_history":"[1,0]","location_rts":"[1970,1068]","trial_type":"fractal-mutation","trial_index":87,"time_elapsed":1711513,"internal_node_id":"0.0-5.0-33.0"},{"group":"hexagon_bi","fractal_assignment":["../images/org_blu.png","../images/cyn_red.png","../images/gry_blk.png","../images/ylw_slt.png","../images/blu_wht.png","../images/pnk_blu.png"],"mutagen_generator_assignment":[0,1],"goal":0,"start":2,"action_noise":0.15,"location_history":"[2,3,2,1,2,3,4,3,4,5,0]","action_history":"[1,0,0,0,1,0,0,1,0,0]","mutagen_history":"[1,0,0,0,1,0,0,1,0,0]","location_rts":"[1242,743,674,1163,1621,793,667,936,702,828]","trial_type":"fractal-mutation","trial_index":88,"time_elapsed":1734726,"internal_node_id":"0.0-5.0-34.0"},{"group":"hexagon_bi","fractal_assignment":["../images/org_blu.png","../images/cyn_red.png","../images/gry_blk.png","../images/ylw_slt.png","../images/blu_wht.png","../images/pnk_blu.png"],"mutagen_generator_assignment":[0,1],"goal":5,"start":0,"action_noise":0.15,"location_history":"[0,1,0,5]","action_history":"[1,0,0]","mutagen_history":"[1,0,0]","location_rts":"[1873,944,1271]","trial_type":"fractal-mutation","trial_index":89,"time_elapsed":1745428,"internal_node_id":"0.0-5.0-35.0"},{"group":"hexagon_bi","fractal_assignment":["../images/org_blu.png","../images/cyn_red.png","../images/gry_blk.png","../images/ylw_slt.png","../images/blu_wht.png","../images/pnk_blu.png"],"mutagen_generator_assignment":[0,1],"goal":1,"start":5,"action_noise":0.15,"location_history":"[5,0,1]","action_history":"[0,1]","mutagen_history":"[0,1]","location_rts":"[1407,1146]","trial_type":"fractal-mutation","trial_index":90,"time_elapsed":1753560,"internal_node_id":"0.0-5.0-36.0"},{"group":"hexagon_bi","fractal_assignment":["../images/org_blu.png","../images/cyn_red.png","../images/gry_blk.png","../images/ylw_slt.png","../images/blu_wht.png","../images/pnk_blu.png"],"mutagen_generator_assignment":[0,1],"goal":4,"start":1,"action_noise":0.15,"location_history":"[1,0,1,0,5,0,1,2,1,0,1,2,3,4]","action_history":"[0,1,1,0,1,1,0,0,1,1,0,1,1]","mutagen_history":"[0,1,1,0,1,1,0,0,1,1,0,1,1]","location_rts":"[1424,861,1273,818,1421,1144,859,706,978,877,725,904,1669]","trial_type":"fractal-mutation","trial_index":91,"time_elapsed":1784179,"internal_node_id":"0.0-5.0-37.0"},{"group":"hexagon_bi","fractal_assignment":["../images/org_blu.png","../images/cyn_red.png","../images/gry_blk.png","../images/ylw_slt.png","../images/blu_wht.png","../images/pnk_blu.png"],"mutagen_generator_assignment":[0,1],"goal":3,"start":4,"action_noise":0.15,"location_history":"[4,3]","action_history":"[0]","mutagen_history":"[0]","location_rts":"[2205]","trial_type":"fractal-mutation","trial_index":92,"time_elapsed":1790923,"internal_node_id":"0.0-5.0-38.0"},{"group":"hexagon_bi","fractal_assignment":["../images/org_blu.png","../images/cyn_red.png","../images/gry_blk.png","../images/ylw_slt.png","../images/blu_wht.png","../images/pnk_blu.png"],"mutagen_generator_assignment":[0,1],"goal":5,"start":3,"action_noise":0.15,"location_history":"[3,2,1,2,1,2,3,2,3,4,5]","action_history":"[1,1,0,0,0,1,1,1,0,1]","mutagen_history":"[1,1,0,0,0,1,1,1,0,1]","location_rts":"[1238,971,742,707,1118,730,1487,898,1073,1136]","trial_type":"fractal-mutation","trial_index":93,"time_elapsed":1814888,"internal_node_id":"0.0-5.0-39.0"},{"group":"hexagon_bi","fractal_assignment":["../images/org_blu.png","../images/cyn_red.png","../images/gry_blk.png","../images/ylw_slt.png","../images/blu_wht.png","../images/pnk_blu.png"],"mutagen_generator_assignment":[0,1],"goal":1,"start":5,"action_noise":0.15,"location_history":"[5,0,5,4,3,4,5,0,5,0,1]","action_history":"[0,0,1,0,0,1,0,0,0,1]","mutagen_history":"[0,0,1,0,0,1,0,0,0,1]","location_rts":"[1232,888,772,863,971,1214,456,879,811,583]","trial_type":"fractal-mutation","trial_index":94,"time_elapsed":1837397,"internal_node_id":"0.0-5.0-40.0"},{"group":"hexagon_bi","fractal_assignment":["../images/org_blu.png","../images/cyn_red.png","../images/gry_blk.png","../images/ylw_slt.png","../images/blu_wht.png","../images/pnk_blu.png"],"mutagen_generator_assignment":[0,1],"goal":2,"start":1,"action_noise":0.15,"location_history":"[1,0,1,0,5,4,3,4,3,2]","action_history":"[0,1,1,0,1,0,0,0,1]","mutagen_history":"[0,1,1,0,1,0,0,0,1]","location_rts":"[1366,895,848,868,904,560,1078,1078,600]","trial_type":"fractal-mutation","trial_index":95,"time_elapsed":1858412,"internal_node_id":"0.0-5.0-41.0"},{"group":"hexagon_bi","fractal_assignment":["../images/org_blu.png","../images/cyn_red.png","../images/gry_blk.png","../images/ylw_slt.png","../images/blu_wht.png","../images/pnk_blu.png"],"mutagen_generator_assignment":[0,1],"goal":4,"start":2,"action_noise":0.15,"location_history":"[2,3,4]","action_history":"[1,0]","mutagen_history":"[1,0]","location_rts":"[2818,1617]","trial_type":"fractal-mutation","trial_index":96,"time_elapsed":1868428,"internal_node_id":"0.0-5.0-42.0"},{"group":"hexagon_bi","fractal_assignment":["../images/org_blu.png","../images/cyn_red.png","../images/gry_blk.png","../images/ylw_slt.png","../images/blu_wht.png","../images/pnk_blu.png"],"mutagen_generator_assignment":[0,1],"goal":0,"start":4,"action_noise":0.15,"location_history":"[4,5,0]","action_history":"[1,0]","mutagen_history":"[1,0]","location_rts":"[2420,773]","trial_type":"fractal-mutation","trial_index":97,"time_elapsed":1877191,"internal_node_id":"0.0-5.0-43.0"},{"group":"hexagon_bi","fractal_assignment":["../images/org_blu.png","../images/cyn_red.png","../images/gry_blk.png","../images/ylw_slt.png","../images/blu_wht.png","../images/pnk_blu.png"],"mutagen_generator_assignment":[0,1],"goal":3,"start":0,"action_noise":0.15,"location_history":"[0,1,2,3]","action_history":"[0,0,1]","mutagen_history":"[0,0,1]","location_rts":"[1284,1370,746]","trial_type":"fractal-mutation","trial_index":98,"time_elapsed":1887201,"internal_node_id":"0.0-5.0-44.0"},{"group":"hexagon_bi","fractal_assignment":["../images/org_blu.png","../images/cyn_red.png","../images/gry_blk.png","../images/ylw_slt.png","../images/blu_wht.png","../images/pnk_blu.png"],"mutagen_generator_assignment":[0,1],"goal":0,"start":3,"action_noise":0.15,"location_history":"[3,4,3,2,3,2,1,2,3,4,3,4,5,4,5,0]","action_history":"[0,1,0,0,1,0,0,1,0,1,0,0,1,0,0]","mutagen_history":"[0,1,0,0,1,0,0,1,0,1,0,0,1,0,0]","location_rts":"[1520,1316,929,1037,1422,829,1568,975,772,1684,11238,2213,1915,678,787]","trial_type":"fractal-mutation","trial_index":99,"time_elapsed":1935107,"internal_node_id":"0.0-5.0-45.0"},{"group":"hexagon_bi","fractal_assignment":["../images/org_blu.png","../images/cyn_red.png","../images/gry_blk.png","../images/ylw_slt.png","../images/blu_wht.png","../images/pnk_blu.png"],"mutagen_generator_assignment":[0,1],"goal":4,"start":0,"action_noise":0.15,"location_history":"[0,1,0,1,0,5,0,5,4]","action_history":"[1,0,0,1,1,0,0,1]","mutagen_history":"[1,0,0,1,1,0,0,1]","location_rts":"[1794,953,937,840,878,2729,1037,766]","trial_type":"fractal-mutation","trial_index":100,"time_elapsed":1956850,"internal_node_id":"0.0-5.0-46.0"},{"group":"hexagon_bi","fractal_assignment":["../images/org_blu.png","../images/cyn_red.png","../images/gry_blk.png","../images/ylw_slt.png","../images/blu_wht.png","../images/pnk_blu.png"],"mutagen_generator_assignment":[0,1],"goal":5,"start":4,"action_noise":0.15,"location_history":"[4,5]","action_history":"[1]","mutagen_history":"[1]","location_rts":"[1768]","trial_type":"fractal-mutation","trial_index":101,"time_elapsed":1963159,"internal_node_id":"0.0-5.0-47.0"},{"group":"hexagon_bi","fractal_assignment":["../images/org_blu.png","../images/cyn_red.png","../images/gry_blk.png","../images/ylw_slt.png","../images/blu_wht.png","../images/pnk_blu.png"],"mutagen_generator_assignment":[0,1],"goal":2,"start":5,"action_noise":0.15,"location_history":"[5,0,1,2]","action_history":"[0,1,0]","mutagen_history":"[0,1,0]","location_rts":"[1516,2718,1014]","trial_type":"fractal-mutation","trial_index":102,"time_elapsed":1975011,"internal_node_id":"0.0-5.0-48.0"},{"group":"hexagon_bi","fractal_assignment":["../images/org_blu.png","../images/cyn_red.png","../images/gry_blk.png","../images/ylw_slt.png","../images/blu_wht.png","../images/pnk_blu.png"],"mutagen_generator_assignment":[0,1],"goal":1,"start":2,"action_noise":0.15,"location_history":"[2,3,2,1]","action_history":"[1,1,0]","mutagen_history":"[1,1,0]","location_rts":"[2107,1070,963]","trial_type":"fractal-mutation","trial_index":103,"time_elapsed":1985773,"internal_node_id":"0.0-5.0-49.0"},{"view_history":"[{\"page_index\":0,\"viewing_time\":3688}]","rt":3689,"trial_type":"instructions","trial_index":104,"time_elapsed":1990464,"internal_node_id":"0.0-6.0"},{"rt":117100,"responses":"{\"Q0\":\"I thought the first one, the doors, was investigating how well we can take a 2-D image and turn it into a 3-D map in our heads.\"}","trial_type":"survey-text","trial_index":105,"time_elapsed":2108570,"internal_node_id":"0.0-7.0-0.0"},{"rt":136324,"responses":"{\"Q0\":\"this one is the biggest struggle for me. I definitely got better as time went on, but it was tough. I think this one was investigating how well we can can figure out relationships between multiple patterns and stimuli and put them together.\"}","trial_type":"survey-text","trial_index":106,"time_elapsed":2245897,"internal_node_id":"0.0-7.0-1.0"},{"rt":45792,"responses":"{\"Q0\":\"<img src='../images/diagrams/hexagon_tri.png'>\"}","trial_type":"survey-multi-choice","trial_index":107,"time_elapsed":2292692,"internal_node_id":"0.0-7.0-2.0"},{"rt":95867,"assignments":["../images/org_blu.png","../images/ylw_slt.png","../images/pnk_blu.png","../images/blu_wht.png","../images/cyn_red.png","../images/gry_blk.png"],"trial_type":"drag-drop-on-image","trial_index":108,"time_elapsed":2389563,"internal_node_id":"0.0-7.0-3.0"},{"rt":12844,"responses":"{\"Q0\":\"1\"}","trial_type":"survey-likert","trial_index":109,"time_elapsed":2403411,"internal_node_id":"0.0-7.0-4.0"},{"rt":257303,"responses":"{\"Q0\":\"The biggest similarity that I noticed was that both experiments followed rules and patterns. A gray room going through a white door leads to a yellow room. A certain pattern with acid put on it will always turn into a certain pattern.\"}","trial_type":"survey-text","trial_index":110,"time_elapsed":2661717,"internal_node_id":"0.0-7.0-5.0"},{"rt":18515,"responses":"{\"Q0\":\"No\"}","trial_type":"survey-multi-choice","trial_index":111,"time_elapsed":2681235,"internal_node_id":"0.0-7.0-6.0"},{"rt":21922,"responses":"{\"Q0\":\"During these questions/I wasn't aware until you pointed it out\"}","trial_type":"survey-multi-choice","trial_index":112,"time_elapsed":2704162,"internal_node_id":"0.0-7.0-7.0"},{"rt":6245,"responses":"{\"Q0\":\"\"}","trial_type":"survey-text","trial_index":113,"time_elapsed":2711410,"internal_node_id":"0.0-7.0-8.0"},{"rt":18126,"responses":"{\"Q0\":\"0\"}","trial_type":"survey-likert","trial_index":114,"time_elapsed":2730537,"internal_node_id":"0.0-7.0-9.0"},{"rt":17963,"responses":"{\"Q0\":\"Different structure\"}","trial_type":"survey-multi-choice","trial_index":115,"time_elapsed":2749504,"internal_node_id":"0.0-7.0-10.0"},{"rt":109171,"responses":"{\"Q0\":\"left (black) door = acid, right (white) door = ray\",\"Q1\":\"Not at all confident\"}","trial_type":"survey-multi-choice","trial_index":116,"time_elapsed":2859682,"internal_node_id":"0.0-7.0-11.0"},{"rt":21826,"responses":"{\"Q0\":\"25-35\",\"Q1\":\"Bachelor's degree\",\"Q2\":\"Male\",\"Q3\":\"White\"}","trial_type":"survey-multi-choice","trial_index":117,"time_elapsed":2882517,"internal_node_id":"0.0-8.0"},{"rt":117399,"responses":"{\"Q0\":\"This has been an interesting series, I felt a little bit like a mouse in a maze, bumping into walls and figuring out relationships. I hope you got good data and best of luck with your research!\"}","trial_type":"survey-text","trial_index":118,"time_elapsed":3000917,"internal_node_id":"0.0-9.0"}]