[{"view_history":"[{\"page_index\":0,\"viewing_time\":2488},{\"page_index\":1,\"viewing_time\":695482}]","rt":697970,"trial_type":"instructions","trial_index":0,"time_elapsed":697971,"internal_node_id":"0.0-0.0"},{"view_history":"[{\"page_index\":0,\"viewing_time\":7378},{\"page_index\":1,\"viewing_time\":47958}]","rt":55337,"trial_type":"instructions","trial_index":1,"time_elapsed":754311,"internal_node_id":"0.0-1.0"},{"group":"hexagon_tri","room_assignment":["blue","yellow","grey","green","purple","red"],"door_color_assignment":["black","white"],"door_generator_assignment":[1,0],"goal":2,"start":1,"action_noise":0.15,"location_history":"[1,3,2]","action_history":"[0,0]","door_history":"[1,1]","location_rts":"[1090,8413]","trial_type":"two-door-navigation","trial_index":2,"time_elapsed":769412,"internal_node_id":"0.0-2.0-0.0"},{"group":"hexagon_tri","room_assignment":["blue","yellow","grey","green","purple","red"],"door_color_assignment":["black","white"],"door_generator_assignment":[1,0],"goal":0,"start":2,"action_noise":0.15,"location_history":"[2,3,2,1,3,4,0]","action_history":"[1,0,0,0,1,0]","door_history":"[0,1,1,1,0,1]","location_rts":"[4907,162,59,1931,117,726]","trial_type":"two-door-navigation","trial_index":3,"time_elapsed":787073,"internal_node_id":"0.0-2.0-1.0"},{"group":"hexagon_tri","room_assignment":["blue","yellow","grey","green","purple","red"],"door_color_assignment":["black","white"],"door_generator_assignment":[1,0],"goal":5,"start":0,"action_noise":0.15,"location_history":"[0,5]","action_history":"[0]","door_history":"[1]","location_rts":"[3167]","trial_type":"two-door-navigation","trial_index":4,"time_elapsed":794798,"internal_node_id":"0.0-2.0-2.0"},{"group":"hexagon_tri","room_assignment":["blue","yellow","grey","green","purple","red"],"door_color_assignment":["black","white"],"door_generator_assignment":[1,0],"goal":1,"start":5,"action_noise":0.15,"location_history":"[5,0,5,4,0,1]","action_history":"[1,0,0,0,1]","door_history":"[0,1,1,1,0]","location_rts":"[3734,538,815,836,8837]","trial_type":"two-door-navigation","trial_index":5,"time_elapsed":818351,"internal_node_id":"0.0-2.0-3.0"},{"group":"hexagon_tri","room_assignment":["blue","yellow","grey","green","purple","red"],"door_color_assignment":["black","white"],"door_generator_assignment":[1,0],"goal":3,"start":1,"action_noise":0.15,"location_history":"[1,5,0,1,3]","action_history":"[1,1,0,0]","door_history":"[0,0,1,1]","location_rts":"[2300,982,821,113]","trial_type":"two-door-navigation","trial_index":6,"time_elapsed":830276,"internal_node_id":"0.0-2.0-4.0"},{"group":"hexagon_tri","room_assignment":["blue","yellow","grey","green","purple","red"],"door_color_assignment":["black","white"],"door_generator_assignment":[1,0],"goal":5,"start":3,"action_noise":0.15,"location_history":"[3,2,3,4,0,5]","action_history":"[0,1,1,0,0]","door_history":"[1,0,0,1,1]","location_rts":"[6405,2241,48,220,950]","trial_type":"two-door-navigation","trial_index":7,"time_elapsed":848952,"internal_node_id":"0.0-2.0-5.0"},{"group":"hexagon_tri","room_assignment":["blue","yellow","grey","green","purple","red"],"door_color_assignment":["black","white"],"door_generator_assignment":[1,0],"goal":4,"start":5,"action_noise":0.15,"location_history":"[5,0,1,3,2,3,2,1,3,4]","action_history":"[1,1,0,0,1,0,0,1,1]","door_history":"[0,0,1,1,0,1,1,0,0]","location_rts":"[1250,81,37,2,713,427,50,235,266]","trial_type":"two-door-navigation","trial_index":8,"time_elapsed":865055,"internal_node_id":"0.0-2.0-6.0"},{"group":"hexagon_tri","room_assignment":["blue","yellow","grey","green","purple","red"],"door_color_assignment":["black","white"],"door_generator_assignment":[1,0],"goal":0,"start":4,"action_noise":0.15,"location_history":"[4,2,1,3,2,3,4,0]","action_history":"[1,0,1,0,1,1,0]","door_history":"[0,1,0,1,0,0,1]","location_rts":"[6838,1013,1025,508,333,310,286]","trial_type":"two-door-navigation","trial_index":9,"time_elapsed":886291,"internal_node_id":"0.0-2.0-7.0"},{"group":"hexagon_tri","room_assignment":["blue","yellow","grey","green","purple","red"],"door_color_assignment":["black","white"],"door_generator_assignment":[1,0],"goal":2,"start":0,"action_noise":0.15,"location_history":"[0,1,3,2]","action_history":"[1,0,0]","door_history":"[0,1,1]","location_rts":"[11694,1165,314]","trial_type":"two-door-navigation","trial_index":10,"time_elapsed":906114,"internal_node_id":"0.0-2.0-8.0"},{"group":"hexagon_tri","room_assignment":["blue","yellow","grey","green","purple","red"],"door_color_assignment":["black","white"],"door_generator_assignment":[1,0],"goal":4,"start":2,"action_noise":0.15,"location_history":"[2,3,2,1,5,0,5,4]","action_history":"[1,1,0,1,1,0,0]","door_history":"[0,0,1,0,0,1,1]","location_rts":"[10418,114,347,214,381,566,971]","trial_type":"two-door-navigation","trial_index":11,"time_elapsed":930038,"internal_node_id":"0.0-2.0-9.0"},{"group":"hexagon_tri","room_assignment":["blue","yellow","grey","green","purple","red"],"door_color_assignment":["black","white"],"door_generator_assignment":[1,0],"goal":2,"start":4,"action_noise":0.15,"location_history":"[4,2]","action_history":"[1]","door_history":"[0]","location_rts":"[5038]","trial_type":"two-door-navigation","trial_index":12,"time_elapsed":939630,"internal_node_id":"0.0-2.0-10.0"},{"group":"hexagon_tri","room_assignment":["blue","yellow","grey","green","purple","red"],"door_color_assignment":["black","white"],"door_generator_assignment":[1,0],"goal":3,"start":2,"action_noise":0.15,"location_history":"[2,3]","action_history":"[1]","door_history":"[0]","location_rts":"[2047]","trial_type":"two-door-navigation","trial_index":13,"time_elapsed":946253,"internal_node_id":"0.0-2.0-11.0"},{"group":"hexagon_tri","room_assignment":["blue","yellow","grey","green","purple","red"],"door_color_assignment":["black","white"],"door_generator_assignment":[1,0],"goal":0,"start":3,"action_noise":0.15,"location_history":"[3,4,0]","action_history":"[1,0]","door_history":"[0,1]","location_rts":"[3931,728]","trial_type":"two-door-navigation","trial_index":14,"time_elapsed":956525,"internal_node_id":"0.0-2.0-12.0"},{"group":"hexagon_tri","room_assignment":["blue","yellow","grey","green","purple","red"],"door_color_assignment":["black","white"],"door_generator_assignment":[1,0],"goal":5,"start":0,"action_noise":0.15,"location_history":"[0,5]","action_history":"[0]","door_history":"[1]","location_rts":"[4391]","trial_type":"two-door-navigation","trial_index":15,"time_elapsed":965487,"internal_node_id":"0.0-2.0-13.0"},{"group":"hexagon_tri","room_assignment":["blue","yellow","grey","green","purple","red"],"door_color_assignment":["black","white"],"door_generator_assignment":[1,0],"goal":1,"start":5,"action_noise":0.15,"location_history":"[5,4,0,1]","action_history":"[1,0,1]","door_history":"[0,1,0]","location_rts":"[838,266,276]","trial_type":"two-door-navigation","trial_index":16,"time_elapsed":973536,"internal_node_id":"0.0-2.0-14.0"},{"group":"hexagon_tri","room_assignment":["blue","yellow","grey","green","purple","red"],"door_color_assignment":["black","white"],"door_generator_assignment":[1,0],"goal":5,"start":1,"action_noise":0.15,"location_history":"[1,5]","action_history":"[1]","door_history":"[0]","location_rts":"[7506]","trial_type":"two-door-navigation","trial_index":17,"time_elapsed":985573,"internal_node_id":"0.0-2.0-15.0"},{"group":"hexagon_tri","room_assignment":["blue","yellow","grey","green","purple","red"],"door_color_assignment":["black","white"],"door_generator_assignment":[1,0],"goal":3,"start":5,"action_noise":0.15,"location_history":"[5,0,5,0,1,3]","action_history":"[1,0,1,1,0]","door_history":"[0,1,0,0,1]","location_rts":"[4389,998,599,943,846]","trial_type":"two-door-navigation","trial_index":18,"time_elapsed":1002170,"internal_node_id":"0.0-2.0-16.0"},{"group":"hexagon_tri","room_assignment":["blue","yellow","grey","green","purple","red"],"door_color_assignment":["black","white"],"door_generator_assignment":[1,0],"goal":2,"start":3,"action_noise":0.15,"location_history":"[3,4,2]","action_history":"[0,0]","door_history":"[1,1]","location_rts":"[8221,348]","trial_type":"two-door-navigation","trial_index":19,"time_elapsed":1016321,"internal_node_id":"0.0-2.0-17.0"},{"group":"hexagon_tri","room_assignment":["blue","yellow","grey","green","purple","red"],"door_color_assignment":["black","white"],"door_generator_assignment":[1,0],"goal":1,"start":2,"action_noise":0.15,"location_history":"[2,3,2,1]","action_history":"[1,0,0]","door_history":"[0,1,1]","location_rts":"[3218,275,267]","trial_type":"two-door-navigation","trial_index":20,"time_elapsed":1026755,"internal_node_id":"0.0-2.0-18.0"},{"group":"hexagon_tri","room_assignment":["blue","yellow","grey","green","purple","red"],"door_color_assignment":["black","white"],"door_generator_assignment":[1,0],"goal":4,"start":1,"action_noise":0.15,"location_history":"[1,3,2,3,4]","action_history":"[0,1,1,1]","door_history":"[1,0,0,0]","location_rts":"[1693,89,417,635]","trial_type":"two-door-navigation","trial_index":21,"time_elapsed":1037274,"internal_node_id":"0.0-2.0-19.0"},{"group":"hexagon_tri","room_assignment":["blue","yellow","grey","green","purple","red"],"door_color_assignment":["black","white"],"door_generator_assignment":[1,0],"goal":0,"start":4,"action_noise":0.15,"location_history":"[4,0]","action_history":"[0]","door_history":"[1]","location_rts":"[3515]","trial_type":"two-door-navigation","trial_index":22,"time_elapsed":1045351,"internal_node_id":"0.0-2.0-20.0"},{"group":"hexagon_tri","room_assignment":["blue","yellow","grey","green","purple","red"],"door_color_assignment":["black","white"],"door_generator_assignment":[1,0],"goal":3,"start":0,"action_noise":0.15,"location_history":"[0,1,3]","action_history":"[1,0]","door_history":"[0,1]","location_rts":"[4889,645]","trial_type":"two-door-navigation","trial_index":23,"time_elapsed":1056512,"internal_node_id":"0.0-2.0-21.0"},{"group":"hexagon_tri","room_assignment":["blue","yellow","grey","green","purple","red"],"door_color_assignment":["black","white"],"door_generator_assignment":[1,0],"goal":1,"start":3,"action_noise":0.15,"location_history":"[3,2,1]","action_history":"[0,0]","door_history":"[1,1]","location_rts":"[3481,306]","trial_type":"two-door-navigation","trial_index":24,"time_elapsed":1065917,"internal_node_id":"0.0-2.0-22.0"},{"group":"hexagon_tri","room_assignment":["blue","yellow","grey","green","purple","red"],"door_color_assignment":["black","white"],"door_generator_assignment":[1,0],"goal":0,"start":1,"action_noise":0.15,"location_history":"[1,5,4,0]","action_history":"[1,0,0]","door_history":"[0,1,1]","location_rts":"[16531,866,501]","trial_type":"two-door-navigation","trial_index":25,"time_elapsed":1090515,"internal_node_id":"0.0-2.0-23.0"},{"group":"hexagon_tri","room_assignment":["blue","yellow","grey","green","purple","red"],"door_color_assignment":["black","white"],"door_generator_assignment":[1,0],"goal":2,"start":0,"action_noise":0.15,"location_history":"[0,1,3,2]","action_history":"[1,0,0]","door_history":"[0,1,1]","location_rts":"[2722,1328,433]","trial_type":"two-door-navigation","trial_index":26,"time_elapsed":1101716,"internal_node_id":"0.0-2.0-24.0"},{"group":"hexagon_tri","room_assignment":["blue","yellow","grey","green","purple","red"],"door_color_assignment":["black","white"],"door_generator_assignment":[1,0],"goal":4,"start":2,"action_noise":0.15,"location_history":"[2,3,4]","action_history":"[1,1]","door_history":"[0,0]","location_rts":"[11175,739]","trial_type":"two-door-navigation","trial_index":27,"time_elapsed":1119286,"internal_node_id":"0.0-2.0-25.0"},{"group":"hexagon_tri","room_assignment":["blue","yellow","grey","green","purple","red"],"door_color_assignment":["black","white"],"door_generator_assignment":[1,0],"goal":5,"start":4,"action_noise":0.15,"location_history":"[4,0,1,5]","action_history":"[0,0,0]","door_history":"[1,1,1]","location_rts":"[40801,305,415]","trial_type":"two-door-navigation","trial_index":28,"time_elapsed":1167473,"internal_node_id":"0.0-2.0-26.0"},{"group":"hexagon_tri","room_assignment":["blue","yellow","grey","green","purple","red"],"door_color_assignment":["black","white"],"door_generator_assignment":[1,0],"goal":2,"start":5,"action_noise":0.15,"location_history":"[5,0,5,0,5,0,1,3,2]","action_history":"[1,1,1,0,1,1,0,0]","door_history":"[0,0,0,1,0,0,1,1]","location_rts":"[5494,6014,1235,818,699,795,424,297]","trial_type":"two-door-navigation","trial_index":29,"time_elapsed":1195232,"internal_node_id":"0.0-2.0-27.0"},{"group":"hexagon_tri","room_assignment":["blue","yellow","grey","green","purple","red"],"door_color_assignment":["black","white"],"door_generator_assignment":[1,0],"goal":3,"start":2,"action_noise":0.15,"location_history":"[2,1,3]","action_history":"[0,0]","door_history":"[1,1]","location_rts":"[18831,173]","trial_type":"two-door-navigation","trial_index":30,"time_elapsed":1219876,"internal_node_id":"0.0-2.0-28.0"},{"group":"hexagon_tri","room_assignment":["blue","yellow","grey","green","purple","red"],"door_color_assignment":["black","white"],"door_generator_assignment":[1,0],"goal":1,"start":3,"action_noise":0.15,"location_history":"[3,2,3,2,3,2,1]","action_history":"[0,0,0,1,0,0]","door_history":"[1,1,1,0,1,1]","location_rts":"[1467,360,767,274,226,124]","trial_type":"two-door-navigation","trial_index":31,"time_elapsed":1232929,"internal_node_id":"0.0-2.0-29.0"},{"group":"hexagon_tri","room_assignment":["blue","yellow","grey","green","purple","red"],"door_color_assignment":["black","white"],"door_generator_assignment":[1,0],"goal":4,"start":1,"action_noise":0.15,"location_history":"[1,5,4]","action_history":"[1,1]","door_history":"[0,0]","location_rts":"[3715,339]","trial_type":"two-door-navigation","trial_index":32,"time_elapsed":1242562,"internal_node_id":"0.0-2.0-30.0"},{"group":"hexagon_tri","room_assignment":["blue","yellow","grey","green","purple","red"],"door_color_assignment":["black","white"],"door_generator_assignment":[1,0],"goal":5,"start":4,"action_noise":0.15,"location_history":"[4,0,5]","action_history":"[0,0]","door_history":"[1,1]","location_rts":"[2361,246]","trial_type":"two-door-navigation","trial_index":33,"time_elapsed":1250825,"internal_node_id":"0.0-2.0-31.0"},{"group":"hexagon_tri","room_assignment":["blue","yellow","grey","green","purple","red"],"door_color_assignment":["black","white"],"door_generator_assignment":[1,0],"goal":0,"start":5,"action_noise":0.15,"location_history":"[5,4,0]","action_history":"[1,0]","door_history":"[0,1]","location_rts":"[3333,528]","trial_type":"two-door-navigation","trial_index":34,"time_elapsed":1260316,"internal_node_id":"0.0-2.0-32.0"},{"group":"hexagon_tri","room_assignment":["blue","yellow","grey","green","purple","red"],"door_color_assignment":["black","white"],"door_generator_assignment":[1,0],"goal":2,"start":0,"action_noise":0.15,"location_history":"[0,5,0,1,3,4,0,5,0,1,5,4,0,1,3,2]","action_history":"[0,1,1,0,0,0,0,1,1,0,0,0,1,0,0]","door_history":"[1,0,0,1,1,1,1,0,0,1,1,1,0,1,1]","location_rts":"[1380,301,287,286,319,316,420,47,379,330,284,310,787,3204,334]","trial_type":"two-door-navigation","trial_index":35,"time_elapsed":1288791,"internal_node_id":"0.0-2.0-33.0"},{"group":"hexagon_tri","room_assignment":["blue","yellow","grey","green","purple","red"],"door_color_assignment":["black","white"],"door_generator_assignment":[1,0],"goal":0,"start":2,"action_noise":0.15,"location_history":"[2,1,5,0]","action_history":"[1,1,1]","door_history":"[0,0,0]","location_rts":"[5004,1678,344]","trial_type":"two-door-navigation","trial_index":36,"time_elapsed":1302523,"internal_node_id":"0.0-2.0-34.0"},{"group":"hexagon_tri","room_assignment":["blue","yellow","grey","green","purple","red"],"door_color_assignment":["black","white"],"door_generator_assignment":[1,0],"goal":5,"start":0,"action_noise":0.15,"location_history":"[0,5]","action_history":"[0]","door_history":"[1]","location_rts":"[1171]","trial_type":"two-door-navigation","trial_index":37,"time_elapsed":1308272,"internal_node_id":"0.0-2.0-35.0"},{"group":"hexagon_tri","room_assignment":["blue","yellow","grey","green","purple","red"],"door_color_assignment":["black","white"],"door_generator_assignment":[1,0],"goal":1,"start":5,"action_noise":0.15,"location_history":"[5,0,5,4,0,1]","action_history":"[1,1,0,0,1]","door_history":"[0,0,1,1,0]","location_rts":"[1597,387,344,309,328]","trial_type":"two-door-navigation","trial_index":38,"time_elapsed":1319973,"internal_node_id":"0.0-2.0-36.0"},{"group":"hexagon_tri","room_assignment":["blue","yellow","grey","green","purple","red"],"door_color_assignment":["black","white"],"door_generator_assignment":[1,0],"goal":4,"start":1,"action_noise":0.15,"location_history":"[1,3,4]","action_history":"[1,1]","door_history":"[0,0]","location_rts":"[2420,871]","trial_type":"two-door-navigation","trial_index":39,"time_elapsed":1328864,"internal_node_id":"0.0-2.0-37.0"},{"group":"hexagon_tri","room_assignment":["blue","yellow","grey","green","purple","red"],"door_color_assignment":["black","white"],"door_generator_assignment":[1,0],"goal":3,"start":4,"action_noise":0.15,"location_history":"[4,2,1,5,4,0,5,0,5,0,1,5,0,5,0,1,3]","action_history":"[1,0,0,0,1,0,0,0,1,1,1,1,1,1,1,0]","door_history":"[0,1,1,1,0,1,1,1,0,0,0,0,0,0,0,1]","location_rts":"[2143,724,292,413,334,263,148,146,54,512,590,378,32,426,958,498]","trial_type":"two-door-navigation","trial_index":40,"time_elapsed":1357192,"internal_node_id":"0.0-2.0-38.0"},{"group":"hexagon_tri","room_assignment":["blue","yellow","grey","green","purple","red"],"door_color_assignment":["black","white"],"door_generator_assignment":[1,0],"goal":5,"start":3,"action_noise":0.15,"location_history":"[3,2,3,4,2,3,2,1,5]","action_history":"[0,0,1,1,1,1,0,1]","door_history":"[1,1,0,0,0,0,1,0]","location_rts":"[872,386,192,414,793,612,190,85]","trial_type":"two-door-navigation","trial_index":41,"time_elapsed":1372748,"internal_node_id":"0.0-2.0-39.0"},{"group":"hexagon_tri","room_assignment":["blue","yellow","grey","green","purple","red"],"door_color_assignment":["black","white"],"door_generator_assignment":[1,0],"goal":1,"start":5,"action_noise":0.15,"location_history":"[5,0,5,4,2,3,2,1]","action_history":"[1,1,0,1,0,0,0]","door_history":"[0,0,1,0,1,1,1]","location_rts":"[1329,405,550,347,417,348,449]","trial_type":"two-door-navigation","trial_index":42,"time_elapsed":1387423,"internal_node_id":"0.0-2.0-40.0"},{"group":"hexagon_tri","room_assignment":["blue","yellow","grey","green","purple","red"],"door_color_assignment":["black","white"],"door_generator_assignment":[1,0],"goal":2,"start":1,"action_noise":0.15,"location_history":"[1,5,4,0,5,4,2]","action_history":"[1,0,0,0,0,1]","door_history":"[0,1,1,1,1,0]","location_rts":"[780,403,15,302,295,10]","trial_type":"two-door-navigation","trial_index":43,"time_elapsed":1399060,"internal_node_id":"0.0-2.0-41.0"},{"group":"hexagon_tri","room_assignment":["blue","yellow","grey","green","purple","red"],"door_color_assignment":["black","white"],"door_generator_assignment":[1,0],"goal":4,"start":2,"action_noise":0.15,"location_history":"[2,1,5,0,1,3,2,1,5,0,1,3,4]","action_history":"[0,1,0,0,0,0,0,0,1,0,0,1]","door_history":"[1,0,1,1,1,1,1,1,0,1,1,0]","location_rts":"[967,129,349,325,330,977,480,398,276,254,347,774]","trial_type":"two-door-navigation","trial_index":44,"time_elapsed":1420812,"internal_node_id":"0.0-2.0-42.0"},{"group":"hexagon_tri","room_assignment":["blue","yellow","grey","green","purple","red"],"door_color_assignment":["black","white"],"door_generator_assignment":[1,0],"goal":0,"start":4,"action_noise":0.15,"location_history":"[4,0]","action_history":"[0]","door_history":"[1]","location_rts":"[862]","trial_type":"two-door-navigation","trial_index":45,"time_elapsed":1426250,"internal_node_id":"0.0-2.0-43.0"},{"group":"hexagon_tri","room_assignment":["blue","yellow","grey","green","purple","red"],"door_color_assignment":["black","white"],"door_generator_assignment":[1,0],"goal":3,"start":0,"action_noise":0.15,"location_history":"[0,1,3]","action_history":"[1,0]","door_history":"[0,1]","location_rts":"[1248,1312]","trial_type":"two-door-navigation","trial_index":46,"time_elapsed":1434457,"internal_node_id":"0.0-2.0-44.0"},{"group":"hexagon_tri","room_assignment":["blue","yellow","grey","green","purple","red"],"door_color_assignment":["black","white"],"door_generator_assignment":[1,0],"goal":0,"start":3,"action_noise":0.15,"location_history":"[3,4,0]","action_history":"[1,0]","door_history":"[0,1]","location_rts":"[1243,936]","trial_type":"two-door-navigation","trial_index":47,"time_elapsed":1442258,"internal_node_id":"0.0-2.0-45.0"},{"group":"hexagon_tri","room_assignment":["blue","yellow","grey","green","purple","red"],"door_color_assignment":["black","white"],"door_generator_assignment":[1,0],"goal":4,"start":0,"action_noise":0.15,"location_history":"[0,5,4]","action_history":"[1,0]","door_history":"[0,1]","location_rts":"[1330,439]","trial_type":"two-door-navigation","trial_index":48,"time_elapsed":1449663,"internal_node_id":"0.0-2.0-46.0"},{"group":"hexagon_tri","room_assignment":["blue","yellow","grey","green","purple","red"],"door_color_assignment":["black","white"],"door_generator_assignment":[1,0],"goal":5,"start":4,"action_noise":0.15,"location_history":"[4,0,5]","action_history":"[0,0]","door_history":"[1,1]","location_rts":"[4949,332]","trial_type":"two-door-navigation","trial_index":49,"time_elapsed":1460580,"internal_node_id":"0.0-2.0-47.0"},{"group":"hexagon_tri","room_assignment":["blue","yellow","grey","green","purple","red"],"door_color_assignment":["black","white"],"door_generator_assignment":[1,0],"goal":2,"start":5,"action_noise":0.15,"location_history":"[5,0,5,4,2]","action_history":"[1,0,0,1]","door_history":"[0,1,1,0]","location_rts":"[1277,1059,369,539]","trial_type":"two-door-navigation","trial_index":50,"time_elapsed":1471608,"internal_node_id":"0.0-2.0-48.0"},{"group":"hexagon_tri","room_assignment":["blue","yellow","grey","green","purple","red"],"door_color_assignment":["black","white"],"door_generator_assignment":[1,0],"goal":1,"start":2,"action_noise":0.15,"location_history":"[2,3,2,1]","action_history":"[0,0,0]","door_history":"[1,1,1]","location_rts":"[1444,337,284]","trial_type":"two-door-navigation","trial_index":51,"time_elapsed":1480301,"internal_node_id":"0.0-2.0-49.0"},{"view_history":"[{\"page_index\":0,\"viewing_time\":1739}]","rt":1740,"trial_type":"instructions","trial_index":52,"time_elapsed":1483045,"internal_node_id":"0.0-3.0"},{"view_history":"[{\"page_index\":0,\"viewing_time\":5535},{\"page_index\":1,\"viewing_time\":17674}]","rt":23209,"trial_type":"instructions","trial_index":53,"time_elapsed":1507254,"internal_node_id":"0.0-4.0"},{"group":"hexagon_tri","fractal_assignment":["../images/org_blu.png","../images/blu_wht.png","../images/pnk_blu.png","../images/cyn_red.png","../images/gry_blk.png","../images/ylw_slt.png"],"mutagen_generator_assignment":[0,1],"goal":2,"start":1,"action_noise":0.15,"location_history":"[1,3,4,0,5,4,2]","action_history":"[0,1,0,0,0,1]","mutagen_history":"[0,1,0,0,0,1]","location_rts":"[2716,5313,660,245,313,423]","trial_type":"fractal-mutation","trial_index":54,"time_elapsed":1526888,"internal_node_id":"0.0-5.0-0.0"},{"group":"hexagon_tri","fractal_assignment":["../images/org_blu.png","../images/blu_wht.png","../images/pnk_blu.png","../images/cyn_red.png","../images/gry_blk.png","../images/ylw_slt.png"],"mutagen_generator_assignment":[0,1],"goal":0,"start":2,"action_noise":0.15,"location_history":"[2,3,2,3,2,3,2,1,3,2,3,4,0]","action_history":"[1,1,1,0,1,1,0,0,0,1,1,0]","mutagen_history":"[1,1,1,0,1,1,0,0,0,1,1,0]","location_rts":"[532,387,354,289,334,336,251,308,465,358,208,245]","trial_type":"fractal-mutation","trial_index":55,"time_elapsed":1547409,"internal_node_id":"0.0-5.0-1.0"},{"group":"hexagon_tri","fractal_assignment":["../images/org_blu.png","../images/blu_wht.png","../images/pnk_blu.png","../images/cyn_red.png","../images/gry_blk.png","../images/ylw_slt.png"],"mutagen_generator_assignment":[0,1],"goal":5,"start":0,"action_noise":0.15,"location_history":"[0,1,5]","action_history":"[1,1]","mutagen_history":"[1,1]","location_rts":"[544,379]","trial_type":"fractal-mutation","trial_index":56,"time_elapsed":1553991,"internal_node_id":"0.0-5.0-2.0"},{"group":"hexagon_tri","fractal_assignment":["../images/org_blu.png","../images/blu_wht.png","../images/pnk_blu.png","../images/cyn_red.png","../images/gry_blk.png","../images/ylw_slt.png"],"mutagen_generator_assignment":[0,1],"goal":1,"start":5,"action_noise":0.15,"location_history":"[5,0,5,0,5,4,0,1]","action_history":"[1,1,1,0,0,0,1]","mutagen_history":"[1,1,1,0,0,0,1]","location_rts":"[941,395,653,293,310,356,188]","trial_type":"fractal-mutation","trial_index":57,"time_elapsed":1568176,"internal_node_id":"0.0-5.0-3.0"},{"group":"hexagon_tri","fractal_assignment":["../images/org_blu.png","../images/blu_wht.png","../images/pnk_blu.png","../images/cyn_red.png","../images/gry_blk.png","../images/ylw_slt.png"],"mutagen_generator_assignment":[0,1],"goal":3,"start":1,"action_noise":0.15,"location_history":"[1,3]","action_history":"[0]","mutagen_history":"[0]","location_rts":"[9844]","trial_type":"fractal-mutation","trial_index":58,"time_elapsed":1582603,"internal_node_id":"0.0-5.0-4.0"},{"group":"hexagon_tri","fractal_assignment":["../images/org_blu.png","../images/blu_wht.png","../images/pnk_blu.png","../images/cyn_red.png","../images/gry_blk.png","../images/ylw_slt.png"],"mutagen_generator_assignment":[0,1],"goal":5,"start":3,"action_noise":0.15,"location_history":"[3,4,0,1,3,4,2,1,3,2,3,2,1,5]","action_history":"[1,0,0,0,1,1,0,0,0,0,0,0,1]","mutagen_history":"[1,0,0,0,1,1,0,0,0,0,0,0,1]","location_rts":"[905,574,1933,3065,246,115,183,162,57,105,218,45,2163]","trial_type":"fractal-mutation","trial_index":59,"time_elapsed":1609777,"internal_node_id":"0.0-5.0-5.0"},{"group":"hexagon_tri","fractal_assignment":["../images/org_blu.png","../images/blu_wht.png","../images/pnk_blu.png","../images/cyn_red.png","../images/gry_blk.png","../images/ylw_slt.png"],"mutagen_generator_assignment":[0,1],"goal":4,"start":5,"action_noise":0.15,"location_history":"[5,4]","action_history":"[1]","mutagen_history":"[1]","location_rts":"[3380]","trial_type":"fractal-mutation","trial_index":60,"time_elapsed":1617746,"internal_node_id":"0.0-5.0-6.0"},{"group":"hexagon_tri","fractal_assignment":["../images/org_blu.png","../images/blu_wht.png","../images/pnk_blu.png","../images/cyn_red.png","../images/gry_blk.png","../images/ylw_slt.png"],"mutagen_generator_assignment":[0,1],"goal":0,"start":4,"action_noise":0.15,"location_history":"[4,2,1,5,0]","action_history":"[1,0,1,1]","mutagen_history":"[1,0,1,1]","location_rts":"[436,360,170,323]","trial_type":"fractal-mutation","trial_index":61,"time_elapsed":1626851,"internal_node_id":"0.0-5.0-7.0"},{"group":"hexagon_tri","fractal_assignment":["../images/org_blu.png","../images/blu_wht.png","../images/pnk_blu.png","../images/cyn_red.png","../images/gry_blk.png","../images/ylw_slt.png"],"mutagen_generator_assignment":[0,1],"goal":2,"start":0,"action_noise":0.15,"location_history":"[0,1,3,4,0,1,3,2]","action_history":"[1,0,1,1,1,0,0]","mutagen_history":"[1,0,1,1,1,0,0]","location_rts":"[6492,320,37,148,108,253,174]","trial_type":"fractal-mutation","trial_index":62,"time_elapsed":1645418,"internal_node_id":"0.0-5.0-8.0"},{"group":"hexagon_tri","fractal_assignment":["../images/org_blu.png","../images/blu_wht.png","../images/pnk_blu.png","../images/cyn_red.png","../images/gry_blk.png","../images/ylw_slt.png"],"mutagen_generator_assignment":[0,1],"goal":4,"start":2,"action_noise":0.15,"location_history":"[2,1,3,2,3,2,3,2,3,4]","action_history":"[0,0,0,1,1,1,0,1,1]","mutagen_history":"[0,0,0,1,1,1,0,1,1]","location_rts":"[452,478,148,201,82,14,29,246,435]","trial_type":"fractal-mutation","trial_index":63,"time_elapsed":1660716,"internal_node_id":"0.0-5.0-9.0"},{"group":"hexagon_tri","fractal_assignment":["../images/org_blu.png","../images/blu_wht.png","../images/pnk_blu.png","../images/cyn_red.png","../images/gry_blk.png","../images/ylw_slt.png"],"mutagen_generator_assignment":[0,1],"goal":2,"start":4,"action_noise":0.15,"location_history":"[4,2]","action_history":"[1]","mutagen_history":"[1]","location_rts":"[980]","trial_type":"fractal-mutation","trial_index":64,"time_elapsed":1666287,"internal_node_id":"0.0-5.0-10.0"},{"group":"hexagon_tri","fractal_assignment":["../images/org_blu.png","../images/blu_wht.png","../images/pnk_blu.png","../images/cyn_red.png","../images/gry_blk.png","../images/ylw_slt.png"],"mutagen_generator_assignment":[0,1],"goal":3,"start":2,"action_noise":0.15,"location_history":"[2,3]","action_history":"[1]","mutagen_history":"[1]","location_rts":"[731]","trial_type":"fractal-mutation","trial_index":65,"time_elapsed":1671616,"internal_node_id":"0.0-5.0-11.0"},{"group":"hexagon_tri","fractal_assignment":["../images/org_blu.png","../images/blu_wht.png","../images/pnk_blu.png","../images/cyn_red.png","../images/gry_blk.png","../images/ylw_slt.png"],"mutagen_generator_assignment":[0,1],"goal":0,"start":3,"action_noise":0.15,"location_history":"[3,2,3,4,2,3,4,0]","action_history":"[0,1,1,1,1,1,0]","mutagen_history":"[0,1,1,1,1,1,0]","location_rts":"[1266,297,315,148,10,82,378]","trial_type":"fractal-mutation","trial_index":66,"time_elapsed":1685185,"internal_node_id":"0.0-5.0-12.0"},{"group":"hexagon_tri","fractal_assignment":["../images/org_blu.png","../images/blu_wht.png","../images/pnk_blu.png","../images/cyn_red.png","../images/gry_blk.png","../images/ylw_slt.png"],"mutagen_generator_assignment":[0,1],"goal":5,"start":0,"action_noise":0.15,"location_history":"[0,1,3,4,2,1,5]","action_history":"[1,0,1,1,0,1]","mutagen_history":"[1,0,1,1,0,1]","location_rts":"[647,285,422,299,293,98]","trial_type":"fractal-mutation","trial_index":67,"time_elapsed":1697193,"internal_node_id":"0.0-5.0-13.0"},{"group":"hexagon_tri","fractal_assignment":["../images/org_blu.png","../images/blu_wht.png","../images/pnk_blu.png","../images/cyn_red.png","../images/gry_blk.png","../images/ylw_slt.png"],"mutagen_generator_assignment":[0,1],"goal":1,"start":5,"action_noise":0.15,"location_history":"[5,0,5,0,1]","action_history":"[1,1,1,1]","mutagen_history":"[1,1,1,1]","location_rts":"[614,297,594,189]","trial_type":"fractal-mutation","trial_index":68,"time_elapsed":1706717,"internal_node_id":"0.0-5.0-14.0"},{"group":"hexagon_tri","fractal_assignment":["../images/org_blu.png","../images/blu_wht.png","../images/pnk_blu.png","../images/cyn_red.png","../images/gry_blk.png","../images/ylw_slt.png"],"mutagen_generator_assignment":[0,1],"goal":5,"start":1,"action_noise":0.15,"location_history":"[1,3,4,2,3,2,1,5]","action_history":"[1,0,1,1,1,0,1]","mutagen_history":"[1,0,1,1,1,0,1]","location_rts":"[990,299,68,288,125,72,243]","trial_type":"fractal-mutation","trial_index":69,"time_elapsed":1719873,"internal_node_id":"0.0-5.0-15.0"},{"group":"hexagon_tri","fractal_assignment":["../images/org_blu.png","../images/blu_wht.png","../images/pnk_blu.png","../images/cyn_red.png","../images/gry_blk.png","../images/ylw_slt.png"],"mutagen_generator_assignment":[0,1],"goal":3,"start":5,"action_noise":0.15,"location_history":"[5,0,1,3]","action_history":"[1,1,0]","mutagen_history":"[1,1,0]","location_rts":"[658,510,419]","trial_type":"fractal-mutation","trial_index":70,"time_elapsed":1728198,"internal_node_id":"0.0-5.0-16.0"},{"group":"hexagon_tri","fractal_assignment":["../images/org_blu.png","../images/blu_wht.png","../images/pnk_blu.png","../images/cyn_red.png","../images/gry_blk.png","../images/ylw_slt.png"],"mutagen_generator_assignment":[0,1],"goal":2,"start":3,"action_noise":0.15,"location_history":"[3,4,0,5,0,1,3,2]","action_history":"[1,0,0,1,1,0,1]","mutagen_history":"[1,0,0,1,1,0,1]","location_rts":"[497,98,69,164,283,95,142]","trial_type":"fractal-mutation","trial_index":71,"time_elapsed":1740558,"internal_node_id":"0.0-5.0-17.0"},{"group":"hexagon_tri","fractal_assignment":["../images/org_blu.png","../images/blu_wht.png","../images/pnk_blu.png","../images/cyn_red.png","../images/gry_blk.png","../images/ylw_slt.png"],"mutagen_generator_assignment":[0,1],"goal":1,"start":2,"action_noise":0.15,"location_history":"[2,1]","action_history":"[1]","mutagen_history":"[1]","location_rts":"[561]","trial_type":"fractal-mutation","trial_index":72,"time_elapsed":1745706,"internal_node_id":"0.0-5.0-18.0"},{"group":"hexagon_tri","fractal_assignment":["../images/org_blu.png","../images/blu_wht.png","../images/pnk_blu.png","../images/cyn_red.png","../images/gry_blk.png","../images/ylw_slt.png"],"mutagen_generator_assignment":[0,1],"goal":4,"start":1,"action_noise":0.15,"location_history":"[1,5,0,1,3,2,3,4]","action_history":"[1,1,0,0,0,1,1]","mutagen_history":"[1,1,0,0,0,1,1]","location_rts":"[401,290,8,113,327,282,219]","trial_type":"fractal-mutation","trial_index":73,"time_elapsed":1758382,"internal_node_id":"0.0-5.0-19.0"},{"group":"hexagon_tri","fractal_assignment":["../images/org_blu.png","../images/blu_wht.png","../images/pnk_blu.png","../images/cyn_red.png","../images/gry_blk.png","../images/ylw_slt.png"],"mutagen_generator_assignment":[0,1],"goal":0,"start":4,"action_noise":0.15,"location_history":"[4,2,3,4,2,3,2,1,5,0]","action_history":"[1,1,1,1,1,1,0,1,1]","mutagen_history":"[1,1,1,1,1,1,0,1,1]","location_rts":"[514,223,286,319,178,89,90,85,370]","trial_type":"fractal-mutation","trial_index":74,"time_elapsed":1773749,"internal_node_id":"0.0-5.0-20.0"},{"group":"hexagon_tri","fractal_assignment":["../images/org_blu.png","../images/blu_wht.png","../images/pnk_blu.png","../images/cyn_red.png","../images/gry_blk.png","../images/ylw_slt.png"],"mutagen_generator_assignment":[0,1],"goal":3,"start":0,"action_noise":0.15,"location_history":"[0,1,5,0,1,3]","action_history":"[1,0,1,1,0]","mutagen_history":"[1,0,1,1,0]","location_rts":"[782,399,832,379,431]","trial_type":"fractal-mutation","trial_index":75,"time_elapsed":1785473,"internal_node_id":"0.0-5.0-21.0"},{"group":"hexagon_tri","fractal_assignment":["../images/org_blu.png","../images/blu_wht.png","../images/pnk_blu.png","../images/cyn_red.png","../images/gry_blk.png","../images/ylw_slt.png"],"mutagen_generator_assignment":[0,1],"goal":1,"start":3,"action_noise":0.15,"location_history":"[3,4,2,3,4,0,1]","action_history":"[1,1,1,1,0,1]","mutagen_history":"[1,1,1,1,0,1]","location_rts":"[535,421,336,346,182,112]","trial_type":"fractal-mutation","trial_index":76,"time_elapsed":1797400,"internal_node_id":"0.0-5.0-22.0"},{"group":"hexagon_tri","fractal_assignment":["../images/org_blu.png","../images/blu_wht.png","../images/pnk_blu.png","../images/cyn_red.png","../images/gry_blk.png","../images/ylw_slt.png"],"mutagen_generator_assignment":[0,1],"goal":0,"start":1,"action_noise":0.15,"location_history":"[1,3,4,0]","action_history":"[1,1,0]","mutagen_history":"[1,1,0]","location_rts":"[569,378,285]","trial_type":"fractal-mutation","trial_index":77,"time_elapsed":1805381,"internal_node_id":"0.0-5.0-23.0"},{"group":"hexagon_tri","fractal_assignment":["../images/org_blu.png","../images/blu_wht.png","../images/pnk_blu.png","../images/cyn_red.png","../images/gry_blk.png","../images/ylw_slt.png"],"mutagen_generator_assignment":[0,1],"goal":2,"start":0,"action_noise":0.15,"location_history":"[0,1,5,4,0,5,0,1,5,4,0,1,5,4,0,5,4,2]","action_history":"[1,1,0,0,0,1,1,1,0,0,1,1,1,0,0,0,1]","mutagen_history":"[1,1,0,0,0,1,1,1,0,0,1,1,1,0,0,0,1]","location_rts":"[717,954,95,161,244,162,303,309,254,14,316,517,358,200,541,303,416]","trial_type":"fractal-mutation","trial_index":78,"time_elapsed":1833069,"internal_node_id":"0.0-5.0-24.0"},{"group":"hexagon_tri","fractal_assignment":["../images/org_blu.png","../images/blu_wht.png","../images/pnk_blu.png","../images/cyn_red.png","../images/gry_blk.png","../images/ylw_slt.png"],"mutagen_generator_assignment":[0,1],"goal":4,"start":2,"action_noise":0.15,"location_history":"[2,1,3,4]","action_history":"[0,1,1]","mutagen_history":"[0,1,1]","location_rts":"[449,191,295]","trial_type":"fractal-mutation","trial_index":79,"time_elapsed":1840744,"internal_node_id":"0.0-5.0-25.0"},{"group":"hexagon_tri","fractal_assignment":["../images/org_blu.png","../images/blu_wht.png","../images/pnk_blu.png","../images/cyn_red.png","../images/gry_blk.png","../images/ylw_slt.png"],"mutagen_generator_assignment":[0,1],"goal":5,"start":4,"action_noise":0.15,"location_history":"[4,2,1,5]","action_history":"[1,0,1]","mutagen_history":"[1,0,1]","location_rts":"[391,53,366]","trial_type":"fractal-mutation","trial_index":80,"time_elapsed":1848305,"internal_node_id":"0.0-5.0-26.0"},{"group":"hexagon_tri","fractal_assignment":["../images/org_blu.png","../images/blu_wht.png","../images/pnk_blu.png","../images/cyn_red.png","../images/gry_blk.png","../images/ylw_slt.png"],"mutagen_generator_assignment":[0,1],"goal":2,"start":5,"action_noise":0.15,"location_history":"[5,0,5,0,1,5,4,2]","action_history":"[1,0,0,1,1,0,1]","mutagen_history":"[1,0,0,1,1,0,1]","location_rts":"[553,378,478,249,500,366,245]","trial_type":"fractal-mutation","trial_index":81,"time_elapsed":1862152,"internal_node_id":"0.0-5.0-27.0"},{"group":"hexagon_tri","fractal_assignment":["../images/org_blu.png","../images/blu_wht.png","../images/pnk_blu.png","../images/cyn_red.png","../images/gry_blk.png","../images/ylw_slt.png"],"mutagen_generator_assignment":[0,1],"goal":3,"start":2,"action_noise":0.15,"location_history":"[2,3]","action_history":"[1]","mutagen_history":"[1]","location_rts":"[918]","trial_type":"fractal-mutation","trial_index":82,"time_elapsed":1867660,"internal_node_id":"0.0-5.0-28.0"},{"group":"hexagon_tri","fractal_assignment":["../images/org_blu.png","../images/blu_wht.png","../images/pnk_blu.png","../images/cyn_red.png","../images/gry_blk.png","../images/ylw_slt.png"],"mutagen_generator_assignment":[0,1],"goal":1,"start":3,"action_noise":0.15,"location_history":"[3,4,0,1]","action_history":"[1,0,1]","mutagen_history":"[1,0,1]","location_rts":"[597,478,77]","trial_type":"fractal-mutation","trial_index":83,"time_elapsed":1875565,"internal_node_id":"0.0-5.0-29.0"},{"group":"hexagon_tri","fractal_assignment":["../images/org_blu.png","../images/blu_wht.png","../images/pnk_blu.png","../images/cyn_red.png","../images/gry_blk.png","../images/ylw_slt.png"],"mutagen_generator_assignment":[0,1],"goal":4,"start":1,"action_noise":0.15,"location_history":"[1,5,0,5,0,5,4]","action_history":"[1,1,0,1,0,1]","mutagen_history":"[1,1,0,1,0,1]","location_rts":"[844,365,348,98,450,274]","trial_type":"fractal-mutation","trial_index":84,"time_elapsed":1887916,"internal_node_id":"0.0-5.0-30.0"},{"group":"hexagon_tri","fractal_assignment":["../images/org_blu.png","../images/blu_wht.png","../images/pnk_blu.png","../images/cyn_red.png","../images/gry_blk.png","../images/ylw_slt.png"],"mutagen_generator_assignment":[0,1],"goal":5,"start":4,"action_noise":0.15,"location_history":"[4,0,1,5]","action_history":"[0,0,1]","mutagen_history":"[0,0,1]","location_rts":"[1059,319,271]","trial_type":"fractal-mutation","trial_index":85,"time_elapsed":1896296,"internal_node_id":"0.0-5.0-31.0"},{"group":"hexagon_tri","fractal_assignment":["../images/org_blu.png","../images/blu_wht.png","../images/pnk_blu.png","../images/cyn_red.png","../images/gry_blk.png","../images/ylw_slt.png"],"mutagen_generator_assignment":[0,1],"goal":0,"start":5,"action_noise":0.15,"location_history":"[5,0]","action_history":"[1]","mutagen_history":"[1]","location_rts":"[1111]","trial_type":"fractal-mutation","trial_index":86,"time_elapsed":1901979,"internal_node_id":"0.0-5.0-32.0"},{"group":"hexagon_tri","fractal_assignment":["../images/org_blu.png","../images/blu_wht.png","../images/pnk_blu.png","../images/cyn_red.png","../images/gry_blk.png","../images/ylw_slt.png"],"mutagen_generator_assignment":[0,1],"goal":2,"start":0,"action_noise":0.15,"location_history":"[0,5,4,2]","action_history":"[0,0,1]","mutagen_history":"[0,0,1]","location_rts":"[844,247,280]","trial_type":"fractal-mutation","trial_index":87,"time_elapsed":1910098,"internal_node_id":"0.0-5.0-33.0"},{"group":"hexagon_tri","fractal_assignment":["../images/org_blu.png","../images/blu_wht.png","../images/pnk_blu.png","../images/cyn_red.png","../images/gry_blk.png","../images/ylw_slt.png"],"mutagen_generator_assignment":[0,1],"goal":0,"start":2,"action_noise":0.15,"location_history":"[2,1,3,2,3,2,3,2,1,3,4,2,3,2,3,4,0]","action_history":"[1,1,0,1,0,1,1,1,0,1,1,1,1,0,1,0]","mutagen_history":"[1,1,0,1,0,1,1,1,0,1,1,1,1,0,1,0]","location_rts":"[585,645,452,401,460,394,458,354,370,134,335,155,355,290,359,432]","trial_type":"fractal-mutation","trial_index":88,"time_elapsed":1937009,"internal_node_id":"0.0-5.0-34.0"},{"group":"hexagon_tri","fractal_assignment":["../images/org_blu.png","../images/blu_wht.png","../images/pnk_blu.png","../images/cyn_red.png","../images/gry_blk.png","../images/ylw_slt.png"],"mutagen_generator_assignment":[0,1],"goal":5,"start":0,"action_noise":0.15,"location_history":"[0,1,3,2,3,2,1,5]","action_history":"[1,0,0,1,0,0,1]","mutagen_history":"[1,0,0,1,0,0,1]","location_rts":"[589,344,290,228,427,109,288]","trial_type":"fractal-mutation","trial_index":89,"time_elapsed":1950318,"internal_node_id":"0.0-5.0-35.0"},{"group":"hexagon_tri","fractal_assignment":["../images/org_blu.png","../images/blu_wht.png","../images/pnk_blu.png","../images/cyn_red.png","../images/gry_blk.png","../images/ylw_slt.png"],"mutagen_generator_assignment":[0,1],"goal":1,"start":5,"action_noise":0.15,"location_history":"[5,0,1]","action_history":"[0,1]","mutagen_history":"[0,1]","location_rts":"[516,262]","trial_type":"fractal-mutation","trial_index":90,"time_elapsed":1956759,"internal_node_id":"0.0-5.0-36.0"},{"group":"hexagon_tri","fractal_assignment":["../images/org_blu.png","../images/blu_wht.png","../images/pnk_blu.png","../images/cyn_red.png","../images/gry_blk.png","../images/ylw_slt.png"],"mutagen_generator_assignment":[0,1],"goal":4,"start":1,"action_noise":0.15,"location_history":"[1,5,0,1,5,4]","action_history":"[1,1,0,1,0]","mutagen_history":"[1,1,0,1,0]","location_rts":"[498,365,144,76,311]","trial_type":"fractal-mutation","trial_index":91,"time_elapsed":1967066,"internal_node_id":"0.0-5.0-37.0"},{"group":"hexagon_tri","fractal_assignment":["../images/org_blu.png","../images/blu_wht.png","../images/pnk_blu.png","../images/cyn_red.png","../images/gry_blk.png","../images/ylw_slt.png"],"mutagen_generator_assignment":[0,1],"goal":3,"start":4,"action_noise":0.15,"location_history":"[4,2,3]","action_history":"[0,1]","mutagen_history":"[0,1]","location_rts":"[682,232]","trial_type":"fractal-mutation","trial_index":92,"time_elapsed":1973633,"internal_node_id":"0.0-5.0-38.0"},{"group":"hexagon_tri","fractal_assignment":["../images/org_blu.png","../images/blu_wht.png","../images/pnk_blu.png","../images/cyn_red.png","../images/gry_blk.png","../images/ylw_slt.png"],"mutagen_generator_assignment":[0,1],"goal":5,"start":3,"action_noise":0.15,"location_history":"[3,4,2,1,5]","action_history":"[1,0,0,1]","mutagen_history":"[1,0,0,1]","location_rts":"[590,237,269,267]","trial_type":"fractal-mutation","trial_index":93,"time_elapsed":1982801,"internal_node_id":"0.0-5.0-39.0"},{"group":"hexagon_tri","fractal_assignment":["../images/org_blu.png","../images/blu_wht.png","../images/pnk_blu.png","../images/cyn_red.png","../images/gry_blk.png","../images/ylw_slt.png"],"mutagen_generator_assignment":[0,1],"goal":1,"start":5,"action_noise":0.15,"location_history":"[5,0,1]","action_history":"[0,1]","mutagen_history":"[0,1]","location_rts":"[431,293]","trial_type":"fractal-mutation","trial_index":94,"time_elapsed":1989191,"internal_node_id":"0.0-5.0-40.0"},{"group":"hexagon_tri","fractal_assignment":["../images/org_blu.png","../images/blu_wht.png","../images/pnk_blu.png","../images/cyn_red.png","../images/gry_blk.png","../images/ylw_slt.png"],"mutagen_generator_assignment":[0,1],"goal":2,"start":1,"action_noise":0.15,"location_history":"[1,5,0,5,0,1,5,4,2]","action_history":"[1,1,0,0,1,1,0,1]","mutagen_history":"[1,1,0,0,1,1,0,1]","location_rts":"[567,476,290,363,313,462,300,162]","trial_type":"fractal-mutation","trial_index":95,"time_elapsed":2004263,"internal_node_id":"0.0-5.0-41.0"},{"group":"hexagon_tri","fractal_assignment":["../images/org_blu.png","../images/blu_wht.png","../images/pnk_blu.png","../images/cyn_red.png","../images/gry_blk.png","../images/ylw_slt.png"],"mutagen_generator_assignment":[0,1],"goal":4,"start":2,"action_noise":0.15,"location_history":"[2,3,2,3,4]","action_history":"[1,0,1,0]","mutagen_history":"[1,0,1,0]","location_rts":"[857,342,129,240]","trial_type":"fractal-mutation","trial_index":96,"time_elapsed":2013648,"internal_node_id":"0.0-5.0-42.0"},{"group":"hexagon_tri","fractal_assignment":["../images/org_blu.png","../images/blu_wht.png","../images/pnk_blu.png","../images/cyn_red.png","../images/gry_blk.png","../images/ylw_slt.png"],"mutagen_generator_assignment":[0,1],"goal":0,"start":4,"action_noise":0.15,"location_history":"[4,0]","action_history":"[0]","mutagen_history":"[0]","location_rts":"[3697]","trial_type":"fractal-mutation","trial_index":97,"time_elapsed":2021935,"internal_node_id":"0.0-5.0-43.0"},{"group":"hexagon_tri","fractal_assignment":["../images/org_blu.png","../images/blu_wht.png","../images/pnk_blu.png","../images/cyn_red.png","../images/gry_blk.png","../images/ylw_slt.png"],"mutagen_generator_assignment":[0,1],"goal":3,"start":0,"action_noise":0.15,"location_history":"[0,1,5,0,1,3]","action_history":"[1,1,1,1,0]","mutagen_history":"[1,1,1,1,0]","location_rts":"[1023,317,143,343,170]","trial_type":"fractal-mutation","trial_index":98,"time_elapsed":2032812,"internal_node_id":"0.0-5.0-44.0"},{"group":"hexagon_tri","fractal_assignment":["../images/org_blu.png","../images/blu_wht.png","../images/pnk_blu.png","../images/cyn_red.png","../images/gry_blk.png","../images/ylw_slt.png"],"mutagen_generator_assignment":[0,1],"goal":0,"start":3,"action_noise":0.15,"location_history":"[3,4,2,3,4,0]","action_history":"[1,0,1,1,0]","mutagen_history":"[1,0,1,1,0]","location_rts":"[584,393,625,443,148]","trial_type":"fractal-mutation","trial_index":99,"time_elapsed":2043874,"internal_node_id":"0.0-5.0-45.0"},{"group":"hexagon_tri","fractal_assignment":["../images/org_blu.png","../images/blu_wht.png","../images/pnk_blu.png","../images/cyn_red.png","../images/gry_blk.png","../images/ylw_slt.png"],"mutagen_generator_assignment":[0,1],"goal":4,"start":0,"action_noise":0.15,"location_history":"[0,1,3,4]","action_history":"[1,0,1]","mutagen_history":"[1,0,1]","location_rts":"[698,256,263]","trial_type":"fractal-mutation","trial_index":100,"time_elapsed":2051827,"internal_node_id":"0.0-5.0-46.0"},{"group":"hexagon_tri","fractal_assignment":["../images/org_blu.png","../images/blu_wht.png","../images/pnk_blu.png","../images/cyn_red.png","../images/gry_blk.png","../images/ylw_slt.png"],"mutagen_generator_assignment":[0,1],"goal":5,"start":4,"action_noise":0.15,"location_history":"[4,2,1,3,2,1,5]","action_history":"[1,0,0,0,0,1]","mutagen_history":"[1,0,0,0,0,1]","location_rts":"[621,9,330,151,327,165]","trial_type":"fractal-mutation","trial_index":101,"time_elapsed":2063415,"internal_node_id":"0.0-5.0-47.0"},{"group":"hexagon_tri","fractal_assignment":["../images/org_blu.png","../images/blu_wht.png","../images/pnk_blu.png","../images/cyn_red.png","../images/gry_blk.png","../images/ylw_slt.png"],"mutagen_generator_assignment":[0,1],"goal":2,"start":5,"action_noise":0.15,"location_history":"[5,4,0,5,0,5,4,2]","action_history":"[1,0,0,0,0,0,1]","mutagen_history":"[1,0,0,0,0,0,1]","location_rts":"[744,328,168,156,214,3,64]","trial_type":"fractal-mutation","trial_index":102,"time_elapsed":2076154,"internal_node_id":"0.0-5.0-48.0"},{"group":"hexagon_tri","fractal_assignment":["../images/org_blu.png","../images/blu_wht.png","../images/pnk_blu.png","../images/cyn_red.png","../images/gry_blk.png","../images/ylw_slt.png"],"mutagen_generator_assignment":[0,1],"goal":1,"start":2,"action_noise":0.15,"location_history":"[2,3,2,3,2,1]","action_history":"[1,0,1,0,0]","mutagen_history":"[1,0,1,0,0]","location_rts":"[567,787,76,440,212]","trial_type":"fractal-mutation","trial_index":103,"time_elapsed":2087152,"internal_node_id":"0.0-5.0-49.0"},{"view_history":"[{\"page_index\":0,\"viewing_time\":2932}]","rt":2932,"trial_type":"instructions","trial_index":104,"time_elapsed":2091087,"internal_node_id":"0.0-6.0"},{"rt":5858,"responses":"{\"Q0\":\"No idea.\"}","trial_type":"survey-text","trial_index":105,"time_elapsed":2097952,"internal_node_id":"0.0-7.0-0.0"},{"rt":4561,"responses":"{\"Q0\":\"No idea.\"}","trial_type":"survey-text","trial_index":106,"time_elapsed":2103518,"internal_node_id":"0.0-7.0-1.0"},{"rt":8500,"responses":"{\"Q0\":\"<img src='../images/diagrams/hexagon_tri.png'>\"}","trial_type":"survey-multi-choice","trial_index":107,"time_elapsed":2113028,"internal_node_id":"0.0-7.0-2.0"},{"rt":25375,"assignments":["../images/org_blu.png","../images/blu_wht.png","../images/cyn_red.png","../images/pnk_blu.png","../images/ylw_slt.png","../images/gry_blk.png"],"trial_type":"drag-drop-on-image","trial_index":108,"time_elapsed":2139407,"internal_node_id":"0.0-7.0-3.0"},{"rt":4982,"responses":"{\"Q0\":\"2\"}","trial_type":"survey-likert","trial_index":109,"time_elapsed":2145392,"internal_node_id":"0.0-7.0-4.0"},{"rt":14384,"responses":"{\"Q0\":\"There was a pattern to what lead to where.\"}","trial_type":"survey-text","trial_index":110,"time_elapsed":2160779,"internal_node_id":"0.0-7.0-5.0"},{"rt":5305,"responses":"{\"Q0\":\"No\"}","trial_type":"survey-multi-choice","trial_index":111,"time_elapsed":2167091,"internal_node_id":"0.0-7.0-6.0"},{"rt":10333,"responses":"{\"Q0\":\"During these questions/I wasn't aware until you pointed it out\"}","trial_type":"survey-multi-choice","trial_index":112,"time_elapsed":2178429,"internal_node_id":"0.0-7.0-7.0"},{"rt":3577,"responses":"{\"Q0\":\"\"}","trial_type":"survey-text","trial_index":113,"time_elapsed":2183007,"internal_node_id":"0.0-7.0-8.0"},{"rt":6745,"responses":"{\"Q0\":\"2\"}","trial_type":"survey-likert","trial_index":114,"time_elapsed":2190759,"internal_node_id":"0.0-7.0-9.0"},{"rt":6456,"responses":"{\"Q0\":\"Same structure\"}","trial_type":"survey-multi-choice","trial_index":115,"time_elapsed":2198217,"internal_node_id":"0.0-7.0-10.0"},{"rt":25039,"responses":"{\"Q0\":\"left (black) door = ray, right (white) door = acid\",\"Q1\":\"Moderately confident\"}","trial_type":"survey-multi-choice","trial_index":116,"time_elapsed":2224261,"internal_node_id":"0.0-7.0-11.0"},{"rt":6561,"responses":"{\"Q0\":\"25-35\",\"Q1\":\"High school degree or GED\",\"Q2\":\"Male\",\"Q3\":\"White\"}","trial_type":"survey-multi-choice","trial_index":117,"time_elapsed":2231833,"internal_node_id":"0.0-8.0"},{"rt":1719,"responses":"{\"Q0\":\"\"}","trial_type":"survey-text","trial_index":118,"time_elapsed":2234553,"internal_node_id":"0.0-9.0"}]