[{"view_history":"[{\"page_index\":0,\"viewing_time\":61326},{\"page_index\":1,\"viewing_time\":11053}]","rt":72380,"trial_type":"instructions","trial_index":0,"time_elapsed":72382,"internal_node_id":"0.0-0.0"},{"view_history":"[{\"page_index\":0,\"viewing_time\":1328},{\"page_index\":1,\"viewing_time\":2342}]","rt":3670,"trial_type":"instructions","trial_index":1,"time_elapsed":77052,"internal_node_id":"0.0-1.0"},{"group":"hexagon_bi","room_assignment":["blue","grey","purple","yellow","red","green"],"door_color_assignment":["white","black"],"door_generator_assignment":[0,1],"goal":2,"start":1,"action_noise":0.15,"location_history":"[1,2]","action_history":"[0]","door_history":"[0]","location_rts":"[1642]","trial_type":"two-door-navigation","trial_index":2,"time_elapsed":83234,"internal_node_id":"0.0-2.0-0.0"},{"group":"hexagon_bi","room_assignment":["blue","grey","purple","yellow","red","green"],"door_color_assignment":["white","black"],"door_generator_assignment":[0,1],"goal":0,"start":2,"action_noise":0.15,"location_history":"[2,3,4,5,0]","action_history":"[1,0,1,0]","door_history":"[1,0,1,0]","location_rts":"[361,388,553,486]","trial_type":"two-door-navigation","trial_index":3,"time_elapsed":92606,"internal_node_id":"0.0-2.0-1.0"},{"group":"hexagon_bi","room_assignment":["blue","grey","purple","yellow","red","green"],"door_color_assignment":["white","black"],"door_generator_assignment":[0,1],"goal":5,"start":0,"action_noise":0.15,"location_history":"[0,1,2,3,4,5]","action_history":"[1,0,1,0,1]","door_history":"[1,0,1,0,1]","location_rts":"[424,399,392,531,528]","trial_type":"two-door-navigation","trial_index":4,"time_elapsed":103481,"internal_node_id":"0.0-2.0-2.0"},{"group":"hexagon_bi","room_assignment":["blue","grey","purple","yellow","red","green"],"door_color_assignment":["white","black"],"door_generator_assignment":[0,1],"goal":1,"start":5,"action_noise":0.15,"location_history":"[5,0,1]","action_history":"[0,1]","door_history":"[0,1]","location_rts":"[522,362]","trial_type":"two-door-navigation","trial_index":5,"time_elapsed":109907,"internal_node_id":"0.0-2.0-3.0"},{"group":"hexagon_bi","room_assignment":["blue","grey","purple","yellow","red","green"],"door_color_assignment":["white","black"],"door_generator_assignment":[0,1],"goal":3,"start":1,"action_noise":0.15,"location_history":"[1,2,3]","action_history":"[0,1]","door_history":"[0,1]","location_rts":"[427,378]","trial_type":"two-door-navigation","trial_index":6,"time_elapsed":116252,"internal_node_id":"0.0-2.0-4.0"},{"group":"hexagon_bi","room_assignment":["blue","grey","purple","yellow","red","green"],"door_color_assignment":["white","black"],"door_generator_assignment":[0,1],"goal":5,"start":3,"action_noise":0.15,"location_history":"[3,4,5]","action_history":"[0,1]","door_history":"[0,1]","location_rts":"[961,420]","trial_type":"two-door-navigation","trial_index":7,"time_elapsed":123174,"internal_node_id":"0.0-2.0-5.0"},{"group":"hexagon_bi","room_assignment":["blue","grey","purple","yellow","red","green"],"door_color_assignment":["white","black"],"door_generator_assignment":[0,1],"goal":4,"start":5,"action_noise":0.15,"location_history":"[5,0,1,0,1,2,3,4]","action_history":"[0,1,0,1,0,1,0]","door_history":"[0,1,0,1,0,1,0]","location_rts":"[441,413,435,525,522,583,431]","trial_type":"two-door-navigation","trial_index":8,"time_elapsed":137162,"internal_node_id":"0.0-2.0-6.0"},{"group":"hexagon_bi","room_assignment":["blue","grey","purple","yellow","red","green"],"door_color_assignment":["white","black"],"door_generator_assignment":[0,1],"goal":0,"start":4,"action_noise":0.15,"location_history":"[4,5,0]","action_history":"[1,0]","door_history":"[1,0]","location_rts":"[395,379]","trial_type":"two-door-navigation","trial_index":9,"time_elapsed":143506,"internal_node_id":"0.0-2.0-7.0"},{"group":"hexagon_bi","room_assignment":["blue","grey","purple","yellow","red","green"],"door_color_assignment":["white","black"],"door_generator_assignment":[0,1],"goal":2,"start":0,"action_noise":0.15,"location_history":"[0,1,2]","action_history":"[1,0]","door_history":"[1,0]","location_rts":"[654,999]","trial_type":"two-door-navigation","trial_index":10,"time_elapsed":150699,"internal_node_id":"0.0-2.0-8.0"},{"group":"hexagon_bi","room_assignment":["blue","grey","purple","yellow","red","green"],"door_color_assignment":["white","black"],"door_generator_assignment":[0,1],"goal":4,"start":2,"action_noise":0.15,"location_history":"[2,3,4]","action_history":"[1,0]","door_history":"[1,0]","location_rts":"[408,396]","trial_type":"two-door-navigation","trial_index":11,"time_elapsed":157043,"internal_node_id":"0.0-2.0-9.0"},{"group":"hexagon_bi","room_assignment":["blue","grey","purple","yellow","red","green"],"door_color_assignment":["white","black"],"door_generator_assignment":[0,1],"goal":2,"start":4,"action_noise":0.15,"location_history":"[4,5,0,1,0,1,0,5,4,3,2]","action_history":"[1,0,1,1,0,1,0,1,0,1]","door_history":"[1,0,1,1,0,1,0,1,0,1]","location_rts":"[371,411,515,1053,479,501,505,410,574,467]","trial_type":"two-door-navigation","trial_index":12,"time_elapsed":176023,"internal_node_id":"0.0-2.0-10.0"},{"group":"hexagon_bi","room_assignment":["blue","grey","purple","yellow","red","green"],"door_color_assignment":["white","black"],"door_generator_assignment":[0,1],"goal":3,"start":2,"action_noise":0.15,"location_history":"[2,1,0,5,4,5,4,3]","action_history":"[0,1,0,1,0,1,0]","door_history":"[0,1,0,1,0,1,0]","location_rts":"[1724,762,436,488,432,489,509]","trial_type":"two-door-navigation","trial_index":13,"time_elapsed":191500,"internal_node_id":"0.0-2.0-11.0"},{"group":"hexagon_bi","room_assignment":["blue","grey","purple","yellow","red","green"],"door_color_assignment":["white","black"],"door_generator_assignment":[0,1],"goal":0,"start":3,"action_noise":0.15,"location_history":"[3,2,1,0]","action_history":"[1,0,1]","door_history":"[1,0,1]","location_rts":"[440,453,412]","trial_type":"two-door-navigation","trial_index":14,"time_elapsed":199369,"internal_node_id":"0.0-2.0-12.0"},{"group":"hexagon_bi","room_assignment":["blue","grey","purple","yellow","red","green"],"door_color_assignment":["white","black"],"door_generator_assignment":[0,1],"goal":5,"start":0,"action_noise":0.15,"location_history":"[0,5]","action_history":"[0]","door_history":"[0]","location_rts":"[352]","trial_type":"two-door-navigation","trial_index":15,"time_elapsed":204244,"internal_node_id":"0.0-2.0-13.0"},{"group":"hexagon_bi","room_assignment":["blue","grey","purple","yellow","red","green"],"door_color_assignment":["white","black"],"door_generator_assignment":[0,1],"goal":1,"start":5,"action_noise":0.15,"location_history":"[5,4,5,4,3,2,1]","action_history":"[1,0,1,0,1,0]","door_history":"[1,0,1,0,1,0]","location_rts":"[366,330,398,394,388,420]","trial_type":"two-door-navigation","trial_index":16,"time_elapsed":216150,"internal_node_id":"0.0-2.0-14.0"},{"group":"hexagon_bi","room_assignment":["blue","grey","purple","yellow","red","green"],"door_color_assignment":["white","black"],"door_generator_assignment":[0,1],"goal":5,"start":1,"action_noise":0.15,"location_history":"[1,0,5]","action_history":"[1,0]","door_history":"[1,0]","location_rts":"[558,323]","trial_type":"two-door-navigation","trial_index":17,"time_elapsed":222570,"internal_node_id":"0.0-2.0-15.0"},{"group":"hexagon_bi","room_assignment":["blue","grey","purple","yellow","red","green"],"door_color_assignment":["white","black"],"door_generator_assignment":[0,1],"goal":3,"start":5,"action_noise":0.15,"location_history":"[5,4,5,0,5,0,5,4,3]","action_history":"[1,0,1,0,1,0,1,0]","door_history":"[1,0,1,0,1,0,1,0]","location_rts":"[367,383,349,382,526,651,300,421]","trial_type":"two-door-navigation","trial_index":18,"time_elapsed":237600,"internal_node_id":"0.0-2.0-16.0"},{"group":"hexagon_bi","room_assignment":["blue","grey","purple","yellow","red","green"],"door_color_assignment":["white","black"],"door_generator_assignment":[0,1],"goal":2,"start":3,"action_noise":0.15,"location_history":"[3,2]","action_history":"[1]","door_history":"[1]","location_rts":"[448]","trial_type":"two-door-navigation","trial_index":19,"time_elapsed":242573,"internal_node_id":"0.0-2.0-17.0"},{"group":"hexagon_bi","room_assignment":["blue","grey","purple","yellow","red","green"],"door_color_assignment":["white","black"],"door_generator_assignment":[0,1],"goal":1,"start":2,"action_noise":0.15,"location_history":"[2,1]","action_history":"[0]","door_history":"[0]","location_rts":"[362]","trial_type":"two-door-navigation","trial_index":20,"time_elapsed":247463,"internal_node_id":"0.0-2.0-18.0"},{"group":"hexagon_bi","room_assignment":["blue","grey","purple","yellow","red","green"],"door_color_assignment":["white","black"],"door_generator_assignment":[0,1],"goal":4,"start":1,"action_noise":0.15,"location_history":"[1,2,1,2,1,0,5,4]","action_history":"[1,0,1,0,1,0,1]","door_history":"[1,0,1,0,1,0,1]","location_rts":"[367,323,424,631,491,562,503]","trial_type":"two-door-navigation","trial_index":21,"time_elapsed":261397,"internal_node_id":"0.0-2.0-19.0"},{"group":"hexagon_bi","room_assignment":["blue","grey","purple","yellow","red","green"],"door_color_assignment":["white","black"],"door_generator_assignment":[0,1],"goal":0,"start":4,"action_noise":0.15,"location_history":"[4,5,0]","action_history":"[0,1]","door_history":"[0,1]","location_rts":"[538,227]","trial_type":"two-door-navigation","trial_index":22,"time_elapsed":267699,"internal_node_id":"0.0-2.0-20.0"},{"group":"hexagon_bi","room_assignment":["blue","grey","purple","yellow","red","green"],"door_color_assignment":["white","black"],"door_generator_assignment":[0,1],"goal":3,"start":0,"action_noise":0.15,"location_history":"[0,5,4,3]","action_history":"[0,1,0]","door_history":"[0,1,0]","location_rts":"[440,355,362]","trial_type":"two-door-navigation","trial_index":23,"time_elapsed":275419,"internal_node_id":"0.0-2.0-21.0"},{"group":"hexagon_bi","room_assignment":["blue","grey","purple","yellow","red","green"],"door_color_assignment":["white","black"],"door_generator_assignment":[0,1],"goal":1,"start":3,"action_noise":0.15,"location_history":"[3,2,1]","action_history":"[1,0]","door_history":"[1,0]","location_rts":"[494,363]","trial_type":"two-door-navigation","trial_index":24,"time_elapsed":281818,"internal_node_id":"0.0-2.0-22.0"},{"group":"hexagon_bi","room_assignment":["blue","grey","purple","yellow","red","green"],"door_color_assignment":["white","black"],"door_generator_assignment":[0,1],"goal":0,"start":1,"action_noise":0.15,"location_history":"[1,0]","action_history":"[1]","door_history":"[1]","location_rts":"[399]","trial_type":"two-door-navigation","trial_index":25,"time_elapsed":286737,"internal_node_id":"0.0-2.0-23.0"},{"group":"hexagon_bi","room_assignment":["blue","grey","purple","yellow","red","green"],"door_color_assignment":["white","black"],"door_generator_assignment":[0,1],"goal":2,"start":0,"action_noise":0.15,"location_history":"[0,1,0,1,2]","action_history":"[1,0,1,0]","door_history":"[1,0,1,0]","location_rts":"[928,391,417,521]","trial_type":"two-door-navigation","trial_index":26,"time_elapsed":296579,"internal_node_id":"0.0-2.0-24.0"},{"group":"hexagon_bi","room_assignment":["blue","grey","purple","yellow","red","green"],"door_color_assignment":["white","black"],"door_generator_assignment":[0,1],"goal":4,"start":2,"action_noise":0.15,"location_history":"[2,3,4]","action_history":"[1,0]","door_history":"[1,0]","location_rts":"[447,362]","trial_type":"two-door-navigation","trial_index":27,"time_elapsed":302930,"internal_node_id":"0.0-2.0-25.0"},{"group":"hexagon_bi","room_assignment":["blue","grey","purple","yellow","red","green"],"door_color_assignment":["white","black"],"door_generator_assignment":[0,1],"goal":5,"start":4,"action_noise":0.15,"location_history":"[4,3,4,5]","action_history":"[1,0,1]","door_history":"[1,0,1]","location_rts":"[436,440,624]","trial_type":"two-door-navigation","trial_index":28,"time_elapsed":310994,"internal_node_id":"0.0-2.0-26.0"},{"group":"hexagon_bi","room_assignment":["blue","grey","purple","yellow","red","green"],"door_color_assignment":["white","black"],"door_generator_assignment":[0,1],"goal":2,"start":5,"action_noise":0.15,"location_history":"[5,0,1,2]","action_history":"[0,1,0]","door_history":"[0,1,0]","location_rts":"[422,243,461]","trial_type":"two-door-navigation","trial_index":29,"time_elapsed":318683,"internal_node_id":"0.0-2.0-27.0"},{"group":"hexagon_bi","room_assignment":["blue","grey","purple","yellow","red","green"],"door_color_assignment":["white","black"],"door_generator_assignment":[0,1],"goal":3,"start":2,"action_noise":0.15,"location_history":"[2,3]","action_history":"[1]","door_history":"[1]","location_rts":"[419]","trial_type":"two-door-navigation","trial_index":30,"time_elapsed":323625,"internal_node_id":"0.0-2.0-28.0"},{"group":"hexagon_bi","room_assignment":["blue","grey","purple","yellow","red","green"],"door_color_assignment":["white","black"],"door_generator_assignment":[0,1],"goal":1,"start":3,"action_noise":0.15,"location_history":"[3,4,5,0,1]","action_history":"[0,1,0,1]","door_history":"[0,1,0,1]","location_rts":"[400,337,569,484]","trial_type":"two-door-navigation","trial_index":31,"time_elapsed":332990,"internal_node_id":"0.0-2.0-29.0"},{"group":"hexagon_bi","room_assignment":["blue","grey","purple","yellow","red","green"],"door_color_assignment":["white","black"],"door_generator_assignment":[0,1],"goal":4,"start":1,"action_noise":0.15,"location_history":"[1,2,3,4]","action_history":"[0,1,0]","door_history":"[0,1,0]","location_rts":"[479,365,414]","trial_type":"two-door-navigation","trial_index":32,"time_elapsed":340804,"internal_node_id":"0.0-2.0-30.0"},{"group":"hexagon_bi","room_assignment":["blue","grey","purple","yellow","red","green"],"door_color_assignment":["white","black"],"door_generator_assignment":[0,1],"goal":5,"start":4,"action_noise":0.15,"location_history":"[4,5]","action_history":"[1]","door_history":"[1]","location_rts":"[435]","trial_type":"two-door-navigation","trial_index":33,"time_elapsed":345757,"internal_node_id":"0.0-2.0-31.0"},{"group":"hexagon_bi","room_assignment":["blue","grey","purple","yellow","red","green"],"door_color_assignment":["white","black"],"door_generator_assignment":[0,1],"goal":0,"start":5,"action_noise":0.15,"location_history":"[5,4,5,0]","action_history":"[0,1,0]","door_history":"[0,1,0]","location_rts":"[356,352,409]","trial_type":"two-door-navigation","trial_index":34,"time_elapsed":353430,"internal_node_id":"0.0-2.0-32.0"},{"group":"hexagon_bi","room_assignment":["blue","grey","purple","yellow","red","green"],"door_color_assignment":["white","black"],"door_generator_assignment":[0,1],"goal":2,"start":0,"action_noise":0.15,"location_history":"[0,1,2]","action_history":"[1,0]","door_history":"[1,0]","location_rts":"[406,342]","trial_type":"two-door-navigation","trial_index":35,"time_elapsed":359718,"internal_node_id":"0.0-2.0-33.0"},{"group":"hexagon_bi","room_assignment":["blue","grey","purple","yellow","red","green"],"door_color_assignment":["white","black"],"door_generator_assignment":[0,1],"goal":0,"start":2,"action_noise":0.15,"location_history":"[2,1,2,3,4,5,0]","action_history":"[1,0,1,0,1,0]","door_history":"[1,0,1,0,1,0]","location_rts":"[438,1366,548,387,426,398]","trial_type":"two-door-navigation","trial_index":36,"time_elapsed":372894,"internal_node_id":"0.0-2.0-34.0"},{"group":"hexagon_bi","room_assignment":["blue","grey","purple","yellow","red","green"],"door_color_assignment":["white","black"],"door_generator_assignment":[0,1],"goal":5,"start":0,"action_noise":0.15,"location_history":"[0,1,0,5]","action_history":"[1,0,1]","door_history":"[1,0,1]","location_rts":"[417,374,394]","trial_type":"two-door-navigation","trial_index":37,"time_elapsed":380636,"internal_node_id":"0.0-2.0-35.0"},{"group":"hexagon_bi","room_assignment":["blue","grey","purple","yellow","red","green"],"door_color_assignment":["white","black"],"door_generator_assignment":[0,1],"goal":1,"start":5,"action_noise":0.15,"location_history":"[5,0,1]","action_history":"[0,1]","door_history":"[0,1]","location_rts":"[378,256]","trial_type":"two-door-navigation","trial_index":38,"time_elapsed":386808,"internal_node_id":"0.0-2.0-36.0"},{"group":"hexagon_bi","room_assignment":["blue","grey","purple","yellow","red","green"],"door_color_assignment":["white","black"],"door_generator_assignment":[0,1],"goal":4,"start":1,"action_noise":0.15,"location_history":"[1,0,1,2,1,0,5,4]","action_history":"[0,1,0,0,1,0,1]","door_history":"[0,1,0,0,1,0,1]","location_rts":"[520,210,404,623,359,423,388]","trial_type":"two-door-navigation","trial_index":39,"time_elapsed":400379,"internal_node_id":"0.0-2.0-37.0"},{"group":"hexagon_bi","room_assignment":["blue","grey","purple","yellow","red","green"],"door_color_assignment":["white","black"],"door_generator_assignment":[0,1],"goal":3,"start":4,"action_noise":0.15,"location_history":"[4,3]","action_history":"[0]","door_history":"[0]","location_rts":"[578]","trial_type":"two-door-navigation","trial_index":40,"time_elapsed":405481,"internal_node_id":"0.0-2.0-38.0"},{"group":"hexagon_bi","room_assignment":["blue","grey","purple","yellow","red","green"],"door_color_assignment":["white","black"],"door_generator_assignment":[0,1],"goal":5,"start":3,"action_noise":0.15,"location_history":"[3,4,3,4,3,4,5]","action_history":"[1,0,0,1,0,1]","door_history":"[1,0,0,1,0,1]","location_rts":"[506,683,601,341,400,383]","trial_type":"two-door-navigation","trial_index":41,"time_elapsed":418007,"internal_node_id":"0.0-2.0-39.0"},{"group":"hexagon_bi","room_assignment":["blue","grey","purple","yellow","red","green"],"door_color_assignment":["white","black"],"door_generator_assignment":[0,1],"goal":1,"start":5,"action_noise":0.15,"location_history":"[5,0,5,4,5,0,1]","action_history":"[0,1,0,1,0,1]","door_history":"[0,1,0,1,0,1]","location_rts":"[668,497,366,556,596,441]","trial_type":"two-door-navigation","trial_index":42,"time_elapsed":430739,"internal_node_id":"0.0-2.0-40.0"},{"group":"hexagon_bi","room_assignment":["blue","grey","purple","yellow","red","green"],"door_color_assignment":["white","black"],"door_generator_assignment":[0,1],"goal":2,"start":1,"action_noise":0.15,"location_history":"[1,2]","action_history":"[0]","door_history":"[0]","location_rts":"[517]","trial_type":"two-door-navigation","trial_index":43,"time_elapsed":435778,"internal_node_id":"0.0-2.0-41.0"},{"group":"hexagon_bi","room_assignment":["blue","grey","purple","yellow","red","green"],"door_color_assignment":["white","black"],"door_generator_assignment":[0,1],"goal":4,"start":2,"action_noise":0.15,"location_history":"[2,1,2,3,4]","action_history":"[1,0,1,0]","door_history":"[1,0,1,0]","location_rts":"[350,378,419,561]","trial_type":"two-door-navigation","trial_index":44,"time_elapsed":445058,"internal_node_id":"0.0-2.0-42.0"},{"group":"hexagon_bi","room_assignment":["blue","grey","purple","yellow","red","green"],"door_color_assignment":["white","black"],"door_generator_assignment":[0,1],"goal":0,"start":4,"action_noise":0.15,"location_history":"[4,5,0]","action_history":"[1,0]","door_history":"[1,0]","location_rts":"[640,386]","trial_type":"two-door-navigation","trial_index":45,"time_elapsed":451623,"internal_node_id":"0.0-2.0-43.0"},{"group":"hexagon_bi","room_assignment":["blue","grey","purple","yellow","red","green"],"door_color_assignment":["white","black"],"door_generator_assignment":[0,1],"goal":3,"start":0,"action_noise":0.15,"location_history":"[0,5,4,5,0,1,2,3]","action_history":"[1,0,1,0,1,0,1]","door_history":"[1,0,1,0,1,0,1]","location_rts":"[364,503,407,526,437,417,419]","trial_type":"two-door-navigation","trial_index":46,"time_elapsed":465319,"internal_node_id":"0.0-2.0-44.0"},{"group":"hexagon_bi","room_assignment":["blue","grey","purple","yellow","red","green"],"door_color_assignment":["white","black"],"door_generator_assignment":[0,1],"goal":0,"start":3,"action_noise":0.15,"location_history":"[3,4,3,4,5,0]","action_history":"[0,1,0,1,0]","door_history":"[0,1,0,1,0]","location_rts":"[359,309,414,466,1175]","trial_type":"two-door-navigation","trial_index":47,"time_elapsed":476634,"internal_node_id":"0.0-2.0-45.0"},{"group":"hexagon_bi","room_assignment":["blue","grey","purple","yellow","red","green"],"door_color_assignment":["white","black"],"door_generator_assignment":[0,1],"goal":4,"start":0,"action_noise":0.15,"location_history":"[0,1,2,3,2,3,4]","action_history":"[1,0,1,0,1,0]","door_history":"[1,0,1,0,1,0]","location_rts":"[547,451,182,415,353,273]","trial_type":"two-door-navigation","trial_index":48,"time_elapsed":488487,"internal_node_id":"0.0-2.0-46.0"},{"group":"hexagon_bi","room_assignment":["blue","grey","purple","yellow","red","green"],"door_color_assignment":["white","black"],"door_generator_assignment":[0,1],"goal":5,"start":4,"action_noise":0.15,"location_history":"[4,5]","action_history":"[1]","door_history":"[1]","location_rts":"[554]","trial_type":"two-door-navigation","trial_index":49,"time_elapsed":493573,"internal_node_id":"0.0-2.0-47.0"},{"group":"hexagon_bi","room_assignment":["blue","grey","purple","yellow","red","green"],"door_color_assignment":["white","black"],"door_generator_assignment":[0,1],"goal":2,"start":5,"action_noise":0.15,"location_history":"[5,0,1,2]","action_history":"[0,1,0]","door_history":"[0,1,0]","location_rts":"[376,476,358]","trial_type":"two-door-navigation","trial_index":50,"time_elapsed":501340,"internal_node_id":"0.0-2.0-48.0"},{"group":"hexagon_bi","room_assignment":["blue","grey","purple","yellow","red","green"],"door_color_assignment":["white","black"],"door_generator_assignment":[0,1],"goal":1,"start":2,"action_noise":0.15,"location_history":"[2,3,4,5,4,5,0,1]","action_history":"[1,0,1,0,1,0,1]","door_history":"[1,0,1,0,1,0,1]","location_rts":"[408,594,496,494,441,426,483]","trial_type":"two-door-navigation","trial_index":51,"time_elapsed":515311,"internal_node_id":"0.0-2.0-49.0"},{"view_history":"[{\"page_index\":0,\"viewing_time\":1610}]","rt":1610,"trial_type":"instructions","trial_index":52,"time_elapsed":517922,"internal_node_id":"0.0-3.0"},{"view_history":"[{\"page_index\":0,\"viewing_time\":818},{\"page_index\":1,\"viewing_time\":4120}]","rt":4938,"trial_type":"instructions","trial_index":53,"time_elapsed":523860,"internal_node_id":"0.0-4.0"},{"group":"hexagon_bi","fractal_assignment":["../images/cyn_red.png","../images/ylw_slt.png","../images/gry_blk.png","../images/pnk_blu.png","../images/org_blu.png","../images/blu_wht.png"],"mutagen_generator_assignment":[1,0],"goal":2,"start":1,"action_noise":0.15,"location_history":"[1,0,5,4,3,2]","action_history":"[1,0,1,0,1]","mutagen_history":"[0,1,0,1,0]","location_rts":"[2089,550,474,363,430]","trial_type":"fractal-mutation","trial_index":54,"time_elapsed":536894,"internal_node_id":"0.0-5.0-0.0"},{"group":"hexagon_bi","fractal_assignment":["../images/cyn_red.png","../images/ylw_slt.png","../images/gry_blk.png","../images/pnk_blu.png","../images/org_blu.png","../images/blu_wht.png"],"mutagen_generator_assignment":[1,0],"goal":0,"start":2,"action_noise":0.15,"location_history":"[2,3,4,5,0]","action_history":"[1,0,1,0]","mutagen_history":"[0,1,0,1]","location_rts":"[299,325,291,327]","trial_type":"fractal-mutation","trial_index":55,"time_elapsed":546036,"internal_node_id":"0.0-5.0-1.0"},{"group":"hexagon_bi","fractal_assignment":["../images/cyn_red.png","../images/ylw_slt.png","../images/gry_blk.png","../images/pnk_blu.png","../images/org_blu.png","../images/blu_wht.png"],"mutagen_generator_assignment":[1,0],"goal":5,"start":0,"action_noise":0.15,"location_history":"[0,1,0,5]","action_history":"[1,0,1]","mutagen_history":"[0,1,0]","location_rts":"[380,344,411]","trial_type":"fractal-mutation","trial_index":56,"time_elapsed":553931,"internal_node_id":"0.0-5.0-2.0"},{"group":"hexagon_bi","fractal_assignment":["../images/cyn_red.png","../images/ylw_slt.png","../images/gry_blk.png","../images/pnk_blu.png","../images/org_blu.png","../images/blu_wht.png"],"mutagen_generator_assignment":[1,0],"goal":1,"start":5,"action_noise":0.15,"location_history":"[5,4,5,4,3,2,1]","action_history":"[1,0,1,0,1,0]","mutagen_history":"[0,1,0,1,0,1]","location_rts":"[444,435,352,329,486,457]","trial_type":"fractal-mutation","trial_index":57,"time_elapsed":566484,"internal_node_id":"0.0-5.0-3.0"},{"group":"hexagon_bi","fractal_assignment":["../images/cyn_red.png","../images/ylw_slt.png","../images/gry_blk.png","../images/pnk_blu.png","../images/org_blu.png","../images/blu_wht.png"],"mutagen_generator_assignment":[1,0],"goal":3,"start":1,"action_noise":0.15,"location_history":"[1,2,1,0,5,4,3]","action_history":"[1,0,1,0,1,0]","mutagen_history":"[0,1,0,1,0,1]","location_rts":"[369,780,432,324,405,426]","trial_type":"fractal-mutation","trial_index":58,"time_elapsed":579284,"internal_node_id":"0.0-5.0-4.0"},{"group":"hexagon_bi","fractal_assignment":["../images/cyn_red.png","../images/ylw_slt.png","../images/gry_blk.png","../images/pnk_blu.png","../images/org_blu.png","../images/blu_wht.png"],"mutagen_generator_assignment":[1,0],"goal":5,"start":3,"action_noise":0.15,"location_history":"[3,2,3,2,1,0,5]","action_history":"[1,0,1,0,1,0]","mutagen_history":"[0,1,0,1,0,1]","location_rts":"[650,393,413,445,426,332]","trial_type":"fractal-mutation","trial_index":59,"time_elapsed":591984,"internal_node_id":"0.0-5.0-5.0"},{"group":"hexagon_bi","fractal_assignment":["../images/cyn_red.png","../images/ylw_slt.png","../images/gry_blk.png","../images/pnk_blu.png","../images/org_blu.png","../images/blu_wht.png"],"mutagen_generator_assignment":[1,0],"goal":4,"start":5,"action_noise":0.15,"location_history":"[5,4]","action_history":"[1]","mutagen_history":"[0]","location_rts":"[531]","trial_type":"fractal-mutation","trial_index":60,"time_elapsed":597095,"internal_node_id":"0.0-5.0-6.0"},{"group":"hexagon_bi","fractal_assignment":["../images/cyn_red.png","../images/ylw_slt.png","../images/gry_blk.png","../images/pnk_blu.png","../images/org_blu.png","../images/blu_wht.png"],"mutagen_generator_assignment":[1,0],"goal":0,"start":4,"action_noise":0.15,"location_history":"[4,3,2,3,4,5,0]","action_history":"[1,0,1,0,1,0]","mutagen_history":"[0,1,0,1,0,1]","location_rts":"[801,295,306,396,735,325]","trial_type":"fractal-mutation","trial_index":61,"time_elapsed":610006,"internal_node_id":"0.0-5.0-7.0"},{"group":"hexagon_bi","fractal_assignment":["../images/cyn_red.png","../images/ylw_slt.png","../images/gry_blk.png","../images/pnk_blu.png","../images/org_blu.png","../images/blu_wht.png"],"mutagen_generator_assignment":[1,0],"goal":2,"start":0,"action_noise":0.15,"location_history":"[0,1,2]","action_history":"[1,0]","mutagen_history":"[0,1]","location_rts":"[437,285]","trial_type":"fractal-mutation","trial_index":62,"time_elapsed":616410,"internal_node_id":"0.0-5.0-8.0"},{"group":"hexagon_bi","fractal_assignment":["../images/cyn_red.png","../images/ylw_slt.png","../images/gry_blk.png","../images/pnk_blu.png","../images/org_blu.png","../images/blu_wht.png"],"mutagen_generator_assignment":[1,0],"goal":4,"start":2,"action_noise":0.15,"location_history":"[2,3,2,3,2,3,4]","action_history":"[1,0,1,0,1,0]","mutagen_history":"[0,1,0,1,0,1]","location_rts":"[477,257,314,296,320,380]","trial_type":"fractal-mutation","trial_index":63,"time_elapsed":628517,"internal_node_id":"0.0-5.0-9.0"},{"group":"hexagon_bi","fractal_assignment":["../images/cyn_red.png","../images/ylw_slt.png","../images/gry_blk.png","../images/pnk_blu.png","../images/org_blu.png","../images/blu_wht.png"],"mutagen_generator_assignment":[1,0],"goal":2,"start":4,"action_noise":0.15,"location_history":"[4,5,0,1,2]","action_history":"[1,0,1,0]","mutagen_history":"[0,1,0,1]","location_rts":"[452,310,250,391]","trial_type":"fractal-mutation","trial_index":64,"time_elapsed":637797,"internal_node_id":"0.0-5.0-10.0"},{"group":"hexagon_bi","fractal_assignment":["../images/cyn_red.png","../images/ylw_slt.png","../images/gry_blk.png","../images/pnk_blu.png","../images/org_blu.png","../images/blu_wht.png"],"mutagen_generator_assignment":[1,0],"goal":3,"start":2,"action_noise":0.15,"location_history":"[2,3]","action_history":"[1]","mutagen_history":"[0]","location_rts":"[1259]","trial_type":"fractal-mutation","trial_index":65,"time_elapsed":643632,"internal_node_id":"0.0-5.0-11.0"},{"group":"hexagon_bi","fractal_assignment":["../images/cyn_red.png","../images/ylw_slt.png","../images/gry_blk.png","../images/pnk_blu.png","../images/org_blu.png","../images/blu_wht.png"],"mutagen_generator_assignment":[1,0],"goal":0,"start":3,"action_noise":0.15,"location_history":"[3,4,3,2,1,0]","action_history":"[1,0,1,0,1]","mutagen_history":"[0,1,0,1,0]","location_rts":"[950,286,345,323,343]","trial_type":"fractal-mutation","trial_index":66,"time_elapsed":654834,"internal_node_id":"0.0-5.0-12.0"},{"group":"hexagon_bi","fractal_assignment":["../images/cyn_red.png","../images/ylw_slt.png","../images/gry_blk.png","../images/pnk_blu.png","../images/org_blu.png","../images/blu_wht.png"],"mutagen_generator_assignment":[1,0],"goal":5,"start":0,"action_noise":0.15,"location_history":"[0,1,2,3,4,3,4,3,2,3,4,5]","action_history":"[1,0,1,0,1,0,1,0,1,0,1]","mutagen_history":"[0,1,0,1,0,1,0,1,0,1,0]","location_rts":"[1582,322,404,368,317,355,1249,1161,855,764,950]","trial_type":"fractal-mutation","trial_index":67,"time_elapsed":678627,"internal_node_id":"0.0-5.0-13.0"},{"group":"hexagon_bi","fractal_assignment":["../images/cyn_red.png","../images/ylw_slt.png","../images/gry_blk.png","../images/pnk_blu.png","../images/org_blu.png","../images/blu_wht.png"],"mutagen_generator_assignment":[1,0],"goal":1,"start":5,"action_noise":0.15,"location_history":"[5,0,5,4,3,2,1]","action_history":"[1,0,1,0,1,0]","mutagen_history":"[0,1,0,1,0,1]","location_rts":"[855,298,586,507,567,396]","trial_type":"fractal-mutation","trial_index":68,"time_elapsed":691896,"internal_node_id":"0.0-5.0-14.0"},{"group":"hexagon_bi","fractal_assignment":["../images/cyn_red.png","../images/ylw_slt.png","../images/gry_blk.png","../images/pnk_blu.png","../images/org_blu.png","../images/blu_wht.png"],"mutagen_generator_assignment":[1,0],"goal":5,"start":1,"action_noise":0.15,"location_history":"[1,0,5]","action_history":"[1,0]","mutagen_history":"[0,1]","location_rts":"[1033,307]","trial_type":"fractal-mutation","trial_index":69,"time_elapsed":698923,"internal_node_id":"0.0-5.0-15.0"},{"group":"hexagon_bi","fractal_assignment":["../images/cyn_red.png","../images/ylw_slt.png","../images/gry_blk.png","../images/pnk_blu.png","../images/org_blu.png","../images/blu_wht.png"],"mutagen_generator_assignment":[1,0],"goal":3,"start":5,"action_noise":0.15,"location_history":"[5,4,3]","action_history":"[1,0]","mutagen_history":"[0,1]","location_rts":"[995,293]","trial_type":"fractal-mutation","trial_index":70,"time_elapsed":705895,"internal_node_id":"0.0-5.0-16.0"},{"group":"hexagon_bi","fractal_assignment":["../images/cyn_red.png","../images/ylw_slt.png","../images/gry_blk.png","../images/pnk_blu.png","../images/org_blu.png","../images/blu_wht.png"],"mutagen_generator_assignment":[1,0],"goal":2,"start":3,"action_noise":0.15,"location_history":"[3,2]","action_history":"[1]","mutagen_history":"[0]","location_rts":"[1383]","trial_type":"fractal-mutation","trial_index":71,"time_elapsed":711862,"internal_node_id":"0.0-5.0-17.0"},{"group":"hexagon_bi","fractal_assignment":["../images/cyn_red.png","../images/ylw_slt.png","../images/gry_blk.png","../images/pnk_blu.png","../images/org_blu.png","../images/blu_wht.png"],"mutagen_generator_assignment":[1,0],"goal":1,"start":2,"action_noise":0.15,"location_history":"[2,3,2,3,2,3,4,5,0,1]","action_history":"[1,0,1,0,1,0,1,0,1]","mutagen_history":"[0,1,0,1,0,1,0,1,0]","location_rts":"[756,486,611,356,459,524,388,557,412]","trial_type":"fractal-mutation","trial_index":72,"time_elapsed":729722,"internal_node_id":"0.0-5.0-18.0"},{"group":"hexagon_bi","fractal_assignment":["../images/cyn_red.png","../images/ylw_slt.png","../images/gry_blk.png","../images/pnk_blu.png","../images/org_blu.png","../images/blu_wht.png"],"mutagen_generator_assignment":[1,0],"goal":4,"start":1,"action_noise":0.15,"location_history":"[1,0,5,0,5,4]","action_history":"[1,0,1,0,1]","mutagen_history":"[0,1,0,1,0]","location_rts":"[964,441,363,419,335]","trial_type":"fractal-mutation","trial_index":73,"time_elapsed":741188,"internal_node_id":"0.0-5.0-19.0"},{"group":"hexagon_bi","fractal_assignment":["../images/cyn_red.png","../images/ylw_slt.png","../images/gry_blk.png","../images/pnk_blu.png","../images/org_blu.png","../images/blu_wht.png"],"mutagen_generator_assignment":[1,0],"goal":0,"start":4,"action_noise":0.15,"location_history":"[4,3,2,1,2,3,4,5,0]","action_history":"[1,0,1,0,1,0,1,0]","mutagen_history":"[0,1,0,1,0,1,0,1]","location_rts":"[1447,324,329,366,588,458,523,380]","trial_type":"fractal-mutation","trial_index":74,"time_elapsed":757879,"internal_node_id":"0.0-5.0-20.0"},{"group":"hexagon_bi","fractal_assignment":["../images/cyn_red.png","../images/ylw_slt.png","../images/gry_blk.png","../images/pnk_blu.png","../images/org_blu.png","../images/blu_wht.png"],"mutagen_generator_assignment":[1,0],"goal":3,"start":0,"action_noise":0.15,"location_history":"[0,1,2,1,2,3]","action_history":"[1,0,1,0,1]","mutagen_history":"[0,1,0,1,0]","location_rts":"[1146,484,334,393,187]","trial_type":"fractal-mutation","trial_index":75,"time_elapsed":769362,"internal_node_id":"0.0-5.0-21.0"},{"group":"hexagon_bi","fractal_assignment":["../images/cyn_red.png","../images/ylw_slt.png","../images/gry_blk.png","../images/pnk_blu.png","../images/org_blu.png","../images/blu_wht.png"],"mutagen_generator_assignment":[1,0],"goal":1,"start":3,"action_noise":0.15,"location_history":"[3,4,3,2,1]","action_history":"[1,0,1,0]","mutagen_history":"[0,1,0,1]","location_rts":"[1465,241,264,328]","trial_type":"fractal-mutation","trial_index":76,"time_elapsed":779539,"internal_node_id":"0.0-5.0-22.0"},{"group":"hexagon_bi","fractal_assignment":["../images/cyn_red.png","../images/ylw_slt.png","../images/gry_blk.png","../images/pnk_blu.png","../images/org_blu.png","../images/blu_wht.png"],"mutagen_generator_assignment":[1,0],"goal":0,"start":1,"action_noise":0.15,"location_history":"[1,0]","action_history":"[1]","mutagen_history":"[0]","location_rts":"[797]","trial_type":"fractal-mutation","trial_index":77,"time_elapsed":784912,"internal_node_id":"0.0-5.0-23.0"},{"group":"hexagon_bi","fractal_assignment":["../images/cyn_red.png","../images/ylw_slt.png","../images/gry_blk.png","../images/pnk_blu.png","../images/org_blu.png","../images/blu_wht.png"],"mutagen_generator_assignment":[1,0],"goal":2,"start":0,"action_noise":0.15,"location_history":"[0,1,0,1,2]","action_history":"[1,0,1,0]","mutagen_history":"[0,1,0,1]","location_rts":"[1054,279,245,418]","trial_type":"fractal-mutation","trial_index":78,"time_elapsed":794765,"internal_node_id":"0.0-5.0-24.0"},{"group":"hexagon_bi","fractal_assignment":["../images/cyn_red.png","../images/ylw_slt.png","../images/gry_blk.png","../images/pnk_blu.png","../images/org_blu.png","../images/blu_wht.png"],"mutagen_generator_assignment":[1,0],"goal":4,"start":2,"action_noise":0.15,"location_history":"[2,3,4]","action_history":"[1,0]","mutagen_history":"[0,1]","location_rts":"[749,240]","trial_type":"fractal-mutation","trial_index":79,"time_elapsed":801434,"internal_node_id":"0.0-5.0-25.0"},{"group":"hexagon_bi","fractal_assignment":["../images/cyn_red.png","../images/ylw_slt.png","../images/gry_blk.png","../images/pnk_blu.png","../images/org_blu.png","../images/blu_wht.png"],"mutagen_generator_assignment":[1,0],"goal":5,"start":4,"action_noise":0.15,"location_history":"[4,5]","action_history":"[1]","mutagen_history":"[0]","location_rts":"[725]","trial_type":"fractal-mutation","trial_index":80,"time_elapsed":806728,"internal_node_id":"0.0-5.0-26.0"},{"group":"hexagon_bi","fractal_assignment":["../images/cyn_red.png","../images/ylw_slt.png","../images/gry_blk.png","../images/pnk_blu.png","../images/org_blu.png","../images/blu_wht.png"],"mutagen_generator_assignment":[1,0],"goal":2,"start":5,"action_noise":0.15,"location_history":"[5,4,3,2]","action_history":"[1,0,1]","mutagen_history":"[0,1,0]","location_rts":"[952,270,342]","trial_type":"fractal-mutation","trial_index":81,"time_elapsed":815050,"internal_node_id":"0.0-5.0-27.0"},{"group":"hexagon_bi","fractal_assignment":["../images/cyn_red.png","../images/ylw_slt.png","../images/gry_blk.png","../images/pnk_blu.png","../images/org_blu.png","../images/blu_wht.png"],"mutagen_generator_assignment":[1,0],"goal":3,"start":2,"action_noise":0.15,"location_history":"[2,3]","action_history":"[1]","mutagen_history":"[0]","location_rts":"[491]","trial_type":"fractal-mutation","trial_index":82,"time_elapsed":820122,"internal_node_id":"0.0-5.0-28.0"},{"group":"hexagon_bi","fractal_assignment":["../images/cyn_red.png","../images/ylw_slt.png","../images/gry_blk.png","../images/pnk_blu.png","../images/org_blu.png","../images/blu_wht.png"],"mutagen_generator_assignment":[1,0],"goal":1,"start":3,"action_noise":0.15,"location_history":"[3,2,1]","action_history":"[1,0]","mutagen_history":"[0,1]","location_rts":"[296,306]","trial_type":"fractal-mutation","trial_index":83,"time_elapsed":826413,"internal_node_id":"0.0-5.0-29.0"},{"group":"hexagon_bi","fractal_assignment":["../images/cyn_red.png","../images/ylw_slt.png","../images/gry_blk.png","../images/pnk_blu.png","../images/org_blu.png","../images/blu_wht.png"],"mutagen_generator_assignment":[1,0],"goal":4,"start":1,"action_noise":0.15,"location_history":"[1,0,5,4]","action_history":"[1,0,1]","mutagen_history":"[0,1,0]","location_rts":"[1011,157,433]","trial_type":"fractal-mutation","trial_index":84,"time_elapsed":834770,"internal_node_id":"0.0-5.0-30.0"},{"group":"hexagon_bi","fractal_assignment":["../images/cyn_red.png","../images/ylw_slt.png","../images/gry_blk.png","../images/pnk_blu.png","../images/org_blu.png","../images/blu_wht.png"],"mutagen_generator_assignment":[1,0],"goal":5,"start":4,"action_noise":0.15,"location_history":"[4,3,4,5]","action_history":"[1,0,1]","mutagen_history":"[0,1,0]","location_rts":"[549,309,385]","trial_type":"fractal-mutation","trial_index":85,"time_elapsed":842781,"internal_node_id":"0.0-5.0-31.0"},{"group":"hexagon_bi","fractal_assignment":["../images/cyn_red.png","../images/ylw_slt.png","../images/gry_blk.png","../images/pnk_blu.png","../images/org_blu.png","../images/blu_wht.png"],"mutagen_generator_assignment":[1,0],"goal":0,"start":5,"action_noise":0.15,"location_history":"[5,0]","action_history":"[1]","mutagen_history":"[0]","location_rts":"[929]","trial_type":"fractal-mutation","trial_index":86,"time_elapsed":848285,"internal_node_id":"0.0-5.0-32.0"},{"group":"hexagon_bi","fractal_assignment":["../images/cyn_red.png","../images/ylw_slt.png","../images/gry_blk.png","../images/pnk_blu.png","../images/org_blu.png","../images/blu_wht.png"],"mutagen_generator_assignment":[1,0],"goal":2,"start":0,"action_noise":0.15,"location_history":"[0,5,4,3,4,5,0,1,2]","action_history":"[1,0,1,0,1,0,1,0]","mutagen_history":"[0,1,0,1,0,1,0,1]","location_rts":"[976,377,396,391,347,403,332,465]","trial_type":"fractal-mutation","trial_index":87,"time_elapsed":864207,"internal_node_id":"0.0-5.0-33.0"},{"group":"hexagon_bi","fractal_assignment":["../images/cyn_red.png","../images/ylw_slt.png","../images/gry_blk.png","../images/pnk_blu.png","../images/org_blu.png","../images/blu_wht.png"],"mutagen_generator_assignment":[1,0],"goal":0,"start":2,"action_noise":0.15,"location_history":"[2,3,4,5,0]","action_history":"[1,0,1,0]","mutagen_history":"[0,1,0,1]","location_rts":"[703,304,303,315]","trial_type":"fractal-mutation","trial_index":88,"time_elapsed":873685,"internal_node_id":"0.0-5.0-34.0"},{"group":"hexagon_bi","fractal_assignment":["../images/cyn_red.png","../images/ylw_slt.png","../images/gry_blk.png","../images/pnk_blu.png","../images/org_blu.png","../images/blu_wht.png"],"mutagen_generator_assignment":[1,0],"goal":5,"start":0,"action_noise":0.15,"location_history":"[0,1,2,3,4,5]","action_history":"[1,0,1,0,1]","mutagen_history":"[0,1,0,1,0]","location_rts":"[980,326,322,371,349]","trial_type":"fractal-mutation","trial_index":89,"time_elapsed":884964,"internal_node_id":"0.0-5.0-35.0"},{"group":"hexagon_bi","fractal_assignment":["../images/cyn_red.png","../images/ylw_slt.png","../images/gry_blk.png","../images/pnk_blu.png","../images/org_blu.png","../images/blu_wht.png"],"mutagen_generator_assignment":[1,0],"goal":1,"start":5,"action_noise":0.15,"location_history":"[5,4,5,4,5,4,3,2,1]","action_history":"[1,0,1,0,1,0,1,0]","mutagen_history":"[0,1,0,1,0,1,0,1]","location_rts":"[903,308,285,344,398,485,408,374]","trial_type":"fractal-mutation","trial_index":90,"time_elapsed":900695,"internal_node_id":"0.0-5.0-36.0"},{"group":"hexagon_bi","fractal_assignment":["../images/cyn_red.png","../images/ylw_slt.png","../images/gry_blk.png","../images/pnk_blu.png","../images/org_blu.png","../images/blu_wht.png"],"mutagen_generator_assignment":[1,0],"goal":4,"start":1,"action_noise":0.15,"location_history":"[1,0,5,4]","action_history":"[1,0,1]","mutagen_history":"[0,1,0]","location_rts":"[901,320,341]","trial_type":"fractal-mutation","trial_index":91,"time_elapsed":909020,"internal_node_id":"0.0-5.0-37.0"},{"group":"hexagon_bi","fractal_assignment":["../images/cyn_red.png","../images/ylw_slt.png","../images/gry_blk.png","../images/pnk_blu.png","../images/org_blu.png","../images/blu_wht.png"],"mutagen_generator_assignment":[1,0],"goal":3,"start":4,"action_noise":0.15,"location_history":"[4,3]","action_history":"[1]","mutagen_history":"[0]","location_rts":"[1001]","trial_type":"fractal-mutation","trial_index":92,"time_elapsed":914595,"internal_node_id":"0.0-5.0-38.0"},{"group":"hexagon_bi","fractal_assignment":["../images/cyn_red.png","../images/ylw_slt.png","../images/gry_blk.png","../images/pnk_blu.png","../images/org_blu.png","../images/blu_wht.png"],"mutagen_generator_assignment":[1,0],"goal":5,"start":3,"action_noise":0.15,"location_history":"[3,2,3,2,1,0,5]","action_history":"[1,0,1,0,1,0]","mutagen_history":"[0,1,0,1,0,1]","location_rts":"[816,619,410,312,650,444]","trial_type":"fractal-mutation","trial_index":93,"time_elapsed":927904,"internal_node_id":"0.0-5.0-39.0"},{"group":"hexagon_bi","fractal_assignment":["../images/cyn_red.png","../images/ylw_slt.png","../images/gry_blk.png","../images/pnk_blu.png","../images/org_blu.png","../images/blu_wht.png"],"mutagen_generator_assignment":[1,0],"goal":1,"start":5,"action_noise":0.15,"location_history":"[5,4,3,2,1]","action_history":"[1,0,1,0]","mutagen_history":"[0,1,0,1]","location_rts":"[3324,331,265,381]","trial_type":"fractal-mutation","trial_index":94,"time_elapsed":940076,"internal_node_id":"0.0-5.0-40.0"},{"group":"hexagon_bi","fractal_assignment":["../images/cyn_red.png","../images/ylw_slt.png","../images/gry_blk.png","../images/pnk_blu.png","../images/org_blu.png","../images/blu_wht.png"],"mutagen_generator_assignment":[1,0],"goal":2,"start":1,"action_noise":0.15,"location_history":"[1,0,5,4,5,4,3,2]","action_history":"[1,0,1,0,1,0,1]","mutagen_history":"[0,1,0,1,0,1,0]","location_rts":"[1135,298,271,1951,431,377,351]","trial_type":"fractal-mutation","trial_index":95,"time_elapsed":956011,"internal_node_id":"0.0-5.0-41.0"},{"group":"hexagon_bi","fractal_assignment":["../images/cyn_red.png","../images/ylw_slt.png","../images/gry_blk.png","../images/pnk_blu.png","../images/org_blu.png","../images/blu_wht.png"],"mutagen_generator_assignment":[1,0],"goal":4,"start":2,"action_noise":0.15,"location_history":"[2,3,4]","action_history":"[1,0]","mutagen_history":"[0,1]","location_rts":"[1311,323]","trial_type":"fractal-mutation","trial_index":96,"time_elapsed":963338,"internal_node_id":"0.0-5.0-42.0"},{"group":"hexagon_bi","fractal_assignment":["../images/cyn_red.png","../images/ylw_slt.png","../images/gry_blk.png","../images/pnk_blu.png","../images/org_blu.png","../images/blu_wht.png"],"mutagen_generator_assignment":[1,0],"goal":0,"start":4,"action_noise":0.15,"location_history":"[4,5,0]","action_history":"[1,0]","mutagen_history":"[0,1]","location_rts":"[981,405]","trial_type":"fractal-mutation","trial_index":97,"time_elapsed":970405,"internal_node_id":"0.0-5.0-43.0"},{"group":"hexagon_bi","fractal_assignment":["../images/cyn_red.png","../images/ylw_slt.png","../images/gry_blk.png","../images/pnk_blu.png","../images/org_blu.png","../images/blu_wht.png"],"mutagen_generator_assignment":[1,0],"goal":3,"start":0,"action_noise":0.15,"location_history":"[0,1,2,3]","action_history":"[1,0,1]","mutagen_history":"[0,1,0]","location_rts":"[898,299,368]","trial_type":"fractal-mutation","trial_index":98,"time_elapsed":978719,"internal_node_id":"0.0-5.0-44.0"},{"group":"hexagon_bi","fractal_assignment":["../images/cyn_red.png","../images/ylw_slt.png","../images/gry_blk.png","../images/pnk_blu.png","../images/org_blu.png","../images/blu_wht.png"],"mutagen_generator_assignment":[1,0],"goal":0,"start":3,"action_noise":0.15,"location_history":"[3,2,1,0]","action_history":"[1,0,1]","mutagen_history":"[0,1,0]","location_rts":"[984,261,325]","trial_type":"fractal-mutation","trial_index":99,"time_elapsed":987045,"internal_node_id":"0.0-5.0-45.0"},{"group":"hexagon_bi","fractal_assignment":["../images/cyn_red.png","../images/ylw_slt.png","../images/gry_blk.png","../images/pnk_blu.png","../images/org_blu.png","../images/blu_wht.png"],"mutagen_generator_assignment":[1,0],"goal":4,"start":0,"action_noise":0.15,"location_history":"[0,5,0,1,2,3,4]","action_history":"[1,0,1,0,1,0]","mutagen_history":"[0,1,0,1,0,1]","location_rts":"[894,290,418,494,315,371]","trial_type":"fractal-mutation","trial_index":100,"time_elapsed":999875,"internal_node_id":"0.0-5.0-46.0"},{"group":"hexagon_bi","fractal_assignment":["../images/cyn_red.png","../images/ylw_slt.png","../images/gry_blk.png","../images/pnk_blu.png","../images/org_blu.png","../images/blu_wht.png"],"mutagen_generator_assignment":[1,0],"goal":5,"start":4,"action_noise":0.15,"location_history":"[4,5]","action_history":"[1]","mutagen_history":"[0]","location_rts":"[1456]","trial_type":"fractal-mutation","trial_index":101,"time_elapsed":1005906,"internal_node_id":"0.0-5.0-47.0"},{"group":"hexagon_bi","fractal_assignment":["../images/cyn_red.png","../images/ylw_slt.png","../images/gry_blk.png","../images/pnk_blu.png","../images/org_blu.png","../images/blu_wht.png"],"mutagen_generator_assignment":[1,0],"goal":2,"start":5,"action_noise":0.15,"location_history":"[5,4,3,2]","action_history":"[1,0,1]","mutagen_history":"[0,1,0]","location_rts":"[985,281,368]","trial_type":"fractal-mutation","trial_index":102,"time_elapsed":1014291,"internal_node_id":"0.0-5.0-48.0"},{"group":"hexagon_bi","fractal_assignment":["../images/cyn_red.png","../images/ylw_slt.png","../images/gry_blk.png","../images/pnk_blu.png","../images/org_blu.png","../images/blu_wht.png"],"mutagen_generator_assignment":[1,0],"goal":1,"start":2,"action_noise":0.15,"location_history":"[2,3,4,5,0,1]","action_history":"[1,0,1,0,1]","mutagen_history":"[0,1,0,1,0]","location_rts":"[1148,306,403,448,384]","trial_type":"fractal-mutation","trial_index":103,"time_elapsed":1025919,"internal_node_id":"0.0-5.0-49.0"},{"view_history":"[{\"page_index\":0,\"viewing_time\":2231}]","rt":2231,"trial_type":"instructions","trial_index":104,"time_elapsed":1029150,"internal_node_id":"0.0-6.0"},{"rt":22752,"responses":"{\"Q0\":\"I think it was testing my spatial navigation skills\"}","trial_type":"survey-text","trial_index":105,"time_elapsed":1052907,"internal_node_id":"0.0-7.0-0.0"},{"rt":22799,"responses":"{\"Q0\":\"I think it was testing my skills to recognize relationships between visual patterns.\"}","trial_type":"survey-text","trial_index":106,"time_elapsed":1076708,"internal_node_id":"0.0-7.0-1.0"},{"rt":21063,"responses":"{\"Q0\":\"<img src='../images/diagrams/hexagon_bi.png'>\"}","trial_type":"survey-multi-choice","trial_index":107,"time_elapsed":1098779,"internal_node_id":"0.0-7.0-2.0"},{"rt":16147,"assignments":["../images/cyn_red.png","../images/org_blu.png","../images/gry_blk.png","../images/pnk_blu.png","../images/blu_wht.png","../images/ylw_slt.png"],"trial_type":"drag-drop-on-image","trial_index":108,"time_elapsed":1115932,"internal_node_id":"0.0-7.0-3.0"},{"rt":6786,"responses":"{\"Q0\":\"2\"}","trial_type":"survey-likert","trial_index":109,"time_elapsed":1123726,"internal_node_id":"0.0-7.0-4.0"},{"rt":18808,"responses":"{\"Q0\":\"I had a similar strategy of going back and forth between options.\"}","trial_type":"survey-text","trial_index":110,"time_elapsed":1143538,"internal_node_id":"0.0-7.0-5.0"},{"rt":4358,"responses":"{\"Q0\":\"Yes\"}","trial_type":"survey-multi-choice","trial_index":111,"time_elapsed":1148903,"internal_node_id":"0.0-7.0-6.0"},{"rt":8817,"responses":"{\"Q0\":\"Between sessions 1 and 2\"}","trial_type":"survey-multi-choice","trial_index":112,"time_elapsed":1158731,"internal_node_id":"0.0-7.0-7.0"},{"rt":19493,"responses":"{\"Q0\":\"I found alternating between the options got me to the correct answer fairly quickly.\"}","trial_type":"survey-text","trial_index":113,"time_elapsed":1179228,"internal_node_id":"0.0-7.0-8.0"},{"rt":4425,"responses":"{\"Q0\":\"3\"}","trial_type":"survey-likert","trial_index":114,"time_elapsed":1184658,"internal_node_id":"0.0-7.0-9.0"},{"rt":5833,"responses":"{\"Q0\":\"Same structure\"}","trial_type":"survey-multi-choice","trial_index":115,"time_elapsed":1191498,"internal_node_id":"0.0-7.0-10.0"},{"rt":15293,"responses":"{\"Q0\":\"left (white) door = acid, right (black) door = ray\",\"Q1\":\"Moderately confident\"}","trial_type":"survey-multi-choice","trial_index":116,"time_elapsed":1207803,"internal_node_id":"0.0-7.0-11.0"},{"rt":12142,"responses":"{\"Q0\":\"25-35\",\"Q1\":\"Master's degree\",\"Q2\":\"Female\",\"Q3\":\"White\"}","trial_type":"survey-multi-choice","trial_index":117,"time_elapsed":1220991,"internal_node_id":"0.0-8.0"},{"rt":2878,"responses":"{\"Q0\":\"\"}","trial_type":"survey-text","trial_index":118,"time_elapsed":1224873,"internal_node_id":"0.0-9.0"}]