[{"view_history":"[{\"page_index\":0,\"viewing_time\":2808},{\"page_index\":1,\"viewing_time\":10382}]","rt":13192,"trial_type":"instructions","trial_index":0,"time_elapsed":13194,"internal_node_id":"0.0-0.0"},{"view_history":"[{\"page_index\":0,\"viewing_time\":1764},{\"page_index\":1,\"viewing_time\":5851}]","rt":7616,"trial_type":"instructions","trial_index":1,"time_elapsed":21813,"internal_node_id":"0.0-1.0"},{"group":"hexagon_tri","room_assignment":["purple","blue","red","grey","green","yellow"],"door_color_assignment":["white","black"],"door_generator_assignment":[0,1],"goal":2,"start":1,"action_noise":0.15,"location_history":"[1,5,4,0,5,4,0,5,4,0,5,4,2]","action_history":"[1,1,0,0,0,0,0,0,0,0,0,0]","door_history":"[1,1,0,0,0,0,0,0,0,0,0,0]","location_rts":"[1981,786,966,361,482,309,627,242,326,289,617,344]","trial_type":"two-door-navigation","trial_index":2,"time_elapsed":45409,"internal_node_id":"0.0-2.0-0.0"},{"group":"hexagon_tri","room_assignment":["purple","blue","red","grey","green","yellow"],"door_color_assignment":["white","black"],"door_generator_assignment":[0,1],"goal":0,"start":2,"action_noise":0.15,"location_history":"[2,3,4,2,3,4,2,1,3,2,1,3,2,1,3,4,2,3,4,0]","action_history":"[1,1,1,1,1,1,0,0,0,0,0,0,0,0,1,1,1,1,1]","door_history":"[1,1,1,1,1,1,0,0,0,0,0,0,0,0,1,1,1,1,1]","location_rts":"[317,257,249,497,245,192,1033,404,397,243,368,296,136,213,776,889,336,183,316]","trial_type":"two-door-navigation","trial_index":3,"time_elapsed":76557,"internal_node_id":"0.0-2.0-1.0"},{"group":"hexagon_tri","room_assignment":["purple","blue","red","grey","green","yellow"],"door_color_assignment":["white","black"],"door_generator_assignment":[0,1],"goal":5,"start":0,"action_noise":0.15,"location_history":"[0,1,5]","action_history":"[1,1]","door_history":"[1,1]","location_rts":"[585,1089]","trial_type":"two-door-navigation","trial_index":4,"time_elapsed":83901,"internal_node_id":"0.0-2.0-2.0"},{"group":"hexagon_tri","room_assignment":["purple","blue","red","grey","green","yellow"],"door_color_assignment":["white","black"],"door_generator_assignment":[0,1],"goal":1,"start":5,"action_noise":0.15,"location_history":"[5,4,0,1]","action_history":"[0,0,0]","door_history":"[0,0,0]","location_rts":"[681,185,105]","trial_type":"two-door-navigation","trial_index":5,"time_elapsed":91699,"internal_node_id":"0.0-2.0-3.0"},{"group":"hexagon_tri","room_assignment":["purple","blue","red","grey","green","yellow"],"door_color_assignment":["white","black"],"door_generator_assignment":[0,1],"goal":3,"start":1,"action_noise":0.15,"location_history":"[1,5,4,2,3]","action_history":"[1,1,1,1]","door_history":"[1,1,1,1]","location_rts":"[257,136,472,387]","trial_type":"two-door-navigation","trial_index":6,"time_elapsed":100775,"internal_node_id":"0.0-2.0-4.0"},{"group":"hexagon_tri","room_assignment":["purple","blue","red","grey","green","yellow"],"door_color_assignment":["white","black"],"door_generator_assignment":[0,1],"goal":5,"start":3,"action_noise":0.15,"location_history":"[3,4,2,3,2,3,4,0,1,3,4,0,5]","action_history":"[1,1,1,1,1,1,1,1,1,1,0,0]","door_history":"[1,1,1,1,1,1,1,1,1,1,0,0]","location_rts":"[584,1524,793,1587,5,489,909,2392,67,384,148,277]","trial_type":"two-door-navigation","trial_index":7,"time_elapsed":126303,"internal_node_id":"0.0-2.0-5.0"},{"group":"hexagon_tri","room_assignment":["purple","blue","red","grey","green","yellow"],"door_color_assignment":["white","black"],"door_generator_assignment":[0,1],"goal":4,"start":5,"action_noise":0.15,"location_history":"[5,0,5,4]","action_history":"[0,0,0]","door_history":"[0,0,0]","location_rts":"[1117,52,356]","trial_type":"two-door-navigation","trial_index":8,"time_elapsed":134542,"internal_node_id":"0.0-2.0-6.0"},{"group":"hexagon_tri","room_assignment":["purple","blue","red","grey","green","yellow"],"door_color_assignment":["white","black"],"door_generator_assignment":[0,1],"goal":0,"start":4,"action_noise":0.15,"location_history":"[4,0]","action_history":"[0]","door_history":"[0]","location_rts":"[483]","trial_type":"two-door-navigation","trial_index":9,"time_elapsed":139630,"internal_node_id":"0.0-2.0-7.0"},{"group":"hexagon_tri","room_assignment":["purple","blue","red","grey","green","yellow"],"door_color_assignment":["white","black"],"door_generator_assignment":[0,1],"goal":2,"start":0,"action_noise":0.15,"location_history":"[0,5,4,0,5,4,0,5,4,0,5,4,0,5,4,0,5,4,0,5,4,0,5,4,0,5,0,1,5,0,1,5,0,1,5,0,1,5,4,2]","action_history":"[0,0,0,0,0,0,0,0,0,0,0,0,0,0,0,0,0,0,0,0,0,0,0,0,0,1,1,1,1,1,1,1,1,1,1,1,1,1,1]","door_history":"[0,0,0,0,0,0,0,0,0,0,0,0,0,0,0,0,0,0,0,0,0,0,0,0,0,1,1,1,1,1,1,1,1,1,1,1,1,1,1]","location_rts":"[820,921,1696,360,504,324,703,263,1518,1616,1012,436,317,348,3865,293,476,1474,656,729,3199,784,611,1649,639,724,776,340,533,252,1000,3674,595,704,309,199,879,896,1378]","trial_type":"two-door-navigation","trial_index":10,"time_elapsed":222340,"internal_node_id":"0.0-2.0-8.0"},{"group":"hexagon_tri","room_assignment":["purple","blue","red","grey","green","yellow"],"door_color_assignment":["white","black"],"door_generator_assignment":[0,1],"goal":4,"start":2,"action_noise":0.15,"location_history":"[2,3,4]","action_history":"[1,1]","door_history":"[1,1]","location_rts":"[740,360]","trial_type":"two-door-navigation","trial_index":11,"time_elapsed":229124,"internal_node_id":"0.0-2.0-9.0"},{"group":"hexagon_tri","room_assignment":["purple","blue","red","grey","green","yellow"],"door_color_assignment":["white","black"],"door_generator_assignment":[0,1],"goal":2,"start":4,"action_noise":0.15,"location_history":"[4,0,1,5,0,1,5,0,1,5,0,1,3,4,2]","action_history":"[1,1,1,1,1,1,1,1,1,1,1,0,1,1]","door_history":"[1,1,1,1,1,1,1,1,1,1,1,0,1,1]","location_rts":"[366,1384,802,734,502,81,1056,773,585,1205,585,799,1683,65]","trial_type":"two-door-navigation","trial_index":12,"time_elapsed":258013,"internal_node_id":"0.0-2.0-10.0"},{"group":"hexagon_tri","room_assignment":["purple","blue","red","grey","green","yellow"],"door_color_assignment":["white","black"],"door_generator_assignment":[0,1],"goal":3,"start":2,"action_noise":0.15,"location_history":"[2,3]","action_history":"[1]","door_history":"[1]","location_rts":"[396]","trial_type":"two-door-navigation","trial_index":13,"time_elapsed":262967,"internal_node_id":"0.0-2.0-11.0"},{"group":"hexagon_tri","room_assignment":["purple","blue","red","grey","green","yellow"],"door_color_assignment":["white","black"],"door_generator_assignment":[0,1],"goal":0,"start":3,"action_noise":0.15,"location_history":"[3,4,0]","action_history":"[1,0]","door_history":"[1,0]","location_rts":"[330,1552]","trial_type":"two-door-navigation","trial_index":14,"time_elapsed":270391,"internal_node_id":"0.0-2.0-12.0"},{"group":"hexagon_tri","room_assignment":["purple","blue","red","grey","green","yellow"],"door_color_assignment":["white","black"],"door_generator_assignment":[0,1],"goal":5,"start":0,"action_noise":0.15,"location_history":"[0,1,3,2,1,5]","action_history":"[0,0,1,1,1]","door_history":"[0,0,1,1,1]","location_rts":"[302,1036,984,407,1175]","trial_type":"two-door-navigation","trial_index":15,"time_elapsed":282874,"internal_node_id":"0.0-2.0-13.0"},{"group":"hexagon_tri","room_assignment":["purple","blue","red","grey","green","yellow"],"door_color_assignment":["white","black"],"door_generator_assignment":[0,1],"goal":1,"start":5,"action_noise":0.15,"location_history":"[5,0,1]","action_history":"[1,1]","door_history":"[1,1]","location_rts":"[2961,110]","trial_type":"two-door-navigation","trial_index":16,"time_elapsed":291497,"internal_node_id":"0.0-2.0-14.0"},{"group":"hexagon_tri","room_assignment":["purple","blue","red","grey","green","yellow"],"door_color_assignment":["white","black"],"door_generator_assignment":[0,1],"goal":5,"start":1,"action_noise":0.15,"location_history":"[1,5]","action_history":"[1]","door_history":"[1]","location_rts":"[902]","trial_type":"two-door-navigation","trial_index":17,"time_elapsed":296916,"internal_node_id":"0.0-2.0-15.0"},{"group":"hexagon_tri","room_assignment":["purple","blue","red","grey","green","yellow"],"door_color_assignment":["white","black"],"door_generator_assignment":[0,1],"goal":3,"start":5,"action_noise":0.15,"location_history":"[5,4,2,3]","action_history":"[1,1,1]","door_history":"[1,1,1]","location_rts":"[653,2727,1958]","trial_type":"two-door-navigation","trial_index":18,"time_elapsed":308826,"internal_node_id":"0.0-2.0-16.0"},{"group":"hexagon_tri","room_assignment":["purple","blue","red","grey","green","yellow"],"door_color_assignment":["white","black"],"door_generator_assignment":[0,1],"goal":2,"start":3,"action_noise":0.15,"location_history":"[3,4,0,1,5,0,1,5,0,1,5,4,0,5,4,0,5,4,0,5,4,2]","action_history":"[1,1,1,1,1,1,1,1,1,1,0,0,0,0,0,0,0,0,0,0,0]","door_history":"[1,1,1,1,1,1,1,1,1,1,0,0,0,0,0,0,0,0,0,0,0]","location_rts":"[271,1321,1658,133,213,2525,466,358,353,155,96,583,635,330,412,221,243,266,273,251,245]","trial_type":"two-door-navigation","trial_index":19,"time_elapsed":344729,"internal_node_id":"0.0-2.0-17.0"},{"group":"hexagon_tri","room_assignment":["purple","blue","red","grey","green","yellow"],"door_color_assignment":["white","black"],"door_generator_assignment":[0,1],"goal":1,"start":2,"action_noise":0.15,"location_history":"[2,3,4,2,3,4,2,1]","action_history":"[1,1,1,1,1,1,1]","door_history":"[1,1,1,1,1,1,1]","location_rts":"[423,299,349,543,497,216,191]","trial_type":"two-door-navigation","trial_index":20,"time_elapsed":357924,"internal_node_id":"0.0-2.0-18.0"},{"group":"hexagon_tri","room_assignment":["purple","blue","red","grey","green","yellow"],"door_color_assignment":["white","black"],"door_generator_assignment":[0,1],"goal":4,"start":1,"action_noise":0.15,"location_history":"[1,3,2,1,3,4]","action_history":"[0,0,0,0,0]","door_history":"[0,0,0,0,0]","location_rts":"[1018,311,292,642,269]","trial_type":"two-door-navigation","trial_index":21,"time_elapsed":369057,"internal_node_id":"0.0-2.0-19.0"},{"group":"hexagon_tri","room_assignment":["purple","blue","red","grey","green","yellow"],"door_color_assignment":["white","black"],"door_generator_assignment":[0,1],"goal":0,"start":4,"action_noise":0.15,"location_history":"[4,2,3,4,2,3,2,1,3,4,0]","action_history":"[1,1,1,1,1,0,0,0,0,0]","door_history":"[1,1,1,1,1,0,0,0,0,0]","location_rts":"[435,267,634,166,233,1074,478,46,128,217]","trial_type":"two-door-navigation","trial_index":22,"time_elapsed":386411,"internal_node_id":"0.0-2.0-20.0"},{"group":"hexagon_tri","room_assignment":["purple","blue","red","grey","green","yellow"],"door_color_assignment":["white","black"],"door_generator_assignment":[0,1],"goal":3,"start":0,"action_noise":0.15,"location_history":"[0,1,3]","action_history":"[1,1]","door_history":"[1,1]","location_rts":"[356,67]","trial_type":"two-door-navigation","trial_index":23,"time_elapsed":392377,"internal_node_id":"0.0-2.0-21.0"},{"group":"hexagon_tri","room_assignment":["purple","blue","red","grey","green","yellow"],"door_color_assignment":["white","black"],"door_generator_assignment":[0,1],"goal":1,"start":3,"action_noise":0.15,"location_history":"[3,4,0,1]","action_history":"[1,1,1]","door_history":"[1,1,1]","location_rts":"[406,327,55]","trial_type":"two-door-navigation","trial_index":24,"time_elapsed":399733,"internal_node_id":"0.0-2.0-22.0"},{"group":"hexagon_tri","room_assignment":["purple","blue","red","grey","green","yellow"],"door_color_assignment":["white","black"],"door_generator_assignment":[0,1],"goal":0,"start":1,"action_noise":0.15,"location_history":"[1,5,4,2,3,4,0]","action_history":"[1,1,1,1,1,1]","door_history":"[1,1,1,1,1,1]","location_rts":"[347,185,208,1049,839,608]","trial_type":"two-door-navigation","trial_index":25,"time_elapsed":412603,"internal_node_id":"0.0-2.0-23.0"},{"group":"hexagon_tri","room_assignment":["purple","blue","red","grey","green","yellow"],"door_color_assignment":["white","black"],"door_generator_assignment":[0,1],"goal":2,"start":0,"action_noise":0.15,"location_history":"[0,1,5,4,2]","action_history":"[1,1,1,1]","door_history":"[1,1,1,1]","location_rts":"[572,1,115,770]","trial_type":"two-door-navigation","trial_index":26,"time_elapsed":421620,"internal_node_id":"0.0-2.0-24.0"},{"group":"hexagon_tri","room_assignment":["purple","blue","red","grey","green","yellow"],"door_color_assignment":["white","black"],"door_generator_assignment":[0,1],"goal":4,"start":2,"action_noise":0.15,"location_history":"[2,3,2,1,3,2,1,3,2,1,3,2,3,2,3,2,3,2,1,5,0,1,5,4]","action_history":"[1,0,0,0,0,0,0,0,0,0,0,0,0,0,0,0,0,0,1,1,1,1,1]","door_history":"[1,0,0,0,0,0,0,0,0,0,0,0,0,0,0,0,0,0,1,1,1,1,1]","location_rts":"[454,407,425,282,254,337,422,279,87,567,280,418,233,37,44,514,1724,713,256,36,178,209,200]","trial_type":"two-door-navigation","trial_index":27,"time_elapsed":456947,"internal_node_id":"0.0-2.0-25.0"},{"group":"hexagon_tri","room_assignment":["purple","blue","red","grey","green","yellow"],"door_color_assignment":["white","black"],"door_generator_assignment":[0,1],"goal":5,"start":4,"action_noise":0.15,"location_history":"[4,2,3,4,0,5]","action_history":"[1,1,1,0,0]","door_history":"[1,1,1,0,0]","location_rts":"[305,360,901,163,61]","trial_type":"two-door-navigation","trial_index":28,"time_elapsed":467346,"internal_node_id":"0.0-2.0-26.0"},{"group":"hexagon_tri","room_assignment":["purple","blue","red","grey","green","yellow"],"door_color_assignment":["white","black"],"door_generator_assignment":[0,1],"goal":2,"start":5,"action_noise":0.15,"location_history":"[5,0,5,4,0,5,4,0,5,0,1,3,2]","action_history":"[0,0,0,0,0,0,0,1,1,1,1,1]","door_history":"[0,0,0,0,0,0,0,1,1,1,1,1]","location_rts":"[387,84,466,193,751,95,375,1521,494,280,86,7]","trial_type":"two-door-navigation","trial_index":29,"time_elapsed":487770,"internal_node_id":"0.0-2.0-27.0"},{"group":"hexagon_tri","room_assignment":["purple","blue","red","grey","green","yellow"],"door_color_assignment":["white","black"],"door_generator_assignment":[0,1],"goal":3,"start":2,"action_noise":0.15,"location_history":"[2,1,5,0,1,3]","action_history":"[0,0,0,0,0]","door_history":"[0,0,0,0,0]","location_rts":"[1173,309,286,124,140]","trial_type":"two-door-navigation","trial_index":30,"time_elapsed":498440,"internal_node_id":"0.0-2.0-28.0"},{"group":"hexagon_tri","room_assignment":["purple","blue","red","grey","green","yellow"],"door_color_assignment":["white","black"],"door_generator_assignment":[0,1],"goal":1,"start":3,"action_noise":0.15,"location_history":"[3,4,0,1]","action_history":"[1,1,1]","door_history":"[1,1,1]","location_rts":"[735,325,176]","trial_type":"two-door-navigation","trial_index":31,"time_elapsed":506227,"internal_node_id":"0.0-2.0-29.0"},{"group":"hexagon_tri","room_assignment":["purple","blue","red","grey","green","yellow"],"door_color_assignment":["white","black"],"door_generator_assignment":[0,1],"goal":4,"start":1,"action_noise":0.15,"location_history":"[1,5,4]","action_history":"[1,1]","door_history":"[1,1]","location_rts":"[481,17]","trial_type":"two-door-navigation","trial_index":32,"time_elapsed":512253,"internal_node_id":"0.0-2.0-30.0"},{"group":"hexagon_tri","room_assignment":["purple","blue","red","grey","green","yellow"],"door_color_assignment":["white","black"],"door_generator_assignment":[0,1],"goal":5,"start":4,"action_noise":0.15,"location_history":"[4,2,3,4,2,3,4,2,3,4,2,1,3,2,1,3,4,2,3,4,2,3,2,1,3,4,0,1,5]","action_history":"[1,1,1,1,1,1,1,1,1,1,0,0,0,0,0,1,1,1,1,1,0,0,0,0,0,0,1,1]","door_history":"[1,1,1,1,1,1,1,1,1,1,0,0,0,0,0,1,1,1,1,1,0,0,0,0,0,0,1,1]","location_rts":"[399,372,103,309,421,149,276,7,39,151,526,4,229,244,757,483,259,284,146,243,265,232,241,18,189,70,297,54]","trial_type":"two-door-navigation","trial_index":33,"time_elapsed":551111,"internal_node_id":"0.0-2.0-31.0"},{"group":"hexagon_tri","room_assignment":["purple","blue","red","grey","green","yellow"],"door_color_assignment":["white","black"],"door_generator_assignment":[0,1],"goal":0,"start":5,"action_noise":0.15,"location_history":"[5,0]","action_history":"[0]","door_history":"[0]","location_rts":"[875]","trial_type":"two-door-navigation","trial_index":34,"time_elapsed":556501,"internal_node_id":"0.0-2.0-32.0"},{"group":"hexagon_tri","room_assignment":["purple","blue","red","grey","green","yellow"],"door_color_assignment":["white","black"],"door_generator_assignment":[0,1],"goal":2,"start":0,"action_noise":0.15,"location_history":"[0,5,4,0,5,4,0,5,4,0,5,4,0,1,3,4,0,5,4,0,1,5,4,0,5,4,0,5,4,0,5,4,2]","action_history":"[0,0,0,0,0,0,0,0,0,0,0,0,0,0,0,0,0,0,0,1,0,0,0,0,0,0,0,0,0,0,0,1]","door_history":"[0,0,0,0,0,0,0,0,0,0,0,0,0,0,0,0,0,0,0,1,0,0,0,0,0,0,0,0,0,0,0,1]","location_rts":"[499,169,92,431,584,508,968,1853,877,1131,432,647,296,1702,536,273,317,338,345,341,1583,79,3,242,323,459,523,244,248,172,305,144]","trial_type":"two-door-navigation","trial_index":35,"time_elapsed":609316,"internal_node_id":"0.0-2.0-33.0"},{"group":"hexagon_tri","room_assignment":["purple","blue","red","grey","green","yellow"],"door_color_assignment":["white","black"],"door_generator_assignment":[0,1],"goal":0,"start":2,"action_noise":0.15,"location_history":"[2,3,4,2,3,2,3,2,1,3,2,1,3,4,0]","action_history":"[1,1,1,1,1,0,0,0,0,0,0,0,0,0]","door_history":"[1,1,1,1,1,0,0,0,0,0,0,0,0,0]","location_rts":"[942,1334,1087,87,407,1015,601,3229,1237,373,380,378,272,565]","trial_type":"two-door-navigation","trial_index":36,"time_elapsed":639004,"internal_node_id":"0.0-2.0-34.0"},{"group":"hexagon_tri","room_assignment":["purple","blue","red","grey","green","yellow"],"door_color_assignment":["white","black"],"door_generator_assignment":[0,1],"goal":5,"start":0,"action_noise":0.15,"location_history":"[0,1,3,2,1,3,2,1,3,2,3,4,0,5]","action_history":"[0,0,0,0,0,0,0,0,0,1,1,1,0]","door_history":"[0,0,0,0,0,0,0,0,0,1,1,1,0]","location_rts":"[1599,23,408,440,192,1580,715,1206,448,1107,1125,765,125]","trial_type":"two-door-navigation","trial_index":37,"time_elapsed":665579,"internal_node_id":"0.0-2.0-35.0"},{"group":"hexagon_tri","room_assignment":["purple","blue","red","grey","green","yellow"],"door_color_assignment":["white","black"],"door_generator_assignment":[0,1],"goal":1,"start":5,"action_noise":0.15,"location_history":"[5,0,5,0,5,4,0,5,4,0,5,0,5,0,1]","action_history":"[0,0,0,0,0,0,0,0,0,0,1,1,1,1]","door_history":"[0,0,0,0,0,0,0,0,0,0,1,1,1,1]","location_rts":"[1174,33,14,647,438,1544,451,2237,1006,17,1851,857,525,929]","trial_type":"two-door-navigation","trial_index":38,"time_elapsed":695094,"internal_node_id":"0.0-2.0-36.0"},{"group":"hexagon_tri","room_assignment":["purple","blue","red","grey","green","yellow"],"door_color_assignment":["white","black"],"door_generator_assignment":[0,1],"goal":4,"start":1,"action_noise":0.15,"location_history":"[1,5,0,1,5,4]","action_history":"[1,1,1,1,1]","door_history":"[1,1,1,1,1]","location_rts":"[439,75,159,141,870]","trial_type":"two-door-navigation","trial_index":39,"time_elapsed":705392,"internal_node_id":"0.0-2.0-37.0"},{"group":"hexagon_tri","room_assignment":["purple","blue","red","grey","green","yellow"],"door_color_assignment":["white","black"],"door_generator_assignment":[0,1],"goal":3,"start":4,"action_noise":0.15,"location_history":"[4,2,3]","action_history":"[1,1]","door_history":"[1,1]","location_rts":"[892,343]","trial_type":"two-door-navigation","trial_index":40,"time_elapsed":712161,"internal_node_id":"0.0-2.0-38.0"},{"group":"hexagon_tri","room_assignment":["purple","blue","red","grey","green","yellow"],"door_color_assignment":["white","black"],"door_generator_assignment":[0,1],"goal":5,"start":3,"action_noise":0.15,"location_history":"[3,4,0,5]","action_history":"[1,0,0]","door_history":"[1,0,0]","location_rts":"[734,474,414]","trial_type":"two-door-navigation","trial_index":41,"time_elapsed":720343,"internal_node_id":"0.0-2.0-39.0"},{"group":"hexagon_tri","room_assignment":["purple","blue","red","grey","green","yellow"],"door_color_assignment":["white","black"],"door_generator_assignment":[0,1],"goal":1,"start":5,"action_noise":0.15,"location_history":"[5,4,0,5,4,0,5,4,0,5,4,0,5,0,5,0,1]","action_history":"[0,0,0,0,0,0,0,0,0,0,0,0,0,0,0,0]","door_history":"[0,0,0,0,0,0,0,0,0,0,0,0,0,0,0,0]","location_rts":"[429,71,24,524,397,233,299,312,242,81,375,723,1058,380,78,343]","trial_type":"two-door-navigation","trial_index":42,"time_elapsed":745728,"internal_node_id":"0.0-2.0-40.0"},{"group":"hexagon_tri","room_assignment":["purple","blue","red","grey","green","yellow"],"door_color_assignment":["white","black"],"door_generator_assignment":[0,1],"goal":2,"start":1,"action_noise":0.15,"location_history":"[1,5,0,1,5,4,2]","action_history":"[1,1,1,1,1,1]","door_history":"[1,1,1,1,1,1]","location_rts":"[817,31,461,306,13,523]","trial_type":"two-door-navigation","trial_index":43,"time_elapsed":757491,"internal_node_id":"0.0-2.0-41.0"},{"group":"hexagon_tri","room_assignment":["purple","blue","red","grey","green","yellow"],"door_color_assignment":["white","black"],"door_generator_assignment":[0,1],"goal":4,"start":2,"action_noise":0.15,"location_history":"[2,1,3,2,1,3,2,1,3,4]","action_history":"[0,0,0,0,0,0,0,0,1]","door_history":"[0,0,0,0,0,0,0,0,1]","location_rts":"[338,577,63,929,97,256,351,494,493]","trial_type":"two-door-navigation","trial_index":44,"time_elapsed":773776,"internal_node_id":"0.0-2.0-42.0"},{"group":"hexagon_tri","room_assignment":["purple","blue","red","grey","green","yellow"],"door_color_assignment":["white","black"],"door_generator_assignment":[0,1],"goal":0,"start":4,"action_noise":0.15,"location_history":"[4,2,3,4,2,3,4,2,1,5,4,2,3,4,2,1,5,4,0]","action_history":"[1,1,1,1,1,1,1,1,1,1,1,1,1,1,1,1,0,0]","door_history":"[1,1,1,1,1,1,1,1,1,1,1,1,1,1,1,1,0,0]","location_rts":"[349,89,254,727,763,167,570,85,298,45,100,214,32,154,60,118,1117,81]","trial_type":"two-door-navigation","trial_index":45,"time_elapsed":800845,"internal_node_id":"0.0-2.0-43.0"},{"group":"hexagon_tri","room_assignment":["purple","blue","red","grey","green","yellow"],"door_color_assignment":["white","black"],"door_generator_assignment":[0,1],"goal":3,"start":0,"action_noise":0.15,"location_history":"[0,5,4,0,5,0,5,4,0,5,4,2,1,3]","action_history":"[0,0,0,0,0,0,0,0,0,0,0,0,0]","door_history":"[0,0,0,0,0,0,0,0,0,0,0,0,0]","location_rts":"[1069,28,81,313,443,930,1003,101,1891,165,286,350,800]","trial_type":"two-door-navigation","trial_index":46,"time_elapsed":825065,"internal_node_id":"0.0-2.0-44.0"},{"group":"hexagon_tri","room_assignment":["purple","blue","red","grey","green","yellow"],"door_color_assignment":["white","black"],"door_generator_assignment":[0,1],"goal":0,"start":3,"action_noise":0.15,"location_history":"[3,2,1,3,2,1,3,4,0]","action_history":"[0,0,0,0,0,0,1,1]","door_history":"[0,0,0,0,0,0,1,1]","location_rts":"[1307,1486,139,407,232,312,680,0]","trial_type":"two-door-navigation","trial_index":47,"time_elapsed":841279,"internal_node_id":"0.0-2.0-45.0"},{"group":"hexagon_tri","room_assignment":["purple","blue","red","grey","green","yellow"],"door_color_assignment":["white","black"],"door_generator_assignment":[0,1],"goal":4,"start":0,"action_noise":0.15,"location_history":"[0,5,0,1,5,0,1,5,0,1,5,4]","action_history":"[1,1,1,1,1,1,1,1,1,1,1]","door_history":"[1,1,1,1,1,1,1,1,1,1,1]","location_rts":"[1005,803,184,2045,133,51,85,102,301,892,1693]","trial_type":"two-door-navigation","trial_index":48,"time_elapsed":863306,"internal_node_id":"0.0-2.0-46.0"},{"group":"hexagon_tri","room_assignment":["purple","blue","red","grey","green","yellow"],"door_color_assignment":["white","black"],"door_generator_assignment":[0,1],"goal":5,"start":4,"action_noise":0.15,"location_history":"[4,2,3,4,2,3,4,2,1,3,2,1,3,2,1,3,2,1,5]","action_history":"[1,1,1,1,0,1,1,0,0,0,0,0,0,0,0,0,0,0]","door_history":"[1,1,1,1,0,1,1,0,0,0,0,0,0,0,0,0,0,0]","location_rts":"[3347,30,382,1,400,752,285,1274,1056,248,328,217,418,720,574,81,335,83]","trial_type":"two-door-navigation","trial_index":49,"time_elapsed":895606,"internal_node_id":"0.0-2.0-47.0"},{"group":"hexagon_tri","room_assignment":["purple","blue","red","grey","green","yellow"],"door_color_assignment":["white","black"],"door_generator_assignment":[0,1],"goal":2,"start":5,"action_noise":0.15,"location_history":"[5,4,0,5,4,0,5,0,5,4,0,5,4,2]","action_history":"[0,0,0,0,0,0,0,0,0,0,0,1,1]","door_history":"[0,0,0,0,0,0,0,0,0,0,0,1,1]","location_rts":"[1424,366,718,605,3775,103,1606,1043,183,125,280,1054,118]","trial_type":"two-door-navigation","trial_index":50,"time_elapsed":923757,"internal_node_id":"0.0-2.0-48.0"},{"group":"hexagon_tri","room_assignment":["purple","blue","red","grey","green","yellow"],"door_color_assignment":["white","black"],"door_generator_assignment":[0,1],"goal":1,"start":2,"action_noise":0.15,"location_history":"[2,3,4,2,3,4,2,3,4,2,3,4,0,5,4,0,5,0,1]","action_history":"[1,1,1,1,1,1,1,1,1,1,1,1,0,0,0,0,0,1]","door_history":"[1,1,1,1,1,1,1,1,1,1,1,1,0,0,0,0,0,1]","location_rts":"[624,837,579,452,12,474,230,176,394,487,83,477,563,487,195,120,1,399]","trial_type":"two-door-navigation","trial_index":51,"time_elapsed":952151,"internal_node_id":"0.0-2.0-49.0"},{"view_history":"[{\"page_index\":0,\"viewing_time\":1677}]","rt":1677,"trial_type":"instructions","trial_index":52,"time_elapsed":954828,"internal_node_id":"0.0-3.0"},{"view_history":"[{\"page_index\":0,\"viewing_time\":1631},{\"page_index\":1,\"viewing_time\":3568}]","rt":5200,"trial_type":"instructions","trial_index":53,"time_elapsed":961031,"internal_node_id":"0.0-4.0"},{"group":"hexagon_bi","fractal_assignment":["../images/ylw_slt.png","../images/blu_wht.png","../images/pnk_blu.png","../images/cyn_red.png","../images/org_blu.png","../images/gry_blk.png"],"mutagen_generator_assignment":[0,1],"goal":2,"start":1,"action_noise":0.15,"location_history":"[1,2]","action_history":"[0]","mutagen_history":"[0]","location_rts":"[813]","trial_type":"fractal-mutation","trial_index":54,"time_elapsed":966428,"internal_node_id":"0.0-5.0-0.0"},{"group":"hexagon_bi","fractal_assignment":["../images/ylw_slt.png","../images/blu_wht.png","../images/pnk_blu.png","../images/cyn_red.png","../images/org_blu.png","../images/gry_blk.png"],"mutagen_generator_assignment":[0,1],"goal":0,"start":2,"action_noise":0.15,"location_history":"[2,1,0]","action_history":"[0,1]","mutagen_history":"[0,1]","location_rts":"[469,109]","trial_type":"fractal-mutation","trial_index":55,"time_elapsed":972631,"internal_node_id":"0.0-5.0-1.0"},{"group":"hexagon_bi","fractal_assignment":["../images/ylw_slt.png","../images/blu_wht.png","../images/pnk_blu.png","../images/cyn_red.png","../images/org_blu.png","../images/gry_blk.png"],"mutagen_generator_assignment":[0,1],"goal":5,"start":0,"action_noise":0.15,"location_history":"[0,1,0,1,0,5]","action_history":"[1,1,1,1,0]","mutagen_history":"[1,1,1,1,0]","location_rts":"[40,99,633,347,314]","trial_type":"fractal-mutation","trial_index":56,"time_elapsed":982960,"internal_node_id":"0.0-5.0-2.0"},{"group":"hexagon_bi","fractal_assignment":["../images/ylw_slt.png","../images/blu_wht.png","../images/pnk_blu.png","../images/cyn_red.png","../images/org_blu.png","../images/gry_blk.png"],"mutagen_generator_assignment":[0,1],"goal":1,"start":5,"action_noise":0.15,"location_history":"[5,0,1]","action_history":"[0,1]","mutagen_history":"[0,1]","location_rts":"[538,40]","trial_type":"fractal-mutation","trial_index":57,"time_elapsed":989167,"internal_node_id":"0.0-5.0-3.0"},{"group":"hexagon_bi","fractal_assignment":["../images/ylw_slt.png","../images/blu_wht.png","../images/pnk_blu.png","../images/cyn_red.png","../images/org_blu.png","../images/gry_blk.png"],"mutagen_generator_assignment":[0,1],"goal":3,"start":1,"action_noise":0.15,"location_history":"[1,0,5,4,3]","action_history":"[0,0,1,1]","mutagen_history":"[0,0,1,1]","location_rts":"[336,863,166,538]","trial_type":"fractal-mutation","trial_index":58,"time_elapsed":998770,"internal_node_id":"0.0-5.0-4.0"},{"group":"hexagon_bi","fractal_assignment":["../images/ylw_slt.png","../images/blu_wht.png","../images/pnk_blu.png","../images/cyn_red.png","../images/org_blu.png","../images/gry_blk.png"],"mutagen_generator_assignment":[0,1],"goal":5,"start":3,"action_noise":0.15,"location_history":"[3,2,3,2,1,2,1,0,1,2,3,4,5]","action_history":"[1,1,1,0,0,0,1,1,1,1,1,1]","mutagen_history":"[1,1,1,0,0,0,1,1,1,1,1,1]","location_rts":"[117,50,374,650,69,707,419,383,609,1210,870,16]","trial_type":"fractal-mutation","trial_index":59,"time_elapsed":1020378,"internal_node_id":"0.0-5.0-5.0"},{"group":"hexagon_bi","fractal_assignment":["../images/ylw_slt.png","../images/blu_wht.png","../images/pnk_blu.png","../images/cyn_red.png","../images/org_blu.png","../images/gry_blk.png"],"mutagen_generator_assignment":[0,1],"goal":4,"start":5,"action_noise":0.15,"location_history":"[5,0,5,0,5,0,1,0,1,2,1,0,5,4]","action_history":"[0,0,0,0,0,1,1,1,0,0,0,0,1]","mutagen_history":"[0,0,0,0,0,1,1,1,0,0,0,0,1]","location_rts":"[442,1,366,288,321,166,131,346,416,339,351,326,143]","trial_type":"fractal-mutation","trial_index":60,"time_elapsed":1041152,"internal_node_id":"0.0-5.0-6.0"},{"group":"hexagon_bi","fractal_assignment":["../images/ylw_slt.png","../images/blu_wht.png","../images/pnk_blu.png","../images/cyn_red.png","../images/org_blu.png","../images/gry_blk.png"],"mutagen_generator_assignment":[0,1],"goal":0,"start":4,"action_noise":0.15,"location_history":"[4,3,2,3,2,3,2,1,2,1,2,3,4,5,4,5,0]","action_history":"[0,1,1,1,0,1,0,0,0,0,1,1,1,1,1,1]","mutagen_history":"[0,1,1,1,0,1,0,0,0,0,1,1,1,1,1,1]","location_rts":"[25,204,781,353,625,441,242,90,57,321,192,384,140,512,271,250]","trial_type":"fractal-mutation","trial_index":61,"time_elapsed":1066472,"internal_node_id":"0.0-5.0-7.0"},{"group":"hexagon_bi","fractal_assignment":["../images/ylw_slt.png","../images/blu_wht.png","../images/pnk_blu.png","../images/cyn_red.png","../images/org_blu.png","../images/gry_blk.png"],"mutagen_generator_assignment":[0,1],"goal":2,"start":0,"action_noise":0.15,"location_history":"[0,5,0,1,2]","action_history":"[0,1,1,0]","mutagen_history":"[0,1,1,0]","location_rts":"[496,495,667,544]","trial_type":"fractal-mutation","trial_index":62,"time_elapsed":1076375,"internal_node_id":"0.0-5.0-8.0"},{"group":"hexagon_bi","fractal_assignment":["../images/ylw_slt.png","../images/blu_wht.png","../images/pnk_blu.png","../images/cyn_red.png","../images/org_blu.png","../images/gry_blk.png"],"mutagen_generator_assignment":[0,1],"goal":4,"start":2,"action_noise":0.15,"location_history":"[2,3,2,3,4]","action_history":"[1,1,1,0]","mutagen_history":"[1,1,1,0]","location_rts":"[139,99,471,496]","trial_type":"fractal-mutation","trial_index":63,"time_elapsed":1085355,"internal_node_id":"0.0-5.0-9.0"},{"group":"hexagon_bi","fractal_assignment":["../images/ylw_slt.png","../images/blu_wht.png","../images/pnk_blu.png","../images/cyn_red.png","../images/org_blu.png","../images/gry_blk.png"],"mutagen_generator_assignment":[0,1],"goal":2,"start":4,"action_noise":0.15,"location_history":"[4,3,2]","action_history":"[0,1]","mutagen_history":"[0,1]","location_rts":"[630,75]","trial_type":"fractal-mutation","trial_index":64,"time_elapsed":1091665,"internal_node_id":"0.0-5.0-10.0"},{"group":"hexagon_bi","fractal_assignment":["../images/ylw_slt.png","../images/blu_wht.png","../images/pnk_blu.png","../images/cyn_red.png","../images/org_blu.png","../images/gry_blk.png"],"mutagen_generator_assignment":[0,1],"goal":3,"start":2,"action_noise":0.15,"location_history":"[2,1,0,1,0,1,2,1,2,3]","action_history":"[0,1,1,1,1,0,0,0,1]","mutagen_history":"[0,1,1,1,1,0,0,0,1]","location_rts":"[328,1334,13,1097,66,41,161,350,417]","trial_type":"fractal-mutation","trial_index":65,"time_elapsed":1108440,"internal_node_id":"0.0-5.0-11.0"},{"group":"hexagon_bi","fractal_assignment":["../images/ylw_slt.png","../images/blu_wht.png","../images/pnk_blu.png","../images/cyn_red.png","../images/org_blu.png","../images/gry_blk.png"],"mutagen_generator_assignment":[0,1],"goal":0,"start":3,"action_noise":0.15,"location_history":"[3,2,3,2,3,2,1,0]","action_history":"[0,1,1,1,1,0,1]","mutagen_history":"[0,1,1,1,1,0,1]","location_rts":"[465,67,37,87,170,937,346]","trial_type":"fractal-mutation","trial_index":66,"time_elapsed":1121442,"internal_node_id":"0.0-5.0-12.0"},{"group":"hexagon_bi","fractal_assignment":["../images/ylw_slt.png","../images/blu_wht.png","../images/pnk_blu.png","../images/cyn_red.png","../images/org_blu.png","../images/gry_blk.png"],"mutagen_generator_assignment":[0,1],"goal":5,"start":0,"action_noise":0.15,"location_history":"[0,5]","action_history":"[0]","mutagen_history":"[0]","location_rts":"[447]","trial_type":"fractal-mutation","trial_index":67,"time_elapsed":1126447,"internal_node_id":"0.0-5.0-13.0"},{"group":"hexagon_bi","fractal_assignment":["../images/ylw_slt.png","../images/blu_wht.png","../images/pnk_blu.png","../images/cyn_red.png","../images/org_blu.png","../images/gry_blk.png"],"mutagen_generator_assignment":[0,1],"goal":1,"start":5,"action_noise":0.15,"location_history":"[5,0,5,0,1]","action_history":"[0,0,0,1]","mutagen_history":"[0,0,0,1]","location_rts":"[588,689,690,515]","trial_type":"fractal-mutation","trial_index":68,"time_elapsed":1136633,"internal_node_id":"0.0-5.0-14.0"},{"group":"hexagon_bi","fractal_assignment":["../images/ylw_slt.png","../images/blu_wht.png","../images/pnk_blu.png","../images/cyn_red.png","../images/org_blu.png","../images/gry_blk.png"],"mutagen_generator_assignment":[0,1],"goal":5,"start":1,"action_noise":0.15,"location_history":"[1,2,3,4,5]","action_history":"[0,1,0,1]","mutagen_history":"[0,1,0,1]","location_rts":"[576,477,489,34]","trial_type":"fractal-mutation","trial_index":69,"time_elapsed":1145916,"internal_node_id":"0.0-5.0-15.0"},{"group":"hexagon_bi","fractal_assignment":["../images/ylw_slt.png","../images/blu_wht.png","../images/pnk_blu.png","../images/cyn_red.png","../images/org_blu.png","../images/gry_blk.png"],"mutagen_generator_assignment":[0,1],"goal":3,"start":5,"action_noise":0.15,"location_history":"[5,4,3]","action_history":"[0,1]","mutagen_history":"[0,1]","location_rts":"[394,805]","trial_type":"fractal-mutation","trial_index":70,"time_elapsed":1152728,"internal_node_id":"0.0-5.0-16.0"},{"group":"hexagon_bi","fractal_assignment":["../images/ylw_slt.png","../images/blu_wht.png","../images/pnk_blu.png","../images/cyn_red.png","../images/org_blu.png","../images/gry_blk.png"],"mutagen_generator_assignment":[0,1],"goal":2,"start":3,"action_noise":0.15,"location_history":"[3,4,5,4,3,2]","action_history":"[0,1,1,0,0]","mutagen_history":"[0,1,1,0,0]","location_rts":"[455,918,49,160,82]","trial_type":"fractal-mutation","trial_index":71,"time_elapsed":1163122,"internal_node_id":"0.0-5.0-17.0"},{"group":"hexagon_bi","fractal_assignment":["../images/ylw_slt.png","../images/blu_wht.png","../images/pnk_blu.png","../images/cyn_red.png","../images/org_blu.png","../images/gry_blk.png"],"mutagen_generator_assignment":[0,1],"goal":1,"start":2,"action_noise":0.15,"location_history":"[2,1]","action_history":"[0]","mutagen_history":"[0]","location_rts":"[245]","trial_type":"fractal-mutation","trial_index":72,"time_elapsed":1167913,"internal_node_id":"0.0-5.0-18.0"},{"group":"hexagon_bi","fractal_assignment":["../images/ylw_slt.png","../images/blu_wht.png","../images/pnk_blu.png","../images/cyn_red.png","../images/org_blu.png","../images/gry_blk.png"],"mutagen_generator_assignment":[0,1],"goal":4,"start":1,"action_noise":0.15,"location_history":"[1,0,5,0,1,0,1,0,5,4]","action_history":"[0,0,0,1,1,1,1,0,0]","mutagen_history":"[0,0,0,1,1,1,1,0,0]","location_rts":"[660,1218,92,99,524,648,653,176,741]","trial_type":"fractal-mutation","trial_index":73,"time_elapsed":1185601,"internal_node_id":"0.0-5.0-19.0"},{"group":"hexagon_bi","fractal_assignment":["../images/ylw_slt.png","../images/blu_wht.png","../images/pnk_blu.png","../images/cyn_red.png","../images/org_blu.png","../images/gry_blk.png"],"mutagen_generator_assignment":[0,1],"goal":0,"start":4,"action_noise":0.15,"location_history":"[4,3,2,1,0]","action_history":"[0,1,0,1]","mutagen_history":"[0,1,0,1]","location_rts":"[456,1113,866,687]","trial_type":"fractal-mutation","trial_index":74,"time_elapsed":1196420,"internal_node_id":"0.0-5.0-20.0"},{"group":"hexagon_bi","fractal_assignment":["../images/ylw_slt.png","../images/blu_wht.png","../images/pnk_blu.png","../images/cyn_red.png","../images/org_blu.png","../images/gry_blk.png"],"mutagen_generator_assignment":[0,1],"goal":3,"start":0,"action_noise":0.15,"location_history":"[0,5,4,5,0,1,0,5,4,5,4,5,0,1,0,5,4,5,4,5,0,1,2,1,2,3]","action_history":"[0,1,1,0,1,0,0,1,1,1,1,0,1,1,1,1,1,1,1,0,0,0,0,0,1]","mutagen_history":"[0,1,1,0,1,0,0,1,1,1,1,0,1,1,1,1,1,1,1,0,0,0,0,0,1]","location_rts":"[168,896,758,403,227,664,564,831,738,910,188,829,305,962,711,186,429,1283,697,215,297,359,94,9,431]","trial_type":"fractal-mutation","trial_index":75,"time_elapsed":1239530,"internal_node_id":"0.0-5.0-21.0"},{"group":"hexagon_bi","fractal_assignment":["../images/ylw_slt.png","../images/blu_wht.png","../images/pnk_blu.png","../images/cyn_red.png","../images/org_blu.png","../images/gry_blk.png"],"mutagen_generator_assignment":[0,1],"goal":1,"start":3,"action_noise":0.15,"location_history":"[3,4,5,4,3,4,5,0,1]","action_history":"[0,1,1,1,0,0,0,0]","mutagen_history":"[0,1,1,1,0,0,0,0]","location_rts":"[537,572,21,229,435,1037,159,96]","trial_type":"fractal-mutation","trial_index":76,"time_elapsed":1254484,"internal_node_id":"0.0-5.0-22.0"},{"group":"hexagon_bi","fractal_assignment":["../images/ylw_slt.png","../images/blu_wht.png","../images/pnk_blu.png","../images/cyn_red.png","../images/org_blu.png","../images/gry_blk.png"],"mutagen_generator_assignment":[0,1],"goal":0,"start":1,"action_noise":0.15,"location_history":"[1,2,3,2,1,2,1,2,1,0]","action_history":"[0,1,1,0,0,1,0,0,1]","mutagen_history":"[0,1,1,0,0,1,0,0,1]","location_rts":"[399,603,860,752,81,858,567,66,454]","trial_type":"fractal-mutation","trial_index":77,"time_elapsed":1272032,"internal_node_id":"0.0-5.0-23.0"},{"group":"hexagon_bi","fractal_assignment":["../images/ylw_slt.png","../images/blu_wht.png","../images/pnk_blu.png","../images/cyn_red.png","../images/org_blu.png","../images/gry_blk.png"],"mutagen_generator_assignment":[0,1],"goal":2,"start":0,"action_noise":0.15,"location_history":"[0,5,4,3,4,3,2]","action_history":"[0,1,0,0,1,1]","mutagen_history":"[0,1,0,0,1,1]","location_rts":"[362,584,682,615,366,97]","trial_type":"fractal-mutation","trial_index":78,"time_elapsed":1284582,"internal_node_id":"0.0-5.0-24.0"},{"group":"hexagon_bi","fractal_assignment":["../images/ylw_slt.png","../images/blu_wht.png","../images/pnk_blu.png","../images/cyn_red.png","../images/org_blu.png","../images/gry_blk.png"],"mutagen_generator_assignment":[0,1],"goal":4,"start":2,"action_noise":0.15,"location_history":"[2,1,2,1,2,3,2,3,2,1,2,3,4]","action_history":"[0,0,0,0,1,1,1,1,0,0,0,0]","mutagen_history":"[0,0,0,0,1,1,1,1,0,0,0,0]","location_rts":"[129,671,373,684,220,633,33,601,190,378,393,402]","trial_type":"fractal-mutation","trial_index":79,"time_elapsed":1305300,"internal_node_id":"0.0-5.0-25.0"},{"group":"hexagon_bi","fractal_assignment":["../images/ylw_slt.png","../images/blu_wht.png","../images/pnk_blu.png","../images/cyn_red.png","../images/org_blu.png","../images/gry_blk.png"],"mutagen_generator_assignment":[0,1],"goal":5,"start":4,"action_noise":0.15,"location_history":"[4,5]","action_history":"[1]","mutagen_history":"[1]","location_rts":"[529]","trial_type":"fractal-mutation","trial_index":80,"time_elapsed":1310401,"internal_node_id":"0.0-5.0-26.0"},{"group":"hexagon_bi","fractal_assignment":["../images/ylw_slt.png","../images/blu_wht.png","../images/pnk_blu.png","../images/cyn_red.png","../images/org_blu.png","../images/gry_blk.png"],"mutagen_generator_assignment":[0,1],"goal":2,"start":5,"action_noise":0.15,"location_history":"[5,4,5,4,5,0,5,4,5,4,5,4,3,4,3,4,5,4,5,0,1,2]","action_history":"[1,1,1,1,0,0,0,0,1,1,1,0,0,0,0,1,1,1,0,0,0]","mutagen_history":"[1,1,1,1,0,0,0,0,1,1,1,0,0,0,0,1,1,1,0,0,0]","location_rts":"[113,13,271,649,108,14,466,760,209,452,808,765,160,10,78,833,415,327,680,756,892]","trial_type":"fractal-mutation","trial_index":81,"time_elapsed":1344776,"internal_node_id":"0.0-5.0-27.0"},{"group":"hexagon_bi","fractal_assignment":["../images/ylw_slt.png","../images/blu_wht.png","../images/pnk_blu.png","../images/cyn_red.png","../images/org_blu.png","../images/gry_blk.png"],"mutagen_generator_assignment":[0,1],"goal":3,"start":2,"action_noise":0.15,"location_history":"[2,1,0,1,0,5,4,5,4,5,0,5,4,5,4,5,4,3]","action_history":"[0,1,1,1,0,1,1,1,1,0,0,1,1,1,1,1,0]","mutagen_history":"[0,1,1,1,0,1,1,1,1,0,0,1,1,1,1,1,0]","location_rts":"[562,673,12,1072,907,1217,25,510,390,87,1237,257,753,955,683,54,530]","trial_type":"fractal-mutation","trial_index":82,"time_elapsed":1376116,"internal_node_id":"0.0-5.0-28.0"},{"group":"hexagon_bi","fractal_assignment":["../images/ylw_slt.png","../images/blu_wht.png","../images/pnk_blu.png","../images/cyn_red.png","../images/org_blu.png","../images/gry_blk.png"],"mutagen_generator_assignment":[0,1],"goal":1,"start":3,"action_noise":0.15,"location_history":"[3,2,3,2,3,4,3,4,5,0,5,0,1]","action_history":"[0,1,1,1,0,0,0,1,0,0,0,1]","mutagen_history":"[0,1,1,1,0,0,0,1,0,0,0,1]","location_rts":"[515,452,1160,10,1033,266,558,583,118,986,10,19]","trial_type":"fractal-mutation","trial_index":83,"time_elapsed":1397882,"internal_node_id":"0.0-5.0-29.0"},{"group":"hexagon_bi","fractal_assignment":["../images/ylw_slt.png","../images/blu_wht.png","../images/pnk_blu.png","../images/cyn_red.png","../images/org_blu.png","../images/gry_blk.png"],"mutagen_generator_assignment":[0,1],"goal":4,"start":1,"action_noise":0.15,"location_history":"[1,0,1,2,3,4]","action_history":"[0,1,0,0,0]","mutagen_history":"[0,1,0,0,0]","location_rts":"[435,476,877,516,822]","trial_type":"fractal-mutation","trial_index":84,"time_elapsed":1409739,"internal_node_id":"0.0-5.0-30.0"},{"group":"hexagon_bi","fractal_assignment":["../images/ylw_slt.png","../images/blu_wht.png","../images/pnk_blu.png","../images/cyn_red.png","../images/org_blu.png","../images/gry_blk.png"],"mutagen_generator_assignment":[0,1],"goal":5,"start":4,"action_noise":0.15,"location_history":"[4,3,2,3,2,3,4,3,2,3,4,5]","action_history":"[0,1,1,1,1,0,0,1,1,1,1]","mutagen_history":"[0,1,1,1,1,0,0,1,1,1,1]","location_rts":"[769,398,872,800,84,71,798,113,711,241,56]","trial_type":"fractal-mutation","trial_index":85,"time_elapsed":1429815,"internal_node_id":"0.0-5.0-31.0"},{"group":"hexagon_bi","fractal_assignment":["../images/ylw_slt.png","../images/blu_wht.png","../images/pnk_blu.png","../images/cyn_red.png","../images/org_blu.png","../images/gry_blk.png"],"mutagen_generator_assignment":[0,1],"goal":0,"start":5,"action_noise":0.15,"location_history":"[5,0]","action_history":"[0]","mutagen_history":"[0]","location_rts":"[498]","trial_type":"fractal-mutation","trial_index":86,"time_elapsed":1434872,"internal_node_id":"0.0-5.0-32.0"},{"group":"hexagon_bi","fractal_assignment":["../images/ylw_slt.png","../images/blu_wht.png","../images/pnk_blu.png","../images/cyn_red.png","../images/org_blu.png","../images/gry_blk.png"],"mutagen_generator_assignment":[0,1],"goal":2,"start":0,"action_noise":0.15,"location_history":"[0,1,0,5,4,5,4,5,4,3,4,3,2]","action_history":"[1,1,0,0,1,1,0,1,0,0,0,1]","mutagen_history":"[1,1,0,0,1,1,0,1,0,0,0,1]","location_rts":"[697,614,580,1012,669,157,642,522,964,67,574,395]","trial_type":"fractal-mutation","trial_index":87,"time_elapsed":1457924,"internal_node_id":"0.0-5.0-33.0"},{"group":"hexagon_bi","fractal_assignment":["../images/ylw_slt.png","../images/blu_wht.png","../images/pnk_blu.png","../images/cyn_red.png","../images/org_blu.png","../images/gry_blk.png"],"mutagen_generator_assignment":[0,1],"goal":0,"start":2,"action_noise":0.15,"location_history":"[2,1,0]","action_history":"[0,1]","mutagen_history":"[0,1]","location_rts":"[386,410]","trial_type":"fractal-mutation","trial_index":88,"time_elapsed":1464354,"internal_node_id":"0.0-5.0-34.0"},{"group":"hexagon_bi","fractal_assignment":["../images/ylw_slt.png","../images/blu_wht.png","../images/pnk_blu.png","../images/cyn_red.png","../images/org_blu.png","../images/gry_blk.png"],"mutagen_generator_assignment":[0,1],"goal":5,"start":0,"action_noise":0.15,"location_history":"[0,5]","action_history":"[0]","mutagen_history":"[0]","location_rts":"[721]","trial_type":"fractal-mutation","trial_index":89,"time_elapsed":1469647,"internal_node_id":"0.0-5.0-35.0"},{"group":"hexagon_bi","fractal_assignment":["../images/ylw_slt.png","../images/blu_wht.png","../images/pnk_blu.png","../images/cyn_red.png","../images/org_blu.png","../images/gry_blk.png"],"mutagen_generator_assignment":[0,1],"goal":1,"start":5,"action_noise":0.15,"location_history":"[5,0,1]","action_history":"[0,1]","mutagen_history":"[0,1]","location_rts":"[546,478]","trial_type":"fractal-mutation","trial_index":90,"time_elapsed":1476287,"internal_node_id":"0.0-5.0-36.0"},{"group":"hexagon_bi","fractal_assignment":["../images/ylw_slt.png","../images/blu_wht.png","../images/pnk_blu.png","../images/cyn_red.png","../images/org_blu.png","../images/gry_blk.png"],"mutagen_generator_assignment":[0,1],"goal":4,"start":1,"action_noise":0.15,"location_history":"[1,2,3,2,1,2,3,2,3,4]","action_history":"[0,1,0,0,0,0,1,1,0]","mutagen_history":"[0,1,0,0,0,0,1,1,0]","location_rts":"[478,98,682,832,785,96,467,171,423]","trial_type":"fractal-mutation","trial_index":91,"time_elapsed":1493205,"internal_node_id":"0.0-5.0-37.0"},{"group":"hexagon_bi","fractal_assignment":["../images/ylw_slt.png","../images/blu_wht.png","../images/pnk_blu.png","../images/cyn_red.png","../images/org_blu.png","../images/gry_blk.png"],"mutagen_generator_assignment":[0,1],"goal":3,"start":4,"action_noise":0.15,"location_history":"[4,3]","action_history":"[1]","mutagen_history":"[1]","location_rts":"[391]","trial_type":"fractal-mutation","trial_index":92,"time_elapsed":1498151,"internal_node_id":"0.0-5.0-38.0"},{"group":"hexagon_bi","fractal_assignment":["../images/ylw_slt.png","../images/blu_wht.png","../images/pnk_blu.png","../images/cyn_red.png","../images/org_blu.png","../images/gry_blk.png"],"mutagen_generator_assignment":[0,1],"goal":5,"start":3,"action_noise":0.15,"location_history":"[3,4,5]","action_history":"[0,1]","mutagen_history":"[0,1]","location_rts":"[346,413]","trial_type":"fractal-mutation","trial_index":93,"time_elapsed":1504492,"internal_node_id":"0.0-5.0-39.0"},{"group":"hexagon_bi","fractal_assignment":["../images/ylw_slt.png","../images/blu_wht.png","../images/pnk_blu.png","../images/cyn_red.png","../images/org_blu.png","../images/gry_blk.png"],"mutagen_generator_assignment":[0,1],"goal":1,"start":5,"action_noise":0.15,"location_history":"[5,4,5,4,5,0,1]","action_history":"[0,1,1,1,0,0]","mutagen_history":"[0,1,1,1,0,0]","location_rts":"[437,820,535,193,251,1034]","trial_type":"fractal-mutation","trial_index":94,"time_elapsed":1517688,"internal_node_id":"0.0-5.0-40.0"},{"group":"hexagon_bi","fractal_assignment":["../images/ylw_slt.png","../images/blu_wht.png","../images/pnk_blu.png","../images/cyn_red.png","../images/org_blu.png","../images/gry_blk.png"],"mutagen_generator_assignment":[0,1],"goal":2,"start":1,"action_noise":0.15,"location_history":"[1,0,1,0,1,0,1,2]","action_history":"[0,1,1,1,0,1,0]","mutagen_history":"[0,1,1,1,0,1,0]","location_rts":"[433,198,15,413,1117,314,772]","trial_type":"fractal-mutation","trial_index":95,"time_elapsed":1531798,"internal_node_id":"0.0-5.0-41.0"},{"group":"hexagon_bi","fractal_assignment":["../images/ylw_slt.png","../images/blu_wht.png","../images/pnk_blu.png","../images/cyn_red.png","../images/org_blu.png","../images/gry_blk.png"],"mutagen_generator_assignment":[0,1],"goal":4,"start":2,"action_noise":0.15,"location_history":"[2,1,2,3,2,3,4]","action_history":"[0,1,1,0,1,0]","mutagen_history":"[0,1,1,0,1,0]","location_rts":"[493,328,46,504,1894,1753]","trial_type":"fractal-mutation","trial_index":96,"time_elapsed":1546719,"internal_node_id":"0.0-5.0-42.0"},{"group":"hexagon_bi","fractal_assignment":["../images/ylw_slt.png","../images/blu_wht.png","../images/pnk_blu.png","../images/cyn_red.png","../images/org_blu.png","../images/gry_blk.png"],"mutagen_generator_assignment":[0,1],"goal":0,"start":4,"action_noise":0.15,"location_history":"[4,3,4,3,2,3,4,5,0]","action_history":"[0,1,0,1,1,0,1,0]","mutagen_history":"[0,1,0,1,1,0,1,0]","location_rts":"[367,208,514,1038,838,677,847,325]","trial_type":"fractal-mutation","trial_index":97,"time_elapsed":1563456,"internal_node_id":"0.0-5.0-43.0"},{"group":"hexagon_bi","fractal_assignment":["../images/ylw_slt.png","../images/blu_wht.png","../images/pnk_blu.png","../images/cyn_red.png","../images/org_blu.png","../images/gry_blk.png"],"mutagen_generator_assignment":[0,1],"goal":3,"start":0,"action_noise":0.15,"location_history":"[0,5,0,1,2,3]","action_history":"[0,0,1,0,1]","mutagen_history":"[0,0,1,0,1]","location_rts":"[111,173,624,291,134]","trial_type":"fractal-mutation","trial_index":98,"time_elapsed":1573510,"internal_node_id":"0.0-5.0-44.0"},{"group":"hexagon_bi","fractal_assignment":["../images/ylw_slt.png","../images/blu_wht.png","../images/pnk_blu.png","../images/cyn_red.png","../images/org_blu.png","../images/gry_blk.png"],"mutagen_generator_assignment":[0,1],"goal":0,"start":3,"action_noise":0.15,"location_history":"[3,4,5,4,5,0]","action_history":"[0,1,0,1,0]","mutagen_history":"[0,1,0,1,0]","location_rts":"[396,169,619,441,318]","trial_type":"fractal-mutation","trial_index":99,"time_elapsed":1584181,"internal_node_id":"0.0-5.0-45.0"},{"group":"hexagon_bi","fractal_assignment":["../images/ylw_slt.png","../images/blu_wht.png","../images/pnk_blu.png","../images/cyn_red.png","../images/org_blu.png","../images/gry_blk.png"],"mutagen_generator_assignment":[0,1],"goal":4,"start":0,"action_noise":0.15,"location_history":"[0,5,4]","action_history":"[0,1]","mutagen_history":"[0,1]","location_rts":"[800,626]","trial_type":"fractal-mutation","trial_index":100,"time_elapsed":1591252,"internal_node_id":"0.0-5.0-46.0"},{"group":"hexagon_bi","fractal_assignment":["../images/ylw_slt.png","../images/blu_wht.png","../images/pnk_blu.png","../images/cyn_red.png","../images/org_blu.png","../images/gry_blk.png"],"mutagen_generator_assignment":[0,1],"goal":5,"start":4,"action_noise":0.15,"location_history":"[4,5]","action_history":"[1]","mutagen_history":"[1]","location_rts":"[469]","trial_type":"fractal-mutation","trial_index":101,"time_elapsed":1596286,"internal_node_id":"0.0-5.0-47.0"},{"group":"hexagon_bi","fractal_assignment":["../images/ylw_slt.png","../images/blu_wht.png","../images/pnk_blu.png","../images/cyn_red.png","../images/org_blu.png","../images/gry_blk.png"],"mutagen_generator_assignment":[0,1],"goal":2,"start":5,"action_noise":0.15,"location_history":"[5,0,1,0,5,0,1,2]","action_history":"[0,1,1,0,1,1,0]","mutagen_history":"[0,1,1,0,1,1,0]","location_rts":"[466,501,209,1410,863,192,264]","trial_type":"fractal-mutation","trial_index":102,"time_elapsed":1610994,"internal_node_id":"0.0-5.0-48.0"},{"group":"hexagon_bi","fractal_assignment":["../images/ylw_slt.png","../images/blu_wht.png","../images/pnk_blu.png","../images/cyn_red.png","../images/org_blu.png","../images/gry_blk.png"],"mutagen_generator_assignment":[0,1],"goal":1,"start":2,"action_noise":0.15,"location_history":"[2,1]","action_history":"[0]","mutagen_history":"[0]","location_rts":"[411]","trial_type":"fractal-mutation","trial_index":103,"time_elapsed":1615946,"internal_node_id":"0.0-5.0-49.0"},{"view_history":"[{\"page_index\":0,\"viewing_time\":3691}]","rt":3694,"trial_type":"instructions","trial_index":104,"time_elapsed":1620642,"internal_node_id":"0.0-6.0"},{"rt":87992,"responses":"{\"Q0\":\"I think the first experiment was trying to investigate being able to see how participants choose.\"}","trial_type":"survey-text","trial_index":105,"time_elapsed":1709645,"internal_node_id":"0.0-7.0-0.0"},{"rt":54559,"responses":"{\"Q0\":\"I think it was trying to investigate the how well the visual patterns related to each other.\"}","trial_type":"survey-text","trial_index":106,"time_elapsed":1765214,"internal_node_id":"0.0-7.0-1.0"},{"rt":24706,"responses":"{\"Q0\":\"<img src='../images/diagrams/hexagon_bi.png'>\"}","trial_type":"survey-multi-choice","trial_index":107,"time_elapsed":1790936,"internal_node_id":"0.0-7.0-2.0"},{"rt":28307,"assignments":["../images/ylw_slt.png","../images/blu_wht.png","../images/cyn_red.png","../images/gry_blk.png","../images/pnk_blu.png","../images/org_blu.png"],"trial_type":"drag-drop-on-image","trial_index":108,"time_elapsed":1820258,"internal_node_id":"0.0-7.0-3.0"},{"rt":7939,"responses":"{\"Q0\":\"0\"}","trial_type":"survey-likert","trial_index":109,"time_elapsed":1829202,"internal_node_id":"0.0-7.0-4.0"},{"rt":53042,"responses":"{\"Q0\":\"I didn't notice any in the spatial navigation but I noticed in the visual patterns that sometimes I think that some of the colors related to certain others.\"}","trial_type":"survey-text","trial_index":110,"time_elapsed":1883248,"internal_node_id":"0.0-7.0-5.0"},{"rt":4566,"responses":"{\"Q0\":\"No\"}","trial_type":"survey-multi-choice","trial_index":111,"time_elapsed":1888819,"internal_node_id":"0.0-7.0-6.0"},{"rt":12196,"responses":"{\"Q0\":\"During these questions/I wasn't aware until you pointed it out\"}","trial_type":"survey-multi-choice","trial_index":112,"time_elapsed":1902043,"internal_node_id":"0.0-7.0-7.0"},{"rt":3484,"responses":"{\"Q0\":\"\"}","trial_type":"survey-text","trial_index":113,"time_elapsed":1906532,"internal_node_id":"0.0-7.0-8.0"},{"rt":5362,"responses":"{\"Q0\":\"2\"}","trial_type":"survey-likert","trial_index":114,"time_elapsed":1912898,"internal_node_id":"0.0-7.0-9.0"},{"rt":10458,"responses":"{\"Q0\":\"Same structure\"}","trial_type":"survey-multi-choice","trial_index":115,"time_elapsed":1924361,"internal_node_id":"0.0-7.0-10.0"},{"rt":33998,"responses":"{\"Q0\":\"left (white) door = ray, right (black) door = acid\",\"Q1\":\"Slightly confident\"}","trial_type":"survey-multi-choice","trial_index":116,"time_elapsed":1959370,"internal_node_id":"0.0-7.0-11.0"},{"rt":78196,"responses":"{\"Q0\":\"25-35\",\"Q1\":\"Master's degree\",\"Q2\":\"Female\",\"Q3\":\"Black or African American\"}","trial_type":"survey-multi-choice","trial_index":117,"time_elapsed":2038587,"internal_node_id":"0.0-8.0"},{"rt":7339,"responses":"{\"Q0\":\"\"}","trial_type":"survey-text","trial_index":118,"time_elapsed":2046928,"internal_node_id":"0.0-9.0"}]