[{"view_history":"[{\"page_index\":0,\"viewing_time\":4899},{\"page_index\":1,\"viewing_time\":20002}]","rt":24902,"trial_type":"instructions","trial_index":0,"time_elapsed":24903,"internal_node_id":"0.0-0.0"},{"view_history":"[{\"page_index\":0,\"viewing_time\":2142},{\"page_index\":1,\"viewing_time\":140421}]","rt":142563,"trial_type":"instructions","trial_index":1,"time_elapsed":168467,"internal_node_id":"0.0-1.0"},{"group":"hexagon_tri","room_assignment":["purple","blue","red","yellow","grey","green"],"door_color_assignment":["black","white"],"door_generator_assignment":[1,0],"goal":2,"start":1,"action_noise":0.15,"location_history":"[1,5,0,1,3,4,2]","action_history":"[1,1,1,0,1,1]","door_history":"[0,0,0,1,0,0]","location_rts":"[2729,1176,974,1257,414,816]","trial_type":"two-door-navigation","trial_index":2,"time_elapsed":185505,"internal_node_id":"0.0-2.0-0.0"},{"group":"hexagon_tri","room_assignment":["purple","blue","red","yellow","grey","green"],"door_color_assignment":["black","white"],"door_generator_assignment":[1,0],"goal":0,"start":2,"action_noise":0.15,"location_history":"[2,1,5,0]","action_history":"[0,1,1]","door_history":"[1,0,0]","location_rts":"[2371,618,433]","trial_type":"two-door-navigation","trial_index":3,"time_elapsed":195513,"internal_node_id":"0.0-2.0-1.0"},{"group":"hexagon_tri","room_assignment":["purple","blue","red","yellow","grey","green"],"door_color_assignment":["black","white"],"door_generator_assignment":[1,0],"goal":5,"start":0,"action_noise":0.15,"location_history":"[0,1,3,4,0,5]","action_history":"[1,1,1,0,1]","door_history":"[0,0,0,1,0]","location_rts":"[3282,256,383,997,1058]","trial_type":"two-door-navigation","trial_index":4,"time_elapsed":210112,"internal_node_id":"0.0-2.0-2.0"},{"group":"hexagon_tri","room_assignment":["purple","blue","red","yellow","grey","green"],"door_color_assignment":["black","white"],"door_generator_assignment":[1,0],"goal":1,"start":5,"action_noise":0.15,"location_history":"[5,0,5,4,2,1]","action_history":"[1,0,1,1,1]","door_history":"[0,1,0,0,0]","location_rts":"[281,399,325,278,362]","trial_type":"two-door-navigation","trial_index":5,"time_elapsed":220400,"internal_node_id":"0.0-2.0-3.0"},{"group":"hexagon_tri","room_assignment":["purple","blue","red","yellow","grey","green"],"door_color_assignment":["black","white"],"door_generator_assignment":[1,0],"goal":3,"start":1,"action_noise":0.15,"location_history":"[1,5,4,2,3]","action_history":"[1,0,1,1]","door_history":"[0,1,0,0]","location_rts":"[313,1138,352,351]","trial_type":"two-door-navigation","trial_index":6,"time_elapsed":230162,"internal_node_id":"0.0-2.0-4.0"},{"group":"hexagon_tri","room_assignment":["purple","blue","red","yellow","grey","green"],"door_color_assignment":["black","white"],"door_generator_assignment":[1,0],"goal":5,"start":3,"action_noise":0.15,"location_history":"[3,4,0,1,5]","action_history":"[1,0,1,1]","door_history":"[0,1,0,0]","location_rts":"[417,391,994,1268]","trial_type":"two-door-navigation","trial_index":7,"time_elapsed":240833,"internal_node_id":"0.0-2.0-5.0"},{"group":"hexagon_tri","room_assignment":["purple","blue","red","yellow","grey","green"],"door_color_assignment":["black","white"],"door_generator_assignment":[1,0],"goal":4,"start":5,"action_noise":0.15,"location_history":"[5,0,1,3,2,1,3,2,3,4]","action_history":"[1,0,0,0,0,0,1,0,1]","door_history":"[0,1,1,1,1,1,0,1,0]","location_rts":"[449,829,406,585,401,393,1161,380,658]","trial_type":"two-door-navigation","trial_index":8,"time_elapsed":258821,"internal_node_id":"0.0-2.0-6.0"},{"group":"hexagon_tri","room_assignment":["purple","blue","red","yellow","grey","green"],"door_color_assignment":["black","white"],"door_generator_assignment":[1,0],"goal":0,"start":4,"action_noise":0.15,"location_history":"[4,2,3,4,2,1,3,4,2,1,3,2,1,5,4,2,3,4,0]","action_history":"[1,1,1,1,1,1,0,1,0,0,1,0,0,1,1,1,1,0]","door_history":"[0,0,0,0,0,0,1,0,1,1,0,1,1,0,0,0,0,1]","location_rts":"[297,820,1252,526,1266,1024,1013,338,1878,454,499,812,462,1261,1562,947,977,429]","trial_type":"two-door-navigation","trial_index":9,"time_elapsed":296572,"internal_node_id":"0.0-2.0-7.0"},{"group":"hexagon_tri","room_assignment":["purple","blue","red","yellow","grey","green"],"door_color_assignment":["black","white"],"door_generator_assignment":[1,0],"goal":2,"start":0,"action_noise":0.15,"location_history":"[0,1,3,4,2]","action_history":"[1,1,1,1]","door_history":"[0,0,0,0]","location_rts":"[8265,538,373,1071]","trial_type":"two-door-navigation","trial_index":10,"time_elapsed":314427,"internal_node_id":"0.0-2.0-8.0"},{"group":"hexagon_tri","room_assignment":["purple","blue","red","yellow","grey","green"],"door_color_assignment":["black","white"],"door_generator_assignment":[1,0],"goal":4,"start":2,"action_noise":0.15,"location_history":"[2,3,4]","action_history":"[1,0]","door_history":"[0,1]","location_rts":"[466,580]","trial_type":"two-door-navigation","trial_index":11,"time_elapsed":321031,"internal_node_id":"0.0-2.0-9.0"},{"group":"hexagon_tri","room_assignment":["purple","blue","red","yellow","grey","green"],"door_color_assignment":["black","white"],"door_generator_assignment":[1,0],"goal":2,"start":4,"action_noise":0.15,"location_history":"[4,2]","action_history":"[1]","door_history":"[0]","location_rts":"[3071]","trial_type":"two-door-navigation","trial_index":12,"time_elapsed":328633,"internal_node_id":"0.0-2.0-10.0"},{"group":"hexagon_tri","room_assignment":["purple","blue","red","yellow","grey","green"],"door_color_assignment":["black","white"],"door_generator_assignment":[1,0],"goal":3,"start":2,"action_noise":0.15,"location_history":"[2,1,3]","action_history":"[0,0]","door_history":"[1,1]","location_rts":"[3326,388]","trial_type":"two-door-navigation","trial_index":13,"time_elapsed":337897,"internal_node_id":"0.0-2.0-11.0"},{"group":"hexagon_tri","room_assignment":["purple","blue","red","yellow","grey","green"],"door_color_assignment":["black","white"],"door_generator_assignment":[1,0],"goal":0,"start":3,"action_noise":0.15,"location_history":"[3,4,0]","action_history":"[1,1]","door_history":"[0,0]","location_rts":"[1181,424]","trial_type":"two-door-navigation","trial_index":14,"time_elapsed":345057,"internal_node_id":"0.0-2.0-12.0"},{"group":"hexagon_tri","room_assignment":["purple","blue","red","yellow","grey","green"],"door_color_assignment":["black","white"],"door_generator_assignment":[1,0],"goal":5,"start":0,"action_noise":0.15,"location_history":"[0,1,3,2,1,3,2,3,4,0,5]","action_history":"[1,0,0,0,0,1,0,1,0,0]","door_history":"[0,1,1,1,1,0,1,0,1,1]","location_rts":"[361,2193,758,525,527,802,970,940,1118,864]","trial_type":"two-door-navigation","trial_index":15,"time_elapsed":367867,"internal_node_id":"0.0-2.0-13.0"},{"group":"hexagon_tri","room_assignment":["purple","blue","red","yellow","grey","green"],"door_color_assignment":["black","white"],"door_generator_assignment":[1,0],"goal":1,"start":5,"action_noise":0.15,"location_history":"[5,4,2,3,4,2,3,2,3,4,0,1]","action_history":"[0,1,1,1,1,1,0,1,0,0,1]","door_history":"[1,0,0,0,0,0,1,0,1,1,0]","location_rts":"[1797,961,340,456,586,1165,858,483,546,546,1384]","trial_type":"two-door-navigation","trial_index":16,"time_elapsed":391766,"internal_node_id":"0.0-2.0-14.0"},{"group":"hexagon_tri","room_assignment":["purple","blue","red","yellow","grey","green"],"door_color_assignment":["black","white"],"door_generator_assignment":[1,0],"goal":5,"start":1,"action_noise":0.15,"location_history":"[1,3,2,1,5]","action_history":"[0,0,0,1]","door_history":"[1,1,1,0]","location_rts":"[1837,1495,869,1292]","trial_type":"two-door-navigation","trial_index":17,"time_elapsed":404863,"internal_node_id":"0.0-2.0-15.0"},{"group":"hexagon_tri","room_assignment":["purple","blue","red","yellow","grey","green"],"door_color_assignment":["black","white"],"door_generator_assignment":[1,0],"goal":3,"start":5,"action_noise":0.15,"location_history":"[5,0,5,0,1,5,0,5,4,2,1,5,4,0,5,4,2,3]","action_history":"[1,1,1,1,1,1,0,0,1,1,1,0,0,0,0,1,1]","door_history":"[0,0,0,0,0,0,1,1,0,0,0,1,1,1,1,0,0]","location_rts":"[3440,991,563,1207,846,1034,845,1295,989,948,1900,739,559,930,733,1389,872]","trial_type":"two-door-navigation","trial_index":18,"time_elapsed":445059,"internal_node_id":"0.0-2.0-16.0"},{"group":"hexagon_tri","room_assignment":["purple","blue","red","yellow","grey","green"],"door_color_assignment":["black","white"],"door_generator_assignment":[1,0],"goal":2,"start":3,"action_noise":0.15,"location_history":"[3,4,0,1,5,0,5,0,1,3,2]","action_history":"[1,0,1,1,1,0,1,1,1,1]","door_history":"[0,1,0,0,0,1,0,0,0,0]","location_rts":"[841,416,1753,681,1014,965,498,688,909,1145]","trial_type":"two-door-navigation","trial_index":19,"time_elapsed":467716,"internal_node_id":"0.0-2.0-17.0"},{"group":"hexagon_tri","room_assignment":["purple","blue","red","yellow","grey","green"],"door_color_assignment":["black","white"],"door_generator_assignment":[1,0],"goal":1,"start":2,"action_noise":0.15,"location_history":"[2,3,4,2,3,2,1]","action_history":"[1,1,1,1,0,0]","door_history":"[0,0,0,0,1,1]","location_rts":"[1773,665,1098,595,1955,929]","trial_type":"two-door-navigation","trial_index":20,"time_elapsed":484378,"internal_node_id":"0.0-2.0-18.0"},{"group":"hexagon_tri","room_assignment":["purple","blue","red","yellow","grey","green"],"door_color_assignment":["black","white"],"door_generator_assignment":[1,0],"goal":4,"start":1,"action_noise":0.15,"location_history":"[1,5,4]","action_history":"[1,0]","door_history":"[0,1]","location_rts":"[1045,732]","trial_type":"two-door-navigation","trial_index":21,"time_elapsed":491697,"internal_node_id":"0.0-2.0-19.0"},{"group":"hexagon_tri","room_assignment":["purple","blue","red","yellow","grey","green"],"door_color_assignment":["black","white"],"door_generator_assignment":[1,0],"goal":0,"start":4,"action_noise":0.15,"location_history":"[4,0]","action_history":"[1]","door_history":"[0]","location_rts":"[1884]","trial_type":"two-door-navigation","trial_index":22,"time_elapsed":498111,"internal_node_id":"0.0-2.0-20.0"},{"group":"hexagon_tri","room_assignment":["purple","blue","red","yellow","grey","green"],"door_color_assignment":["black","white"],"door_generator_assignment":[1,0],"goal":3,"start":0,"action_noise":0.15,"location_history":"[0,5,0,5,0,5,0,5,4,2,3]","action_history":"[0,1,1,1,0,1,0,0,1,1]","door_history":"[1,0,0,0,1,0,1,1,0,0]","location_rts":"[2549,1632,1178,1657,1050,965,1061,463,1602,1134]","trial_type":"two-door-navigation","trial_index":23,"time_elapsed":525168,"internal_node_id":"0.0-2.0-21.0"},{"group":"hexagon_tri","room_assignment":["purple","blue","red","yellow","grey","green"],"door_color_assignment":["black","white"],"door_generator_assignment":[1,0],"goal":1,"start":3,"action_noise":0.15,"location_history":"[3,4,2,3,4,0,1]","action_history":"[1,1,1,1,0,1]","door_history":"[0,0,0,0,1,0]","location_rts":"[2688,1745,996,1358,1089,465]","trial_type":"two-door-navigation","trial_index":24,"time_elapsed":543170,"internal_node_id":"0.0-2.0-22.0"},{"group":"hexagon_tri","room_assignment":["purple","blue","red","yellow","grey","green"],"door_color_assignment":["black","white"],"door_generator_assignment":[1,0],"goal":0,"start":1,"action_noise":0.15,"location_history":"[1,5,0]","action_history":"[1,1]","door_history":"[0,0]","location_rts":"[1809,744]","trial_type":"two-door-navigation","trial_index":25,"time_elapsed":551274,"internal_node_id":"0.0-2.0-23.0"},{"group":"hexagon_tri","room_assignment":["purple","blue","red","yellow","grey","green"],"door_color_assignment":["black","white"],"door_generator_assignment":[1,0],"goal":2,"start":0,"action_noise":0.15,"location_history":"[0,5,4,2]","action_history":"[0,1,1]","door_history":"[1,0,0]","location_rts":"[2005,2801,1126]","trial_type":"two-door-navigation","trial_index":26,"time_elapsed":563780,"internal_node_id":"0.0-2.0-24.0"},{"group":"hexagon_tri","room_assignment":["purple","blue","red","yellow","grey","green"],"door_color_assignment":["black","white"],"door_generator_assignment":[1,0],"goal":4,"start":2,"action_noise":0.15,"location_history":"[2,1,3,2,1,5,0,5,4]","action_history":"[0,0,0,0,0,1,0,0]","door_history":"[1,1,1,1,1,0,1,1]","location_rts":"[1763,1465,827,714,1493,600,1047,1519]","trial_type":"two-door-navigation","trial_index":27,"time_elapsed":584903,"internal_node_id":"0.0-2.0-25.0"},{"group":"hexagon_tri","room_assignment":["purple","blue","red","yellow","grey","green"],"door_color_assignment":["black","white"],"door_generator_assignment":[1,0],"goal":5,"start":4,"action_noise":0.15,"location_history":"[4,0,5]","action_history":"[0,0]","door_history":"[1,1]","location_rts":"[2153,1588]","trial_type":"two-door-navigation","trial_index":28,"time_elapsed":594199,"internal_node_id":"0.0-2.0-26.0"},{"group":"hexagon_tri","room_assignment":["purple","blue","red","yellow","grey","green"],"door_color_assignment":["black","white"],"door_generator_assignment":[1,0],"goal":2,"start":5,"action_noise":0.15,"location_history":"[5,4,2]","action_history":"[0,1]","door_history":"[1,0]","location_rts":"[12369,865]","trial_type":"two-door-navigation","trial_index":29,"time_elapsed":612988,"internal_node_id":"0.0-2.0-27.0"},{"group":"hexagon_tri","room_assignment":["purple","blue","red","yellow","grey","green"],"door_color_assignment":["black","white"],"door_generator_assignment":[1,0],"goal":3,"start":2,"action_noise":0.15,"location_history":"[2,1,5,0,1,5,0,5,0,1,3]","action_history":"[0,1,1,1,1,1,0,0,1,1]","door_history":"[1,0,0,0,0,0,1,1,0,0]","location_rts":"[1634,1289,734,664,750,934,952,1447,535,783]","trial_type":"two-door-navigation","trial_index":30,"time_elapsed":636456,"internal_node_id":"0.0-2.0-28.0"},{"group":"hexagon_tri","room_assignment":["purple","blue","red","yellow","grey","green"],"door_color_assignment":["black","white"],"door_generator_assignment":[1,0],"goal":1,"start":3,"action_noise":0.15,"location_history":"[3,2,3,2,3,4,0,1]","action_history":"[1,1,0,1,1,0,1]","door_history":"[0,0,1,0,0,1,0]","location_rts":"[1909,1075,1660,837,591,801,547]","trial_type":"two-door-navigation","trial_index":31,"time_elapsed":654562,"internal_node_id":"0.0-2.0-29.0"},{"group":"hexagon_tri","room_assignment":["purple","blue","red","yellow","grey","green"],"door_color_assignment":["black","white"],"door_generator_assignment":[1,0],"goal":4,"start":1,"action_noise":0.15,"location_history":"[1,3,2,3,2,1,3,4]","action_history":"[0,0,0,0,1,0,1]","door_history":"[1,1,1,1,0,1,0]","location_rts":"[2744,670,811,702,838,1633,1308]","trial_type":"two-door-navigation","trial_index":32,"time_elapsed":673949,"internal_node_id":"0.0-2.0-30.0"},{"group":"hexagon_tri","room_assignment":["purple","blue","red","yellow","grey","green"],"door_color_assignment":["black","white"],"door_generator_assignment":[1,0],"goal":5,"start":4,"action_noise":0.15,"location_history":"[4,0,5]","action_history":"[0,0]","door_history":"[1,1]","location_rts":"[2316,1526]","trial_type":"two-door-navigation","trial_index":33,"time_elapsed":683341,"internal_node_id":"0.0-2.0-31.0"},{"group":"hexagon_tri","room_assignment":["purple","blue","red","yellow","grey","green"],"door_color_assignment":["black","white"],"door_generator_assignment":[1,0],"goal":0,"start":5,"action_noise":0.15,"location_history":"[5,0]","action_history":"[1]","door_history":"[0]","location_rts":"[1829]","trial_type":"two-door-navigation","trial_index":34,"time_elapsed":689704,"internal_node_id":"0.0-2.0-32.0"},{"group":"hexagon_tri","room_assignment":["purple","blue","red","yellow","grey","green"],"door_color_assignment":["black","white"],"door_generator_assignment":[1,0],"goal":2,"start":0,"action_noise":0.15,"location_history":"[0,5,0,1,5,4,2]","action_history":"[0,1,1,1,1,1]","door_history":"[1,0,0,0,0,0]","location_rts":"[1634,1583,925,1160,1283,1827]","trial_type":"two-door-navigation","trial_index":35,"time_elapsed":707772,"internal_node_id":"0.0-2.0-33.0"},{"group":"hexagon_tri","room_assignment":["purple","blue","red","yellow","grey","green"],"door_color_assignment":["black","white"],"door_generator_assignment":[1,0],"goal":0,"start":2,"action_noise":0.15,"location_history":"[2,3,2,1,5,0]","action_history":"[1,1,0,1,1]","door_history":"[0,0,1,0,0]","location_rts":"[2253,814,1911,654,1072]","trial_type":"two-door-navigation","trial_index":36,"time_elapsed":723112,"internal_node_id":"0.0-2.0-34.0"},{"group":"hexagon_tri","room_assignment":["purple","blue","red","yellow","grey","green"],"door_color_assignment":["black","white"],"door_generator_assignment":[1,0],"goal":5,"start":0,"action_noise":0.15,"location_history":"[0,1,5]","action_history":"[1,1]","door_history":"[0,0]","location_rts":"[503,2199]","trial_type":"two-door-navigation","trial_index":37,"time_elapsed":731372,"internal_node_id":"0.0-2.0-35.0"},{"group":"hexagon_tri","room_assignment":["purple","blue","red","yellow","grey","green"],"door_color_assignment":["black","white"],"door_generator_assignment":[1,0],"goal":1,"start":5,"action_noise":0.15,"location_history":"[5,4,2,3,4,0,1]","action_history":"[0,1,1,1,1,1]","door_history":"[1,0,0,0,0,0]","location_rts":"[14192,496,589,685,1167,2002]","trial_type":"two-door-navigation","trial_index":38,"time_elapsed":760166,"internal_node_id":"0.0-2.0-36.0"},{"group":"hexagon_tri","room_assignment":["purple","blue","red","yellow","grey","green"],"door_color_assignment":["black","white"],"door_generator_assignment":[1,0],"goal":4,"start":1,"action_noise":0.15,"location_history":"[1,3,2,3,2,1,3,4]","action_history":"[0,0,1,0,0,0,1]","door_history":"[1,1,0,1,1,1,0]","location_rts":"[2326,945,1583,873,642,1065,2387]","trial_type":"two-door-navigation","trial_index":39,"time_elapsed":780662,"internal_node_id":"0.0-2.0-37.0"},{"group":"hexagon_tri","room_assignment":["purple","blue","red","yellow","grey","green"],"door_color_assignment":["black","white"],"door_generator_assignment":[1,0],"goal":3,"start":4,"action_noise":0.15,"location_history":"[4,2,1,3]","action_history":"[1,0,1]","door_history":"[0,1,0]","location_rts":"[1307,1425,1571]","trial_type":"two-door-navigation","trial_index":40,"time_elapsed":791536,"internal_node_id":"0.0-2.0-38.0"},{"group":"hexagon_tri","room_assignment":["purple","blue","red","yellow","grey","green"],"door_color_assignment":["black","white"],"door_generator_assignment":[1,0],"goal":5,"start":3,"action_noise":0.15,"location_history":"[3,4,2,3,4,0,1,3,2,3,2,3,4,0,1,5]","action_history":"[1,1,1,1,0,1,1,0,0,0,1,1,0,1,1]","door_history":"[0,0,0,0,1,0,0,1,1,1,0,0,1,0,0]","location_rts":"[2332,2129,871,1191,1334,2085,702,1348,1317,1284,635,1129,1400,869,1168]","trial_type":"two-door-navigation","trial_index":41,"time_elapsed":830212,"internal_node_id":"0.0-2.0-39.0"},{"group":"hexagon_tri","room_assignment":["purple","blue","red","yellow","grey","green"],"door_color_assignment":["black","white"],"door_generator_assignment":[1,0],"goal":1,"start":5,"action_noise":0.15,"location_history":"[5,4,2,3,4,2,3,2,3,2,3,2,1]","action_history":"[0,1,1,1,1,1,0,0,0,1,0,0]","door_history":"[1,0,0,0,0,0,1,1,1,0,1,1]","location_rts":"[2337,1093,649,580,615,648,876,1224,1679,896,546,1753]","trial_type":"two-door-navigation","trial_index":42,"time_elapsed":858920,"internal_node_id":"0.0-2.0-40.0"},{"group":"hexagon_tri","room_assignment":["purple","blue","red","yellow","grey","green"],"door_color_assignment":["black","white"],"door_generator_assignment":[1,0],"goal":2,"start":1,"action_noise":0.15,"location_history":"[1,5,0,1,3,4,0,5,4,2]","action_history":"[1,1,1,0,1,0,0,0,1]","door_history":"[0,0,0,1,0,1,1,1,0]","location_rts":"[6355,2906,1427,1996,1203,3180,1661,1327,2109]","trial_type":"two-door-navigation","trial_index":43,"time_elapsed":893814,"internal_node_id":"0.0-2.0-41.0"},{"group":"hexagon_tri","room_assignment":["purple","blue","red","yellow","grey","green"],"door_color_assignment":["black","white"],"door_generator_assignment":[1,0],"goal":4,"start":2,"action_noise":0.15,"location_history":"[2,3,2,1,5,4]","action_history":"[1,0,0,0,0]","door_history":"[0,1,1,1,1]","location_rts":"[1075,1079,919,6604,1667]","trial_type":"two-door-navigation","trial_index":44,"time_elapsed":913787,"internal_node_id":"0.0-2.0-42.0"},{"group":"hexagon_tri","room_assignment":["purple","blue","red","yellow","grey","green"],"door_color_assignment":["black","white"],"door_generator_assignment":[1,0],"goal":0,"start":4,"action_noise":0.15,"location_history":"[4,2,3,4,2,1,5,4,2,3,2,3,4,0]","action_history":"[1,1,1,0,1,1,0,1,1,1,1,1,0]","door_history":"[0,0,0,1,0,0,1,0,0,0,0,0,1]","location_rts":"[2405,825,1251,1649,1166,1002,1583,1870,1160,1125,1588,1821,12409]","trial_type":"two-door-navigation","trial_index":45,"time_elapsed":960546,"internal_node_id":"0.0-2.0-43.0"},{"group":"hexagon_tri","room_assignment":["purple","blue","red","yellow","grey","green"],"door_color_assignment":["black","white"],"door_generator_assignment":[1,0],"goal":3,"start":0,"action_noise":0.15,"location_history":"[0,5,4,0,1,3]","action_history":"[1,0,0,0,0]","door_history":"[0,1,1,1,1]","location_rts":"[3205,3152,1909,1019,738]","trial_type":"two-door-navigation","trial_index":46,"time_elapsed":979191,"internal_node_id":"0.0-2.0-44.0"},{"group":"hexagon_tri","room_assignment":["purple","blue","red","yellow","grey","green"],"door_color_assignment":["black","white"],"door_generator_assignment":[1,0],"goal":0,"start":3,"action_noise":0.15,"location_history":"[3,2,1,5,0]","action_history":"[0,0,1,1]","door_history":"[1,1,0,0]","location_rts":"[4289,1179,965,753]","trial_type":"two-door-navigation","trial_index":47,"time_elapsed":993979,"internal_node_id":"0.0-2.0-45.0"},{"group":"hexagon_tri","room_assignment":["purple","blue","red","yellow","grey","green"],"door_color_assignment":["black","white"],"door_generator_assignment":[1,0],"goal":4,"start":0,"action_noise":0.15,"location_history":"[0,5,4]","action_history":"[0,0]","door_history":"[1,1]","location_rts":"[2035,559]","trial_type":"two-door-navigation","trial_index":48,"time_elapsed":1002124,"internal_node_id":"0.0-2.0-46.0"},{"group":"hexagon_tri","room_assignment":["purple","blue","red","yellow","grey","green"],"door_color_assignment":["black","white"],"door_generator_assignment":[1,0],"goal":5,"start":4,"action_noise":0.15,"location_history":"[4,2,1,3,4,2,1,3,4,2,3,2,3,4,0,5]","action_history":"[0,0,0,1,0,0,1,1,1,1,0,1,1,1,1]","door_history":"[1,1,1,0,1,1,0,0,0,0,1,0,0,0,0]","location_rts":"[1925,885,649,1246,1253,1720,521,1074,1715,1123,679,510,1749,1155,894]","trial_type":"two-door-navigation","trial_index":49,"time_elapsed":1038098,"internal_node_id":"0.0-2.0-47.0"},{"group":"hexagon_tri","room_assignment":["purple","blue","red","yellow","grey","green"],"door_color_assignment":["black","white"],"door_generator_assignment":[1,0],"goal":2,"start":5,"action_noise":0.15,"location_history":"[5,4,2]","action_history":"[0,1]","door_history":"[1,0]","location_rts":"[2457,978]","trial_type":"two-door-navigation","trial_index":50,"time_elapsed":1047095,"internal_node_id":"0.0-2.0-48.0"},{"group":"hexagon_tri","room_assignment":["purple","blue","red","yellow","grey","green"],"door_color_assignment":["black","white"],"door_generator_assignment":[1,0],"goal":1,"start":2,"action_noise":0.15,"location_history":"[2,3,4,2,1]","action_history":"[1,1,1,0]","door_history":"[0,0,0,1]","location_rts":"[2798,1091,1509,1571]","trial_type":"two-door-navigation","trial_index":51,"time_elapsed":1061660,"internal_node_id":"0.0-2.0-49.0"},{"view_history":"[{\"page_index\":0,\"viewing_time\":2644}]","rt":2644,"trial_type":"instructions","trial_index":52,"time_elapsed":1065305,"internal_node_id":"0.0-3.0"},{"view_history":"[{\"page_index\":0,\"viewing_time\":2977},{\"page_index\":1,\"viewing_time\":2780}]","rt":5757,"trial_type":"instructions","trial_index":53,"time_elapsed":1072063,"internal_node_id":"0.0-4.0"},{"group":"hexagon_bi","fractal_assignment":["../images/org_blu.png","../images/blu_wht.png","../images/ylw_slt.png","../images/pnk_blu.png","../images/cyn_red.png","../images/gry_blk.png"],"mutagen_generator_assignment":[0,1],"goal":2,"start":1,"action_noise":0.15,"location_history":"[1,0,1,0,1,2]","action_history":"[1,0,1,1,0]","mutagen_history":"[1,0,1,1,0]","location_rts":"[2733,827,478,327,426]","trial_type":"fractal-mutation","trial_index":54,"time_elapsed":1085603,"internal_node_id":"0.0-5.0-0.0"},{"group":"hexagon_bi","fractal_assignment":["../images/org_blu.png","../images/blu_wht.png","../images/ylw_slt.png","../images/pnk_blu.png","../images/cyn_red.png","../images/gry_blk.png"],"mutagen_generator_assignment":[0,1],"goal":0,"start":2,"action_noise":0.15,"location_history":"[2,3,2,1,0]","action_history":"[1,0,0,1]","mutagen_history":"[1,0,0,1]","location_rts":"[2644,298,531,272]","trial_type":"fractal-mutation","trial_index":55,"time_elapsed":1097011,"internal_node_id":"0.0-5.0-1.0"},{"group":"hexagon_bi","fractal_assignment":["../images/org_blu.png","../images/blu_wht.png","../images/ylw_slt.png","../images/pnk_blu.png","../images/cyn_red.png","../images/gry_blk.png"],"mutagen_generator_assignment":[0,1],"goal":5,"start":0,"action_noise":0.15,"location_history":"[0,1,2,1,2,3,4,5]","action_history":"[1,0,0,0,1,0,1]","mutagen_history":"[1,0,0,0,1,0,1]","location_rts":"[895,392,471,246,185,1859,787]","trial_type":"fractal-mutation","trial_index":56,"time_elapsed":1112629,"internal_node_id":"0.0-5.0-2.0"},{"group":"hexagon_bi","fractal_assignment":["../images/org_blu.png","../images/blu_wht.png","../images/ylw_slt.png","../images/pnk_blu.png","../images/cyn_red.png","../images/gry_blk.png"],"mutagen_generator_assignment":[0,1],"goal":1,"start":5,"action_noise":0.15,"location_history":"[5,4,5,0,1]","action_history":"[0,1,0,1]","mutagen_history":"[0,1,0,1]","location_rts":"[2192,971,273,2424]","trial_type":"fractal-mutation","trial_index":57,"time_elapsed":1126149,"internal_node_id":"0.0-5.0-3.0"},{"group":"hexagon_bi","fractal_assignment":["../images/org_blu.png","../images/blu_wht.png","../images/ylw_slt.png","../images/pnk_blu.png","../images/cyn_red.png","../images/gry_blk.png"],"mutagen_generator_assignment":[0,1],"goal":3,"start":1,"action_noise":0.15,"location_history":"[1,2,3]","action_history":"[0,1]","mutagen_history":"[0,1]","location_rts":"[1970,521]","trial_type":"fractal-mutation","trial_index":58,"time_elapsed":1134219,"internal_node_id":"0.0-5.0-4.0"},{"group":"hexagon_bi","fractal_assignment":["../images/org_blu.png","../images/blu_wht.png","../images/ylw_slt.png","../images/pnk_blu.png","../images/cyn_red.png","../images/gry_blk.png"],"mutagen_generator_assignment":[0,1],"goal":5,"start":3,"action_noise":0.15,"location_history":"[3,2,1,2,3,2,1,2,3,2,3,4,5]","action_history":"[1,0,0,1,0,0,0,1,1,1,0,1]","mutagen_history":"[1,0,0,1,0,0,0,1,1,1,0,1]","location_rts":"[2437,374,1269,251,549,1104,664,146,710,744,217,1644]","trial_type":"fractal-mutation","trial_index":59,"time_elapsed":1160274,"internal_node_id":"0.0-5.0-5.0"},{"group":"hexagon_bi","fractal_assignment":["../images/org_blu.png","../images/blu_wht.png","../images/ylw_slt.png","../images/pnk_blu.png","../images/cyn_red.png","../images/gry_blk.png"],"mutagen_generator_assignment":[0,1],"goal":4,"start":5,"action_noise":0.15,"location_history":"[5,0,5,4]","action_history":"[1,0,1]","mutagen_history":"[1,0,1]","location_rts":"[1458,515,485]","trial_type":"fractal-mutation","trial_index":60,"time_elapsed":1169345,"internal_node_id":"0.0-5.0-6.0"},{"group":"hexagon_bi","fractal_assignment":["../images/org_blu.png","../images/blu_wht.png","../images/ylw_slt.png","../images/pnk_blu.png","../images/cyn_red.png","../images/gry_blk.png"],"mutagen_generator_assignment":[0,1],"goal":0,"start":4,"action_noise":0.15,"location_history":"[4,3,2,1,0]","action_history":"[0,1,0,1]","mutagen_history":"[0,1,0,1]","location_rts":"[2570,432,812,552]","trial_type":"fractal-mutation","trial_index":61,"time_elapsed":1181392,"internal_node_id":"0.0-5.0-7.0"},{"group":"hexagon_bi","fractal_assignment":["../images/org_blu.png","../images/blu_wht.png","../images/ylw_slt.png","../images/pnk_blu.png","../images/cyn_red.png","../images/gry_blk.png"],"mutagen_generator_assignment":[0,1],"goal":2,"start":0,"action_noise":0.15,"location_history":"[0,1,0,1,2]","action_history":"[0,1,1,0]","mutagen_history":"[0,1,1,0]","location_rts":"[2374,278,779,227]","trial_type":"fractal-mutation","trial_index":62,"time_elapsed":1192700,"internal_node_id":"0.0-5.0-8.0"},{"group":"hexagon_bi","fractal_assignment":["../images/org_blu.png","../images/blu_wht.png","../images/ylw_slt.png","../images/pnk_blu.png","../images/cyn_red.png","../images/gry_blk.png"],"mutagen_generator_assignment":[0,1],"goal":4,"start":2,"action_noise":0.15,"location_history":"[2,3,4]","action_history":"[1,0]","mutagen_history":"[1,0]","location_rts":"[835,588]","trial_type":"fractal-mutation","trial_index":63,"time_elapsed":1199711,"internal_node_id":"0.0-5.0-9.0"},{"group":"hexagon_bi","fractal_assignment":["../images/org_blu.png","../images/blu_wht.png","../images/ylw_slt.png","../images/pnk_blu.png","../images/cyn_red.png","../images/gry_blk.png"],"mutagen_generator_assignment":[0,1],"goal":2,"start":4,"action_noise":0.15,"location_history":"[4,5,0,5,4,5,4,5,0,1,0,5,0,1,2]","action_history":"[1,0,1,1,0,0,1,0,1,1,0,0,1,1]","mutagen_history":"[1,0,1,1,0,0,1,0,1,1,0,0,1,1]","location_rts":"[1302,513,1070,903,832,1219,328,390,1236,389,460,740,636,543]","trial_type":"fractal-mutation","trial_index":64,"time_elapsed":1228350,"internal_node_id":"0.0-5.0-10.0"},{"group":"hexagon_bi","fractal_assignment":["../images/org_blu.png","../images/blu_wht.png","../images/ylw_slt.png","../images/pnk_blu.png","../images/cyn_red.png","../images/gry_blk.png"],"mutagen_generator_assignment":[0,1],"goal":3,"start":2,"action_noise":0.15,"location_history":"[2,3]","action_history":"[1]","mutagen_history":"[1]","location_rts":"[1339]","trial_type":"fractal-mutation","trial_index":65,"time_elapsed":1234240,"internal_node_id":"0.0-5.0-11.0"},{"group":"hexagon_bi","fractal_assignment":["../images/org_blu.png","../images/blu_wht.png","../images/ylw_slt.png","../images/pnk_blu.png","../images/cyn_red.png","../images/gry_blk.png"],"mutagen_generator_assignment":[0,1],"goal":0,"start":3,"action_noise":0.15,"location_history":"[3,4,5,0]","action_history":"[0,1,0]","mutagen_history":"[0,1,0]","location_rts":"[1261,483,464]","trial_type":"fractal-mutation","trial_index":66,"time_elapsed":1243060,"internal_node_id":"0.0-5.0-12.0"},{"group":"hexagon_bi","fractal_assignment":["../images/org_blu.png","../images/blu_wht.png","../images/ylw_slt.png","../images/pnk_blu.png","../images/cyn_red.png","../images/gry_blk.png"],"mutagen_generator_assignment":[0,1],"goal":5,"start":0,"action_noise":0.15,"location_history":"[0,1,2,3,4,3,2,3,4,3,4,5]","action_history":"[1,0,1,0,0,1,1,1,0,0,1]","mutagen_history":"[1,0,1,0,0,1,1,1,0,0,1]","location_rts":"[2834,376,858,353,413,359,539,333,320,999,751]","trial_type":"fractal-mutation","trial_index":67,"time_elapsed":1266119,"internal_node_id":"0.0-5.0-13.0"},{"group":"hexagon_bi","fractal_assignment":["../images/org_blu.png","../images/blu_wht.png","../images/ylw_slt.png","../images/pnk_blu.png","../images/cyn_red.png","../images/gry_blk.png"],"mutagen_generator_assignment":[0,1],"goal":1,"start":5,"action_noise":0.15,"location_history":"[5,0,1]","action_history":"[0,1]","mutagen_history":"[0,1]","location_rts":"[2513,572]","trial_type":"fractal-mutation","trial_index":68,"time_elapsed":1274786,"internal_node_id":"0.0-5.0-14.0"},{"group":"hexagon_bi","fractal_assignment":["../images/org_blu.png","../images/blu_wht.png","../images/ylw_slt.png","../images/pnk_blu.png","../images/cyn_red.png","../images/gry_blk.png"],"mutagen_generator_assignment":[0,1],"goal":5,"start":1,"action_noise":0.15,"location_history":"[1,0,5]","action_history":"[1,0]","mutagen_history":"[1,0]","location_rts":"[2420,336]","trial_type":"fractal-mutation","trial_index":69,"time_elapsed":1283129,"internal_node_id":"0.0-5.0-15.0"},{"group":"hexagon_bi","fractal_assignment":["../images/org_blu.png","../images/blu_wht.png","../images/ylw_slt.png","../images/pnk_blu.png","../images/cyn_red.png","../images/gry_blk.png"],"mutagen_generator_assignment":[0,1],"goal":3,"start":5,"action_noise":0.15,"location_history":"[5,4,3]","action_history":"[1,0]","mutagen_history":"[1,0]","location_rts":"[1370,269]","trial_type":"fractal-mutation","trial_index":70,"time_elapsed":1290346,"internal_node_id":"0.0-5.0-16.0"},{"group":"hexagon_bi","fractal_assignment":["../images/org_blu.png","../images/blu_wht.png","../images/ylw_slt.png","../images/pnk_blu.png","../images/cyn_red.png","../images/gry_blk.png"],"mutagen_generator_assignment":[0,1],"goal":2,"start":3,"action_noise":0.15,"location_history":"[3,2]","action_history":"[0]","mutagen_history":"[0]","location_rts":"[1219]","trial_type":"fractal-mutation","trial_index":71,"time_elapsed":1296106,"internal_node_id":"0.0-5.0-17.0"},{"group":"hexagon_bi","fractal_assignment":["../images/org_blu.png","../images/blu_wht.png","../images/ylw_slt.png","../images/pnk_blu.png","../images/cyn_red.png","../images/gry_blk.png"],"mutagen_generator_assignment":[0,1],"goal":1,"start":2,"action_noise":0.15,"location_history":"[2,3,4,3,2,1]","action_history":"[1,0,0,1,0]","mutagen_history":"[1,0,0,1,0]","location_rts":"[1506,397,1007,354,875]","trial_type":"fractal-mutation","trial_index":72,"time_elapsed":1308938,"internal_node_id":"0.0-5.0-18.0"},{"group":"hexagon_bi","fractal_assignment":["../images/org_blu.png","../images/blu_wht.png","../images/ylw_slt.png","../images/pnk_blu.png","../images/cyn_red.png","../images/gry_blk.png"],"mutagen_generator_assignment":[0,1],"goal":4,"start":1,"action_noise":0.15,"location_history":"[1,2,3,2,3,4]","action_history":"[0,1,1,1,0]","mutagen_history":"[0,1,1,1,0]","location_rts":"[2026,346,994,532,89]","trial_type":"fractal-mutation","trial_index":73,"time_elapsed":1321638,"internal_node_id":"0.0-5.0-19.0"},{"group":"hexagon_bi","fractal_assignment":["../images/org_blu.png","../images/blu_wht.png","../images/ylw_slt.png","../images/pnk_blu.png","../images/cyn_red.png","../images/gry_blk.png"],"mutagen_generator_assignment":[0,1],"goal":0,"start":4,"action_noise":0.15,"location_history":"[4,5,4,3,2,1,0]","action_history":"[1,0,0,1,0,1]","mutagen_history":"[1,0,0,1,0,1]","location_rts":"[1146,299,685,303,1524,1720]","trial_type":"fractal-mutation","trial_index":74,"time_elapsed":1337073,"internal_node_id":"0.0-5.0-20.0"},{"group":"hexagon_bi","fractal_assignment":["../images/org_blu.png","../images/blu_wht.png","../images/ylw_slt.png","../images/pnk_blu.png","../images/cyn_red.png","../images/gry_blk.png"],"mutagen_generator_assignment":[0,1],"goal":3,"start":0,"action_noise":0.15,"location_history":"[0,5,0,1,2,3]","action_history":"[0,1,1,0,0]","mutagen_history":"[0,1,1,0,0]","location_rts":"[1494,319,542,211,560]","trial_type":"fractal-mutation","trial_index":75,"time_elapsed":1348885,"internal_node_id":"0.0-5.0-21.0"},{"group":"hexagon_bi","fractal_assignment":["../images/org_blu.png","../images/blu_wht.png","../images/ylw_slt.png","../images/pnk_blu.png","../images/cyn_red.png","../images/gry_blk.png"],"mutagen_generator_assignment":[0,1],"goal":1,"start":3,"action_noise":0.15,"location_history":"[3,2,1]","action_history":"[1,0]","mutagen_history":"[1,0]","location_rts":"[1568,1777]","trial_type":"fractal-mutation","trial_index":76,"time_elapsed":1357807,"internal_node_id":"0.0-5.0-22.0"},{"group":"hexagon_bi","fractal_assignment":["../images/org_blu.png","../images/blu_wht.png","../images/ylw_slt.png","../images/pnk_blu.png","../images/cyn_red.png","../images/gry_blk.png"],"mutagen_generator_assignment":[0,1],"goal":0,"start":1,"action_noise":0.15,"location_history":"[1,0]","action_history":"[0]","mutagen_history":"[0]","location_rts":"[2968]","trial_type":"fractal-mutation","trial_index":77,"time_elapsed":1365314,"internal_node_id":"0.0-5.0-23.0"},{"group":"hexagon_bi","fractal_assignment":["../images/org_blu.png","../images/blu_wht.png","../images/ylw_slt.png","../images/pnk_blu.png","../images/cyn_red.png","../images/gry_blk.png"],"mutagen_generator_assignment":[0,1],"goal":2,"start":0,"action_noise":0.15,"location_history":"[0,1,2]","action_history":"[1,0]","mutagen_history":"[1,0]","location_rts":"[954,363]","trial_type":"fractal-mutation","trial_index":78,"time_elapsed":1372201,"internal_node_id":"0.0-5.0-24.0"},{"group":"hexagon_bi","fractal_assignment":["../images/org_blu.png","../images/blu_wht.png","../images/ylw_slt.png","../images/pnk_blu.png","../images/cyn_red.png","../images/gry_blk.png"],"mutagen_generator_assignment":[0,1],"goal":4,"start":2,"action_noise":0.15,"location_history":"[2,3,2,1,0,5,4]","action_history":"[1,0,0,1,0,1]","mutagen_history":"[1,0,0,1,0,1]","location_rts":"[806,290,637,262,437,504]","trial_type":"fractal-mutation","trial_index":79,"time_elapsed":1384863,"internal_node_id":"0.0-5.0-25.0"},{"group":"hexagon_bi","fractal_assignment":["../images/org_blu.png","../images/blu_wht.png","../images/ylw_slt.png","../images/pnk_blu.png","../images/cyn_red.png","../images/gry_blk.png"],"mutagen_generator_assignment":[0,1],"goal":5,"start":4,"action_noise":0.15,"location_history":"[4,5]","action_history":"[1]","mutagen_history":"[1]","location_rts":"[1788]","trial_type":"fractal-mutation","trial_index":80,"time_elapsed":1391202,"internal_node_id":"0.0-5.0-26.0"},{"group":"hexagon_bi","fractal_assignment":["../images/org_blu.png","../images/blu_wht.png","../images/ylw_slt.png","../images/pnk_blu.png","../images/cyn_red.png","../images/gry_blk.png"],"mutagen_generator_assignment":[0,1],"goal":2,"start":5,"action_noise":0.15,"location_history":"[5,4,5,0,1,2]","action_history":"[0,1,1,0,0]","mutagen_history":"[0,1,1,0,0]","location_rts":"[2566,291,718,652,849]","trial_type":"fractal-mutation","trial_index":81,"time_elapsed":1404952,"internal_node_id":"0.0-5.0-27.0"},{"group":"hexagon_bi","fractal_assignment":["../images/org_blu.png","../images/blu_wht.png","../images/ylw_slt.png","../images/pnk_blu.png","../images/cyn_red.png","../images/gry_blk.png"],"mutagen_generator_assignment":[0,1],"goal":3,"start":2,"action_noise":0.15,"location_history":"[2,3]","action_history":"[0]","mutagen_history":"[0]","location_rts":"[3140]","trial_type":"fractal-mutation","trial_index":82,"time_elapsed":1412631,"internal_node_id":"0.0-5.0-28.0"},{"group":"hexagon_bi","fractal_assignment":["../images/org_blu.png","../images/blu_wht.png","../images/ylw_slt.png","../images/pnk_blu.png","../images/cyn_red.png","../images/gry_blk.png"],"mutagen_generator_assignment":[0,1],"goal":1,"start":3,"action_noise":0.15,"location_history":"[3,2,3,4,5,0,1]","action_history":"[1,0,0,1,0,1]","mutagen_history":"[1,0,0,1,0,1]","location_rts":"[1494,560,1298,323,322,691]","trial_type":"fractal-mutation","trial_index":83,"time_elapsed":1427049,"internal_node_id":"0.0-5.0-29.0"},{"group":"hexagon_bi","fractal_assignment":["../images/org_blu.png","../images/blu_wht.png","../images/ylw_slt.png","../images/pnk_blu.png","../images/cyn_red.png","../images/gry_blk.png"],"mutagen_generator_assignment":[0,1],"goal":4,"start":1,"action_noise":0.15,"location_history":"[1,2,3,2,3,4]","action_history":"[0,1,1,1,0]","mutagen_history":"[0,1,1,1,0]","location_rts":"[3261,465,1120,859,120]","trial_type":"fractal-mutation","trial_index":84,"time_elapsed":1441580,"internal_node_id":"0.0-5.0-30.0"},{"group":"hexagon_bi","fractal_assignment":["../images/org_blu.png","../images/blu_wht.png","../images/ylw_slt.png","../images/pnk_blu.png","../images/cyn_red.png","../images/gry_blk.png"],"mutagen_generator_assignment":[0,1],"goal":5,"start":4,"action_noise":0.15,"location_history":"[4,5]","action_history":"[1]","mutagen_history":"[1]","location_rts":"[2577]","trial_type":"fractal-mutation","trial_index":85,"time_elapsed":1448699,"internal_node_id":"0.0-5.0-31.0"},{"group":"hexagon_bi","fractal_assignment":["../images/org_blu.png","../images/blu_wht.png","../images/ylw_slt.png","../images/pnk_blu.png","../images/cyn_red.png","../images/gry_blk.png"],"mutagen_generator_assignment":[0,1],"goal":0,"start":5,"action_noise":0.15,"location_history":"[5,0]","action_history":"[0]","mutagen_history":"[0]","location_rts":"[1541]","trial_type":"fractal-mutation","trial_index":86,"time_elapsed":1454792,"internal_node_id":"0.0-5.0-32.0"},{"group":"hexagon_bi","fractal_assignment":["../images/org_blu.png","../images/blu_wht.png","../images/ylw_slt.png","../images/pnk_blu.png","../images/cyn_red.png","../images/gry_blk.png"],"mutagen_generator_assignment":[0,1],"goal":2,"start":0,"action_noise":0.15,"location_history":"[0,1,2]","action_history":"[1,0]","mutagen_history":"[1,0]","location_rts":"[1375,397]","trial_type":"fractal-mutation","trial_index":87,"time_elapsed":1462141,"internal_node_id":"0.0-5.0-33.0"},{"group":"hexagon_bi","fractal_assignment":["../images/org_blu.png","../images/blu_wht.png","../images/ylw_slt.png","../images/pnk_blu.png","../images/cyn_red.png","../images/gry_blk.png"],"mutagen_generator_assignment":[0,1],"goal":0,"start":2,"action_noise":0.15,"location_history":"[2,3,2,1,0]","action_history":"[1,0,0,1]","mutagen_history":"[1,0,0,1]","location_rts":"[1271,523,959,492]","trial_type":"fractal-mutation","trial_index":88,"time_elapsed":1473031,"internal_node_id":"0.0-5.0-34.0"},{"group":"hexagon_bi","fractal_assignment":["../images/org_blu.png","../images/blu_wht.png","../images/ylw_slt.png","../images/pnk_blu.png","../images/cyn_red.png","../images/gry_blk.png"],"mutagen_generator_assignment":[0,1],"goal":5,"start":0,"action_noise":0.15,"location_history":"[0,5]","action_history":"[0]","mutagen_history":"[0]","location_rts":"[1793]","trial_type":"fractal-mutation","trial_index":89,"time_elapsed":1479362,"internal_node_id":"0.0-5.0-35.0"},{"group":"hexagon_bi","fractal_assignment":["../images/org_blu.png","../images/blu_wht.png","../images/ylw_slt.png","../images/pnk_blu.png","../images/cyn_red.png","../images/gry_blk.png"],"mutagen_generator_assignment":[0,1],"goal":1,"start":5,"action_noise":0.15,"location_history":"[5,4,3,4,3,2,1]","action_history":"[1,0,0,0,1,0]","mutagen_history":"[1,0,0,0,1,0]","location_rts":"[1459,500,508,566,276,446]","trial_type":"fractal-mutation","trial_index":90,"time_elapsed":1492835,"internal_node_id":"0.0-5.0-36.0"},{"group":"hexagon_bi","fractal_assignment":["../images/org_blu.png","../images/blu_wht.png","../images/ylw_slt.png","../images/pnk_blu.png","../images/cyn_red.png","../images/gry_blk.png"],"mutagen_generator_assignment":[0,1],"goal":4,"start":1,"action_noise":0.15,"location_history":"[1,2,3,4]","action_history":"[0,1,0]","mutagen_history":"[0,1,0]","location_rts":"[1735,302,1236]","trial_type":"fractal-mutation","trial_index":91,"time_elapsed":1502731,"internal_node_id":"0.0-5.0-37.0"},{"group":"hexagon_bi","fractal_assignment":["../images/org_blu.png","../images/blu_wht.png","../images/ylw_slt.png","../images/pnk_blu.png","../images/cyn_red.png","../images/gry_blk.png"],"mutagen_generator_assignment":[0,1],"goal":3,"start":4,"action_noise":0.15,"location_history":"[4,5,4,5,0,5,4,3]","action_history":"[1,0,1,1,0,1,0]","mutagen_history":"[1,0,1,1,0,1,0]","location_rts":"[1357,478,550,345,746,884,635]","trial_type":"fractal-mutation","trial_index":92,"time_elapsed":1518477,"internal_node_id":"0.0-5.0-38.0"},{"group":"hexagon_bi","fractal_assignment":["../images/org_blu.png","../images/blu_wht.png","../images/ylw_slt.png","../images/pnk_blu.png","../images/cyn_red.png","../images/gry_blk.png"],"mutagen_generator_assignment":[0,1],"goal":5,"start":3,"action_noise":0.15,"location_history":"[3,2,1,0,1,0,5]","action_history":"[1,0,1,1,1,0]","mutagen_history":"[1,0,1,1,1,0]","location_rts":"[1423,290,1531,1161,404,154]","trial_type":"fractal-mutation","trial_index":93,"time_elapsed":1533179,"internal_node_id":"0.0-5.0-39.0"},{"group":"hexagon_bi","fractal_assignment":["../images/org_blu.png","../images/blu_wht.png","../images/ylw_slt.png","../images/pnk_blu.png","../images/cyn_red.png","../images/gry_blk.png"],"mutagen_generator_assignment":[0,1],"goal":1,"start":5,"action_noise":0.15,"location_history":"[5,4,3,2,1]","action_history":"[1,0,1,0]","mutagen_history":"[1,0,1,0]","location_rts":"[1738,706,545,705]","trial_type":"fractal-mutation","trial_index":94,"time_elapsed":1544544,"internal_node_id":"0.0-5.0-40.0"},{"group":"hexagon_bi","fractal_assignment":["../images/org_blu.png","../images/blu_wht.png","../images/ylw_slt.png","../images/pnk_blu.png","../images/cyn_red.png","../images/gry_blk.png"],"mutagen_generator_assignment":[0,1],"goal":2,"start":1,"action_noise":0.15,"location_history":"[1,2]","action_history":"[0]","mutagen_history":"[0]","location_rts":"[1293]","trial_type":"fractal-mutation","trial_index":95,"time_elapsed":1550383,"internal_node_id":"0.0-5.0-41.0"},{"group":"hexagon_bi","fractal_assignment":["../images/org_blu.png","../images/blu_wht.png","../images/ylw_slt.png","../images/pnk_blu.png","../images/cyn_red.png","../images/gry_blk.png"],"mutagen_generator_assignment":[0,1],"goal":4,"start":2,"action_noise":0.15,"location_history":"[2,3,4]","action_history":"[1,0]","mutagen_history":"[1,0]","location_rts":"[1052,500]","trial_type":"fractal-mutation","trial_index":96,"time_elapsed":1557524,"internal_node_id":"0.0-5.0-42.0"},{"group":"hexagon_bi","fractal_assignment":["../images/org_blu.png","../images/blu_wht.png","../images/ylw_slt.png","../images/pnk_blu.png","../images/cyn_red.png","../images/gry_blk.png"],"mutagen_generator_assignment":[0,1],"goal":0,"start":4,"action_noise":0.15,"location_history":"[4,5,4,3,4,5,0]","action_history":"[0,1,0,0,1,0]","mutagen_history":"[0,1,0,0,1,0]","location_rts":"[1551,754,1933,663,338,402]","trial_type":"fractal-mutation","trial_index":97,"time_elapsed":1572866,"internal_node_id":"0.0-5.0-43.0"},{"group":"hexagon_bi","fractal_assignment":["../images/org_blu.png","../images/blu_wht.png","../images/ylw_slt.png","../images/pnk_blu.png","../images/cyn_red.png","../images/gry_blk.png"],"mutagen_generator_assignment":[0,1],"goal":3,"start":0,"action_noise":0.15,"location_history":"[0,5,0,1,2,3]","action_history":"[0,1,1,0,1]","mutagen_history":"[0,1,1,0,1]","location_rts":"[1477,874,609,704,786]","trial_type":"fractal-mutation","trial_index":98,"time_elapsed":1586005,"internal_node_id":"0.0-5.0-44.0"},{"group":"hexagon_bi","fractal_assignment":["../images/org_blu.png","../images/blu_wht.png","../images/ylw_slt.png","../images/pnk_blu.png","../images/cyn_red.png","../images/gry_blk.png"],"mutagen_generator_assignment":[0,1],"goal":0,"start":3,"action_noise":0.15,"location_history":"[3,4,5,0]","action_history":"[0,1,0]","mutagen_history":"[0,1,0]","location_rts":"[1012,586,448]","trial_type":"fractal-mutation","trial_index":99,"time_elapsed":1594670,"internal_node_id":"0.0-5.0-45.0"},{"group":"hexagon_bi","fractal_assignment":["../images/org_blu.png","../images/blu_wht.png","../images/ylw_slt.png","../images/pnk_blu.png","../images/cyn_red.png","../images/gry_blk.png"],"mutagen_generator_assignment":[0,1],"goal":4,"start":0,"action_noise":0.15,"location_history":"[0,5,4]","action_history":"[0,1]","mutagen_history":"[0,1]","location_rts":"[2549,362]","trial_type":"fractal-mutation","trial_index":100,"time_elapsed":1603162,"internal_node_id":"0.0-5.0-46.0"},{"group":"hexagon_bi","fractal_assignment":["../images/org_blu.png","../images/blu_wht.png","../images/ylw_slt.png","../images/pnk_blu.png","../images/cyn_red.png","../images/gry_blk.png"],"mutagen_generator_assignment":[0,1],"goal":5,"start":4,"action_noise":0.15,"location_history":"[4,3,2,1,2,1,2,3,2,1,0,1,0,1,2,3,4,3,4,3,4,5]","action_history":"[0,1,0,1,0,0,1,1,0,1,1,1,0,0,1,0,1,0,0,0,1]","mutagen_history":"[0,1,0,1,0,0,1,1,0,1,1,1,0,0,1,0,1,0,0,0,1]","location_rts":"[1102,413,733,462,798,366,316,1912,554,279,476,643,238,1159,604,356,823,427,304,359,1896]","trial_type":"fractal-mutation","trial_index":101,"time_elapsed":1642730,"internal_node_id":"0.0-5.0-47.0"},{"group":"hexagon_bi","fractal_assignment":["../images/org_blu.png","../images/blu_wht.png","../images/ylw_slt.png","../images/pnk_blu.png","../images/cyn_red.png","../images/gry_blk.png"],"mutagen_generator_assignment":[0,1],"goal":2,"start":5,"action_noise":0.15,"location_history":"[5,0,1,2]","action_history":"[0,1,0]","mutagen_history":"[0,1,0]","location_rts":"[1204,559,636]","trial_type":"fractal-mutation","trial_index":102,"time_elapsed":1651747,"internal_node_id":"0.0-5.0-48.0"},{"group":"hexagon_bi","fractal_assignment":["../images/org_blu.png","../images/blu_wht.png","../images/ylw_slt.png","../images/pnk_blu.png","../images/cyn_red.png","../images/gry_blk.png"],"mutagen_generator_assignment":[0,1],"goal":1,"start":2,"action_noise":0.15,"location_history":"[2,3,4,5,4,3,2,3,2,1]","action_history":"[1,0,1,0,0,1,1,1,0]","mutagen_history":"[1,0,1,0,0,1,1,1,0]","location_rts":"[1468,1347,2027,406,675,475,568,822,178]","trial_type":"fractal-mutation","trial_index":103,"time_elapsed":1672531,"internal_node_id":"0.0-5.0-49.0"},{"view_history":"[{\"page_index\":0,\"viewing_time\":2383}]","rt":2384,"trial_type":"instructions","trial_index":104,"time_elapsed":1675916,"internal_node_id":"0.0-6.0"},{"rt":45802,"responses":"{\"Q0\":\"Probability-influenced spatial pattern recognition\"}","trial_type":"survey-text","trial_index":105,"time_elapsed":1722726,"internal_node_id":"0.0-7.0-0.0"},{"rt":62851,"responses":"{\"Q0\":\"Equation building in limited visual spaces\"}","trial_type":"survey-text","trial_index":106,"time_elapsed":1786582,"internal_node_id":"0.0-7.0-1.0"},{"rt":20302,"responses":"{\"Q0\":\"<img src='../images/diagrams/hexagon_tri.png'>\"}","trial_type":"survey-multi-choice","trial_index":107,"time_elapsed":1807891,"internal_node_id":"0.0-7.0-2.0"},{"rt":59741,"assignments":["../images/org_blu.png","../images/blu_wht.png","../images/gry_blk.png","../images/cyn_red.png","../images/pnk_blu.png","../images/ylw_slt.png"],"trial_type":"drag-drop-on-image","trial_index":108,"time_elapsed":1868636,"internal_node_id":"0.0-7.0-3.0"},{"rt":6826,"responses":"{\"Q0\":\"2\"}","trial_type":"survey-likert","trial_index":109,"time_elapsed":1876470,"internal_node_id":"0.0-7.0-4.0"},{"rt":36059,"responses":"{\"Q0\":\"They both tested pattern recognition abilities that could develop over testing hypotheses\"}","trial_type":"survey-text","trial_index":110,"time_elapsed":1913532,"internal_node_id":"0.0-7.0-5.0"},{"rt":6744,"responses":"{\"Q0\":\"Yes\"}","trial_type":"survey-multi-choice","trial_index":111,"time_elapsed":1921279,"internal_node_id":"0.0-7.0-6.0"},{"rt":20112,"responses":"{\"Q0\":\"During session 2\"}","trial_type":"survey-multi-choice","trial_index":112,"time_elapsed":1942398,"internal_node_id":"0.0-7.0-7.0"},{"rt":28269,"responses":"{\"Q0\":\"I think there was a possibility of color alignments across experiements\"}","trial_type":"survey-text","trial_index":113,"time_elapsed":1971670,"internal_node_id":"0.0-7.0-8.0"},{"rt":5933,"responses":"{\"Q0\":\"0\"}","trial_type":"survey-likert","trial_index":114,"time_elapsed":1978607,"internal_node_id":"0.0-7.0-9.0"},{"rt":7797,"responses":"{\"Q0\":\"Different structure\"}","trial_type":"survey-multi-choice","trial_index":115,"time_elapsed":1987407,"internal_node_id":"0.0-7.0-10.0"},{"rt":30613,"responses":"{\"Q0\":\"left (black) door = ray, right (white) door = acid\",\"Q1\":\"Not at all confident\"}","trial_type":"survey-multi-choice","trial_index":116,"time_elapsed":2019026,"internal_node_id":"0.0-7.0-11.0"},{"rt":8205,"responses":"{\"Q0\":\"25-35\",\"Q1\":\"Bachelor's degree\",\"Q2\":\"Female\",\"Q3\":\"Black or African American\"}","trial_type":"survey-multi-choice","trial_index":117,"time_elapsed":2028241,"internal_node_id":"0.0-8.0"},{"rt":24521,"responses":"{\"Q0\":\"I found it very difficult, even while trying my best! Incredibly interesting nonetheless.\"}","trial_type":"survey-text","trial_index":118,"time_elapsed":2053766,"internal_node_id":"0.0-9.0"}]