[{"view_history":"[{\"page_index\":0,\"viewing_time\":21711},{\"page_index\":1,\"viewing_time\":11012}]","rt":32723,"trial_type":"instructions","trial_index":0,"time_elapsed":32724,"internal_node_id":"0.0-0.0"},{"view_history":"[{\"page_index\":0,\"viewing_time\":3259},{\"page_index\":1,\"viewing_time\":41668}]","rt":44928,"trial_type":"instructions","trial_index":1,"time_elapsed":78654,"internal_node_id":"0.0-1.0"},{"group":"hexagon_tri","room_assignment":["blue","yellow","green","purple","red","grey"],"door_color_assignment":["black","white"],"door_generator_assignment":[1,0],"goal":2,"start":1,"action_noise":0.15,"location_history":"[1,3,2]","action_history":"[0,0]","door_history":"[1,1]","location_rts":"[7802,811]","trial_type":"two-door-navigation","trial_index":2,"time_elapsed":92839,"internal_node_id":"0.0-2.0-0.0"},{"group":"hexagon_tri","room_assignment":["blue","yellow","green","purple","red","grey"],"door_color_assignment":["black","white"],"door_generator_assignment":[1,0],"goal":0,"start":2,"action_noise":0.15,"location_history":"[2,3,4,0]","action_history":"[1,1,0]","door_history":"[0,0,1]","location_rts":"[5121,2521,2229]","trial_type":"two-door-navigation","trial_index":3,"time_elapsed":109293,"internal_node_id":"0.0-2.0-1.0"},{"group":"hexagon_tri","room_assignment":["blue","yellow","green","purple","red","grey"],"door_color_assignment":["black","white"],"door_generator_assignment":[1,0],"goal":5,"start":0,"action_noise":0.15,"location_history":"[0,5]","action_history":"[0]","door_history":"[1]","location_rts":"[8478]","trial_type":"two-door-navigation","trial_index":4,"time_elapsed":122302,"internal_node_id":"0.0-2.0-2.0"},{"group":"hexagon_tri","room_assignment":["blue","yellow","green","purple","red","grey"],"door_color_assignment":["black","white"],"door_generator_assignment":[1,0],"goal":1,"start":5,"action_noise":0.15,"location_history":"[5,4,2,1]","action_history":"[0,1,0]","door_history":"[1,0,1]","location_rts":"[2399,1473,820]","trial_type":"two-door-navigation","trial_index":5,"time_elapsed":133570,"internal_node_id":"0.0-2.0-3.0"},{"group":"hexagon_tri","room_assignment":["blue","yellow","green","purple","red","grey"],"door_color_assignment":["black","white"],"door_generator_assignment":[1,0],"goal":3,"start":1,"action_noise":0.15,"location_history":"[1,5,4,0,5,4,0,5,4,0,1,3]","action_history":"[0,0,0,1,0,0,0,0,0,1,1]","door_history":"[1,1,1,0,1,1,1,1,1,0,0]","location_rts":"[1827,1249,808,876,943,457,364,1742,4935,942,1563]","trial_type":"two-door-navigation","trial_index":6,"time_elapsed":164049,"internal_node_id":"0.0-2.0-4.0"},{"group":"hexagon_tri","room_assignment":["blue","yellow","green","purple","red","grey"],"door_color_assignment":["black","white"],"door_generator_assignment":[1,0],"goal":5,"start":3,"action_noise":0.15,"location_history":"[3,2,3,2,1,3,4,2,3,4,0,5]","action_history":"[0,0,0,0,0,1,1,1,1,0,0]","door_history":"[1,1,1,1,1,0,0,0,0,1,1]","location_rts":"[1737,713,387,532,416,1058,1052,2331,1466,408,3714]","trial_type":"two-door-navigation","trial_index":7,"time_elapsed":192612,"internal_node_id":"0.0-2.0-5.0"},{"group":"hexagon_tri","room_assignment":["blue","yellow","green","purple","red","grey"],"door_color_assignment":["black","white"],"door_generator_assignment":[1,0],"goal":4,"start":5,"action_noise":0.15,"location_history":"[5,4]","action_history":"[0]","door_history":"[1]","location_rts":"[3582]","trial_type":"two-door-navigation","trial_index":8,"time_elapsed":200718,"internal_node_id":"0.0-2.0-6.0"},{"group":"hexagon_tri","room_assignment":["blue","yellow","green","purple","red","grey"],"door_color_assignment":["black","white"],"door_generator_assignment":[1,0],"goal":0,"start":4,"action_noise":0.15,"location_history":"[4,0]","action_history":"[1]","door_history":"[0]","location_rts":"[2375]","trial_type":"two-door-navigation","trial_index":9,"time_elapsed":207618,"internal_node_id":"0.0-2.0-7.0"},{"group":"hexagon_tri","room_assignment":["blue","yellow","green","purple","red","grey"],"door_color_assignment":["black","white"],"door_generator_assignment":[1,0],"goal":2,"start":0,"action_noise":0.15,"location_history":"[0,5,4,0,1,5,0,1,3,4,0,5,0,1,5,0,1,3,4,2]","action_history":"[0,0,0,1,1,1,1,0,0,0,0,1,1,1,1,1,0,1,1]","door_history":"[1,1,1,0,0,0,0,1,1,1,1,0,0,0,0,0,1,0,0]","location_rts":"[4722,1586,873,879,4812,915,491,674,783,1093,3284,945,1348,3935,305,220,633,235,1270]","trial_type":"two-door-navigation","trial_index":10,"time_elapsed":259566,"internal_node_id":"0.0-2.0-8.0"},{"group":"hexagon_tri","room_assignment":["blue","yellow","green","purple","red","grey"],"door_color_assignment":["black","white"],"door_generator_assignment":[1,0],"goal":4,"start":2,"action_noise":0.15,"location_history":"[2,1,5,0,5,0,1,3,2,1,5,4]","action_history":"[0,1,1,1,0,0,0,0,0,1,0]","door_history":"[1,0,0,0,1,1,1,1,1,0,1]","location_rts":"[2226,1730,591,486,726,899,498,649,858,1095,1021]","trial_type":"two-door-navigation","trial_index":11,"time_elapsed":285111,"internal_node_id":"0.0-2.0-9.0"},{"group":"hexagon_tri","room_assignment":["blue","yellow","green","purple","red","grey"],"door_color_assignment":["black","white"],"door_generator_assignment":[1,0],"goal":2,"start":4,"action_noise":0.15,"location_history":"[4,2]","action_history":"[1]","door_history":"[0]","location_rts":"[3184]","trial_type":"two-door-navigation","trial_index":12,"time_elapsed":292826,"internal_node_id":"0.0-2.0-10.0"},{"group":"hexagon_tri","room_assignment":["blue","yellow","green","purple","red","grey"],"door_color_assignment":["black","white"],"door_generator_assignment":[1,0],"goal":3,"start":2,"action_noise":0.15,"location_history":"[2,1,5,4,0,1,5,0,1,3]","action_history":"[0,0,0,0,1,1,1,1,0]","door_history":"[1,1,1,1,0,0,0,0,1]","location_rts":"[6643,795,515,414,530,1002,992,3394,339]","trial_type":"two-door-navigation","trial_index":13,"time_elapsed":320165,"internal_node_id":"0.0-2.0-11.0"},{"group":"hexagon_tri","room_assignment":["blue","yellow","green","purple","red","grey"],"door_color_assignment":["black","white"],"door_generator_assignment":[1,0],"goal":0,"start":3,"action_noise":0.15,"location_history":"[3,4,0]","action_history":"[1,0]","door_history":"[0,1]","location_rts":"[3043,1375]","trial_type":"two-door-navigation","trial_index":14,"time_elapsed":330136,"internal_node_id":"0.0-2.0-12.0"},{"group":"hexagon_tri","room_assignment":["blue","yellow","green","purple","red","grey"],"door_color_assignment":["black","white"],"door_generator_assignment":[1,0],"goal":5,"start":0,"action_noise":0.15,"location_history":"[0,1,5]","action_history":"[1,1]","door_history":"[0,0]","location_rts":"[2577,685]","trial_type":"two-door-navigation","trial_index":15,"time_elapsed":338947,"internal_node_id":"0.0-2.0-13.0"},{"group":"hexagon_tri","room_assignment":["blue","yellow","green","purple","red","grey"],"door_color_assignment":["black","white"],"door_generator_assignment":[1,0],"goal":1,"start":5,"action_noise":0.15,"location_history":"[5,4,2,3,4,2,3,4,2,1]","action_history":"[1,1,1,1,1,1,1,0,0]","door_history":"[0,0,0,0,0,0,0,1,1]","location_rts":"[1703,138,317,395,319,352,331,2175,486]","trial_type":"two-door-navigation","trial_index":16,"time_elapsed":357877,"internal_node_id":"0.0-2.0-14.0"},{"group":"hexagon_tri","room_assignment":["blue","yellow","green","purple","red","grey"],"door_color_assignment":["black","white"],"door_generator_assignment":[1,0],"goal":5,"start":1,"action_noise":0.15,"location_history":"[1,3,4,0,1,5]","action_history":"[0,1,0,1,1]","door_history":"[1,0,1,0,0]","location_rts":"[1944,2072,1397,569,1282]","trial_type":"two-door-navigation","trial_index":17,"time_elapsed":373766,"internal_node_id":"0.0-2.0-15.0"},{"group":"hexagon_tri","room_assignment":["blue","yellow","green","purple","red","grey"],"door_color_assignment":["black","white"],"door_generator_assignment":[1,0],"goal":3,"start":5,"action_noise":0.15,"location_history":"[5,0,1,3]","action_history":"[0,1,0]","door_history":"[1,0,1]","location_rts":"[1501,454,627]","trial_type":"two-door-navigation","trial_index":18,"time_elapsed":382916,"internal_node_id":"0.0-2.0-16.0"},{"group":"hexagon_tri","room_assignment":["blue","yellow","green","purple","red","grey"],"door_color_assignment":["black","white"],"door_generator_assignment":[1,0],"goal":2,"start":3,"action_noise":0.15,"location_history":"[3,4,2]","action_history":"[1,1]","door_history":"[0,0]","location_rts":"[6106,9535]","trial_type":"two-door-navigation","trial_index":19,"time_elapsed":404111,"internal_node_id":"0.0-2.0-17.0"},{"group":"hexagon_tri","room_assignment":["blue","yellow","green","purple","red","grey"],"door_color_assignment":["black","white"],"door_generator_assignment":[1,0],"goal":1,"start":2,"action_noise":0.15,"location_history":"[2,3,2,1]","action_history":"[1,0,0]","door_history":"[0,1,1]","location_rts":"[1729,822,1475]","trial_type":"two-door-navigation","trial_index":20,"time_elapsed":414714,"internal_node_id":"0.0-2.0-18.0"},{"group":"hexagon_tri","room_assignment":["blue","yellow","green","purple","red","grey"],"door_color_assignment":["black","white"],"door_generator_assignment":[1,0],"goal":4,"start":1,"action_noise":0.15,"location_history":"[1,5,0,5,4]","action_history":"[1,0,0,0]","door_history":"[0,1,1,1]","location_rts":"[1312,812,1092,650]","trial_type":"two-door-navigation","trial_index":21,"time_elapsed":426171,"internal_node_id":"0.0-2.0-19.0"},{"group":"hexagon_tri","room_assignment":["blue","yellow","green","purple","red","grey"],"door_color_assignment":["black","white"],"door_generator_assignment":[1,0],"goal":0,"start":4,"action_noise":0.15,"location_history":"[4,0]","action_history":"[0]","door_history":"[1]","location_rts":"[2709]","trial_type":"two-door-navigation","trial_index":22,"time_elapsed":433406,"internal_node_id":"0.0-2.0-20.0"},{"group":"hexagon_tri","room_assignment":["blue","yellow","green","purple","red","grey"],"door_color_assignment":["black","white"],"door_generator_assignment":[1,0],"goal":3,"start":0,"action_noise":0.15,"location_history":"[0,1,5,4,0,1,5,0,1,5,4,0,1,3]","action_history":"[1,1,0,0,1,1,1,1,1,0,0,0,0]","door_history":"[0,0,1,1,0,0,0,0,0,1,1,1,1]","location_rts":"[2137,723,455,684,1116,837,1005,1649,887,288,885,1475,774]","trial_type":"two-door-navigation","trial_index":23,"time_elapsed":463108,"internal_node_id":"0.0-2.0-21.0"},{"group":"hexagon_tri","room_assignment":["blue","yellow","green","purple","red","grey"],"door_color_assignment":["black","white"],"door_generator_assignment":[1,0],"goal":1,"start":3,"action_noise":0.15,"location_history":"[3,2,1]","action_history":"[0,0]","door_history":"[1,1]","location_rts":"[2658,414]","trial_type":"two-door-navigation","trial_index":24,"time_elapsed":471733,"internal_node_id":"0.0-2.0-22.0"},{"group":"hexagon_tri","room_assignment":["blue","yellow","green","purple","red","grey"],"door_color_assignment":["black","white"],"door_generator_assignment":[1,0],"goal":0,"start":1,"action_noise":0.15,"location_history":"[1,5,4,0]","action_history":"[1,0,0]","door_history":"[0,1,1]","location_rts":"[2336,3289,1421]","trial_type":"two-door-navigation","trial_index":25,"time_elapsed":485352,"internal_node_id":"0.0-2.0-23.0"},{"group":"hexagon_tri","room_assignment":["blue","yellow","green","purple","red","grey"],"door_color_assignment":["black","white"],"door_generator_assignment":[1,0],"goal":2,"start":0,"action_noise":0.15,"location_history":"[0,5,4,0,5,0,1,3,2]","action_history":"[0,0,0,0,1,1,0,0]","door_history":"[1,1,1,1,0,0,1,1]","location_rts":"[3758,500,492,473,417,690,2050,4911]","trial_type":"two-door-navigation","trial_index":26,"time_elapsed":510341,"internal_node_id":"0.0-2.0-24.0"},{"group":"hexagon_tri","room_assignment":["blue","yellow","green","purple","red","grey"],"door_color_assignment":["black","white"],"door_generator_assignment":[1,0],"goal":4,"start":2,"action_noise":0.15,"location_history":"[2,1,5,4]","action_history":"[0,1,0]","door_history":"[1,0,1]","location_rts":"[1789,2549,1636]","trial_type":"two-door-navigation","trial_index":27,"time_elapsed":522896,"internal_node_id":"0.0-2.0-25.0"},{"group":"hexagon_tri","room_assignment":["blue","yellow","green","purple","red","grey"],"door_color_assignment":["black","white"],"door_generator_assignment":[1,0],"goal":5,"start":4,"action_noise":0.15,"location_history":"[4,2,1,3,2,3,2,3,2,1,5]","action_history":"[0,0,0,0,1,1,1,0,0,1]","door_history":"[1,1,1,1,0,0,0,1,1,0]","location_rts":"[4108,739,504,349,808,707,839,945,1367,1399]","trial_type":"two-door-navigation","trial_index":28,"time_elapsed":548403,"internal_node_id":"0.0-2.0-26.0"},{"group":"hexagon_tri","room_assignment":["blue","yellow","green","purple","red","grey"],"door_color_assignment":["black","white"],"door_generator_assignment":[1,0],"goal":2,"start":5,"action_noise":0.15,"location_history":"[5,4,0,5,4,2]","action_history":"[0,0,0,0,0]","door_history":"[1,1,1,1,1]","location_rts":"[5072,2084,2113,1157,131]","trial_type":"two-door-navigation","trial_index":29,"time_elapsed":567580,"internal_node_id":"0.0-2.0-27.0"},{"group":"hexagon_tri","room_assignment":["blue","yellow","green","purple","red","grey"],"door_color_assignment":["black","white"],"door_generator_assignment":[1,0],"goal":3,"start":2,"action_noise":0.15,"location_history":"[2,1,3]","action_history":"[0,0]","door_history":"[1,1]","location_rts":"[2393,1189]","trial_type":"two-door-navigation","trial_index":30,"time_elapsed":576714,"internal_node_id":"0.0-2.0-28.0"},{"group":"hexagon_tri","room_assignment":["blue","yellow","green","purple","red","grey"],"door_color_assignment":["black","white"],"door_generator_assignment":[1,0],"goal":1,"start":3,"action_noise":0.15,"location_history":"[3,4,0,5,4,0,5,4,2,1]","action_history":"[1,0,0,1,0,0,0,1,1]","door_history":"[0,1,1,0,1,1,1,0,0]","location_rts":"[4255,1174,595,1752,706,609,867,838,984]","trial_type":"two-door-navigation","trial_index":31,"time_elapsed":601198,"internal_node_id":"0.0-2.0-29.0"},{"group":"hexagon_tri","room_assignment":["blue","yellow","green","purple","red","grey"],"door_color_assignment":["black","white"],"door_generator_assignment":[1,0],"goal":4,"start":1,"action_noise":0.15,"location_history":"[1,5,0,1,5,4]","action_history":"[1,1,1,1,0]","door_history":"[0,0,0,0,1]","location_rts":"[1579,669,919,1099,292]","trial_type":"two-door-navigation","trial_index":32,"time_elapsed":614372,"internal_node_id":"0.0-2.0-30.0"},{"group":"hexagon_tri","room_assignment":["blue","yellow","green","purple","red","grey"],"door_color_assignment":["black","white"],"door_generator_assignment":[1,0],"goal":5,"start":4,"action_noise":0.15,"location_history":"[4,2,1,5]","action_history":"[0,0,1]","door_history":"[1,1,0]","location_rts":"[2654,728,2175]","trial_type":"two-door-navigation","trial_index":33,"time_elapsed":626502,"internal_node_id":"0.0-2.0-31.0"},{"group":"hexagon_tri","room_assignment":["blue","yellow","green","purple","red","grey"],"door_color_assignment":["black","white"],"door_generator_assignment":[1,0],"goal":0,"start":5,"action_noise":0.15,"location_history":"[5,0]","action_history":"[1]","door_history":"[0]","location_rts":"[2675]","trial_type":"two-door-navigation","trial_index":34,"time_elapsed":633701,"internal_node_id":"0.0-2.0-32.0"},{"group":"hexagon_tri","room_assignment":["blue","yellow","green","purple","red","grey"],"door_color_assignment":["black","white"],"door_generator_assignment":[1,0],"goal":2,"start":0,"action_noise":0.15,"location_history":"[0,1,5,4,0,1,5,0,1,5,0,1,5,4,0,5,4,2]","action_history":"[1,0,0,0,1,0,1,1,1,1,1,0,0,0,0,0,1]","door_history":"[0,1,1,1,0,1,0,0,0,0,0,1,1,1,1,1,0]","location_rts":"[2969,804,3288,595,699,1251,941,442,368,1474,638,407,820,2698,957,570,1082]","trial_type":"two-door-navigation","trial_index":35,"time_elapsed":674597,"internal_node_id":"0.0-2.0-33.0"},{"group":"hexagon_tri","room_assignment":["blue","yellow","green","purple","red","grey"],"door_color_assignment":["black","white"],"door_generator_assignment":[1,0],"goal":0,"start":2,"action_noise":0.15,"location_history":"[2,3,2,3,2,1,5,0]","action_history":"[1,1,1,0,0,1,1]","door_history":"[0,0,0,1,1,0,0]","location_rts":"[1744,1647,873,476,812,1709,1205]","trial_type":"two-door-navigation","trial_index":36,"time_elapsed":693726,"internal_node_id":"0.0-2.0-34.0"},{"group":"hexagon_tri","room_assignment":["blue","yellow","green","purple","red","grey"],"door_color_assignment":["black","white"],"door_generator_assignment":[1,0],"goal":5,"start":0,"action_noise":0.15,"location_history":"[0,5]","action_history":"[0]","door_history":"[1]","location_rts":"[2201]","trial_type":"two-door-navigation","trial_index":37,"time_elapsed":700453,"internal_node_id":"0.0-2.0-35.0"},{"group":"hexagon_tri","room_assignment":["blue","yellow","green","purple","red","grey"],"door_color_assignment":["black","white"],"door_generator_assignment":[1,0],"goal":1,"start":5,"action_noise":0.15,"location_history":"[5,4,0,5,0,1]","action_history":"[0,0,0,1,1]","door_history":"[1,1,1,0,0]","location_rts":"[13211,295,668,1655,916]","trial_type":"two-door-navigation","trial_index":38,"time_elapsed":725810,"internal_node_id":"0.0-2.0-36.0"},{"group":"hexagon_tri","room_assignment":["blue","yellow","green","purple","red","grey"],"door_color_assignment":["black","white"],"door_generator_assignment":[1,0],"goal":4,"start":1,"action_noise":0.15,"location_history":"[1,5,4]","action_history":"[1,0]","door_history":"[0,1]","location_rts":"[1812,535]","trial_type":"two-door-navigation","trial_index":39,"time_elapsed":733702,"internal_node_id":"0.0-2.0-37.0"},{"group":"hexagon_tri","room_assignment":["blue","yellow","green","purple","red","grey"],"door_color_assignment":["black","white"],"door_generator_assignment":[1,0],"goal":3,"start":4,"action_noise":0.15,"location_history":"[4,0,5,4,2,3]","action_history":"[0,0,0,1,1]","door_history":"[1,1,1,0,0]","location_rts":"[1888,398,561,194,503]","trial_type":"two-door-navigation","trial_index":40,"time_elapsed":745863,"internal_node_id":"0.0-2.0-38.0"},{"group":"hexagon_tri","room_assignment":["blue","yellow","green","purple","red","grey"],"door_color_assignment":["black","white"],"door_generator_assignment":[1,0],"goal":5,"start":3,"action_noise":0.15,"location_history":"[3,4,0,5]","action_history":"[1,0,0]","door_history":"[0,1,1]","location_rts":"[2164,278,1295]","trial_type":"two-door-navigation","trial_index":41,"time_elapsed":756175,"internal_node_id":"0.0-2.0-39.0"},{"group":"hexagon_tri","room_assignment":["blue","yellow","green","purple","red","grey"],"door_color_assignment":["black","white"],"door_generator_assignment":[1,0],"goal":1,"start":5,"action_noise":0.15,"location_history":"[5,4,2,3,4,0,5,0,5,4,2,1]","action_history":"[0,1,1,1,0,0,0,0,0,1,0]","door_history":"[1,0,0,0,1,1,1,1,1,0,1]","location_rts":"[2517,1005,627,177,1029,386,252,110,75,85,769]","trial_type":"two-door-navigation","trial_index":42,"time_elapsed":777982,"internal_node_id":"0.0-2.0-40.0"},{"group":"hexagon_tri","room_assignment":["blue","yellow","green","purple","red","grey"],"door_color_assignment":["black","white"],"door_generator_assignment":[1,0],"goal":2,"start":1,"action_noise":0.15,"location_history":"[1,5,4,0,1,5,0,5,0,5,0,1,3,2]","action_history":"[0,0,0,1,1,1,0,1,0,1,1,0,0]","door_history":"[1,1,1,0,0,0,1,0,1,0,0,1,1]","location_rts":"[2556,1812,1301,1523,457,385,173,444,910,612,420,412,2836]","trial_type":"two-door-navigation","trial_index":43,"time_elapsed":808617,"internal_node_id":"0.0-2.0-41.0"},{"group":"hexagon_tri","room_assignment":["blue","yellow","green","purple","red","grey"],"door_color_assignment":["black","white"],"door_generator_assignment":[1,0],"goal":4,"start":2,"action_noise":0.15,"location_history":"[2,1,5,4]","action_history":"[1,1,0]","door_history":"[0,0,1]","location_rts":"[1592,1289,447]","trial_type":"two-door-navigation","trial_index":44,"time_elapsed":818519,"internal_node_id":"0.0-2.0-42.0"},{"group":"hexagon_tri","room_assignment":["blue","yellow","green","purple","red","grey"],"door_color_assignment":["black","white"],"door_generator_assignment":[1,0],"goal":0,"start":4,"action_noise":0.15,"location_history":"[4,0]","action_history":"[0]","door_history":"[1]","location_rts":"[1215]","trial_type":"two-door-navigation","trial_index":45,"time_elapsed":824260,"internal_node_id":"0.0-2.0-43.0"},{"group":"hexagon_tri","room_assignment":["blue","yellow","green","purple","red","grey"],"door_color_assignment":["black","white"],"door_generator_assignment":[1,0],"goal":3,"start":0,"action_noise":0.15,"location_history":"[0,5,0,5,0,1,3]","action_history":"[0,0,0,1,1,0]","door_history":"[1,1,1,0,0,1]","location_rts":"[1169,420,363,1002,827,1473]","trial_type":"two-door-navigation","trial_index":46,"time_elapsed":839152,"internal_node_id":"0.0-2.0-44.0"},{"group":"hexagon_tri","room_assignment":["blue","yellow","green","purple","red","grey"],"door_color_assignment":["black","white"],"door_generator_assignment":[1,0],"goal":0,"start":3,"action_noise":0.15,"location_history":"[3,2,1,5,0]","action_history":"[0,0,1,1]","door_history":"[1,1,0,0]","location_rts":"[1919,681,997,672]","trial_type":"two-door-navigation","trial_index":47,"time_elapsed":851012,"internal_node_id":"0.0-2.0-45.0"},{"group":"hexagon_tri","room_assignment":["blue","yellow","green","purple","red","grey"],"door_color_assignment":["black","white"],"door_generator_assignment":[1,0],"goal":4,"start":0,"action_noise":0.15,"location_history":"[0,1,3,2,1,5,4]","action_history":"[1,0,0,0,1,0]","door_history":"[0,1,1,1,0,1]","location_rts":"[1885,660,2142,59,6907,1301]","trial_type":"two-door-navigation","trial_index":48,"time_elapsed":873609,"internal_node_id":"0.0-2.0-46.0"},{"group":"hexagon_tri","room_assignment":["blue","yellow","green","purple","red","grey"],"door_color_assignment":["black","white"],"door_generator_assignment":[1,0],"goal":5,"start":4,"action_noise":0.15,"location_history":"[4,2,1,5]","action_history":"[0,0,1]","door_history":"[1,1,0]","location_rts":"[2383,635,2022]","trial_type":"two-door-navigation","trial_index":49,"time_elapsed":885217,"internal_node_id":"0.0-2.0-47.0"},{"group":"hexagon_tri","room_assignment":["blue","yellow","green","purple","red","grey"],"door_color_assignment":["black","white"],"door_generator_assignment":[1,0],"goal":2,"start":5,"action_noise":0.15,"location_history":"[5,0,5,0,1,5,0,1,3,2]","action_history":"[0,0,1,1,1,1,1,0,0]","door_history":"[1,1,0,0,0,0,0,1,1]","location_rts":"[2718,765,661,321,442,378,285,286,945]","trial_type":"two-door-navigation","trial_index":50,"time_elapsed":904727,"internal_node_id":"0.0-2.0-48.0"},{"group":"hexagon_tri","room_assignment":["blue","yellow","green","purple","red","grey"],"door_color_assignment":["black","white"],"door_generator_assignment":[1,0],"goal":1,"start":2,"action_noise":0.15,"location_history":"[2,1]","action_history":"[0]","door_history":"[1]","location_rts":"[5275]","trial_type":"two-door-navigation","trial_index":51,"time_elapsed":914529,"internal_node_id":"0.0-2.0-49.0"},{"view_history":"[{\"page_index\":0,\"viewing_time\":8953}]","rt":8953,"trial_type":"instructions","trial_index":52,"time_elapsed":924483,"internal_node_id":"0.0-3.0"},{"view_history":"[{\"page_index\":0,\"viewing_time\":8036},{\"page_index\":1,\"viewing_time\":32623}]","rt":40659,"trial_type":"instructions","trial_index":53,"time_elapsed":966142,"internal_node_id":"0.0-4.0"},{"group":"hexagon_bi","fractal_assignment":["../images/gry_blk.png","../images/org_blu.png","../images/blu_wht.png","../images/cyn_red.png","../images/ylw_slt.png","../images/pnk_blu.png"],"mutagen_generator_assignment":[0,1],"goal":2,"start":1,"action_noise":0.15,"location_history":"[1,2]","action_history":"[0]","mutagen_history":"[0]","location_rts":"[8588]","trial_type":"fractal-mutation","trial_index":54,"time_elapsed":979379,"internal_node_id":"0.0-5.0-0.0"},{"group":"hexagon_bi","fractal_assignment":["../images/gry_blk.png","../images/org_blu.png","../images/blu_wht.png","../images/cyn_red.png","../images/ylw_slt.png","../images/pnk_blu.png"],"mutagen_generator_assignment":[0,1],"goal":0,"start":2,"action_noise":0.15,"location_history":"[2,3,2,1,0]","action_history":"[1,1,0,0]","mutagen_history":"[1,1,0,0]","location_rts":"[2538,1339,1060,1124]","trial_type":"fractal-mutation","trial_index":55,"time_elapsed":993508,"internal_node_id":"0.0-5.0-1.0"},{"group":"hexagon_bi","fractal_assignment":["../images/gry_blk.png","../images/org_blu.png","../images/blu_wht.png","../images/cyn_red.png","../images/ylw_slt.png","../images/pnk_blu.png"],"mutagen_generator_assignment":[0,1],"goal":5,"start":0,"action_noise":0.15,"location_history":"[0,1,2,3,2,3,4,3,2,1,2,3,4,5]","action_history":"[1,1,1,1,1,0,0,0,0,0,1,0,1]","mutagen_history":"[1,1,1,1,1,0,0,0,0,0,1,0,1]","location_rts":"[1052,856,753,835,1175,697,1119,491,450,830,706,500,272]","trial_type":"fractal-mutation","trial_index":56,"time_elapsed":1021721,"internal_node_id":"0.0-5.0-2.0"},{"group":"hexagon_bi","fractal_assignment":["../images/gry_blk.png","../images/org_blu.png","../images/blu_wht.png","../images/cyn_red.png","../images/ylw_slt.png","../images/pnk_blu.png"],"mutagen_generator_assignment":[0,1],"goal":1,"start":5,"action_noise":0.15,"location_history":"[5,0,1]","action_history":"[1,1]","mutagen_history":"[1,1]","location_rts":"[1943,1090]","trial_type":"fractal-mutation","trial_index":57,"time_elapsed":1030603,"internal_node_id":"0.0-5.0-3.0"},{"group":"hexagon_bi","fractal_assignment":["../images/gry_blk.png","../images/org_blu.png","../images/blu_wht.png","../images/cyn_red.png","../images/ylw_slt.png","../images/pnk_blu.png"],"mutagen_generator_assignment":[0,1],"goal":3,"start":1,"action_noise":0.15,"location_history":"[1,0,1,0,1,0,1,2,1,2,1,0,5,4,5,0,1,0,1,2,3]","action_history":"[1,1,1,1,1,1,0,0,0,0,1,0,1,1,0,1,0,1,0,1]","mutagen_history":"[1,1,1,1,1,1,0,0,0,0,1,0,1,1,0,1,0,1,0,1]","location_rts":"[1817,504,1024,1191,587,403,566,757,705,467,412,1024,228,758,1144,509,687,601,989,1194]","trial_type":"fractal-mutation","trial_index":58,"time_elapsed":1072590,"internal_node_id":"0.0-5.0-4.0"},{"group":"hexagon_bi","fractal_assignment":["../images/gry_blk.png","../images/org_blu.png","../images/blu_wht.png","../images/cyn_red.png","../images/ylw_slt.png","../images/pnk_blu.png"],"mutagen_generator_assignment":[0,1],"goal":5,"start":3,"action_noise":0.15,"location_history":"[3,4,3,4,5]","action_history":"[0,1,0,1]","mutagen_history":"[0,1,0,1]","location_rts":"[1143,526,2888,559]","trial_type":"fractal-mutation","trial_index":59,"time_elapsed":1085825,"internal_node_id":"0.0-5.0-5.0"},{"group":"hexagon_bi","fractal_assignment":["../images/gry_blk.png","../images/org_blu.png","../images/blu_wht.png","../images/cyn_red.png","../images/ylw_slt.png","../images/pnk_blu.png"],"mutagen_generator_assignment":[0,1],"goal":4,"start":5,"action_noise":0.15,"location_history":"[5,0,1,0,1,0,1,0,5,4]","action_history":"[0,1,1,0,1,1,1,0,1]","mutagen_history":"[0,1,1,0,1,1,1,0,1]","location_rts":"[974,2899,1082,664,587,480,571,495,1311]","trial_type":"fractal-mutation","trial_index":60,"time_elapsed":1108727,"internal_node_id":"0.0-5.0-6.0"},{"group":"hexagon_bi","fractal_assignment":["../images/gry_blk.png","../images/org_blu.png","../images/blu_wht.png","../images/cyn_red.png","../images/ylw_slt.png","../images/pnk_blu.png"],"mutagen_generator_assignment":[0,1],"goal":0,"start":4,"action_noise":0.15,"location_history":"[4,3,2,3,4,5,0]","action_history":"[0,1,1,0,0,0]","mutagen_history":"[0,1,1,0,0,0]","location_rts":"[2295,627,881,735,1289,2194]","trial_type":"fractal-mutation","trial_index":61,"time_elapsed":1127126,"internal_node_id":"0.0-5.0-7.0"},{"group":"hexagon_bi","fractal_assignment":["../images/gry_blk.png","../images/org_blu.png","../images/blu_wht.png","../images/cyn_red.png","../images/ylw_slt.png","../images/pnk_blu.png"],"mutagen_generator_assignment":[0,1],"goal":2,"start":0,"action_noise":0.15,"location_history":"[0,5,0,1,0,1,0,5,4,3,2]","action_history":"[0,0,1,1,1,1,0,1,0,1]","mutagen_history":"[0,0,1,1,1,1,0,1,0,1]","location_rts":"[1600,1258,590,802,5444,845,1262,1222,459,1029]","trial_type":"fractal-mutation","trial_index":62,"time_elapsed":1156778,"internal_node_id":"0.0-5.0-8.0"},{"group":"hexagon_bi","fractal_assignment":["../images/gry_blk.png","../images/org_blu.png","../images/blu_wht.png","../images/cyn_red.png","../images/ylw_slt.png","../images/pnk_blu.png"],"mutagen_generator_assignment":[0,1],"goal":4,"start":2,"action_noise":0.15,"location_history":"[2,3,4]","action_history":"[1,1]","mutagen_history":"[1,1]","location_rts":"[3301,1724]","trial_type":"fractal-mutation","trial_index":63,"time_elapsed":1167715,"internal_node_id":"0.0-5.0-9.0"},{"group":"hexagon_bi","fractal_assignment":["../images/gry_blk.png","../images/org_blu.png","../images/blu_wht.png","../images/cyn_red.png","../images/ylw_slt.png","../images/pnk_blu.png"],"mutagen_generator_assignment":[0,1],"goal":2,"start":4,"action_noise":0.15,"location_history":"[4,3,2]","action_history":"[0,1]","mutagen_history":"[0,1]","location_rts":"[4252,1788]","trial_type":"fractal-mutation","trial_index":64,"time_elapsed":1179574,"internal_node_id":"0.0-5.0-10.0"},{"group":"hexagon_bi","fractal_assignment":["../images/gry_blk.png","../images/org_blu.png","../images/blu_wht.png","../images/cyn_red.png","../images/ylw_slt.png","../images/pnk_blu.png"],"mutagen_generator_assignment":[0,1],"goal":3,"start":2,"action_noise":0.15,"location_history":"[2,3]","action_history":"[1]","mutagen_history":"[1]","location_rts":"[1704]","trial_type":"fractal-mutation","trial_index":65,"time_elapsed":1185994,"internal_node_id":"0.0-5.0-11.0"},{"group":"hexagon_bi","fractal_assignment":["../images/gry_blk.png","../images/org_blu.png","../images/blu_wht.png","../images/cyn_red.png","../images/ylw_slt.png","../images/pnk_blu.png"],"mutagen_generator_assignment":[0,1],"goal":0,"start":3,"action_noise":0.15,"location_history":"[3,4,5,4,3,2,1,0]","action_history":"[0,1,1,0,0,0,1]","mutagen_history":"[0,1,1,0,0,0,1]","location_rts":"[3894,600,943,803,739,743,666]","trial_type":"fractal-mutation","trial_index":66,"time_elapsed":1206025,"internal_node_id":"0.0-5.0-12.0"},{"group":"hexagon_bi","fractal_assignment":["../images/gry_blk.png","../images/org_blu.png","../images/blu_wht.png","../images/cyn_red.png","../images/ylw_slt.png","../images/pnk_blu.png"],"mutagen_generator_assignment":[0,1],"goal":5,"start":0,"action_noise":0.15,"location_history":"[0,1,0,5]","action_history":"[1,1,0]","mutagen_history":"[1,1,0]","location_rts":"[4059,735,938]","trial_type":"fractal-mutation","trial_index":67,"time_elapsed":1218735,"internal_node_id":"0.0-5.0-13.0"},{"group":"hexagon_bi","fractal_assignment":["../images/gry_blk.png","../images/org_blu.png","../images/blu_wht.png","../images/cyn_red.png","../images/ylw_slt.png","../images/pnk_blu.png"],"mutagen_generator_assignment":[0,1],"goal":1,"start":5,"action_noise":0.15,"location_history":"[5,4,5,4,3,2,1]","action_history":"[0,1,1,0,1,0]","mutagen_history":"[0,1,1,0,1,0]","location_rts":"[1558,416,675,276,1356,8809]","trial_type":"fractal-mutation","trial_index":68,"time_elapsed":1242262,"internal_node_id":"0.0-5.0-14.0"},{"group":"hexagon_bi","fractal_assignment":["../images/gry_blk.png","../images/org_blu.png","../images/blu_wht.png","../images/cyn_red.png","../images/ylw_slt.png","../images/pnk_blu.png"],"mutagen_generator_assignment":[0,1],"goal":5,"start":1,"action_noise":0.15,"location_history":"[1,2,3,2,1,0,1,0,1,2,3,2,3,2,1,2,3,4,5]","action_history":"[0,1,1,0,1,1,1,1,0,1,1,0,1,0,0,1,0,1]","mutagen_history":"[0,1,1,0,1,1,1,1,0,1,1,0,1,0,0,1,0,1]","location_rts":"[806,447,589,716,518,234,13,139,463,735,906,409,873,931,254,905,1745,1805]","trial_type":"fractal-mutation","trial_index":69,"time_elapsed":1278954,"internal_node_id":"0.0-5.0-15.0"},{"group":"hexagon_bi","fractal_assignment":["../images/gry_blk.png","../images/org_blu.png","../images/blu_wht.png","../images/cyn_red.png","../images/ylw_slt.png","../images/pnk_blu.png"],"mutagen_generator_assignment":[0,1],"goal":3,"start":5,"action_noise":0.15,"location_history":"[5,0,5,4,5,4,3]","action_history":"[0,0,1,0,1,0]","mutagen_history":"[0,0,1,0,1,0]","location_rts":"[2572,1132,1372,603,250,422]","trial_type":"fractal-mutation","trial_index":70,"time_elapsed":1295641,"internal_node_id":"0.0-5.0-16.0"},{"group":"hexagon_bi","fractal_assignment":["../images/gry_blk.png","../images/org_blu.png","../images/blu_wht.png","../images/cyn_red.png","../images/ylw_slt.png","../images/pnk_blu.png"],"mutagen_generator_assignment":[0,1],"goal":2,"start":3,"action_noise":0.15,"location_history":"[3,4,5,4,3,2]","action_history":"[0,1,1,0,1]","mutagen_history":"[0,1,1,0,1]","location_rts":"[1702,443,1415,853,748]","trial_type":"fractal-mutation","trial_index":71,"time_elapsed":1310083,"internal_node_id":"0.0-5.0-17.0"},{"group":"hexagon_bi","fractal_assignment":["../images/gry_blk.png","../images/org_blu.png","../images/blu_wht.png","../images/cyn_red.png","../images/ylw_slt.png","../images/pnk_blu.png"],"mutagen_generator_assignment":[0,1],"goal":1,"start":2,"action_noise":0.15,"location_history":"[2,3,4,5,0,1]","action_history":"[1,0,1,0,1]","mutagen_history":"[1,0,1,0,1]","location_rts":"[4573,1471,762,607,934]","trial_type":"fractal-mutation","trial_index":72,"time_elapsed":1327741,"internal_node_id":"0.0-5.0-18.0"},{"group":"hexagon_bi","fractal_assignment":["../images/gry_blk.png","../images/org_blu.png","../images/blu_wht.png","../images/cyn_red.png","../images/ylw_slt.png","../images/pnk_blu.png"],"mutagen_generator_assignment":[0,1],"goal":4,"start":1,"action_noise":0.15,"location_history":"[1,2,1,2,3,4]","action_history":"[0,0,0,1,0]","mutagen_history":"[0,0,0,1,0]","location_rts":"[1175,842,1168,346,419]","trial_type":"fractal-mutation","trial_index":73,"time_elapsed":1340901,"internal_node_id":"0.0-5.0-19.0"},{"group":"hexagon_bi","fractal_assignment":["../images/gry_blk.png","../images/org_blu.png","../images/blu_wht.png","../images/cyn_red.png","../images/ylw_slt.png","../images/pnk_blu.png"],"mutagen_generator_assignment":[0,1],"goal":0,"start":4,"action_noise":0.15,"location_history":"[4,3,2,3,4,3,4,5,0]","action_history":"[0,1,1,0,1,0,1,0]","mutagen_history":"[0,1,1,0,1,0,1,0]","location_rts":"[1089,1084,1862,412,770,248,2206,1280]","trial_type":"fractal-mutation","trial_index":74,"time_elapsed":1362544,"internal_node_id":"0.0-5.0-20.0"},{"group":"hexagon_bi","fractal_assignment":["../images/gry_blk.png","../images/org_blu.png","../images/blu_wht.png","../images/cyn_red.png","../images/ylw_slt.png","../images/pnk_blu.png"],"mutagen_generator_assignment":[0,1],"goal":3,"start":0,"action_noise":0.15,"location_history":"[0,5,4,3]","action_history":"[0,1,1]","mutagen_history":"[0,1,1]","location_rts":"[1663,773,675]","trial_type":"fractal-mutation","trial_index":75,"time_elapsed":1372719,"internal_node_id":"0.0-5.0-21.0"},{"group":"hexagon_bi","fractal_assignment":["../images/gry_blk.png","../images/org_blu.png","../images/blu_wht.png","../images/cyn_red.png","../images/ylw_slt.png","../images/pnk_blu.png"],"mutagen_generator_assignment":[0,1],"goal":1,"start":3,"action_noise":0.15,"location_history":"[3,4,5,4,3,2,3,4,5,4,3,2,3,2,1]","action_history":"[0,1,1,0,1,1,0,1,1,0,1,0,1,0]","mutagen_history":"[0,1,1,0,1,1,0,1,1,0,1,0,1,0]","location_rts":"[1341,590,681,195,1030,699,608,800,792,814,919,451,828,290]","trial_type":"fractal-mutation","trial_index":76,"time_elapsed":1402343,"internal_node_id":"0.0-5.0-22.0"},{"group":"hexagon_bi","fractal_assignment":["../images/gry_blk.png","../images/org_blu.png","../images/blu_wht.png","../images/cyn_red.png","../images/ylw_slt.png","../images/pnk_blu.png"],"mutagen_generator_assignment":[0,1],"goal":0,"start":1,"action_noise":0.15,"location_history":"[1,0]","action_history":"[1]","mutagen_history":"[1]","location_rts":"[1855]","trial_type":"fractal-mutation","trial_index":77,"time_elapsed":1408944,"internal_node_id":"0.0-5.0-23.0"},{"group":"hexagon_bi","fractal_assignment":["../images/gry_blk.png","../images/org_blu.png","../images/blu_wht.png","../images/cyn_red.png","../images/ylw_slt.png","../images/pnk_blu.png"],"mutagen_generator_assignment":[0,1],"goal":2,"start":0,"action_noise":0.15,"location_history":"[0,5,4,3,4,5,0,1,0,5,4,5,4,3,2]","action_history":"[0,1,0,1,1,0,1,1,0,1,1,0,0,1]","mutagen_history":"[0,1,0,1,1,0,1,1,0,1,1,0,0,1]","location_rts":"[1887,1197,898,1292,1997,851,1461,717,2203,932,630,156,1333,1182]","trial_type":"fractal-mutation","trial_index":78,"time_elapsed":1445441,"internal_node_id":"0.0-5.0-24.0"},{"group":"hexagon_bi","fractal_assignment":["../images/gry_blk.png","../images/org_blu.png","../images/blu_wht.png","../images/cyn_red.png","../images/ylw_slt.png","../images/pnk_blu.png"],"mutagen_generator_assignment":[0,1],"goal":4,"start":2,"action_noise":0.15,"location_history":"[2,3,4]","action_history":"[1,0]","mutagen_history":"[1,0]","location_rts":"[2157,282]","trial_type":"fractal-mutation","trial_index":79,"time_elapsed":1453692,"internal_node_id":"0.0-5.0-25.0"},{"group":"hexagon_bi","fractal_assignment":["../images/gry_blk.png","../images/org_blu.png","../images/blu_wht.png","../images/cyn_red.png","../images/ylw_slt.png","../images/pnk_blu.png"],"mutagen_generator_assignment":[0,1],"goal":5,"start":4,"action_noise":0.15,"location_history":"[4,5]","action_history":"[1]","mutagen_history":"[1]","location_rts":"[1881]","trial_type":"fractal-mutation","trial_index":80,"time_elapsed":1460216,"internal_node_id":"0.0-5.0-26.0"},{"group":"hexagon_bi","fractal_assignment":["../images/gry_blk.png","../images/org_blu.png","../images/blu_wht.png","../images/cyn_red.png","../images/ylw_slt.png","../images/pnk_blu.png"],"mutagen_generator_assignment":[0,1],"goal":2,"start":5,"action_noise":0.15,"location_history":"[5,0,1,2]","action_history":"[0,1,0]","mutagen_history":"[0,1,0]","location_rts":"[2692,1811,1655]","trial_type":"fractal-mutation","trial_index":81,"time_elapsed":1473285,"internal_node_id":"0.0-5.0-27.0"},{"group":"hexagon_bi","fractal_assignment":["../images/gry_blk.png","../images/org_blu.png","../images/blu_wht.png","../images/cyn_red.png","../images/ylw_slt.png","../images/pnk_blu.png"],"mutagen_generator_assignment":[0,1],"goal":3,"start":2,"action_noise":0.15,"location_history":"[2,1,2,3]","action_history":"[1,0,1]","mutagen_history":"[1,0,1]","location_rts":"[1424,975,739]","trial_type":"fractal-mutation","trial_index":82,"time_elapsed":1483384,"internal_node_id":"0.0-5.0-28.0"},{"group":"hexagon_bi","fractal_assignment":["../images/gry_blk.png","../images/org_blu.png","../images/blu_wht.png","../images/cyn_red.png","../images/ylw_slt.png","../images/pnk_blu.png"],"mutagen_generator_assignment":[0,1],"goal":1,"start":3,"action_noise":0.15,"location_history":"[3,2,3,2,1]","action_history":"[1,1,1,0]","mutagen_history":"[1,1,1,0]","location_rts":"[949,1074,2832,236]","trial_type":"fractal-mutation","trial_index":83,"time_elapsed":1496760,"internal_node_id":"0.0-5.0-29.0"},{"group":"hexagon_bi","fractal_assignment":["../images/gry_blk.png","../images/org_blu.png","../images/blu_wht.png","../images/cyn_red.png","../images/ylw_slt.png","../images/pnk_blu.png"],"mutagen_generator_assignment":[0,1],"goal":4,"start":1,"action_noise":0.15,"location_history":"[1,2,1,2,1,0,5,4]","action_history":"[0,0,0,0,1,0,1]","mutagen_history":"[0,0,0,0,1,0,1]","location_rts":"[1516,887,577,468,235,237,1154]","trial_type":"fractal-mutation","trial_index":84,"time_elapsed":1513347,"internal_node_id":"0.0-5.0-30.0"},{"group":"hexagon_bi","fractal_assignment":["../images/gry_blk.png","../images/org_blu.png","../images/blu_wht.png","../images/cyn_red.png","../images/ylw_slt.png","../images/pnk_blu.png"],"mutagen_generator_assignment":[0,1],"goal":5,"start":4,"action_noise":0.15,"location_history":"[4,3,2,1,2,1,2,1,2,1,0,5]","action_history":"[1,1,1,1,0,0,1,0,0,1,1]","mutagen_history":"[1,1,1,1,0,0,1,0,0,1,1]","location_rts":"[1064,865,1325,1829,925,770,1095,505,564,1086,365]","trial_type":"fractal-mutation","trial_index":85,"time_elapsed":1539921,"internal_node_id":"0.0-5.0-31.0"},{"group":"hexagon_bi","fractal_assignment":["../images/gry_blk.png","../images/org_blu.png","../images/blu_wht.png","../images/cyn_red.png","../images/ylw_slt.png","../images/pnk_blu.png"],"mutagen_generator_assignment":[0,1],"goal":0,"start":5,"action_noise":0.15,"location_history":"[5,0]","action_history":"[0]","mutagen_history":"[0]","location_rts":"[3364]","trial_type":"fractal-mutation","trial_index":86,"time_elapsed":1547902,"internal_node_id":"0.0-5.0-32.0"},{"group":"hexagon_bi","fractal_assignment":["../images/gry_blk.png","../images/org_blu.png","../images/blu_wht.png","../images/cyn_red.png","../images/ylw_slt.png","../images/pnk_blu.png"],"mutagen_generator_assignment":[0,1],"goal":2,"start":0,"action_noise":0.15,"location_history":"[0,1,2]","action_history":"[1,0]","mutagen_history":"[1,0]","location_rts":"[1918,1783]","trial_type":"fractal-mutation","trial_index":87,"time_elapsed":1557412,"internal_node_id":"0.0-5.0-33.0"},{"group":"hexagon_bi","fractal_assignment":["../images/gry_blk.png","../images/org_blu.png","../images/blu_wht.png","../images/cyn_red.png","../images/ylw_slt.png","../images/pnk_blu.png"],"mutagen_generator_assignment":[0,1],"goal":0,"start":2,"action_noise":0.15,"location_history":"[2,3,4,5,4,5,0]","action_history":"[0,0,1,1,0,0]","mutagen_history":"[0,0,1,1,0,0]","location_rts":"[7779,949,1337,1499,230,696]","trial_type":"fractal-mutation","trial_index":88,"time_elapsed":1580307,"internal_node_id":"0.0-5.0-34.0"},{"group":"hexagon_bi","fractal_assignment":["../images/gry_blk.png","../images/org_blu.png","../images/blu_wht.png","../images/cyn_red.png","../images/ylw_slt.png","../images/pnk_blu.png"],"mutagen_generator_assignment":[0,1],"goal":5,"start":0,"action_noise":0.15,"location_history":"[0,1,2,1,2,1,0,5]","action_history":"[0,0,1,0,0,1,1]","mutagen_history":"[0,0,1,0,0,1,1]","location_rts":"[1442,682,397,262,595,804,98]","trial_type":"fractal-mutation","trial_index":89,"time_elapsed":1596174,"internal_node_id":"0.0-5.0-35.0"},{"group":"hexagon_bi","fractal_assignment":["../images/gry_blk.png","../images/org_blu.png","../images/blu_wht.png","../images/cyn_red.png","../images/ylw_slt.png","../images/pnk_blu.png"],"mutagen_generator_assignment":[0,1],"goal":1,"start":5,"action_noise":0.15,"location_history":"[5,4,5,4,3,2,1]","action_history":"[1,1,1,0,1,0]","mutagen_history":"[1,1,1,0,1,0]","location_rts":"[3009,751,719,1425,992,1445]","trial_type":"fractal-mutation","trial_index":90,"time_elapsed":1614974,"internal_node_id":"0.0-5.0-36.0"},{"group":"hexagon_bi","fractal_assignment":["../images/gry_blk.png","../images/org_blu.png","../images/blu_wht.png","../images/cyn_red.png","../images/ylw_slt.png","../images/pnk_blu.png"],"mutagen_generator_assignment":[0,1],"goal":4,"start":1,"action_noise":0.15,"location_history":"[1,2,3,4]","action_history":"[1,1,0]","mutagen_history":"[1,1,0]","location_rts":"[1856,1148,684]","trial_type":"fractal-mutation","trial_index":91,"time_elapsed":1625626,"internal_node_id":"0.0-5.0-37.0"},{"group":"hexagon_bi","fractal_assignment":["../images/gry_blk.png","../images/org_blu.png","../images/blu_wht.png","../images/cyn_red.png","../images/ylw_slt.png","../images/pnk_blu.png"],"mutagen_generator_assignment":[0,1],"goal":3,"start":4,"action_noise":0.15,"location_history":"[4,3]","action_history":"[0]","mutagen_history":"[0]","location_rts":"[2386]","trial_type":"fractal-mutation","trial_index":92,"time_elapsed":1632656,"internal_node_id":"0.0-5.0-38.0"},{"group":"hexagon_bi","fractal_assignment":["../images/gry_blk.png","../images/org_blu.png","../images/blu_wht.png","../images/cyn_red.png","../images/ylw_slt.png","../images/pnk_blu.png"],"mutagen_generator_assignment":[0,1],"goal":5,"start":3,"action_noise":0.15,"location_history":"[3,2,1,0,1,2,1,2,3,4,5]","action_history":"[1,0,0,1,0,0,1,1,0,1]","mutagen_history":"[1,0,0,1,0,0,1,1,0,1]","location_rts":"[1342,11273,2282,12819,2097,951,594,582,834,1032]","trial_type":"fractal-mutation","trial_index":93,"time_elapsed":1681475,"internal_node_id":"0.0-5.0-39.0"},{"group":"hexagon_bi","fractal_assignment":["../images/gry_blk.png","../images/org_blu.png","../images/blu_wht.png","../images/cyn_red.png","../images/ylw_slt.png","../images/pnk_blu.png"],"mutagen_generator_assignment":[0,1],"goal":1,"start":5,"action_noise":0.15,"location_history":"[5,4,5,0,1]","action_history":"[1,1,0,1]","mutagen_history":"[1,1,0,1]","location_rts":"[6776,613,179,555]","trial_type":"fractal-mutation","trial_index":94,"time_elapsed":1697667,"internal_node_id":"0.0-5.0-40.0"},{"group":"hexagon_bi","fractal_assignment":["../images/gry_blk.png","../images/org_blu.png","../images/blu_wht.png","../images/cyn_red.png","../images/ylw_slt.png","../images/pnk_blu.png"],"mutagen_generator_assignment":[0,1],"goal":2,"start":1,"action_noise":0.15,"location_history":"[1,0,5,4,3,4,5,4,5,0,1,0,5,4,5,4,3,2]","action_history":"[1,0,1,1,0,1,1,1,1,1,0,0,1,1,1,1,1]","mutagen_history":"[1,0,1,1,0,1,1,1,1,1,0,0,1,1,1,1,1]","location_rts":"[1078,1032,836,217,161,774,122,189,527,223,1634,781,876,711,452,220,80]","trial_type":"fractal-mutation","trial_index":95,"time_elapsed":1730908,"internal_node_id":"0.0-5.0-41.0"},{"group":"hexagon_bi","fractal_assignment":["../images/gry_blk.png","../images/org_blu.png","../images/blu_wht.png","../images/cyn_red.png","../images/ylw_slt.png","../images/pnk_blu.png"],"mutagen_generator_assignment":[0,1],"goal":4,"start":2,"action_noise":0.15,"location_history":"[2,3,2,3,2,3,2,3,2,1,0,1,0,1,0,1,2,3,2,1,0,5,4]","action_history":"[0,1,1,1,1,1,1,1,0,1,1,1,0,1,1,0,1,1,0,1,0,1]","mutagen_history":"[0,1,1,1,1,1,1,1,0,1,1,1,0,1,1,0,1,1,0,1,0,1]","location_rts":"[1490,448,368,399,159,67,131,158,115,254,158,201,206,662,229,209,230,365,200,321,234,193]","trial_type":"fractal-mutation","trial_index":96,"time_elapsed":1766802,"internal_node_id":"0.0-5.0-42.0"},{"group":"hexagon_bi","fractal_assignment":["../images/gry_blk.png","../images/org_blu.png","../images/blu_wht.png","../images/cyn_red.png","../images/ylw_slt.png","../images/pnk_blu.png"],"mutagen_generator_assignment":[0,1],"goal":0,"start":4,"action_noise":0.15,"location_history":"[4,5,0]","action_history":"[1,0]","mutagen_history":"[1,0]","location_rts":"[2789,601]","trial_type":"fractal-mutation","trial_index":97,"time_elapsed":1776000,"internal_node_id":"0.0-5.0-43.0"},{"group":"hexagon_bi","fractal_assignment":["../images/gry_blk.png","../images/org_blu.png","../images/blu_wht.png","../images/cyn_red.png","../images/ylw_slt.png","../images/pnk_blu.png"],"mutagen_generator_assignment":[0,1],"goal":3,"start":0,"action_noise":0.15,"location_history":"[0,1,2,3]","action_history":"[1,1,1]","mutagen_history":"[1,1,1]","location_rts":"[959,768,258]","trial_type":"fractal-mutation","trial_index":98,"time_elapsed":1785012,"internal_node_id":"0.0-5.0-44.0"},{"group":"hexagon_bi","fractal_assignment":["../images/gry_blk.png","../images/org_blu.png","../images/blu_wht.png","../images/cyn_red.png","../images/ylw_slt.png","../images/pnk_blu.png"],"mutagen_generator_assignment":[0,1],"goal":0,"start":3,"action_noise":0.15,"location_history":"[3,2,3,4,5,0]","action_history":"[1,1,0,1,0]","mutagen_history":"[1,1,0,1,0]","location_rts":"[1248,565,9,776,58]","trial_type":"fractal-mutation","trial_index":99,"time_elapsed":1796865,"internal_node_id":"0.0-5.0-45.0"},{"group":"hexagon_bi","fractal_assignment":["../images/gry_blk.png","../images/org_blu.png","../images/blu_wht.png","../images/cyn_red.png","../images/ylw_slt.png","../images/pnk_blu.png"],"mutagen_generator_assignment":[0,1],"goal":4,"start":0,"action_noise":0.15,"location_history":"[0,1,0,1,2,1,0,5,4]","action_history":"[1,0,1,0,0,0,0,1]","mutagen_history":"[1,0,1,0,0,0,0,1]","location_rts":"[1931,119,653,104,1910,1213,826,911]","trial_type":"fractal-mutation","trial_index":100,"time_elapsed":1817167,"internal_node_id":"0.0-5.0-46.0"},{"group":"hexagon_bi","fractal_assignment":["../images/gry_blk.png","../images/org_blu.png","../images/blu_wht.png","../images/cyn_red.png","../images/ylw_slt.png","../images/pnk_blu.png"],"mutagen_generator_assignment":[0,1],"goal":5,"start":4,"action_noise":0.15,"location_history":"[4,5]","action_history":"[1]","mutagen_history":"[1]","location_rts":"[3766]","trial_type":"fractal-mutation","trial_index":101,"time_elapsed":1825580,"internal_node_id":"0.0-5.0-47.0"},{"group":"hexagon_bi","fractal_assignment":["../images/gry_blk.png","../images/org_blu.png","../images/blu_wht.png","../images/cyn_red.png","../images/ylw_slt.png","../images/pnk_blu.png"],"mutagen_generator_assignment":[0,1],"goal":2,"start":5,"action_noise":0.15,"location_history":"[5,4,3,2]","action_history":"[1,0,1]","mutagen_history":"[1,0,1]","location_rts":"[928,1024,1019]","trial_type":"fractal-mutation","trial_index":102,"time_elapsed":1835594,"internal_node_id":"0.0-5.0-48.0"},{"group":"hexagon_bi","fractal_assignment":["../images/gry_blk.png","../images/org_blu.png","../images/blu_wht.png","../images/cyn_red.png","../images/ylw_slt.png","../images/pnk_blu.png"],"mutagen_generator_assignment":[0,1],"goal":1,"start":2,"action_noise":0.15,"location_history":"[2,3,2,1]","action_history":"[1,1,0]","mutagen_history":"[1,1,0]","location_rts":"[1067,1237,725]","trial_type":"fractal-mutation","trial_index":103,"time_elapsed":1845653,"internal_node_id":"0.0-5.0-49.0"},{"view_history":"[{\"page_index\":0,\"viewing_time\":4054}]","rt":4054,"trial_type":"instructions","trial_index":104,"time_elapsed":1850708,"internal_node_id":"0.0-6.0"},{"rt":29433,"responses":"{\"Q0\":\"pattern recognition\"}","trial_type":"survey-text","trial_index":105,"time_elapsed":1881147,"internal_node_id":"0.0-7.0-0.0"},{"rt":9312,"responses":"{\"Q0\":\"pattern recognition\"}","trial_type":"survey-text","trial_index":106,"time_elapsed":1891464,"internal_node_id":"0.0-7.0-1.0"},{"rt":18650,"responses":"{\"Q0\":\"<img src='../images/diagrams/hexagon_bi.png'>\"}","trial_type":"survey-multi-choice","trial_index":107,"time_elapsed":1911124,"internal_node_id":"0.0-7.0-2.0"},{"rt":26533,"assignments":["../images/gry_blk.png","../images/blu_wht.png","../images/ylw_slt.png","../images/pnk_blu.png","../images/cyn_red.png","../images/org_blu.png"],"trial_type":"drag-drop-on-image","trial_index":108,"time_elapsed":1938662,"internal_node_id":"0.0-7.0-3.0"},{"rt":5968,"responses":"{\"Q0\":\"3\"}","trial_type":"survey-likert","trial_index":109,"time_elapsed":1945634,"internal_node_id":"0.0-7.0-4.0"},{"rt":16244,"responses":"{\"Q0\":\"i thought they were virtually identical\"}","trial_type":"survey-text","trial_index":110,"time_elapsed":1962880,"internal_node_id":"0.0-7.0-5.0"},{"rt":12532,"responses":"{\"Q0\":\"No\"}","trial_type":"survey-multi-choice","trial_index":111,"time_elapsed":1976415,"internal_node_id":"0.0-7.0-6.0"},{"rt":4968,"responses":"{\"Q0\":\"Did not notice\"}","trial_type":"survey-multi-choice","trial_index":112,"time_elapsed":1982389,"internal_node_id":"0.0-7.0-7.0"},{"rt":4194,"responses":"{\"Q0\":\"\"}","trial_type":"survey-text","trial_index":113,"time_elapsed":1987586,"internal_node_id":"0.0-7.0-8.0"},{"rt":3636,"responses":"{\"Q0\":\"3\"}","trial_type":"survey-likert","trial_index":114,"time_elapsed":1992224,"internal_node_id":"0.0-7.0-9.0"},{"rt":7196,"responses":"{\"Q0\":\"Different structure\"}","trial_type":"survey-multi-choice","trial_index":115,"time_elapsed":2000424,"internal_node_id":"0.0-7.0-10.0"},{"rt":15109,"responses":"{\"Q0\":\"left (black) door = ray, right (white) door = acid\",\"Q1\":\"Moderately confident\"}","trial_type":"survey-multi-choice","trial_index":116,"time_elapsed":2016545,"internal_node_id":"0.0-7.0-11.0"},{"rt":8128,"responses":"{\"Q0\":\"45-55\",\"Q1\":\"Some college\",\"Q2\":\"Male\",\"Q3\":\"White\"}","trial_type":"survey-multi-choice","trial_index":117,"time_elapsed":2025680,"internal_node_id":"0.0-8.0"},{"rt":1606,"responses":"{\"Q0\":\"\"}","trial_type":"survey-text","trial_index":118,"time_elapsed":2028288,"internal_node_id":"0.0-9.0"}]