[{"view_history":"[{\"page_index\":0,\"viewing_time\":53050},{\"page_index\":1,\"viewing_time\":435617}]","rt":488668,"trial_type":"instructions","trial_index":0,"time_elapsed":488669,"internal_node_id":"0.0-0.0"},{"view_history":"[{\"page_index\":0,\"viewing_time\":2462},{\"page_index\":1,\"viewing_time\":9721}]","rt":12183,"trial_type":"instructions","trial_index":1,"time_elapsed":501852,"internal_node_id":"0.0-1.0"},{"group":"hexagon_tri","room_assignment":["purple","red","yellow","green","grey","blue"],"door_color_assignment":["black","white"],"door_generator_assignment":[1,0],"goal":2,"start":1,"action_noise":0.15,"location_history":"[1,3,2]","action_history":"[0,0]","door_history":"[1,1]","location_rts":"[2203,310]","trial_type":"two-door-navigation","trial_index":2,"time_elapsed":509890,"internal_node_id":"0.0-2.0-0.0"},{"group":"hexagon_tri","room_assignment":["purple","red","yellow","green","grey","blue"],"door_color_assignment":["black","white"],"door_generator_assignment":[1,0],"goal":0,"start":2,"action_noise":0.15,"location_history":"[2,3,4,0]","action_history":"[1,1,0]","door_history":"[0,0,1]","location_rts":"[1449,1630,964]","trial_type":"two-door-navigation","trial_index":3,"time_elapsed":520459,"internal_node_id":"0.0-2.0-1.0"},{"group":"hexagon_tri","room_assignment":["purple","red","yellow","green","grey","blue"],"door_color_assignment":["black","white"],"door_generator_assignment":[1,0],"goal":5,"start":0,"action_noise":0.15,"location_history":"[0,1,3,2,3,4,2,3,4,0,1,3,2,1,3,2,1,5]","action_history":"[0,0,0,1,1,1,1,1,0,0,0,0,0,0,0,0,1]","door_history":"[1,1,1,0,0,0,0,0,1,1,1,1,1,1,1,1,0]","location_rts":"[2939,397,319,1016,483,549,729,559,1029,396,346,403,461,578,383,462,720]","trial_type":"two-door-navigation","trial_index":4,"time_elapsed":552843,"internal_node_id":"0.0-2.0-2.0"},{"group":"hexagon_tri","room_assignment":["purple","red","yellow","green","grey","blue"],"door_color_assignment":["black","white"],"door_generator_assignment":[1,0],"goal":1,"start":5,"action_noise":0.15,"location_history":"[5,4,2,1]","action_history":"[0,1,0]","door_history":"[1,0,1]","location_rts":"[1171,1153,3156]","trial_type":"two-door-navigation","trial_index":5,"time_elapsed":564850,"internal_node_id":"0.0-2.0-3.0"},{"group":"hexagon_tri","room_assignment":["purple","red","yellow","green","grey","blue"],"door_color_assignment":["black","white"],"door_generator_assignment":[1,0],"goal":3,"start":1,"action_noise":0.15,"location_history":"[1,3]","action_history":"[0]","door_history":"[1]","location_rts":"[1944]","trial_type":"two-door-navigation","trial_index":6,"time_elapsed":571307,"internal_node_id":"0.0-2.0-4.0"},{"group":"hexagon_tri","room_assignment":["purple","red","yellow","green","grey","blue"],"door_color_assignment":["black","white"],"door_generator_assignment":[1,0],"goal":5,"start":3,"action_noise":0.15,"location_history":"[3,4,2,3,4,0,5]","action_history":"[1,1,1,0,0,0]","door_history":"[0,0,0,1,1,1]","location_rts":"[1603,564,642,2691,371,361]","trial_type":"two-door-navigation","trial_index":7,"time_elapsed":587076,"internal_node_id":"0.0-2.0-5.0"},{"group":"hexagon_tri","room_assignment":["purple","red","yellow","green","grey","blue"],"door_color_assignment":["black","white"],"door_generator_assignment":[1,0],"goal":4,"start":5,"action_noise":0.15,"location_history":"[5,4]","action_history":"[1]","door_history":"[0]","location_rts":"[4528]","trial_type":"two-door-navigation","trial_index":8,"time_elapsed":596112,"internal_node_id":"0.0-2.0-6.0"},{"group":"hexagon_tri","room_assignment":["purple","red","yellow","green","grey","blue"],"door_color_assignment":["black","white"],"door_generator_assignment":[1,0],"goal":0,"start":4,"action_noise":0.15,"location_history":"[4,0]","action_history":"[0]","door_history":"[1]","location_rts":"[1245]","trial_type":"two-door-navigation","trial_index":9,"time_elapsed":601863,"internal_node_id":"0.0-2.0-7.0"},{"group":"hexagon_tri","room_assignment":["purple","red","yellow","green","grey","blue"],"door_color_assignment":["black","white"],"door_generator_assignment":[1,0],"goal":2,"start":0,"action_noise":0.15,"location_history":"[0,1,5,0,1,3,2]","action_history":"[1,1,1,1,0,0]","door_history":"[0,0,0,0,1,1]","location_rts":"[3476,372,412,433,710,409]","trial_type":"two-door-navigation","trial_index":10,"time_elapsed":617215,"internal_node_id":"0.0-2.0-8.0"},{"group":"hexagon_tri","room_assignment":["purple","red","yellow","green","grey","blue"],"door_color_assignment":["black","white"],"door_generator_assignment":[1,0],"goal":4,"start":2,"action_noise":0.15,"location_history":"[2,3,4]","action_history":"[1,1]","door_history":"[0,0]","location_rts":"[1092,776]","trial_type":"two-door-navigation","trial_index":11,"time_elapsed":624597,"internal_node_id":"0.0-2.0-9.0"},{"group":"hexagon_tri","room_assignment":["purple","red","yellow","green","grey","blue"],"door_color_assignment":["black","white"],"door_generator_assignment":[1,0],"goal":2,"start":4,"action_noise":0.15,"location_history":"[4,0,1,3,4,2]","action_history":"[0,1,0,0,1]","door_history":"[1,0,1,1,0]","location_rts":"[2323,879,858,307,1127]","trial_type":"two-door-navigation","trial_index":12,"time_elapsed":638619,"internal_node_id":"0.0-2.0-10.0"},{"group":"hexagon_tri","room_assignment":["purple","red","yellow","green","grey","blue"],"door_color_assignment":["black","white"],"door_generator_assignment":[1,0],"goal":3,"start":2,"action_noise":0.15,"location_history":"[2,3]","action_history":"[1]","door_history":"[0]","location_rts":"[1768]","trial_type":"two-door-navigation","trial_index":13,"time_elapsed":644894,"internal_node_id":"0.0-2.0-11.0"},{"group":"hexagon_tri","room_assignment":["purple","red","yellow","green","grey","blue"],"door_color_assignment":["black","white"],"door_generator_assignment":[1,0],"goal":0,"start":3,"action_noise":0.15,"location_history":"[3,2,3,4,0]","action_history":"[1,1,1,0]","door_history":"[0,0,0,1]","location_rts":"[1322,1445,1001,867]","trial_type":"two-door-navigation","trial_index":14,"time_elapsed":657058,"internal_node_id":"0.0-2.0-12.0"},{"group":"hexagon_tri","room_assignment":["purple","red","yellow","green","grey","blue"],"door_color_assignment":["black","white"],"door_generator_assignment":[1,0],"goal":5,"start":0,"action_noise":0.15,"location_history":"[0,5]","action_history":"[0]","door_history":"[1]","location_rts":"[1653]","trial_type":"two-door-navigation","trial_index":15,"time_elapsed":663225,"internal_node_id":"0.0-2.0-13.0"},{"group":"hexagon_tri","room_assignment":["purple","red","yellow","green","grey","blue"],"door_color_assignment":["black","white"],"door_generator_assignment":[1,0],"goal":1,"start":5,"action_noise":0.15,"location_history":"[5,4,0,5,4,0,1]","action_history":"[1,0,0,0,0,1]","door_history":"[0,1,1,1,1,0]","location_rts":"[1972,2374,328,480,897,618]","trial_type":"two-door-navigation","trial_index":16,"time_elapsed":679423,"internal_node_id":"0.0-2.0-14.0"},{"group":"hexagon_tri","room_assignment":["purple","red","yellow","green","grey","blue"],"door_color_assignment":["black","white"],"door_generator_assignment":[1,0],"goal":5,"start":1,"action_noise":0.15,"location_history":"[1,3,4,2,1,3,2,3,2,3,4,2,3,4,0,5]","action_history":"[0,1,1,1,0,1,1,1,1,1,1,0,0,0,0]","door_history":"[1,0,0,0,1,0,0,0,0,0,0,1,1,1,1]","location_rts":"[811,683,405,836,1241,710,383,554,394,326,478,985,424,417,388]","trial_type":"two-door-navigation","trial_index":17,"time_elapsed":707060,"internal_node_id":"0.0-2.0-15.0"},{"group":"hexagon_tri","room_assignment":["purple","red","yellow","green","grey","blue"],"door_color_assignment":["black","white"],"door_generator_assignment":[1,0],"goal":3,"start":5,"action_noise":0.15,"location_history":"[5,0,1,3]","action_history":"[1,1,0]","door_history":"[0,0,1]","location_rts":"[5432,572,1005]","trial_type":"two-door-navigation","trial_index":18,"time_elapsed":720581,"internal_node_id":"0.0-2.0-16.0"},{"group":"hexagon_tri","room_assignment":["purple","red","yellow","green","grey","blue"],"door_color_assignment":["black","white"],"door_generator_assignment":[1,0],"goal":2,"start":3,"action_noise":0.15,"location_history":"[3,2]","action_history":"[0]","door_history":"[1]","location_rts":"[9549]","trial_type":"two-door-navigation","trial_index":19,"time_elapsed":734635,"internal_node_id":"0.0-2.0-17.0"},{"group":"hexagon_tri","room_assignment":["purple","red","yellow","green","grey","blue"],"door_color_assignment":["black","white"],"door_generator_assignment":[1,0],"goal":1,"start":2,"action_noise":0.15,"location_history":"[2,1]","action_history":"[0]","door_history":"[1]","location_rts":"[5089]","trial_type":"two-door-navigation","trial_index":20,"time_elapsed":744229,"internal_node_id":"0.0-2.0-18.0"},{"group":"hexagon_tri","room_assignment":["purple","red","yellow","green","grey","blue"],"door_color_assignment":["black","white"],"door_generator_assignment":[1,0],"goal":4,"start":1,"action_noise":0.15,"location_history":"[1,5,0,1,5,0,5,0,1,3,4]","action_history":"[1,1,1,1,1,1,1,1,0,1]","door_history":"[0,0,0,0,0,0,0,0,1,0]","location_rts":"[1367,321,443,803,449,520,1512,701,1102,844]","trial_type":"two-door-navigation","trial_index":21,"time_elapsed":765879,"internal_node_id":"0.0-2.0-19.0"},{"group":"hexagon_tri","room_assignment":["purple","red","yellow","green","grey","blue"],"door_color_assignment":["black","white"],"door_generator_assignment":[1,0],"goal":0,"start":4,"action_noise":0.15,"location_history":"[4,2,3,4,2,3,4,0]","action_history":"[1,1,1,1,1,0,0]","door_history":"[0,0,0,0,0,1,1]","location_rts":"[9350,892,970,2526,1277,1821,900]","trial_type":"two-door-navigation","trial_index":22,"time_elapsed":794163,"internal_node_id":"0.0-2.0-20.0"},{"group":"hexagon_tri","room_assignment":["purple","red","yellow","green","grey","blue"],"door_color_assignment":["black","white"],"door_generator_assignment":[1,0],"goal":3,"start":0,"action_noise":0.15,"location_history":"[0,1,3]","action_history":"[1,0]","door_history":"[0,1]","location_rts":"[4135,790]","trial_type":"two-door-navigation","trial_index":23,"time_elapsed":804598,"internal_node_id":"0.0-2.0-21.0"},{"group":"hexagon_tri","room_assignment":["purple","red","yellow","green","grey","blue"],"door_color_assignment":["black","white"],"door_generator_assignment":[1,0],"goal":1,"start":3,"action_noise":0.15,"location_history":"[3,4,0,5,4,0,5,4,0,5,4,0,1]","action_history":"[1,0,0,0,0,0,0,0,0,0,0,0]","door_history":"[0,1,1,1,1,1,1,1,1,1,1,1]","location_rts":"[1697,1380,520,677,1163,630,724,6689,960,847,583,666]","trial_type":"two-door-navigation","trial_index":24,"time_elapsed":836719,"internal_node_id":"0.0-2.0-22.0"},{"group":"hexagon_tri","room_assignment":["purple","red","yellow","green","grey","blue"],"door_color_assignment":["black","white"],"door_generator_assignment":[1,0],"goal":0,"start":1,"action_noise":0.15,"location_history":"[1,5,0]","action_history":"[1,1]","door_history":"[0,0]","location_rts":"[67369,674]","trial_type":"two-door-navigation","trial_index":25,"time_elapsed":910272,"internal_node_id":"0.0-2.0-23.0"},{"group":"hexagon_tri","room_assignment":["purple","red","yellow","green","grey","blue"],"door_color_assignment":["black","white"],"door_generator_assignment":[1,0],"goal":2,"start":0,"action_noise":0.15,"location_history":"[0,5,0,1,3,2]","action_history":"[1,1,1,0,0]","door_history":"[0,0,0,1,1]","location_rts":"[1464,927,455,1235,452]","trial_type":"two-door-navigation","trial_index":26,"time_elapsed":923346,"internal_node_id":"0.0-2.0-24.0"},{"group":"hexagon_tri","room_assignment":["purple","red","yellow","green","grey","blue"],"door_color_assignment":["black","white"],"door_generator_assignment":[1,0],"goal":4,"start":2,"action_noise":0.15,"location_history":"[2,3,4]","action_history":"[1,1]","door_history":"[0,0]","location_rts":"[2340,1086]","trial_type":"two-door-navigation","trial_index":27,"time_elapsed":932296,"internal_node_id":"0.0-2.0-25.0"},{"group":"hexagon_tri","room_assignment":["purple","red","yellow","green","grey","blue"],"door_color_assignment":["black","white"],"door_generator_assignment":[1,0],"goal":5,"start":4,"action_noise":0.15,"location_history":"[4,0,5]","action_history":"[0,0]","door_history":"[1,1]","location_rts":"[2601,474]","trial_type":"two-door-navigation","trial_index":28,"time_elapsed":940897,"internal_node_id":"0.0-2.0-26.0"},{"group":"hexagon_tri","room_assignment":["purple","red","yellow","green","grey","blue"],"door_color_assignment":["black","white"],"door_generator_assignment":[1,0],"goal":2,"start":5,"action_noise":0.15,"location_history":"[5,0,1,3,2]","action_history":"[1,1,0,0]","door_history":"[0,0,1,1]","location_rts":"[7136,2001,835,280]","trial_type":"two-door-navigation","trial_index":29,"time_elapsed":958686,"internal_node_id":"0.0-2.0-27.0"},{"group":"hexagon_tri","room_assignment":["purple","red","yellow","green","grey","blue"],"door_color_assignment":["black","white"],"door_generator_assignment":[1,0],"goal":3,"start":2,"action_noise":0.15,"location_history":"[2,1,3]","action_history":"[0,0]","door_history":"[1,1]","location_rts":"[1746,280]","trial_type":"two-door-navigation","trial_index":30,"time_elapsed":966224,"internal_node_id":"0.0-2.0-28.0"},{"group":"hexagon_tri","room_assignment":["purple","red","yellow","green","grey","blue"],"door_color_assignment":["black","white"],"door_generator_assignment":[1,0],"goal":1,"start":3,"action_noise":0.15,"location_history":"[3,4,0,1]","action_history":"[1,0,1]","door_history":"[0,1,0]","location_rts":"[2674,1225,727]","trial_type":"two-door-navigation","trial_index":31,"time_elapsed":977376,"internal_node_id":"0.0-2.0-29.0"},{"group":"hexagon_tri","room_assignment":["purple","red","yellow","green","grey","blue"],"door_color_assignment":["black","white"],"door_generator_assignment":[1,0],"goal":4,"start":1,"action_noise":0.15,"location_history":"[1,5,4]","action_history":"[1,0]","door_history":"[0,1]","location_rts":"[2504,3255]","trial_type":"two-door-navigation","trial_index":32,"time_elapsed":988641,"internal_node_id":"0.0-2.0-30.0"},{"group":"hexagon_tri","room_assignment":["purple","red","yellow","green","grey","blue"],"door_color_assignment":["black","white"],"door_generator_assignment":[1,0],"goal":5,"start":4,"action_noise":0.15,"location_history":"[4,0,5]","action_history":"[1,1]","door_history":"[0,0]","location_rts":"[3179,939]","trial_type":"two-door-navigation","trial_index":33,"time_elapsed":998297,"internal_node_id":"0.0-2.0-31.0"},{"group":"hexagon_tri","room_assignment":["purple","red","yellow","green","grey","blue"],"door_color_assignment":["black","white"],"door_generator_assignment":[1,0],"goal":0,"start":5,"action_noise":0.15,"location_history":"[5,0]","action_history":"[1]","door_history":"[0]","location_rts":"[6792]","trial_type":"two-door-navigation","trial_index":34,"time_elapsed":1009594,"internal_node_id":"0.0-2.0-32.0"},{"group":"hexagon_tri","room_assignment":["purple","red","yellow","green","grey","blue"],"door_color_assignment":["black","white"],"door_generator_assignment":[1,0],"goal":2,"start":0,"action_noise":0.15,"location_history":"[0,5,0,1,3,2]","action_history":"[1,1,1,0,0]","door_history":"[0,0,0,1,1]","location_rts":"[1585,748,406,2148,230]","trial_type":"two-door-navigation","trial_index":35,"time_elapsed":1023263,"internal_node_id":"0.0-2.0-33.0"},{"group":"hexagon_tri","room_assignment":["purple","red","yellow","green","grey","blue"],"door_color_assignment":["black","white"],"door_generator_assignment":[1,0],"goal":0,"start":2,"action_noise":0.15,"location_history":"[2,1,5,0]","action_history":"[0,0,1]","door_history":"[1,1,0]","location_rts":"[1574,539,2415]","trial_type":"two-door-navigation","trial_index":36,"time_elapsed":1034307,"internal_node_id":"0.0-2.0-34.0"},{"group":"hexagon_tri","room_assignment":["purple","red","yellow","green","grey","blue"],"door_color_assignment":["black","white"],"door_generator_assignment":[1,0],"goal":5,"start":0,"action_noise":0.15,"location_history":"[0,5]","action_history":"[0]","door_history":"[1]","location_rts":"[3939]","trial_type":"two-door-navigation","trial_index":37,"time_elapsed":1042752,"internal_node_id":"0.0-2.0-35.0"},{"group":"hexagon_tri","room_assignment":["purple","red","yellow","green","grey","blue"],"door_color_assignment":["black","white"],"door_generator_assignment":[1,0],"goal":1,"start":5,"action_noise":0.15,"location_history":"[5,4,0,1]","action_history":"[0,0,0]","door_history":"[1,1,1]","location_rts":"[1528,1498,440]","trial_type":"two-door-navigation","trial_index":38,"time_elapsed":1052741,"internal_node_id":"0.0-2.0-36.0"},{"group":"hexagon_tri","room_assignment":["purple","red","yellow","green","grey","blue"],"door_color_assignment":["black","white"],"door_generator_assignment":[1,0],"goal":4,"start":1,"action_noise":0.15,"location_history":"[1,5,4]","action_history":"[1,0]","door_history":"[0,1]","location_rts":"[2788,3301]","trial_type":"two-door-navigation","trial_index":39,"time_elapsed":1064340,"internal_node_id":"0.0-2.0-37.0"},{"group":"hexagon_tri","room_assignment":["purple","red","yellow","green","grey","blue"],"door_color_assignment":["black","white"],"door_generator_assignment":[1,0],"goal":3,"start":4,"action_noise":0.15,"location_history":"[4,0,5,4,0,5,4,0,5,0,5,0,1,3]","action_history":"[0,0,0,0,0,0,0,0,1,1,1,1,0]","door_history":"[1,1,1,1,1,1,1,1,0,0,0,0,1]","location_rts":"[6498,458,795,615,568,603,391,344,1573,729,391,386,1429]","trial_type":"two-door-navigation","trial_index":40,"time_elapsed":1095703,"internal_node_id":"0.0-2.0-38.0"},{"group":"hexagon_tri","room_assignment":["purple","red","yellow","green","grey","blue"],"door_color_assignment":["black","white"],"door_generator_assignment":[1,0],"goal":5,"start":3,"action_noise":0.15,"location_history":"[3,2,3,2,1,3,2,1,3,4,2,3,2,1,3,4,2,1,3,4,0,1,3,4,0,5]","action_history":"[0,0,0,0,0,0,0,0,0,1,0,0,0,0,0,1,0,0,0,0,0,1,0,0,0]","door_history":"[1,1,1,1,1,1,1,1,1,0,1,1,1,1,1,0,1,1,1,1,1,0,1,1,1]","location_rts":"[2049,1131,472,423,1454,693,393,383,358,4900,1110,859,358,316,374,931,924,571,383,2050,268,896,913,326,250]","trial_type":"two-door-navigation","trial_index":41,"time_elapsed":1147142,"internal_node_id":"0.0-2.0-39.0"},{"group":"hexagon_tri","room_assignment":["purple","red","yellow","green","grey","blue"],"door_color_assignment":["black","white"],"door_generator_assignment":[1,0],"goal":1,"start":5,"action_noise":0.15,"location_history":"[5,4,0,1]","action_history":"[0,0,1]","door_history":"[1,1,0]","location_rts":"[1102,1396,365]","trial_type":"two-door-navigation","trial_index":42,"time_elapsed":1156524,"internal_node_id":"0.0-2.0-40.0"},{"group":"hexagon_tri","room_assignment":["purple","red","yellow","green","grey","blue"],"door_color_assignment":["black","white"],"door_generator_assignment":[1,0],"goal":2,"start":1,"action_noise":0.15,"location_history":"[1,3,2]","action_history":"[0,0]","door_history":"[1,1]","location_rts":"[1343,347]","trial_type":"two-door-navigation","trial_index":43,"time_elapsed":1163729,"internal_node_id":"0.0-2.0-41.0"},{"group":"hexagon_tri","room_assignment":["purple","red","yellow","green","grey","blue"],"door_color_assignment":["black","white"],"door_generator_assignment":[1,0],"goal":4,"start":2,"action_noise":0.15,"location_history":"[2,3,4]","action_history":"[1,1]","door_history":"[0,0]","location_rts":"[2096,426]","trial_type":"two-door-navigation","trial_index":44,"time_elapsed":1171764,"internal_node_id":"0.0-2.0-42.0"},{"group":"hexagon_tri","room_assignment":["purple","red","yellow","green","grey","blue"],"door_color_assignment":["black","white"],"door_generator_assignment":[1,0],"goal":0,"start":4,"action_noise":0.15,"location_history":"[4,0]","action_history":"[0]","door_history":"[1]","location_rts":"[1986]","trial_type":"two-door-navigation","trial_index":45,"time_elapsed":1178259,"internal_node_id":"0.0-2.0-43.0"},{"group":"hexagon_tri","room_assignment":["purple","red","yellow","green","grey","blue"],"door_color_assignment":["black","white"],"door_generator_assignment":[1,0],"goal":3,"start":0,"action_noise":0.15,"location_history":"[0,1,3]","action_history":"[0,0]","door_history":"[1,1]","location_rts":"[1568,746]","trial_type":"two-door-navigation","trial_index":46,"time_elapsed":1186085,"internal_node_id":"0.0-2.0-44.0"},{"group":"hexagon_tri","room_assignment":["purple","red","yellow","green","grey","blue"],"door_color_assignment":["black","white"],"door_generator_assignment":[1,0],"goal":0,"start":3,"action_noise":0.15,"location_history":"[3,4,2,1,5,4,0]","action_history":"[1,1,0,1,0,0]","door_history":"[0,0,1,0,1,1]","location_rts":"[1815,957,917,781,1922,658]","trial_type":"two-door-navigation","trial_index":47,"time_elapsed":1202671,"internal_node_id":"0.0-2.0-45.0"},{"group":"hexagon_tri","room_assignment":["purple","red","yellow","green","grey","blue"],"door_color_assignment":["black","white"],"door_generator_assignment":[1,0],"goal":4,"start":0,"action_noise":0.15,"location_history":"[0,1,5,0,1,5,0,5,4]","action_history":"[1,1,1,1,1,0,0,0]","door_history":"[0,0,0,0,0,1,1,1]","location_rts":"[7692,2090,739,385,1634,3087,1617,1589]","trial_type":"two-door-navigation","trial_index":48,"time_elapsed":1233056,"internal_node_id":"0.0-2.0-46.0"},{"group":"hexagon_tri","room_assignment":["purple","red","yellow","green","grey","blue"],"door_color_assignment":["black","white"],"door_generator_assignment":[1,0],"goal":5,"start":4,"action_noise":0.15,"location_history":"[4,0,1,3,4,0,5]","action_history":"[1,1,1,1,0,0]","door_history":"[0,0,0,0,1,1]","location_rts":"[6515,2540,1611,406,1223,288]","trial_type":"two-door-navigation","trial_index":49,"time_elapsed":1255170,"internal_node_id":"0.0-2.0-47.0"},{"group":"hexagon_tri","room_assignment":["purple","red","yellow","green","grey","blue"],"door_color_assignment":["black","white"],"door_generator_assignment":[1,0],"goal":2,"start":5,"action_noise":0.15,"location_history":"[5,0,5,4,2]","action_history":"[0,0,0,0]","door_history":"[1,1,1,1]","location_rts":"[6541,333,351,458]","trial_type":"two-door-navigation","trial_index":50,"time_elapsed":1270380,"internal_node_id":"0.0-2.0-48.0"},{"group":"hexagon_tri","room_assignment":["purple","red","yellow","green","grey","blue"],"door_color_assignment":["black","white"],"door_generator_assignment":[1,0],"goal":1,"start":2,"action_noise":0.15,"location_history":"[2,1]","action_history":"[0]","door_history":"[1]","location_rts":"[5544]","trial_type":"two-door-navigation","trial_index":51,"time_elapsed":1280452,"internal_node_id":"0.0-2.0-49.0"},{"view_history":"[{\"page_index\":0,\"viewing_time\":2938}]","rt":2938,"trial_type":"instructions","trial_index":52,"time_elapsed":1284391,"internal_node_id":"0.0-3.0"},{"view_history":"[{\"page_index\":0,\"viewing_time\":2846},{\"page_index\":1,\"viewing_time\":26173}]","rt":29019,"trial_type":"instructions","trial_index":53,"time_elapsed":1314410,"internal_node_id":"0.0-4.0"},{"group":"hexagon_bi","fractal_assignment":["../images/pnk_blu.png","../images/org_blu.png","../images/cyn_red.png","../images/blu_wht.png","../images/gry_blk.png","../images/ylw_slt.png"],"mutagen_generator_assignment":[0,1],"goal":2,"start":1,"action_noise":0.15,"location_history":"[1,0,1,2]","action_history":"[1,1,0]","mutagen_history":"[1,1,0]","location_rts":"[1972,1342,853]","trial_type":"fractal-mutation","trial_index":54,"time_elapsed":1325180,"internal_node_id":"0.0-5.0-0.0"},{"group":"hexagon_bi","fractal_assignment":["../images/pnk_blu.png","../images/org_blu.png","../images/cyn_red.png","../images/blu_wht.png","../images/gry_blk.png","../images/ylw_slt.png"],"mutagen_generator_assignment":[0,1],"goal":0,"start":2,"action_noise":0.15,"location_history":"[2,3,4,3,4,5,0]","action_history":"[1,1,1,1,1,0]","mutagen_history":"[1,1,1,1,1,0]","location_rts":"[1350,1033,774,994,9485,1405]","trial_type":"fractal-mutation","trial_index":55,"time_elapsed":1349900,"internal_node_id":"0.0-5.0-1.0"},{"group":"hexagon_bi","fractal_assignment":["../images/pnk_blu.png","../images/org_blu.png","../images/cyn_red.png","../images/blu_wht.png","../images/gry_blk.png","../images/ylw_slt.png"],"mutagen_generator_assignment":[0,1],"goal":5,"start":0,"action_noise":0.15,"location_history":"[0,5]","action_history":"[0]","mutagen_history":"[0]","location_rts":"[2280]","trial_type":"fractal-mutation","trial_index":56,"time_elapsed":1356696,"internal_node_id":"0.0-5.0-2.0"},{"group":"hexagon_bi","fractal_assignment":["../images/pnk_blu.png","../images/org_blu.png","../images/cyn_red.png","../images/blu_wht.png","../images/gry_blk.png","../images/ylw_slt.png"],"mutagen_generator_assignment":[0,1],"goal":1,"start":5,"action_noise":0.15,"location_history":"[5,4,5,4,3,4,3,4,3,2,3,2,1]","action_history":"[1,1,1,0,0,0,0,0,1,1,1,0]","mutagen_history":"[1,1,1,0,0,0,0,0,1,1,1,0]","location_rts":"[5953,966,614,525,452,307,470,538,824,894,1017,950]","trial_type":"fractal-mutation","trial_index":57,"time_elapsed":1385963,"internal_node_id":"0.0-5.0-3.0"},{"group":"hexagon_bi","fractal_assignment":["../images/pnk_blu.png","../images/org_blu.png","../images/cyn_red.png","../images/blu_wht.png","../images/gry_blk.png","../images/ylw_slt.png"],"mutagen_generator_assignment":[0,1],"goal":3,"start":1,"action_noise":0.15,"location_history":"[1,0,1,0,1,0,5,0,1,0,1,0,1,0,1,0,5,4,5,0,1,2,3]","action_history":"[1,1,1,1,0,0,0,1,1,1,1,1,1,1,1,0,1,1,1,1,0,1]","mutagen_history":"[1,1,1,1,0,0,0,1,1,1,1,1,1,1,1,0,1,1,1,1,0,1]","location_rts":"[2699,701,874,1238,405,1261,624,837,509,490,291,417,646,422,376,683,1493,922,1209,1459,321,1658]","trial_type":"fractal-mutation","trial_index":58,"time_elapsed":1431555,"internal_node_id":"0.0-5.0-4.0"},{"group":"hexagon_bi","fractal_assignment":["../images/pnk_blu.png","../images/org_blu.png","../images/cyn_red.png","../images/blu_wht.png","../images/gry_blk.png","../images/ylw_slt.png"],"mutagen_generator_assignment":[0,1],"goal":5,"start":3,"action_noise":0.15,"location_history":"[3,4,5]","action_history":"[1,1]","mutagen_history":"[1,1]","location_rts":"[1766,550]","trial_type":"fractal-mutation","trial_index":59,"time_elapsed":1439409,"internal_node_id":"0.0-5.0-5.0"},{"group":"hexagon_bi","fractal_assignment":["../images/pnk_blu.png","../images/org_blu.png","../images/cyn_red.png","../images/blu_wht.png","../images/gry_blk.png","../images/ylw_slt.png"],"mutagen_generator_assignment":[0,1],"goal":4,"start":5,"action_noise":0.15,"location_history":"[5,4]","action_history":"[1]","mutagen_history":"[1]","location_rts":"[2192]","trial_type":"fractal-mutation","trial_index":60,"time_elapsed":1446123,"internal_node_id":"0.0-5.0-6.0"},{"group":"hexagon_bi","fractal_assignment":["../images/pnk_blu.png","../images/org_blu.png","../images/cyn_red.png","../images/blu_wht.png","../images/gry_blk.png","../images/ylw_slt.png"],"mutagen_generator_assignment":[0,1],"goal":0,"start":4,"action_noise":0.15,"location_history":"[4,5,0]","action_history":"[0,0]","mutagen_history":"[0,0]","location_rts":"[3910,1503]","trial_type":"fractal-mutation","trial_index":61,"time_elapsed":1457064,"internal_node_id":"0.0-5.0-7.0"},{"group":"hexagon_bi","fractal_assignment":["../images/pnk_blu.png","../images/org_blu.png","../images/cyn_red.png","../images/blu_wht.png","../images/gry_blk.png","../images/ylw_slt.png"],"mutagen_generator_assignment":[0,1],"goal":2,"start":0,"action_noise":0.15,"location_history":"[0,5,0,5,4,3,2]","action_history":"[0,0,0,1,0,1]","mutagen_history":"[0,0,0,1,0,1]","location_rts":"[2479,416,433,729,687,556]","trial_type":"fractal-mutation","trial_index":62,"time_elapsed":1471966,"internal_node_id":"0.0-5.0-8.0"},{"group":"hexagon_bi","fractal_assignment":["../images/pnk_blu.png","../images/org_blu.png","../images/cyn_red.png","../images/blu_wht.png","../images/gry_blk.png","../images/ylw_slt.png"],"mutagen_generator_assignment":[0,1],"goal":4,"start":2,"action_noise":0.15,"location_history":"[2,1,2,1,0,5,4]","action_history":"[0,0,0,1,0,1]","mutagen_history":"[0,0,0,1,0,1]","location_rts":"[2303,874,1593,387,5887,946]","trial_type":"fractal-mutation","trial_index":63,"time_elapsed":1493559,"internal_node_id":"0.0-5.0-9.0"},{"group":"hexagon_bi","fractal_assignment":["../images/pnk_blu.png","../images/org_blu.png","../images/cyn_red.png","../images/blu_wht.png","../images/gry_blk.png","../images/ylw_slt.png"],"mutagen_generator_assignment":[0,1],"goal":2,"start":4,"action_noise":0.15,"location_history":"[4,3,2]","action_history":"[0,1]","mutagen_history":"[0,1]","location_rts":"[2638,1303]","trial_type":"fractal-mutation","trial_index":64,"time_elapsed":1503059,"internal_node_id":"0.0-5.0-10.0"},{"group":"hexagon_bi","fractal_assignment":["../images/pnk_blu.png","../images/org_blu.png","../images/cyn_red.png","../images/blu_wht.png","../images/gry_blk.png","../images/ylw_slt.png"],"mutagen_generator_assignment":[0,1],"goal":3,"start":2,"action_noise":0.15,"location_history":"[2,3]","action_history":"[1]","mutagen_history":"[1]","location_rts":"[1112]","trial_type":"fractal-mutation","trial_index":65,"time_elapsed":1508695,"internal_node_id":"0.0-5.0-11.0"},{"group":"hexagon_bi","fractal_assignment":["../images/pnk_blu.png","../images/org_blu.png","../images/cyn_red.png","../images/blu_wht.png","../images/gry_blk.png","../images/ylw_slt.png"],"mutagen_generator_assignment":[0,1],"goal":0,"start":3,"action_noise":0.15,"location_history":"[3,2,3,4,3,4,5,0]","action_history":"[1,0,0,0,0,1,0]","mutagen_history":"[1,0,0,0,0,1,0]","location_rts":"[1741,468,678,794,829,278,1745]","trial_type":"fractal-mutation","trial_index":66,"time_elapsed":1525817,"internal_node_id":"0.0-5.0-12.0"},{"group":"hexagon_bi","fractal_assignment":["../images/pnk_blu.png","../images/org_blu.png","../images/cyn_red.png","../images/blu_wht.png","../images/gry_blk.png","../images/ylw_slt.png"],"mutagen_generator_assignment":[0,1],"goal":5,"start":0,"action_noise":0.15,"location_history":"[0,5]","action_history":"[0]","mutagen_history":"[0]","location_rts":"[3574]","trial_type":"fractal-mutation","trial_index":67,"time_elapsed":1533899,"internal_node_id":"0.0-5.0-13.0"},{"group":"hexagon_bi","fractal_assignment":["../images/pnk_blu.png","../images/org_blu.png","../images/cyn_red.png","../images/blu_wht.png","../images/gry_blk.png","../images/ylw_slt.png"],"mutagen_generator_assignment":[0,1],"goal":1,"start":5,"action_noise":0.15,"location_history":"[5,0,1]","action_history":"[0,1]","mutagen_history":"[0,1]","location_rts":"[2269,350]","trial_type":"fractal-mutation","trial_index":68,"time_elapsed":1542055,"internal_node_id":"0.0-5.0-14.0"},{"group":"hexagon_bi","fractal_assignment":["../images/pnk_blu.png","../images/org_blu.png","../images/cyn_red.png","../images/blu_wht.png","../images/gry_blk.png","../images/ylw_slt.png"],"mutagen_generator_assignment":[0,1],"goal":5,"start":1,"action_noise":0.15,"location_history":"[1,0,1,2,3,2,3,4,3,4,5]","action_history":"[1,0,0,1,1,1,0,0,0,1]","mutagen_history":"[1,0,0,1,1,1,0,0,0,1]","location_rts":"[3516,320,2195,2644,583,668,314,981,631,480]","trial_type":"fractal-mutation","trial_index":69,"time_elapsed":1568079,"internal_node_id":"0.0-5.0-15.0"},{"group":"hexagon_bi","fractal_assignment":["../images/pnk_blu.png","../images/org_blu.png","../images/cyn_red.png","../images/blu_wht.png","../images/gry_blk.png","../images/ylw_slt.png"],"mutagen_generator_assignment":[0,1],"goal":3,"start":5,"action_noise":0.15,"location_history":"[5,0,5,4,3]","action_history":"[0,0,1,0]","mutagen_history":"[0,0,1,0]","location_rts":"[1302,886,379,310]","trial_type":"fractal-mutation","trial_index":70,"time_elapsed":1578515,"internal_node_id":"0.0-5.0-16.0"},{"group":"hexagon_bi","fractal_assignment":["../images/pnk_blu.png","../images/org_blu.png","../images/cyn_red.png","../images/blu_wht.png","../images/gry_blk.png","../images/ylw_slt.png"],"mutagen_generator_assignment":[0,1],"goal":2,"start":3,"action_noise":0.15,"location_history":"[3,2]","action_history":"[1]","mutagen_history":"[1]","location_rts":"[5317]","trial_type":"fractal-mutation","trial_index":71,"time_elapsed":1588354,"internal_node_id":"0.0-5.0-17.0"},{"group":"hexagon_bi","fractal_assignment":["../images/pnk_blu.png","../images/org_blu.png","../images/cyn_red.png","../images/blu_wht.png","../images/gry_blk.png","../images/ylw_slt.png"],"mutagen_generator_assignment":[0,1],"goal":1,"start":2,"action_noise":0.15,"location_history":"[2,1]","action_history":"[0]","mutagen_history":"[0]","location_rts":"[1108]","trial_type":"fractal-mutation","trial_index":72,"time_elapsed":1593971,"internal_node_id":"0.0-5.0-18.0"},{"group":"hexagon_bi","fractal_assignment":["../images/pnk_blu.png","../images/org_blu.png","../images/cyn_red.png","../images/blu_wht.png","../images/gry_blk.png","../images/ylw_slt.png"],"mutagen_generator_assignment":[0,1],"goal":4,"start":1,"action_noise":0.15,"location_history":"[1,2,1,2,1,2,3,2,1,0,5,0,5,0,1,0,5,4]","action_history":"[1,1,0,0,0,1,1,0,0,1,1,0,0,0,1,0,1]","mutagen_history":"[1,1,0,0,0,1,1,0,0,1,1,0,0,0,1,0,1]","location_rts":"[1245,780,388,762,807,765,827,1300,1826,1276,1282,626,588,794,293,1291,385]","trial_type":"fractal-mutation","trial_index":73,"time_elapsed":1630029,"internal_node_id":"0.0-5.0-19.0"},{"group":"hexagon_bi","fractal_assignment":["../images/pnk_blu.png","../images/org_blu.png","../images/cyn_red.png","../images/blu_wht.png","../images/gry_blk.png","../images/ylw_slt.png"],"mutagen_generator_assignment":[0,1],"goal":0,"start":4,"action_noise":0.15,"location_history":"[4,3,2,1,0]","action_history":"[0,0,0,0]","mutagen_history":"[0,0,0,0]","location_rts":"[2832,792,635,1130]","trial_type":"fractal-mutation","trial_index":74,"time_elapsed":1642965,"internal_node_id":"0.0-5.0-20.0"},{"group":"hexagon_bi","fractal_assignment":["../images/pnk_blu.png","../images/org_blu.png","../images/cyn_red.png","../images/blu_wht.png","../images/gry_blk.png","../images/ylw_slt.png"],"mutagen_generator_assignment":[0,1],"goal":3,"start":0,"action_noise":0.15,"location_history":"[0,5,0,1,0,5,0,5,0,5,4,3]","action_history":"[0,1,0,1,0,0,0,0,1,1,0]","mutagen_history":"[0,1,0,1,0,0,0,0,1,1,0]","location_rts":"[1302,443,575,692,860,474,790,1100,374,628,939]","trial_type":"fractal-mutation","trial_index":75,"time_elapsed":1665821,"internal_node_id":"0.0-5.0-21.0"},{"group":"hexagon_bi","fractal_assignment":["../images/pnk_blu.png","../images/org_blu.png","../images/cyn_red.png","../images/blu_wht.png","../images/gry_blk.png","../images/ylw_slt.png"],"mutagen_generator_assignment":[0,1],"goal":1,"start":3,"action_noise":0.15,"location_history":"[3,4,3,4,5,4,5,0,1]","action_history":"[0,0,1,1,1,1,0,1]","mutagen_history":"[0,0,1,1,1,1,0,1]","location_rts":"[1572,1053,1189,779,742,715,398,446]","trial_type":"fractal-mutation","trial_index":76,"time_elapsed":1684354,"internal_node_id":"0.0-5.0-22.0"},{"group":"hexagon_bi","fractal_assignment":["../images/pnk_blu.png","../images/org_blu.png","../images/cyn_red.png","../images/blu_wht.png","../images/gry_blk.png","../images/ylw_slt.png"],"mutagen_generator_assignment":[0,1],"goal":0,"start":1,"action_noise":0.15,"location_history":"[1,0]","action_history":"[1]","mutagen_history":"[1]","location_rts":"[3608]","trial_type":"fractal-mutation","trial_index":77,"time_elapsed":1692485,"internal_node_id":"0.0-5.0-23.0"},{"group":"hexagon_bi","fractal_assignment":["../images/pnk_blu.png","../images/org_blu.png","../images/cyn_red.png","../images/blu_wht.png","../images/gry_blk.png","../images/ylw_slt.png"],"mutagen_generator_assignment":[0,1],"goal":2,"start":0,"action_noise":0.15,"location_history":"[0,5,4,3,4,3,2]","action_history":"[0,1,0,1,0,1]","mutagen_history":"[0,1,0,1,0,1]","location_rts":"[1616,337,439,598,1208,453]","trial_type":"fractal-mutation","trial_index":78,"time_elapsed":1706746,"internal_node_id":"0.0-5.0-24.0"},{"group":"hexagon_bi","fractal_assignment":["../images/pnk_blu.png","../images/org_blu.png","../images/cyn_red.png","../images/blu_wht.png","../images/gry_blk.png","../images/ylw_slt.png"],"mutagen_generator_assignment":[0,1],"goal":4,"start":2,"action_noise":0.15,"location_history":"[2,1,0,1,0,1,2,3,2,1,0,1,0,1,0,5,4]","action_history":"[0,1,1,1,1,0,1,1,1,1,1,0,1,1,0,1]","mutagen_history":"[0,1,1,1,1,0,1,1,1,1,1,0,1,1,0,1]","location_rts":"[1474,1541,940,562,1251,403,506,442,631,558,647,314,462,768,774,290]","trial_type":"fractal-mutation","trial_index":79,"time_elapsed":1738224,"internal_node_id":"0.0-5.0-25.0"},{"group":"hexagon_bi","fractal_assignment":["../images/pnk_blu.png","../images/org_blu.png","../images/cyn_red.png","../images/blu_wht.png","../images/gry_blk.png","../images/ylw_slt.png"],"mutagen_generator_assignment":[0,1],"goal":5,"start":4,"action_noise":0.15,"location_history":"[4,5]","action_history":"[1]","mutagen_history":"[1]","location_rts":"[4085]","trial_type":"fractal-mutation","trial_index":80,"time_elapsed":1746845,"internal_node_id":"0.0-5.0-26.0"},{"group":"hexagon_bi","fractal_assignment":["../images/pnk_blu.png","../images/org_blu.png","../images/cyn_red.png","../images/blu_wht.png","../images/gry_blk.png","../images/ylw_slt.png"],"mutagen_generator_assignment":[0,1],"goal":2,"start":5,"action_noise":0.15,"location_history":"[5,4,5,4,5,4,5,0,5,4,3,2]","action_history":"[1,0,1,0,1,1,0,0,1,0,1]","mutagen_history":"[1,0,1,0,1,1,0,0,1,0,1]","location_rts":"[3838,770,681,416,782,694,838,1505,396,441,450]","trial_type":"fractal-mutation","trial_index":81,"time_elapsed":1772370,"internal_node_id":"0.0-5.0-27.0"},{"group":"hexagon_bi","fractal_assignment":["../images/pnk_blu.png","../images/org_blu.png","../images/cyn_red.png","../images/blu_wht.png","../images/gry_blk.png","../images/ylw_slt.png"],"mutagen_generator_assignment":[0,1],"goal":3,"start":2,"action_noise":0.15,"location_history":"[2,1,2,3]","action_history":"[0,1,1]","mutagen_history":"[0,1,1]","location_rts":"[10327,718,784]","trial_type":"fractal-mutation","trial_index":82,"time_elapsed":1790784,"internal_node_id":"0.0-5.0-28.0"},{"group":"hexagon_bi","fractal_assignment":["../images/pnk_blu.png","../images/org_blu.png","../images/cyn_red.png","../images/blu_wht.png","../images/gry_blk.png","../images/ylw_slt.png"],"mutagen_generator_assignment":[0,1],"goal":1,"start":3,"action_noise":0.15,"location_history":"[3,4,3,2,3,2,1]","action_history":"[0,0,0,1,1,0]","mutagen_history":"[0,0,0,1,1,0]","location_rts":"[5096,535,800,475,852,380]","trial_type":"fractal-mutation","trial_index":83,"time_elapsed":1808519,"internal_node_id":"0.0-5.0-29.0"},{"group":"hexagon_bi","fractal_assignment":["../images/pnk_blu.png","../images/org_blu.png","../images/cyn_red.png","../images/blu_wht.png","../images/gry_blk.png","../images/ylw_slt.png"],"mutagen_generator_assignment":[0,1],"goal":4,"start":1,"action_noise":0.15,"location_history":"[1,2,3,2,3,4]","action_history":"[0,1,1,1,0]","mutagen_history":"[0,1,1,1,0]","location_rts":"[2007,692,300,472,312]","trial_type":"fractal-mutation","trial_index":84,"time_elapsed":1820905,"internal_node_id":"0.0-5.0-30.0"},{"group":"hexagon_bi","fractal_assignment":["../images/pnk_blu.png","../images/org_blu.png","../images/cyn_red.png","../images/blu_wht.png","../images/gry_blk.png","../images/ylw_slt.png"],"mutagen_generator_assignment":[0,1],"goal":5,"start":4,"action_noise":0.15,"location_history":"[4,3,4,3,2,1,2,1,2,3,4,5]","action_history":"[0,0,1,1,0,0,0,0,0,0,1]","mutagen_history":"[0,0,1,1,0,0,0,0,0,0,1]","location_rts":"[1380,345,1495,690,420,735,479,782,823,533,1962]","trial_type":"fractal-mutation","trial_index":85,"time_elapsed":1845219,"internal_node_id":"0.0-5.0-31.0"},{"group":"hexagon_bi","fractal_assignment":["../images/pnk_blu.png","../images/org_blu.png","../images/cyn_red.png","../images/blu_wht.png","../images/gry_blk.png","../images/ylw_slt.png"],"mutagen_generator_assignment":[0,1],"goal":0,"start":5,"action_noise":0.15,"location_history":"[5,4,5,0]","action_history":"[1,1,0]","mutagen_history":"[1,1,0]","location_rts":"[1091,1404,463]","trial_type":"fractal-mutation","trial_index":86,"time_elapsed":1854729,"internal_node_id":"0.0-5.0-32.0"},{"group":"hexagon_bi","fractal_assignment":["../images/pnk_blu.png","../images/org_blu.png","../images/cyn_red.png","../images/blu_wht.png","../images/gry_blk.png","../images/ylw_slt.png"],"mutagen_generator_assignment":[0,1],"goal":2,"start":0,"action_noise":0.15,"location_history":"[0,5,4,3,2]","action_history":"[0,1,0,1]","mutagen_history":"[0,1,0,1]","location_rts":"[2019,559,537,504]","trial_type":"fractal-mutation","trial_index":87,"time_elapsed":1865905,"internal_node_id":"0.0-5.0-33.0"},{"group":"hexagon_bi","fractal_assignment":["../images/pnk_blu.png","../images/org_blu.png","../images/cyn_red.png","../images/blu_wht.png","../images/gry_blk.png","../images/ylw_slt.png"],"mutagen_generator_assignment":[0,1],"goal":0,"start":2,"action_noise":0.15,"location_history":"[2,3,4,5,0]","action_history":"[1,0,1,0]","mutagen_history":"[1,0,1,0]","location_rts":"[4074,439,536,1317]","trial_type":"fractal-mutation","trial_index":88,"time_elapsed":1879832,"internal_node_id":"0.0-5.0-34.0"},{"group":"hexagon_bi","fractal_assignment":["../images/pnk_blu.png","../images/org_blu.png","../images/cyn_red.png","../images/blu_wht.png","../images/gry_blk.png","../images/ylw_slt.png"],"mutagen_generator_assignment":[0,1],"goal":5,"start":0,"action_noise":0.15,"location_history":"[0,5]","action_history":"[0]","mutagen_history":"[0]","location_rts":"[911]","trial_type":"fractal-mutation","trial_index":89,"time_elapsed":1885257,"internal_node_id":"0.0-5.0-35.0"},{"group":"hexagon_bi","fractal_assignment":["../images/pnk_blu.png","../images/org_blu.png","../images/cyn_red.png","../images/blu_wht.png","../images/gry_blk.png","../images/ylw_slt.png"],"mutagen_generator_assignment":[0,1],"goal":1,"start":5,"action_noise":0.15,"location_history":"[5,4,5,0,1]","action_history":"[1,1,0,1]","mutagen_history":"[1,1,0,1]","location_rts":"[1459,451,735,347]","trial_type":"fractal-mutation","trial_index":90,"time_elapsed":1895837,"internal_node_id":"0.0-5.0-36.0"},{"group":"hexagon_bi","fractal_assignment":["../images/pnk_blu.png","../images/org_blu.png","../images/cyn_red.png","../images/blu_wht.png","../images/gry_blk.png","../images/ylw_slt.png"],"mutagen_generator_assignment":[0,1],"goal":4,"start":1,"action_noise":0.15,"location_history":"[1,0,5,4]","action_history":"[1,1,1]","mutagen_history":"[1,1,1]","location_rts":"[5091,535,2080]","trial_type":"fractal-mutation","trial_index":91,"time_elapsed":1910143,"internal_node_id":"0.0-5.0-37.0"},{"group":"hexagon_bi","fractal_assignment":["../images/pnk_blu.png","../images/org_blu.png","../images/cyn_red.png","../images/blu_wht.png","../images/gry_blk.png","../images/ylw_slt.png"],"mutagen_generator_assignment":[0,1],"goal":3,"start":4,"action_noise":0.15,"location_history":"[4,5,4,3]","action_history":"[1,1,0]","mutagen_history":"[1,1,0]","location_rts":"[3395,1835,708]","trial_type":"fractal-mutation","trial_index":92,"time_elapsed":1922639,"internal_node_id":"0.0-5.0-38.0"},{"group":"hexagon_bi","fractal_assignment":["../images/pnk_blu.png","../images/org_blu.png","../images/cyn_red.png","../images/blu_wht.png","../images/gry_blk.png","../images/ylw_slt.png"],"mutagen_generator_assignment":[0,1],"goal":5,"start":3,"action_noise":0.15,"location_history":"[3,4,3,4,5]","action_history":"[0,0,0,1]","mutagen_history":"[0,0,0,1]","location_rts":"[10263,360,781,244]","trial_type":"fractal-mutation","trial_index":93,"time_elapsed":1941852,"internal_node_id":"0.0-5.0-39.0"},{"group":"hexagon_bi","fractal_assignment":["../images/pnk_blu.png","../images/org_blu.png","../images/cyn_red.png","../images/blu_wht.png","../images/gry_blk.png","../images/ylw_slt.png"],"mutagen_generator_assignment":[0,1],"goal":1,"start":5,"action_noise":0.15,"location_history":"[5,0,1]","action_history":"[0,1]","mutagen_history":"[0,1]","location_rts":"[1661,1009]","trial_type":"fractal-mutation","trial_index":94,"time_elapsed":1950053,"internal_node_id":"0.0-5.0-40.0"},{"group":"hexagon_bi","fractal_assignment":["../images/pnk_blu.png","../images/org_blu.png","../images/cyn_red.png","../images/blu_wht.png","../images/gry_blk.png","../images/ylw_slt.png"],"mutagen_generator_assignment":[0,1],"goal":2,"start":1,"action_noise":0.15,"location_history":"[1,0,5,4,3,2]","action_history":"[1,0,1,0,1]","mutagen_history":"[1,0,1,0,1]","location_rts":"[1258,924,256,292,385]","trial_type":"fractal-mutation","trial_index":95,"time_elapsed":1961802,"internal_node_id":"0.0-5.0-41.0"},{"group":"hexagon_bi","fractal_assignment":["../images/pnk_blu.png","../images/org_blu.png","../images/cyn_red.png","../images/blu_wht.png","../images/gry_blk.png","../images/ylw_slt.png"],"mutagen_generator_assignment":[0,1],"goal":4,"start":2,"action_noise":0.15,"location_history":"[2,1,0,5,4]","action_history":"[0,1,0,1]","mutagen_history":"[0,1,0,1]","location_rts":"[913,1042,636,469]","trial_type":"fractal-mutation","trial_index":96,"time_elapsed":1972425,"internal_node_id":"0.0-5.0-42.0"},{"group":"hexagon_bi","fractal_assignment":["../images/pnk_blu.png","../images/org_blu.png","../images/cyn_red.png","../images/blu_wht.png","../images/gry_blk.png","../images/ylw_slt.png"],"mutagen_generator_assignment":[0,1],"goal":0,"start":4,"action_noise":0.15,"location_history":"[4,5,0]","action_history":"[1,1]","mutagen_history":"[1,1]","location_rts":"[59981,1614]","trial_type":"fractal-mutation","trial_index":97,"time_elapsed":2039578,"internal_node_id":"0.0-5.0-43.0"},{"group":"hexagon_bi","fractal_assignment":["../images/pnk_blu.png","../images/org_blu.png","../images/cyn_red.png","../images/blu_wht.png","../images/gry_blk.png","../images/ylw_slt.png"],"mutagen_generator_assignment":[0,1],"goal":3,"start":0,"action_noise":0.15,"location_history":"[0,5,0,5,4,3]","action_history":"[0,0,0,1,0]","mutagen_history":"[0,0,0,1,0]","location_rts":"[1654,2016,759,301,240]","trial_type":"fractal-mutation","trial_index":98,"time_elapsed":2053128,"internal_node_id":"0.0-5.0-44.0"},{"group":"hexagon_bi","fractal_assignment":["../images/pnk_blu.png","../images/org_blu.png","../images/cyn_red.png","../images/blu_wht.png","../images/gry_blk.png","../images/ylw_slt.png"],"mutagen_generator_assignment":[0,1],"goal":0,"start":3,"action_noise":0.15,"location_history":"[3,2,1,2,3,4,5,0]","action_history":"[1,0,0,1,1,1,1]","mutagen_history":"[1,0,0,1,1,1,1]","location_rts":"[2339,460,634,921,1056,717,814]","trial_type":"fractal-mutation","trial_index":99,"time_elapsed":2070702,"internal_node_id":"0.0-5.0-45.0"},{"group":"hexagon_bi","fractal_assignment":["../images/pnk_blu.png","../images/org_blu.png","../images/cyn_red.png","../images/blu_wht.png","../images/gry_blk.png","../images/ylw_slt.png"],"mutagen_generator_assignment":[0,1],"goal":4,"start":0,"action_noise":0.15,"location_history":"[0,5,4]","action_history":"[0,1]","mutagen_history":"[0,1]","location_rts":"[1905,315]","trial_type":"fractal-mutation","trial_index":100,"time_elapsed":2078468,"internal_node_id":"0.0-5.0-46.0"},{"group":"hexagon_bi","fractal_assignment":["../images/pnk_blu.png","../images/org_blu.png","../images/cyn_red.png","../images/blu_wht.png","../images/gry_blk.png","../images/ylw_slt.png"],"mutagen_generator_assignment":[0,1],"goal":5,"start":4,"action_noise":0.15,"location_history":"[4,5]","action_history":"[1]","mutagen_history":"[1]","location_rts":"[1871]","trial_type":"fractal-mutation","trial_index":101,"time_elapsed":2084856,"internal_node_id":"0.0-5.0-47.0"},{"group":"hexagon_bi","fractal_assignment":["../images/pnk_blu.png","../images/org_blu.png","../images/cyn_red.png","../images/blu_wht.png","../images/gry_blk.png","../images/ylw_slt.png"],"mutagen_generator_assignment":[0,1],"goal":2,"start":5,"action_noise":0.15,"location_history":"[5,4,5,0,5,4,3,2]","action_history":"[0,1,0,0,1,0,1]","mutagen_history":"[0,1,0,0,1,0,1]","location_rts":"[2572,760,1145,716,596,264,284]","trial_type":"fractal-mutation","trial_index":102,"time_elapsed":2101832,"internal_node_id":"0.0-5.0-48.0"},{"group":"hexagon_bi","fractal_assignment":["../images/pnk_blu.png","../images/org_blu.png","../images/cyn_red.png","../images/blu_wht.png","../images/gry_blk.png","../images/ylw_slt.png"],"mutagen_generator_assignment":[0,1],"goal":1,"start":2,"action_noise":0.15,"location_history":"[2,3,2,3,4,5,0,5,0,1]","action_history":"[1,1,1,0,0,0,1,1,1]","mutagen_history":"[1,1,1,0,0,0,1,1,1]","location_rts":"[1144,590,648,1162,747,1187,423,668,757]","trial_type":"fractal-mutation","trial_index":103,"time_elapsed":2121828,"internal_node_id":"0.0-5.0-49.0"},{"view_history":"[{\"page_index\":0,\"viewing_time\":4760}]","rt":4760,"trial_type":"instructions","trial_index":104,"time_elapsed":2127588,"internal_node_id":"0.0-6.0"},{"rt":31483,"responses":"{\"Q0\":\"memory for color patterns dont really know\"}","trial_type":"survey-text","trial_index":105,"time_elapsed":2160075,"internal_node_id":"0.0-7.0-0.0"},{"rt":7774,"responses":"{\"Q0\":\"dont know\"}","trial_type":"survey-text","trial_index":106,"time_elapsed":2168850,"internal_node_id":"0.0-7.0-1.0"},{"rt":25093,"responses":"{\"Q0\":\"<img src='../images/diagrams/hexagon_tri.png'>\"}","trial_type":"survey-multi-choice","trial_index":107,"time_elapsed":2194949,"internal_node_id":"0.0-7.0-2.0"},{"rt":45625,"assignments":["../images/pnk_blu.png","../images/org_blu.png","../images/gry_blk.png","../images/blu_wht.png","../images/cyn_red.png","../images/ylw_slt.png"],"trial_type":"drag-drop-on-image","trial_index":108,"time_elapsed":2241577,"internal_node_id":"0.0-7.0-3.0"},{"rt":3727,"responses":"{\"Q0\":\"3\"}","trial_type":"survey-likert","trial_index":109,"time_elapsed":2246306,"internal_node_id":"0.0-7.0-4.0"},{"rt":84890,"responses":"{\"Q0\":\"both followed similar rules they both had an order they followed if the random element didn't happen \"}","trial_type":"survey-text","trial_index":110,"time_elapsed":2332199,"internal_node_id":"0.0-7.0-5.0"},{"rt":11826,"responses":"{\"Q0\":\"Yes\"}","trial_type":"survey-multi-choice","trial_index":111,"time_elapsed":2345029,"internal_node_id":"0.0-7.0-6.0"},{"rt":4793,"responses":"{\"Q0\":\"During session 1\"}","trial_type":"survey-multi-choice","trial_index":112,"time_elapsed":2350828,"internal_node_id":"0.0-7.0-7.0"},{"rt":124111,"responses":"{\"Q0\":\"as i stated beofre they both had a random element but if the random element didnt happen then they both followed the  same type of patten, ie: red green yellow or grey purple blue, the only main difference between the 2 was that with the doors if i was in one section and i was asked to go to a color that was not in that order i had to wait for a ghost in order to find my room \"}","trial_type":"survey-text","trial_index":113,"time_elapsed":2475941,"internal_node_id":"0.0-7.0-8.0"},{"rt":7031,"responses":"{\"Q0\":\"3\"}","trial_type":"survey-likert","trial_index":114,"time_elapsed":2483974,"internal_node_id":"0.0-7.0-9.0"},{"rt":18913,"responses":"{\"Q0\":\"Same structure\"}","trial_type":"survey-multi-choice","trial_index":115,"time_elapsed":2503891,"internal_node_id":"0.0-7.0-10.0"},{"rt":57730,"responses":"{\"Q0\":\"left (black) door = ray, right (white) door = acid\",\"Q1\":\"Moderately confident\"}","trial_type":"survey-multi-choice","trial_index":116,"time_elapsed":2562634,"internal_node_id":"0.0-7.0-11.0"},{"rt":8177,"responses":"{\"Q0\":\"25-35\",\"Q1\":\"Associates or other two-year degree\",\"Q2\":\"Male\",\"Q3\":\"White\"}","trial_type":"survey-multi-choice","trial_index":117,"time_elapsed":2571818,"internal_node_id":"0.0-8.0"},{"rt":16937,"responses":"{\"Q0\":\"i enjoyed it thank you!\"}","trial_type":"survey-text","trial_index":118,"time_elapsed":2589757,"internal_node_id":"0.0-9.0"}]