[{"view_history":"[{\"page_index\":0,\"viewing_time\":10746},{\"page_index\":1,\"viewing_time\":1351}]","rt":12098,"trial_type":"instructions","trial_index":0,"time_elapsed":12098,"internal_node_id":"0.0-0.0"},{"view_history":"[{\"page_index\":0,\"viewing_time\":884},{\"page_index\":1,\"viewing_time\":914}]","rt":1798,"trial_type":"instructions","trial_index":1,"time_elapsed":14898,"internal_node_id":"0.0-1.0"},{"group":"hexagon_bi","room_assignment":["grey","purple","blue","red","yellow","green"],"door_color_assignment":["black","white"],"door_generator_assignment":[0,1],"goal":2,"start":1,"action_noise":0.15,"location_history":"[1,0,1,2]","action_history":"[0,1,0]","door_history":"[0,1,0]","location_rts":"[2804,1225,1556]","trial_type":"two-door-navigation","trial_index":2,"time_elapsed":27044,"internal_node_id":"0.0-2.0-0.0"},{"group":"hexagon_bi","room_assignment":["grey","purple","blue","red","yellow","green"],"door_color_assignment":["black","white"],"door_generator_assignment":[0,1],"goal":0,"start":2,"action_noise":0.15,"location_history":"[2,1,0]","action_history":"[0,1]","door_history":"[0,1]","location_rts":"[3213,309]","trial_type":"two-door-navigation","trial_index":3,"time_elapsed":36103,"internal_node_id":"0.0-2.0-1.0"},{"group":"hexagon_bi","room_assignment":["grey","purple","blue","red","yellow","green"],"door_color_assignment":["black","white"],"door_generator_assignment":[0,1],"goal":5,"start":0,"action_noise":0.15,"location_history":"[0,5]","action_history":"[0]","door_history":"[0]","location_rts":"[2674]","trial_type":"two-door-navigation","trial_index":4,"time_elapsed":43295,"internal_node_id":"0.0-2.0-2.0"},{"group":"hexagon_bi","room_assignment":["grey","purple","blue","red","yellow","green"],"door_color_assignment":["black","white"],"door_generator_assignment":[0,1],"goal":1,"start":5,"action_noise":0.15,"location_history":"[5,0,1]","action_history":"[0,1]","door_history":"[0,1]","location_rts":"[1634,336]","trial_type":"two-door-navigation","trial_index":5,"time_elapsed":50800,"internal_node_id":"0.0-2.0-3.0"},{"group":"hexagon_bi","room_assignment":["grey","purple","blue","red","yellow","green"],"door_color_assignment":["black","white"],"door_generator_assignment":[0,1],"goal":3,"start":1,"action_noise":0.15,"location_history":"[1,0,1,2,3]","action_history":"[1,1,0,1]","door_history":"[1,1,0,1]","location_rts":"[1614,1974,340,469]","trial_type":"two-door-navigation","trial_index":6,"time_elapsed":62775,"internal_node_id":"0.0-2.0-4.0"},{"group":"hexagon_bi","room_assignment":["grey","purple","blue","red","yellow","green"],"door_color_assignment":["black","white"],"door_generator_assignment":[0,1],"goal":5,"start":3,"action_noise":0.15,"location_history":"[3,2,1,0,5]","action_history":"[1,0,1,0]","door_history":"[1,0,1,0]","location_rts":"[3307,3316,384,342]","trial_type":"two-door-navigation","trial_index":7,"time_elapsed":77696,"internal_node_id":"0.0-2.0-5.0"},{"group":"hexagon_bi","room_assignment":["grey","purple","blue","red","yellow","green"],"door_color_assignment":["black","white"],"door_generator_assignment":[0,1],"goal":4,"start":5,"action_noise":0.15,"location_history":"[5,0,5,4]","action_history":"[0,0,1]","door_history":"[0,0,1]","location_rts":"[1857,770,285]","trial_type":"two-door-navigation","trial_index":8,"time_elapsed":87169,"internal_node_id":"0.0-2.0-6.0"},{"group":"hexagon_bi","room_assignment":["grey","purple","blue","red","yellow","green"],"door_color_assignment":["black","white"],"door_generator_assignment":[0,1],"goal":0,"start":4,"action_noise":0.15,"location_history":"[4,5,0]","action_history":"[1,0]","door_history":"[1,0]","location_rts":"[2944,264]","trial_type":"two-door-navigation","trial_index":9,"time_elapsed":95912,"internal_node_id":"0.0-2.0-7.0"},{"group":"hexagon_bi","room_assignment":["grey","purple","blue","red","yellow","green"],"door_color_assignment":["black","white"],"door_generator_assignment":[0,1],"goal":2,"start":0,"action_noise":0.15,"location_history":"[0,1,2]","action_history":"[1,0]","door_history":"[1,0]","location_rts":"[2151,626]","trial_type":"two-door-navigation","trial_index":10,"time_elapsed":104223,"internal_node_id":"0.0-2.0-8.0"},{"group":"hexagon_bi","room_assignment":["grey","purple","blue","red","yellow","green"],"door_color_assignment":["black","white"],"door_generator_assignment":[0,1],"goal":4,"start":2,"action_noise":0.15,"location_history":"[2,3,4]","action_history":"[1,0]","door_history":"[1,0]","location_rts":"[1920,1244]","trial_type":"two-door-navigation","trial_index":11,"time_elapsed":112929,"internal_node_id":"0.0-2.0-9.0"},{"group":"hexagon_bi","room_assignment":["grey","purple","blue","red","yellow","green"],"door_color_assignment":["black","white"],"door_generator_assignment":[0,1],"goal":2,"start":4,"action_noise":0.15,"location_history":"[4,3,2]","action_history":"[0,1]","door_history":"[0,1]","location_rts":"[2208,397]","trial_type":"two-door-navigation","trial_index":12,"time_elapsed":121065,"internal_node_id":"0.0-2.0-10.0"},{"group":"hexagon_bi","room_assignment":["grey","purple","blue","red","yellow","green"],"door_color_assignment":["black","white"],"door_generator_assignment":[0,1],"goal":3,"start":2,"action_noise":0.15,"location_history":"[2,1,0,1,2,3]","action_history":"[0,1,1,0,1]","door_history":"[0,1,1,0,1]","location_rts":"[4327,1447,2126,542,408]","trial_type":"two-door-navigation","trial_index":13,"time_elapsed":138504,"internal_node_id":"0.0-2.0-11.0"},{"group":"hexagon_bi","room_assignment":["grey","purple","blue","red","yellow","green"],"door_color_assignment":["black","white"],"door_generator_assignment":[0,1],"goal":0,"start":3,"action_noise":0.15,"location_history":"[3,4,5,4,5,4,3,4,5,4,3,2,1,0]","action_history":"[1,0,1,0,1,0,0,1,1,1,1,0,1]","door_history":"[1,0,1,0,1,0,0,1,1,1,1,0,1]","location_rts":"[5064,1911,582,1936,390,682,1366,797,1389,798,1759,341,437]","trial_type":"two-door-navigation","trial_index":14,"time_elapsed":172685,"internal_node_id":"0.0-2.0-12.0"},{"group":"hexagon_bi","room_assignment":["grey","purple","blue","red","yellow","green"],"door_color_assignment":["black","white"],"door_generator_assignment":[0,1],"goal":5,"start":0,"action_noise":0.15,"location_history":"[0,5]","action_history":"[0]","door_history":"[0]","location_rts":"[1259]","trial_type":"two-door-navigation","trial_index":15,"time_elapsed":178465,"internal_node_id":"0.0-2.0-13.0"},{"group":"hexagon_bi","room_assignment":["grey","purple","blue","red","yellow","green"],"door_color_assignment":["black","white"],"door_generator_assignment":[0,1],"goal":1,"start":5,"action_noise":0.15,"location_history":"[5,4,5,0,1]","action_history":"[1,1,0,1]","door_history":"[1,1,0,1]","location_rts":"[1999,1013,313,279]","trial_type":"two-door-navigation","trial_index":16,"time_elapsed":189645,"internal_node_id":"0.0-2.0-14.0"},{"group":"hexagon_bi","room_assignment":["grey","purple","blue","red","yellow","green"],"door_color_assignment":["black","white"],"door_generator_assignment":[0,1],"goal":5,"start":1,"action_noise":0.15,"location_history":"[1,0,5]","action_history":"[1,0]","door_history":"[1,0]","location_rts":"[3986,582]","trial_type":"two-door-navigation","trial_index":17,"time_elapsed":199751,"internal_node_id":"0.0-2.0-15.0"},{"group":"hexagon_bi","room_assignment":["grey","purple","blue","red","yellow","green"],"door_color_assignment":["black","white"],"door_generator_assignment":[0,1],"goal":3,"start":5,"action_noise":0.15,"location_history":"[5,0,1,0,1,2,1,0,1,2,3]","action_history":"[0,1,0,1,0,1,1,1,0,1]","door_history":"[0,1,0,1,0,1,1,1,0,1]","location_rts":"[2808,817,511,311,297,447,1470,749,233,279]","trial_type":"two-door-navigation","trial_index":18,"time_elapsed":221342,"internal_node_id":"0.0-2.0-16.0"},{"group":"hexagon_bi","room_assignment":["grey","purple","blue","red","yellow","green"],"door_color_assignment":["black","white"],"door_generator_assignment":[0,1],"goal":2,"start":3,"action_noise":0.15,"location_history":"[3,4,3,2]","action_history":"[0,0,1]","door_history":"[0,0,1]","location_rts":"[2569,727,388]","trial_type":"two-door-navigation","trial_index":19,"time_elapsed":231582,"internal_node_id":"0.0-2.0-17.0"},{"group":"hexagon_bi","room_assignment":["grey","purple","blue","red","yellow","green"],"door_color_assignment":["black","white"],"door_generator_assignment":[0,1],"goal":1,"start":2,"action_noise":0.15,"location_history":"[2,3,4,3,4,5,0,1]","action_history":"[0,0,1,0,1,0,1]","door_history":"[0,0,1,0,1,0,1]","location_rts":"[1569,984,256,902,237,2268,928]","trial_type":"two-door-navigation","trial_index":20,"time_elapsed":249345,"internal_node_id":"0.0-2.0-18.0"},{"group":"hexagon_bi","room_assignment":["grey","purple","blue","red","yellow","green"],"door_color_assignment":["black","white"],"door_generator_assignment":[0,1],"goal":4,"start":1,"action_noise":0.15,"location_history":"[1,2,1,2,3,2,1,2,1,2,3,4]","action_history":"[0,1,0,1,1,1,0,0,0,1,0]","door_history":"[0,1,0,1,1,1,0,0,0,1,0]","location_rts":"[5976,936,768,767,1119,768,193,1263,1320,669,389]","trial_type":"two-door-navigation","trial_index":21,"time_elapsed":278200,"internal_node_id":"0.0-2.0-19.0"},{"group":"hexagon_bi","room_assignment":["grey","purple","blue","red","yellow","green"],"door_color_assignment":["black","white"],"door_generator_assignment":[0,1],"goal":0,"start":4,"action_noise":0.15,"location_history":"[4,3,2,1,0]","action_history":"[0,1,0,1]","door_history":"[0,1,0,1]","location_rts":"[1976,1365,287,254]","trial_type":"two-door-navigation","trial_index":22,"time_elapsed":289655,"internal_node_id":"0.0-2.0-20.0"},{"group":"hexagon_bi","room_assignment":["grey","purple","blue","red","yellow","green"],"door_color_assignment":["black","white"],"door_generator_assignment":[0,1],"goal":3,"start":0,"action_noise":0.15,"location_history":"[0,1,2,1,0,1,2,3]","action_history":"[1,0,1,0,1,0,1]","door_history":"[1,0,1,0,1,0,1]","location_rts":"[1570,254,278,815,687,239,270]","trial_type":"two-door-navigation","trial_index":23,"time_elapsed":304396,"internal_node_id":"0.0-2.0-21.0"},{"group":"hexagon_bi","room_assignment":["grey","purple","blue","red","yellow","green"],"door_color_assignment":["black","white"],"door_generator_assignment":[0,1],"goal":1,"start":3,"action_noise":0.15,"location_history":"[3,4,5,0,1]","action_history":"[0,1,0,1]","door_history":"[0,1,0,1]","location_rts":"[3077,283,481,598]","trial_type":"two-door-navigation","trial_index":24,"time_elapsed":316404,"internal_node_id":"0.0-2.0-22.0"},{"group":"hexagon_bi","room_assignment":["grey","purple","blue","red","yellow","green"],"door_color_assignment":["black","white"],"door_generator_assignment":[0,1],"goal":0,"start":1,"action_noise":0.15,"location_history":"[1,2,1,0]","action_history":"[0,0,1]","door_history":"[0,0,1]","location_rts":"[2356,427,337]","trial_type":"two-door-navigation","trial_index":25,"time_elapsed":326078,"internal_node_id":"0.0-2.0-23.0"},{"group":"hexagon_bi","room_assignment":["grey","purple","blue","red","yellow","green"],"door_color_assignment":["black","white"],"door_generator_assignment":[0,1],"goal":2,"start":0,"action_noise":0.15,"location_history":"[0,1,2]","action_history":"[1,0]","door_history":"[1,0]","location_rts":"[43161,645]","trial_type":"two-door-navigation","trial_index":26,"time_elapsed":375426,"internal_node_id":"0.0-2.0-24.0"},{"group":"hexagon_bi","room_assignment":["grey","purple","blue","red","yellow","green"],"door_color_assignment":["black","white"],"door_generator_assignment":[0,1],"goal":4,"start":2,"action_noise":0.15,"location_history":"[2,3,4]","action_history":"[1,0]","door_history":"[1,0]","location_rts":"[3077,568]","trial_type":"two-door-navigation","trial_index":27,"time_elapsed":384610,"internal_node_id":"0.0-2.0-25.0"},{"group":"hexagon_bi","room_assignment":["grey","purple","blue","red","yellow","green"],"door_color_assignment":["black","white"],"door_generator_assignment":[0,1],"goal":5,"start":4,"action_noise":0.15,"location_history":"[4,3,4,5]","action_history":"[0,0,1]","door_history":"[0,0,1]","location_rts":"[1278,608,289]","trial_type":"two-door-navigation","trial_index":28,"time_elapsed":393336,"internal_node_id":"0.0-2.0-26.0"},{"group":"hexagon_bi","room_assignment":["grey","purple","blue","red","yellow","green"],"door_color_assignment":["black","white"],"door_generator_assignment":[0,1],"goal":2,"start":5,"action_noise":0.15,"location_history":"[5,0,1,2]","action_history":"[0,1,0]","door_history":"[0,1,0]","location_rts":"[2001,303,320]","trial_type":"two-door-navigation","trial_index":29,"time_elapsed":402512,"internal_node_id":"0.0-2.0-27.0"},{"group":"hexagon_bi","room_assignment":["grey","purple","blue","red","yellow","green"],"door_color_assignment":["black","white"],"door_generator_assignment":[0,1],"goal":3,"start":2,"action_noise":0.15,"location_history":"[2,3]","action_history":"[1]","door_history":"[1]","location_rts":"[15169]","trial_type":"two-door-navigation","trial_index":30,"time_elapsed":422201,"internal_node_id":"0.0-2.0-28.0"},{"group":"hexagon_bi","room_assignment":["grey","purple","blue","red","yellow","green"],"door_color_assignment":["black","white"],"door_generator_assignment":[0,1],"goal":1,"start":3,"action_noise":0.15,"location_history":"[3,4,5,0,1]","action_history":"[0,1,0,1]","door_history":"[0,1,0,1]","location_rts":"[4222,262,973,286]","trial_type":"two-door-navigation","trial_index":31,"time_elapsed":435521,"internal_node_id":"0.0-2.0-29.0"},{"group":"hexagon_bi","room_assignment":["grey","purple","blue","red","yellow","green"],"door_color_assignment":["black","white"],"door_generator_assignment":[0,1],"goal":4,"start":1,"action_noise":0.15,"location_history":"[1,2,1,0,1,2,3,2,3,4]","action_history":"[0,1,0,1,0,1,0,1,0]","door_history":"[0,1,0,1,0,1,0,1,0]","location_rts":"[2807,439,222,887,337,335,288,714,286]","trial_type":"two-door-navigation","trial_index":32,"time_elapsed":454488,"internal_node_id":"0.0-2.0-30.0"},{"group":"hexagon_bi","room_assignment":["grey","purple","blue","red","yellow","green"],"door_color_assignment":["black","white"],"door_generator_assignment":[0,1],"goal":5,"start":4,"action_noise":0.15,"location_history":"[4,5]","action_history":"[1]","door_history":"[1]","location_rts":"[2807]","trial_type":"two-door-navigation","trial_index":33,"time_elapsed":461818,"internal_node_id":"0.0-2.0-31.0"},{"group":"hexagon_bi","room_assignment":["grey","purple","blue","red","yellow","green"],"door_color_assignment":["black","white"],"door_generator_assignment":[0,1],"goal":0,"start":5,"action_noise":0.15,"location_history":"[5,0]","action_history":"[0]","door_history":"[0]","location_rts":"[2944]","trial_type":"two-door-navigation","trial_index":34,"time_elapsed":469280,"internal_node_id":"0.0-2.0-32.0"},{"group":"hexagon_bi","room_assignment":["grey","purple","blue","red","yellow","green"],"door_color_assignment":["black","white"],"door_generator_assignment":[0,1],"goal":2,"start":0,"action_noise":0.15,"location_history":"[0,1,2]","action_history":"[1,0]","door_history":"[1,0]","location_rts":"[1783,271]","trial_type":"two-door-navigation","trial_index":35,"time_elapsed":476870,"internal_node_id":"0.0-2.0-33.0"},{"group":"hexagon_bi","room_assignment":["grey","purple","blue","red","yellow","green"],"door_color_assignment":["black","white"],"door_generator_assignment":[0,1],"goal":0,"start":2,"action_noise":0.15,"location_history":"[2,1,2,1,2,1,2,1,0]","action_history":"[0,1,0,1,0,0,0,1]","door_history":"[0,1,0,1,0,0,0,1]","location_rts":"[6084,518,796,297,3591,359,520,334]","trial_type":"two-door-navigation","trial_index":36,"time_elapsed":501008,"internal_node_id":"0.0-2.0-34.0"},{"group":"hexagon_bi","room_assignment":["grey","purple","blue","red","yellow","green"],"door_color_assignment":["black","white"],"door_generator_assignment":[0,1],"goal":5,"start":0,"action_noise":0.15,"location_history":"[0,5]","action_history":"[0]","door_history":"[0]","location_rts":"[1441]","trial_type":"two-door-navigation","trial_index":37,"time_elapsed":506968,"internal_node_id":"0.0-2.0-35.0"},{"group":"hexagon_bi","room_assignment":["grey","purple","blue","red","yellow","green"],"door_color_assignment":["black","white"],"door_generator_assignment":[0,1],"goal":1,"start":5,"action_noise":0.15,"location_history":"[5,0,1]","action_history":"[0,1]","door_history":"[0,1]","location_rts":"[2018,310]","trial_type":"two-door-navigation","trial_index":38,"time_elapsed":514830,"internal_node_id":"0.0-2.0-36.0"},{"group":"hexagon_bi","room_assignment":["grey","purple","blue","red","yellow","green"],"door_color_assignment":["black","white"],"door_generator_assignment":[0,1],"goal":4,"start":1,"action_noise":0.15,"location_history":"[1,2,3,4]","action_history":"[0,1,0]","door_history":"[0,1,0]","location_rts":"[1794,423,249]","trial_type":"two-door-navigation","trial_index":39,"time_elapsed":523849,"internal_node_id":"0.0-2.0-37.0"},{"group":"hexagon_bi","room_assignment":["grey","purple","blue","red","yellow","green"],"door_color_assignment":["black","white"],"door_generator_assignment":[0,1],"goal":3,"start":4,"action_noise":0.15,"location_history":"[4,3]","action_history":"[0]","door_history":"[0]","location_rts":"[1766]","trial_type":"two-door-navigation","trial_index":40,"time_elapsed":530138,"internal_node_id":"0.0-2.0-38.0"},{"group":"hexagon_bi","room_assignment":["grey","purple","blue","red","yellow","green"],"door_color_assignment":["black","white"],"door_generator_assignment":[0,1],"goal":5,"start":3,"action_noise":0.15,"location_history":"[3,2,1,2,1,0,1,2,1,0,5]","action_history":"[1,0,1,0,1,0,0,0,1,0]","door_history":"[1,0,1,0,1,0,0,0,1,0]","location_rts":"[2280,621,320,639,355,560,1832,2529,704,358]","trial_type":"two-door-navigation","trial_index":41,"time_elapsed":554009,"internal_node_id":"0.0-2.0-39.0"},{"group":"hexagon_bi","room_assignment":["grey","purple","blue","red","yellow","green"],"door_color_assignment":["black","white"],"door_generator_assignment":[0,1],"goal":1,"start":5,"action_noise":0.15,"location_history":"[5,0,1]","action_history":"[0,1]","door_history":"[0,1]","location_rts":"[3256,252]","trial_type":"two-door-navigation","trial_index":42,"time_elapsed":563054,"internal_node_id":"0.0-2.0-40.0"},{"group":"hexagon_bi","room_assignment":["grey","purple","blue","red","yellow","green"],"door_color_assignment":["black","white"],"door_generator_assignment":[0,1],"goal":2,"start":1,"action_noise":0.15,"location_history":"[1,2]","action_history":"[0]","door_history":"[0]","location_rts":"[2011]","trial_type":"two-door-navigation","trial_index":43,"time_elapsed":569585,"internal_node_id":"0.0-2.0-41.0"},{"group":"hexagon_bi","room_assignment":["grey","purple","blue","red","yellow","green"],"door_color_assignment":["black","white"],"door_generator_assignment":[0,1],"goal":4,"start":2,"action_noise":0.15,"location_history":"[2,1,0,5,4]","action_history":"[0,1,0,1]","door_history":"[0,1,0,1]","location_rts":"[1952,288,481,325]","trial_type":"two-door-navigation","trial_index":44,"time_elapsed":580201,"internal_node_id":"0.0-2.0-42.0"},{"group":"hexagon_bi","room_assignment":["grey","purple","blue","red","yellow","green"],"door_color_assignment":["black","white"],"door_generator_assignment":[0,1],"goal":0,"start":4,"action_noise":0.15,"location_history":"[4,3,4,5,0]","action_history":"[0,0,1,0]","door_history":"[0,0,1,0]","location_rts":"[2169,1169,259,232]","trial_type":"two-door-navigation","trial_index":45,"time_elapsed":591599,"internal_node_id":"0.0-2.0-43.0"},{"group":"hexagon_bi","room_assignment":["grey","purple","blue","red","yellow","green"],"door_color_assignment":["black","white"],"door_generator_assignment":[0,1],"goal":3,"start":0,"action_noise":0.15,"location_history":"[0,5,0,1,2,3]","action_history":"[1,0,1,0,1]","door_history":"[1,0,1,0,1]","location_rts":"[1785,254,814,349,257]","trial_type":"two-door-navigation","trial_index":46,"time_elapsed":603645,"internal_node_id":"0.0-2.0-44.0"},{"group":"hexagon_bi","room_assignment":["grey","purple","blue","red","yellow","green"],"door_color_assignment":["black","white"],"door_generator_assignment":[0,1],"goal":0,"start":3,"action_noise":0.15,"location_history":"[3,4,3,4,5,0]","action_history":"[0,1,0,1,0]","door_history":"[0,1,0,1,0]","location_rts":"[2332,990,263,365,305]","trial_type":"two-door-navigation","trial_index":47,"time_elapsed":616488,"internal_node_id":"0.0-2.0-45.0"},{"group":"hexagon_bi","room_assignment":["grey","purple","blue","red","yellow","green"],"door_color_assignment":["black","white"],"door_generator_assignment":[0,1],"goal":4,"start":0,"action_noise":0.15,"location_history":"[0,5,0,5,4]","action_history":"[0,1,0,1]","door_history":"[0,1,0,1]","location_rts":"[1752,254,927,212]","trial_type":"two-door-navigation","trial_index":48,"time_elapsed":627208,"internal_node_id":"0.0-2.0-46.0"},{"group":"hexagon_bi","room_assignment":["grey","purple","blue","red","yellow","green"],"door_color_assignment":["black","white"],"door_generator_assignment":[0,1],"goal":5,"start":4,"action_noise":0.15,"location_history":"[4,5]","action_history":"[1]","door_history":"[1]","location_rts":"[2351]","trial_type":"two-door-navigation","trial_index":49,"time_elapsed":634077,"internal_node_id":"0.0-2.0-47.0"},{"group":"hexagon_bi","room_assignment":["grey","purple","blue","red","yellow","green"],"door_color_assignment":["black","white"],"door_generator_assignment":[0,1],"goal":2,"start":5,"action_noise":0.15,"location_history":"[5,0,1,2]","action_history":"[0,1,0]","door_history":"[0,1,0]","location_rts":"[2091,852,239]","trial_type":"two-door-navigation","trial_index":50,"time_elapsed":643816,"internal_node_id":"0.0-2.0-48.0"},{"group":"hexagon_bi","room_assignment":["grey","purple","blue","red","yellow","green"],"door_color_assignment":["black","white"],"door_generator_assignment":[0,1],"goal":1,"start":2,"action_noise":0.15,"location_history":"[2,1]","action_history":"[0]","door_history":"[0]","location_rts":"[2121]","trial_type":"two-door-navigation","trial_index":51,"time_elapsed":650460,"internal_node_id":"0.0-2.0-49.0"},{"view_history":"[{\"page_index\":0,\"viewing_time\":2201452}]","rt":2201452,"trial_type":"instructions","trial_index":52,"time_elapsed":2852913,"internal_node_id":"0.0-3.0"},{"view_history":"[{\"page_index\":0,\"viewing_time\":1487},{\"page_index\":1,\"viewing_time\":1176}]","rt":2663,"trial_type":"instructions","trial_index":53,"time_elapsed":2856578,"internal_node_id":"0.0-4.0"},{"group":"hexagon_tri","fractal_assignment":["../images/blu_wht.png","../images/ylw_slt.png","../images/gry_blk.png","../images/cyn_red.png","../images/pnk_blu.png","../images/org_blu.png"],"mutagen_generator_assignment":[0,1],"goal":2,"start":1,"action_noise":0.15,"location_history":"[1,3,2]","action_history":"[0,0]","mutagen_history":"[0,0]","location_rts":"[26030,1070]","trial_type":"fractal-mutation","trial_index":54,"time_elapsed":2889221,"internal_node_id":"0.0-5.0-0.0"},{"group":"hexagon_tri","fractal_assignment":["../images/blu_wht.png","../images/ylw_slt.png","../images/gry_blk.png","../images/cyn_red.png","../images/pnk_blu.png","../images/org_blu.png"],"mutagen_generator_assignment":[0,1],"goal":0,"start":2,"action_noise":0.15,"location_history":"[2,1,5,4,0]","action_history":"[1,1,1,0]","mutagen_history":"[1,1,1,0]","location_rts":"[3210,1300,1079,1002]","trial_type":"fractal-mutation","trial_index":55,"time_elapsed":2903430,"internal_node_id":"0.0-5.0-1.0"},{"group":"hexagon_tri","fractal_assignment":["../images/blu_wht.png","../images/ylw_slt.png","../images/gry_blk.png","../images/cyn_red.png","../images/pnk_blu.png","../images/org_blu.png"],"mutagen_generator_assignment":[0,1],"goal":5,"start":0,"action_noise":0.15,"location_history":"[0,5]","action_history":"[0]","mutagen_history":"[0]","location_rts":"[8648]","trial_type":"fractal-mutation","trial_index":56,"time_elapsed":2916607,"internal_node_id":"0.0-5.0-2.0"},{"group":"hexagon_tri","fractal_assignment":["../images/blu_wht.png","../images/ylw_slt.png","../images/gry_blk.png","../images/cyn_red.png","../images/pnk_blu.png","../images/org_blu.png"],"mutagen_generator_assignment":[0,1],"goal":1,"start":5,"action_noise":0.15,"location_history":"[5,4,0,1]","action_history":"[1,0,0]","mutagen_history":"[1,0,0]","location_rts":"[2978,577,732]","trial_type":"fractal-mutation","trial_index":57,"time_elapsed":2927467,"internal_node_id":"0.0-5.0-3.0"},{"group":"hexagon_tri","fractal_assignment":["../images/blu_wht.png","../images/ylw_slt.png","../images/gry_blk.png","../images/cyn_red.png","../images/pnk_blu.png","../images/org_blu.png"],"mutagen_generator_assignment":[0,1],"goal":3,"start":1,"action_noise":0.15,"location_history":"[1,3]","action_history":"[0]","mutagen_history":"[0]","location_rts":"[1013]","trial_type":"fractal-mutation","trial_index":58,"time_elapsed":2933001,"internal_node_id":"0.0-5.0-4.0"},{"group":"hexagon_tri","fractal_assignment":["../images/blu_wht.png","../images/ylw_slt.png","../images/gry_blk.png","../images/cyn_red.png","../images/pnk_blu.png","../images/org_blu.png"],"mutagen_generator_assignment":[0,1],"goal":5,"start":3,"action_noise":0.15,"location_history":"[3,2,1,3,4,0,5]","action_history":"[0,0,0,1,0,0]","mutagen_history":"[0,0,0,1,0,0]","location_rts":"[2096,919,790,743,1761,500]","trial_type":"fractal-mutation","trial_index":59,"time_elapsed":2949443,"internal_node_id":"0.0-5.0-5.0"},{"group":"hexagon_tri","fractal_assignment":["../images/blu_wht.png","../images/ylw_slt.png","../images/gry_blk.png","../images/cyn_red.png","../images/pnk_blu.png","../images/org_blu.png"],"mutagen_generator_assignment":[0,1],"goal":4,"start":5,"action_noise":0.15,"location_history":"[5,0,5,4]","action_history":"[1,0,0]","mutagen_history":"[1,0,0]","location_rts":"[1670,787,847]","trial_type":"fractal-mutation","trial_index":60,"time_elapsed":2959325,"internal_node_id":"0.0-5.0-6.0"},{"group":"hexagon_tri","fractal_assignment":["../images/blu_wht.png","../images/ylw_slt.png","../images/gry_blk.png","../images/cyn_red.png","../images/pnk_blu.png","../images/org_blu.png"],"mutagen_generator_assignment":[0,1],"goal":0,"start":4,"action_noise":0.15,"location_history":"[4,0]","action_history":"[0]","mutagen_history":"[0]","location_rts":"[1667]","trial_type":"fractal-mutation","trial_index":61,"time_elapsed":2965516,"internal_node_id":"0.0-5.0-7.0"},{"group":"hexagon_tri","fractal_assignment":["../images/blu_wht.png","../images/ylw_slt.png","../images/gry_blk.png","../images/cyn_red.png","../images/pnk_blu.png","../images/org_blu.png"],"mutagen_generator_assignment":[0,1],"goal":2,"start":0,"action_noise":0.15,"location_history":"[0,1,3,2]","action_history":"[0,1,0]","mutagen_history":"[0,1,0]","location_rts":"[2349,1507,1369]","trial_type":"fractal-mutation","trial_index":62,"time_elapsed":2977305,"internal_node_id":"0.0-5.0-8.0"},{"group":"hexagon_tri","fractal_assignment":["../images/blu_wht.png","../images/ylw_slt.png","../images/gry_blk.png","../images/cyn_red.png","../images/pnk_blu.png","../images/org_blu.png"],"mutagen_generator_assignment":[0,1],"goal":4,"start":2,"action_noise":0.15,"location_history":"[2,3,2,1,3,2,3,4]","action_history":"[1,0,0,0,0,1,1]","mutagen_history":"[1,0,0,0,0,1,1]","location_rts":"[2529,634,842,722,659,309,1094]","trial_type":"fractal-mutation","trial_index":63,"time_elapsed":2994762,"internal_node_id":"0.0-5.0-9.0"},{"group":"hexagon_tri","fractal_assignment":["../images/blu_wht.png","../images/ylw_slt.png","../images/gry_blk.png","../images/cyn_red.png","../images/pnk_blu.png","../images/org_blu.png"],"mutagen_generator_assignment":[0,1],"goal":2,"start":4,"action_noise":0.15,"location_history":"[4,0,5,0,5,0,5,4,2]","action_history":"[0,0,1,0,0,0,0,1]","mutagen_history":"[0,0,1,0,0,0,0,1]","location_rts":"[982,1084,973,621,250,596,238,1230]","trial_type":"fractal-mutation","trial_index":64,"time_elapsed":3012405,"internal_node_id":"0.0-5.0-10.0"},{"group":"hexagon_tri","fractal_assignment":["../images/blu_wht.png","../images/ylw_slt.png","../images/gry_blk.png","../images/cyn_red.png","../images/pnk_blu.png","../images/org_blu.png"],"mutagen_generator_assignment":[0,1],"goal":3,"start":2,"action_noise":0.15,"location_history":"[2,1,5,0,5,0,1,3]","action_history":"[0,0,0,0,1,1,0]","mutagen_history":"[0,0,0,0,1,1,0]","location_rts":"[1036,561,940,785,360,494,671]","trial_type":"fractal-mutation","trial_index":65,"time_elapsed":3027895,"internal_node_id":"0.0-5.0-11.0"},{"group":"hexagon_tri","fractal_assignment":["../images/blu_wht.png","../images/ylw_slt.png","../images/gry_blk.png","../images/cyn_red.png","../images/pnk_blu.png","../images/org_blu.png"],"mutagen_generator_assignment":[0,1],"goal":0,"start":3,"action_noise":0.15,"location_history":"[3,2,3,2,1,3,2,1,5,4,2,1,5,0]","action_history":"[0,1,0,0,0,0,0,1,0,0,0,1,1]","mutagen_history":"[0,1,0,0,0,0,0,1,0,0,0,1,1]","location_rts":"[1697,780,607,660,525,635,477,301,903,696,1206,386,583]","trial_type":"fractal-mutation","trial_index":66,"time_elapsed":3054129,"internal_node_id":"0.0-5.0-12.0"},{"group":"hexagon_tri","fractal_assignment":["../images/blu_wht.png","../images/ylw_slt.png","../images/gry_blk.png","../images/cyn_red.png","../images/pnk_blu.png","../images/org_blu.png"],"mutagen_generator_assignment":[0,1],"goal":5,"start":0,"action_noise":0.15,"location_history":"[0,5]","action_history":"[0]","mutagen_history":"[0]","location_rts":"[1016]","trial_type":"fractal-mutation","trial_index":67,"time_elapsed":3059669,"internal_node_id":"0.0-5.0-13.0"},{"group":"hexagon_tri","fractal_assignment":["../images/blu_wht.png","../images/ylw_slt.png","../images/gry_blk.png","../images/cyn_red.png","../images/pnk_blu.png","../images/org_blu.png"],"mutagen_generator_assignment":[0,1],"goal":1,"start":5,"action_noise":0.15,"location_history":"[5,0,5,4,2,1]","action_history":"[1,0,0,1,0]","mutagen_history":"[1,0,0,1,0]","location_rts":"[2371,567,615,332,431]","trial_type":"fractal-mutation","trial_index":68,"time_elapsed":3072592,"internal_node_id":"0.0-5.0-14.0"},{"group":"hexagon_tri","fractal_assignment":["../images/blu_wht.png","../images/ylw_slt.png","../images/gry_blk.png","../images/cyn_red.png","../images/pnk_blu.png","../images/org_blu.png"],"mutagen_generator_assignment":[0,1],"goal":5,"start":1,"action_noise":0.15,"location_history":"[1,3,2,3,4,2,3,4,2,3,2,3,4,0,5]","action_history":"[0,0,1,1,0,1,1,1,1,0,1,1,0,0]","mutagen_history":"[0,0,1,1,0,1,1,1,1,0,1,1,0,0]","location_rts":"[2296,516,499,576,816,1036,269,550,771,819,803,565,1100,1075]","trial_type":"fractal-mutation","trial_index":69,"time_elapsed":3102091,"internal_node_id":"0.0-5.0-15.0"},{"group":"hexagon_tri","fractal_assignment":["../images/blu_wht.png","../images/ylw_slt.png","../images/gry_blk.png","../images/cyn_red.png","../images/pnk_blu.png","../images/org_blu.png"],"mutagen_generator_assignment":[0,1],"goal":3,"start":5,"action_noise":0.15,"location_history":"[5,4,0,1,5,4,0,5,0,1,3]","action_history":"[0,0,0,0,0,0,0,1,1,0]","mutagen_history":"[0,0,0,0,0,0,0,1,1,0]","location_rts":"[5703,594,614,1526,1136,694,821,276,635,697]","trial_type":"fractal-mutation","trial_index":70,"time_elapsed":3128481,"internal_node_id":"0.0-5.0-16.0"},{"group":"hexagon_tri","fractal_assignment":["../images/blu_wht.png","../images/ylw_slt.png","../images/gry_blk.png","../images/cyn_red.png","../images/pnk_blu.png","../images/org_blu.png"],"mutagen_generator_assignment":[0,1],"goal":2,"start":3,"action_noise":0.15,"location_history":"[3,4,2]","action_history":"[1,1]","mutagen_history":"[1,1]","location_rts":"[1752,973]","trial_type":"fractal-mutation","trial_index":71,"time_elapsed":3136758,"internal_node_id":"0.0-5.0-17.0"},{"group":"hexagon_tri","fractal_assignment":["../images/blu_wht.png","../images/ylw_slt.png","../images/gry_blk.png","../images/cyn_red.png","../images/pnk_blu.png","../images/org_blu.png"],"mutagen_generator_assignment":[0,1],"goal":1,"start":2,"action_noise":0.15,"location_history":"[2,1]","action_history":"[0]","mutagen_history":"[0]","location_rts":"[2906]","trial_type":"fractal-mutation","trial_index":72,"time_elapsed":3144185,"internal_node_id":"0.0-5.0-18.0"},{"group":"hexagon_tri","fractal_assignment":["../images/blu_wht.png","../images/ylw_slt.png","../images/gry_blk.png","../images/cyn_red.png","../images/pnk_blu.png","../images/org_blu.png"],"mutagen_generator_assignment":[0,1],"goal":4,"start":1,"action_noise":0.15,"location_history":"[1,5,0,5,0,5,4]","action_history":"[1,1,0,0,0,0]","mutagen_history":"[1,1,0,0,0,0]","location_rts":"[2064,1157,548,224,731,460]","trial_type":"fractal-mutation","trial_index":73,"time_elapsed":3158980,"internal_node_id":"0.0-5.0-19.0"},{"group":"hexagon_tri","fractal_assignment":["../images/blu_wht.png","../images/ylw_slt.png","../images/gry_blk.png","../images/cyn_red.png","../images/pnk_blu.png","../images/org_blu.png"],"mutagen_generator_assignment":[0,1],"goal":0,"start":4,"action_noise":0.15,"location_history":"[4,0]","action_history":"[0]","mutagen_history":"[0]","location_rts":"[1950]","trial_type":"fractal-mutation","trial_index":74,"time_elapsed":3165451,"internal_node_id":"0.0-5.0-20.0"},{"group":"hexagon_tri","fractal_assignment":["../images/blu_wht.png","../images/ylw_slt.png","../images/gry_blk.png","../images/cyn_red.png","../images/pnk_blu.png","../images/org_blu.png"],"mutagen_generator_assignment":[0,1],"goal":3,"start":0,"action_noise":0.15,"location_history":"[0,1,3]","action_history":"[1,0]","mutagen_history":"[1,0]","location_rts":"[1180,847]","trial_type":"fractal-mutation","trial_index":75,"time_elapsed":3173023,"internal_node_id":"0.0-5.0-21.0"},{"group":"hexagon_tri","fractal_assignment":["../images/blu_wht.png","../images/ylw_slt.png","../images/gry_blk.png","../images/cyn_red.png","../images/pnk_blu.png","../images/org_blu.png"],"mutagen_generator_assignment":[0,1],"goal":1,"start":3,"action_noise":0.15,"location_history":"[3,4,2,1]","action_history":"[1,1,0]","mutagen_history":"[1,1,0]","location_rts":"[2890,967,325]","trial_type":"fractal-mutation","trial_index":76,"time_elapsed":3183768,"internal_node_id":"0.0-5.0-22.0"},{"group":"hexagon_tri","fractal_assignment":["../images/blu_wht.png","../images/ylw_slt.png","../images/gry_blk.png","../images/cyn_red.png","../images/pnk_blu.png","../images/org_blu.png"],"mutagen_generator_assignment":[0,1],"goal":0,"start":1,"action_noise":0.15,"location_history":"[1,3,2,1,5,4,2,1,5,0]","action_history":"[0,0,0,1,0,0,0,1,1]","mutagen_history":"[0,0,0,1,0,0,0,1,1]","location_rts":"[1144,414,1286,446,774,405,403,837,336]","trial_type":"fractal-mutation","trial_index":77,"time_elapsed":3202502,"internal_node_id":"0.0-5.0-23.0"},{"group":"hexagon_tri","fractal_assignment":["../images/blu_wht.png","../images/ylw_slt.png","../images/gry_blk.png","../images/cyn_red.png","../images/pnk_blu.png","../images/org_blu.png"],"mutagen_generator_assignment":[0,1],"goal":2,"start":0,"action_noise":0.15,"location_history":"[0,1,5,0,5,4,2]","action_history":"[0,0,1,0,0,1]","mutagen_history":"[0,0,1,0,0,1]","location_rts":"[1619,249,461,751,472,405]","trial_type":"fractal-mutation","trial_index":78,"time_elapsed":3216079,"internal_node_id":"0.0-5.0-24.0"},{"group":"hexagon_tri","fractal_assignment":["../images/blu_wht.png","../images/ylw_slt.png","../images/gry_blk.png","../images/cyn_red.png","../images/pnk_blu.png","../images/org_blu.png"],"mutagen_generator_assignment":[0,1],"goal":4,"start":2,"action_noise":0.15,"location_history":"[2,1,3,2,3,4]","action_history":"[0,0,0,1,1]","mutagen_history":"[0,0,0,1,1]","location_rts":"[4009,620,655,465,478]","trial_type":"fractal-mutation","trial_index":79,"time_elapsed":3230912,"internal_node_id":"0.0-5.0-25.0"},{"group":"hexagon_tri","fractal_assignment":["../images/blu_wht.png","../images/ylw_slt.png","../images/gry_blk.png","../images/cyn_red.png","../images/pnk_blu.png","../images/org_blu.png"],"mutagen_generator_assignment":[0,1],"goal":5,"start":4,"action_noise":0.15,"location_history":"[4,0,5]","action_history":"[0,0]","mutagen_history":"[0,0]","location_rts":"[1672,438]","trial_type":"fractal-mutation","trial_index":80,"time_elapsed":3238569,"internal_node_id":"0.0-5.0-26.0"},{"group":"hexagon_tri","fractal_assignment":["../images/blu_wht.png","../images/ylw_slt.png","../images/gry_blk.png","../images/cyn_red.png","../images/pnk_blu.png","../images/org_blu.png"],"mutagen_generator_assignment":[0,1],"goal":2,"start":5,"action_noise":0.15,"location_history":"[5,0,5,0,5,0,5,4,2]","action_history":"[1,0,0,0,0,0,0,1]","mutagen_history":"[1,0,0,0,0,0,0,1]","location_rts":"[2007,671,238,368,324,485,495,376]","trial_type":"fractal-mutation","trial_index":81,"time_elapsed":3255192,"internal_node_id":"0.0-5.0-27.0"},{"group":"hexagon_tri","fractal_assignment":["../images/blu_wht.png","../images/ylw_slt.png","../images/gry_blk.png","../images/cyn_red.png","../images/pnk_blu.png","../images/org_blu.png"],"mutagen_generator_assignment":[0,1],"goal":3,"start":2,"action_noise":0.15,"location_history":"[2,1,5,4,2,1,3]","action_history":"[0,1,1,1,0,0]","mutagen_history":"[0,1,1,1,0,0]","location_rts":"[1089,616,1920,617,426,294]","trial_type":"fractal-mutation","trial_index":82,"time_elapsed":3269777,"internal_node_id":"0.0-5.0-28.0"},{"group":"hexagon_tri","fractal_assignment":["../images/blu_wht.png","../images/ylw_slt.png","../images/gry_blk.png","../images/cyn_red.png","../images/pnk_blu.png","../images/org_blu.png"],"mutagen_generator_assignment":[0,1],"goal":1,"start":3,"action_noise":0.15,"location_history":"[3,2,1]","action_history":"[0,0]","mutagen_history":"[0,0]","location_rts":"[969,396]","trial_type":"fractal-mutation","trial_index":83,"time_elapsed":3276681,"internal_node_id":"0.0-5.0-29.0"},{"group":"hexagon_tri","fractal_assignment":["../images/blu_wht.png","../images/ylw_slt.png","../images/gry_blk.png","../images/cyn_red.png","../images/pnk_blu.png","../images/org_blu.png"],"mutagen_generator_assignment":[0,1],"goal":4,"start":1,"action_noise":0.15,"location_history":"[1,5,0,5,4]","action_history":"[1,1,0,0]","mutagen_history":"[1,1,0,0]","location_rts":"[2855,940,1117,423]","trial_type":"fractal-mutation","trial_index":84,"time_elapsed":3289613,"internal_node_id":"0.0-5.0-30.0"},{"group":"hexagon_tri","fractal_assignment":["../images/blu_wht.png","../images/ylw_slt.png","../images/gry_blk.png","../images/cyn_red.png","../images/pnk_blu.png","../images/org_blu.png"],"mutagen_generator_assignment":[0,1],"goal":5,"start":4,"action_noise":0.15,"location_history":"[4,0,5]","action_history":"[0,0]","mutagen_history":"[0,0]","location_rts":"[1068,499]","trial_type":"fractal-mutation","trial_index":85,"time_elapsed":3296722,"internal_node_id":"0.0-5.0-31.0"},{"group":"hexagon_tri","fractal_assignment":["../images/blu_wht.png","../images/ylw_slt.png","../images/gry_blk.png","../images/cyn_red.png","../images/pnk_blu.png","../images/org_blu.png"],"mutagen_generator_assignment":[0,1],"goal":0,"start":5,"action_noise":0.15,"location_history":"[5,4,2,1,5,4,0]","action_history":"[0,0,0,0,0,0]","mutagen_history":"[0,0,0,0,0,0]","location_rts":"[878,355,480,732,491,1109]","trial_type":"fractal-mutation","trial_index":86,"time_elapsed":3310386,"internal_node_id":"0.0-5.0-32.0"},{"group":"hexagon_tri","fractal_assignment":["../images/blu_wht.png","../images/ylw_slt.png","../images/gry_blk.png","../images/cyn_red.png","../images/pnk_blu.png","../images/org_blu.png"],"mutagen_generator_assignment":[0,1],"goal":2,"start":0,"action_noise":0.15,"location_history":"[0,5,0,5,0,5,4,2]","action_history":"[0,1,0,1,0,0,1]","mutagen_history":"[0,1,0,1,0,0,1]","location_rts":"[1357,269,760,522,406,324,758]","trial_type":"fractal-mutation","trial_index":87,"time_elapsed":3325440,"internal_node_id":"0.0-5.0-33.0"},{"group":"hexagon_tri","fractal_assignment":["../images/blu_wht.png","../images/ylw_slt.png","../images/gry_blk.png","../images/cyn_red.png","../images/pnk_blu.png","../images/org_blu.png"],"mutagen_generator_assignment":[0,1],"goal":0,"start":2,"action_noise":0.15,"location_history":"[2,3,2,1,3,4,0]","action_history":"[1,0,0,0,1,0]","mutagen_history":"[1,0,0,0,1,0]","location_rts":"[1944,735,481,516,355,976]","trial_type":"fractal-mutation","trial_index":88,"time_elapsed":3340065,"internal_node_id":"0.0-5.0-34.0"},{"group":"hexagon_tri","fractal_assignment":["../images/blu_wht.png","../images/ylw_slt.png","../images/gry_blk.png","../images/cyn_red.png","../images/pnk_blu.png","../images/org_blu.png"],"mutagen_generator_assignment":[0,1],"goal":5,"start":0,"action_noise":0.15,"location_history":"[0,5]","action_history":"[0]","mutagen_history":"[0]","location_rts":"[838]","trial_type":"fractal-mutation","trial_index":89,"time_elapsed":3345427,"internal_node_id":"0.0-5.0-35.0"},{"group":"hexagon_tri","fractal_assignment":["../images/blu_wht.png","../images/ylw_slt.png","../images/gry_blk.png","../images/cyn_red.png","../images/pnk_blu.png","../images/org_blu.png"],"mutagen_generator_assignment":[0,1],"goal":1,"start":5,"action_noise":0.15,"location_history":"[5,4,2,1]","action_history":"[0,1,0]","mutagen_history":"[0,1,0]","location_rts":"[910,670,280]","trial_type":"fractal-mutation","trial_index":90,"time_elapsed":3353848,"internal_node_id":"0.0-5.0-36.0"},{"group":"hexagon_tri","fractal_assignment":["../images/blu_wht.png","../images/ylw_slt.png","../images/gry_blk.png","../images/cyn_red.png","../images/pnk_blu.png","../images/org_blu.png"],"mutagen_generator_assignment":[0,1],"goal":4,"start":1,"action_noise":0.15,"location_history":"[1,5,4]","action_history":"[1,0]","mutagen_history":"[1,0]","location_rts":"[2129,1238]","trial_type":"fractal-mutation","trial_index":91,"time_elapsed":3362759,"internal_node_id":"0.0-5.0-37.0"},{"group":"hexagon_tri","fractal_assignment":["../images/blu_wht.png","../images/ylw_slt.png","../images/gry_blk.png","../images/cyn_red.png","../images/pnk_blu.png","../images/org_blu.png"],"mutagen_generator_assignment":[0,1],"goal":3,"start":4,"action_noise":0.15,"location_history":"[4,2,1,5,4,2,1,3]","action_history":"[1,0,0,0,1,0,0]","mutagen_history":"[1,0,0,0,1,0,0]","location_rts":"[1394,342,232,768,426,420,295]","trial_type":"fractal-mutation","trial_index":92,"time_elapsed":3377261,"internal_node_id":"0.0-5.0-38.0"},{"group":"hexagon_tri","fractal_assignment":["../images/blu_wht.png","../images/ylw_slt.png","../images/gry_blk.png","../images/cyn_red.png","../images/pnk_blu.png","../images/org_blu.png"],"mutagen_generator_assignment":[0,1],"goal":5,"start":3,"action_noise":0.15,"location_history":"[3,2,1,3,4,0,5]","action_history":"[0,0,0,1,0,0]","mutagen_history":"[0,0,0,1,0,0]","location_rts":"[1660,478,875,270,966,253]","trial_type":"fractal-mutation","trial_index":93,"time_elapsed":3391380,"internal_node_id":"0.0-5.0-39.0"},{"group":"hexagon_tri","fractal_assignment":["../images/blu_wht.png","../images/ylw_slt.png","../images/gry_blk.png","../images/cyn_red.png","../images/pnk_blu.png","../images/org_blu.png"],"mutagen_generator_assignment":[0,1],"goal":1,"start":5,"action_noise":0.15,"location_history":"[5,4,2,1]","action_history":"[0,1,0]","mutagen_history":"[0,1,0]","location_rts":"[1494,516,270]","trial_type":"fractal-mutation","trial_index":94,"time_elapsed":3400225,"internal_node_id":"0.0-5.0-40.0"},{"group":"hexagon_tri","fractal_assignment":["../images/blu_wht.png","../images/ylw_slt.png","../images/gry_blk.png","../images/cyn_red.png","../images/pnk_blu.png","../images/org_blu.png"],"mutagen_generator_assignment":[0,1],"goal":2,"start":1,"action_noise":0.15,"location_history":"[1,3,4,2]","action_history":"[0,0,1]","mutagen_history":"[0,0,1]","location_rts":"[1111,535,838]","trial_type":"fractal-mutation","trial_index":95,"time_elapsed":3409270,"internal_node_id":"0.0-5.0-41.0"},{"group":"hexagon_tri","fractal_assignment":["../images/blu_wht.png","../images/ylw_slt.png","../images/gry_blk.png","../images/cyn_red.png","../images/pnk_blu.png","../images/org_blu.png"],"mutagen_generator_assignment":[0,1],"goal":4,"start":2,"action_noise":0.15,"location_history":"[2,1,5,0,5,4]","action_history":"[1,1,1,0,0]","mutagen_history":"[1,1,1,0,0]","location_rts":"[1922,353,1119,558,244]","trial_type":"fractal-mutation","trial_index":96,"time_elapsed":3422087,"internal_node_id":"0.0-5.0-42.0"},{"group":"hexagon_tri","fractal_assignment":["../images/blu_wht.png","../images/ylw_slt.png","../images/gry_blk.png","../images/cyn_red.png","../images/pnk_blu.png","../images/org_blu.png"],"mutagen_generator_assignment":[0,1],"goal":0,"start":4,"action_noise":0.15,"location_history":"[4,0]","action_history":"[0]","mutagen_history":"[0]","location_rts":"[1256]","trial_type":"fractal-mutation","trial_index":97,"time_elapsed":3427862,"internal_node_id":"0.0-5.0-43.0"},{"group":"hexagon_tri","fractal_assignment":["../images/blu_wht.png","../images/ylw_slt.png","../images/gry_blk.png","../images/cyn_red.png","../images/pnk_blu.png","../images/org_blu.png"],"mutagen_generator_assignment":[0,1],"goal":3,"start":0,"action_noise":0.15,"location_history":"[0,5,4,2,1,3]","action_history":"[0,0,1,0,0]","mutagen_history":"[0,0,1,0,0]","location_rts":"[1316,271,497,290,284]","trial_type":"fractal-mutation","trial_index":98,"time_elapsed":3439116,"internal_node_id":"0.0-5.0-44.0"},{"group":"hexagon_tri","fractal_assignment":["../images/blu_wht.png","../images/ylw_slt.png","../images/gry_blk.png","../images/cyn_red.png","../images/pnk_blu.png","../images/org_blu.png"],"mutagen_generator_assignment":[0,1],"goal":0,"start":3,"action_noise":0.15,"location_history":"[3,4,0]","action_history":"[0,0]","mutagen_history":"[0,0]","location_rts":"[2919,1210]","trial_type":"fractal-mutation","trial_index":99,"time_elapsed":3448787,"internal_node_id":"0.0-5.0-45.0"},{"group":"hexagon_tri","fractal_assignment":["../images/blu_wht.png","../images/ylw_slt.png","../images/gry_blk.png","../images/cyn_red.png","../images/pnk_blu.png","../images/org_blu.png"],"mutagen_generator_assignment":[0,1],"goal":4,"start":0,"action_noise":0.15,"location_history":"[0,5,4]","action_history":"[0,0]","mutagen_history":"[0,0]","location_rts":"[1174,252]","trial_type":"fractal-mutation","trial_index":100,"time_elapsed":3455755,"internal_node_id":"0.0-5.0-46.0"},{"group":"hexagon_tri","fractal_assignment":["../images/blu_wht.png","../images/ylw_slt.png","../images/gry_blk.png","../images/cyn_red.png","../images/pnk_blu.png","../images/org_blu.png"],"mutagen_generator_assignment":[0,1],"goal":5,"start":4,"action_noise":0.15,"location_history":"[4,0,5]","action_history":"[0,0]","mutagen_history":"[0,0]","location_rts":"[1686,454]","trial_type":"fractal-mutation","trial_index":101,"time_elapsed":3463432,"internal_node_id":"0.0-5.0-47.0"},{"group":"hexagon_tri","fractal_assignment":["../images/blu_wht.png","../images/ylw_slt.png","../images/gry_blk.png","../images/cyn_red.png","../images/pnk_blu.png","../images/org_blu.png"],"mutagen_generator_assignment":[0,1],"goal":2,"start":5,"action_noise":0.15,"location_history":"[5,4,0,5,4,0,5,4,2]","action_history":"[0,1,0,0,1,0,0,1]","mutagen_history":"[0,1,0,0,1,0,0,1]","location_rts":"[1977,306,1608,207,284,626,245,253]","trial_type":"fractal-mutation","trial_index":102,"time_elapsed":3480604,"internal_node_id":"0.0-5.0-48.0"},{"group":"hexagon_tri","fractal_assignment":["../images/blu_wht.png","../images/ylw_slt.png","../images/gry_blk.png","../images/cyn_red.png","../images/pnk_blu.png","../images/org_blu.png"],"mutagen_generator_assignment":[0,1],"goal":1,"start":2,"action_noise":0.15,"location_history":"[2,1]","action_history":"[0]","mutagen_history":"[0]","location_rts":"[996]","trial_type":"fractal-mutation","trial_index":103,"time_elapsed":3486124,"internal_node_id":"0.0-5.0-49.0"},{"view_history":"[{\"page_index\":0,\"viewing_time\":2669}]","rt":2669,"trial_type":"instructions","trial_index":104,"time_elapsed":3489794,"internal_node_id":"0.0-6.0"},{"rt":37103,"responses":"{\"Q0\":\"Something to do with how one learns to navigate most efficiently and overcoming the random changes.\"}","trial_type":"survey-text","trial_index":105,"time_elapsed":3527899,"internal_node_id":"0.0-7.0-0.0"},{"rt":88660,"responses":"{\"Q0\":\"I think it is similar to the first though 'navigating' to a slightly different pattern since it seemed to require multiple instances of the same choice leading to different results (like cycling through a series of options rather than just two)\"}","trial_type":"survey-text","trial_index":106,"time_elapsed":3617562,"internal_node_id":"0.0-7.0-1.0"},{"rt":20150,"responses":"{}","trial_type":"survey-multi-choice","trial_index":107,"time_elapsed":3638716,"internal_node_id":"0.0-7.0-2.0"},{"rt":69525,"assignments":["../images/blu_wht.png","../images/ylw_slt.png","../images/gry_blk.png","../images/cyn_red.png","../images/pnk_blu.png","../images/org_blu.png"],"trial_type":"drag-drop-on-image","trial_index":108,"time_elapsed":3709243,"internal_node_id":"0.0-7.0-3.0"},{"rt":4630,"responses":"{\"Q0\":\"2\"}","trial_type":"survey-likert","trial_index":109,"time_elapsed":3714874,"internal_node_id":"0.0-7.0-4.0"},{"rt":136025,"responses":"{\"Q0\":\"It was similar just in that other than random changes it was a set pattern to get from one results to another.\"}","trial_type":"survey-text","trial_index":110,"time_elapsed":3851906,"internal_node_id":"0.0-7.0-5.0"},{"rt":6726,"responses":"{\"Q0\":\"No\"}","trial_type":"survey-multi-choice","trial_index":111,"time_elapsed":3859635,"internal_node_id":"0.0-7.0-6.0"},{"rt":11580,"responses":"{\"Q0\":\"During these questions/I wasn't aware until you pointed it out\"}","trial_type":"survey-multi-choice","trial_index":112,"time_elapsed":3872219,"internal_node_id":"0.0-7.0-7.0"},{"rt":79109,"responses":"{\"Q0\":\"I can't say that I noticed it consciously; however, intuitively there felt like some correspondence existed. I tend not to think about these things in experiments unless specifically told to. As in, I try to only follow what I am told and let my thoughts flow without being overly critical of the experiment itself.\"}","trial_type":"survey-text","trial_index":113,"time_elapsed":3952346,"internal_node_id":"0.0-7.0-8.0"},{"rt":5477,"responses":"{\"Q0\":\"3\"}","trial_type":"survey-likert","trial_index":114,"time_elapsed":3958826,"internal_node_id":"0.0-7.0-9.0"},{"rt":30895,"responses":"{\"Q0\":\"Different structure\"}","trial_type":"survey-multi-choice","trial_index":115,"time_elapsed":3990723,"internal_node_id":"0.0-7.0-10.0"},{"rt":95668,"responses":"{\"Q0\":\"left (black) door = ray, right (white) door = acid\",\"Q1\":\"Slightly confident\"}","trial_type":"survey-multi-choice","trial_index":116,"time_elapsed":4087395,"internal_node_id":"0.0-7.0-11.0"},{"rt":8609,"responses":"{\"Q0\":\"35-45\",\"Q1\":\"Associates or other two-year degree\",\"Q2\":\"Male\",\"Q3\":\"White\"}","trial_type":"survey-multi-choice","trial_index":117,"time_elapsed":4097012,"internal_node_id":"0.0-8.0"},{"rt":16469,"responses":"{\"Q0\":\"It was interesting.\"}","trial_type":"survey-text","trial_index":118,"time_elapsed":4114483,"internal_node_id":"0.0-9.0"}]