[{"view_history":"[{\"page_index\":0,\"viewing_time\":285188},{\"page_index\":1,\"viewing_time\":2672}]","rt":287862,"trial_type":"instructions","trial_index":0,"time_elapsed":287863,"internal_node_id":"0.0-0.0"},{"view_history":"[{\"page_index\":0,\"viewing_time\":197460},{\"page_index\":1,\"viewing_time\":7626}]","rt":205087,"trial_type":"instructions","trial_index":1,"time_elapsed":493951,"internal_node_id":"0.0-1.0"},{"group":"hexagon_bi","room_assignment":["purple","blue","red","green","yellow","grey"],"door_color_assignment":["white","black"],"door_generator_assignment":[1,0],"goal":2,"start":1,"action_noise":0.15,"location_history":"[1,2]","action_history":"[0]","door_history":"[1]","location_rts":"[3080]","trial_type":"two-door-navigation","trial_index":2,"time_elapsed":501619,"internal_node_id":"0.0-2.0-0.0"},{"group":"hexagon_bi","room_assignment":["purple","blue","red","green","yellow","grey"],"door_color_assignment":["white","black"],"door_generator_assignment":[1,0],"goal":0,"start":2,"action_noise":0.15,"location_history":"[2,3,4,5,0]","action_history":"[1,0,1,0]","door_history":"[0,1,0,1]","location_rts":"[11794,14672,8590,11811]","trial_type":"two-door-navigation","trial_index":3,"time_elapsed":556065,"internal_node_id":"0.0-2.0-1.0"},{"group":"hexagon_bi","room_assignment":["purple","blue","red","green","yellow","grey"],"door_color_assignment":["white","black"],"door_generator_assignment":[1,0],"goal":5,"start":0,"action_noise":0.15,"location_history":"[0,5]","action_history":"[0]","door_history":"[1]","location_rts":"[3390]","trial_type":"two-door-navigation","trial_index":4,"time_elapsed":563977,"internal_node_id":"0.0-2.0-2.0"},{"group":"hexagon_bi","room_assignment":["purple","blue","red","green","yellow","grey"],"door_color_assignment":["white","black"],"door_generator_assignment":[1,0],"goal":1,"start":5,"action_noise":0.15,"location_history":"[5,4,5,0,1]","action_history":"[1,0,0,1]","door_history":"[0,1,1,0]","location_rts":"[19708,274,3479,2900]","trial_type":"two-door-navigation","trial_index":5,"time_elapsed":597924,"internal_node_id":"0.0-2.0-3.0"},{"group":"hexagon_bi","room_assignment":["purple","blue","red","green","yellow","grey"],"door_color_assignment":["white","black"],"door_generator_assignment":[1,0],"goal":3,"start":1,"action_noise":0.15,"location_history":"[1,2,3]","action_history":"[0,1]","door_history":"[1,0]","location_rts":"[3664,4517]","trial_type":"two-door-navigation","trial_index":6,"time_elapsed":611645,"internal_node_id":"0.0-2.0-4.0"},{"group":"hexagon_bi","room_assignment":["purple","blue","red","green","yellow","grey"],"door_color_assignment":["white","black"],"door_generator_assignment":[1,0],"goal":5,"start":3,"action_noise":0.15,"location_history":"[3,4,5]","action_history":"[0,1]","door_history":"[1,0]","location_rts":"[10684,317]","trial_type":"two-door-navigation","trial_index":7,"time_elapsed":628187,"internal_node_id":"0.0-2.0-5.0"},{"group":"hexagon_bi","room_assignment":["purple","blue","red","green","yellow","grey"],"door_color_assignment":["white","black"],"door_generator_assignment":[1,0],"goal":4,"start":5,"action_noise":0.15,"location_history":"[5,4]","action_history":"[1]","door_history":"[0]","location_rts":"[1579]","trial_type":"two-door-navigation","trial_index":8,"time_elapsed":634286,"internal_node_id":"0.0-2.0-6.0"},{"group":"hexagon_bi","room_assignment":["purple","blue","red","green","yellow","grey"],"door_color_assignment":["white","black"],"door_generator_assignment":[1,0],"goal":0,"start":4,"action_noise":0.15,"location_history":"[4,5,0]","action_history":"[1,0]","door_history":"[0,1]","location_rts":"[2240,57]","trial_type":"two-door-navigation","trial_index":9,"time_elapsed":642123,"internal_node_id":"0.0-2.0-7.0"},{"group":"hexagon_bi","room_assignment":["purple","blue","red","green","yellow","grey"],"door_color_assignment":["white","black"],"door_generator_assignment":[1,0],"goal":2,"start":0,"action_noise":0.15,"location_history":"[0,5,0,1,2]","action_history":"[0,0,0,0]","door_history":"[1,1,1,1]","location_rts":"[2327,431,1649,1905]","trial_type":"two-door-navigation","trial_index":10,"time_elapsed":656006,"internal_node_id":"0.0-2.0-8.0"},{"group":"hexagon_bi","room_assignment":["purple","blue","red","green","yellow","grey"],"door_color_assignment":["white","black"],"door_generator_assignment":[1,0],"goal":4,"start":2,"action_noise":0.15,"location_history":"[2,1,0,5,4]","action_history":"[0,1,0,1]","door_history":"[1,0,1,0]","location_rts":"[3569,4422,1531,370]","trial_type":"two-door-navigation","trial_index":11,"time_elapsed":673466,"internal_node_id":"0.0-2.0-9.0"},{"group":"hexagon_bi","room_assignment":["purple","blue","red","green","yellow","grey"],"door_color_assignment":["white","black"],"door_generator_assignment":[1,0],"goal":2,"start":4,"action_noise":0.15,"location_history":"[4,3,2]","action_history":"[0,1]","door_history":"[1,0]","location_rts":"[1980,7427]","trial_type":"two-door-navigation","trial_index":12,"time_elapsed":688413,"internal_node_id":"0.0-2.0-10.0"},{"group":"hexagon_bi","room_assignment":["purple","blue","red","green","yellow","grey"],"door_color_assignment":["white","black"],"door_generator_assignment":[1,0],"goal":3,"start":2,"action_noise":0.15,"location_history":"[2,1,2,3]","action_history":"[1,0,1]","door_history":"[0,1,0]","location_rts":"[2462,6255,902]","trial_type":"two-door-navigation","trial_index":13,"time_elapsed":704592,"internal_node_id":"0.0-2.0-11.0"},{"group":"hexagon_bi","room_assignment":["purple","blue","red","green","yellow","grey"],"door_color_assignment":["white","black"],"door_generator_assignment":[1,0],"goal":0,"start":3,"action_noise":0.15,"location_history":"[3,2,1,0]","action_history":"[1,0,1]","door_history":"[0,1,0]","location_rts":"[3143,755,1811]","trial_type":"two-door-navigation","trial_index":14,"time_elapsed":716852,"internal_node_id":"0.0-2.0-12.0"},{"group":"hexagon_bi","room_assignment":["purple","blue","red","green","yellow","grey"],"door_color_assignment":["white","black"],"door_generator_assignment":[1,0],"goal":5,"start":0,"action_noise":0.15,"location_history":"[0,5]","action_history":"[0]","door_history":"[1]","location_rts":"[3010]","trial_type":"two-door-navigation","trial_index":15,"time_elapsed":724384,"internal_node_id":"0.0-2.0-13.0"},{"group":"hexagon_bi","room_assignment":["purple","blue","red","green","yellow","grey"],"door_color_assignment":["white","black"],"door_generator_assignment":[1,0],"goal":1,"start":5,"action_noise":0.15,"location_history":"[5,0,5,4,3,4,3,2,3,4,5,4,3,4,3,2,3,2,1]","action_history":"[0,1,1,0,0,0,1,0,1,0,1,0,0,0,1,0,1,0]","door_history":"[1,0,0,1,1,1,0,1,0,1,0,1,1,1,0,1,0,1]","location_rts":"[2759,292,2221,950,1463,1453,1223,381,2204,446,506,274,1150,545,263,296,1756,699]","trial_type":"two-door-navigation","trial_index":16,"time_elapsed":765082,"internal_node_id":"0.0-2.0-14.0"},{"group":"hexagon_bi","room_assignment":["purple","blue","red","green","yellow","grey"],"door_color_assignment":["white","black"],"door_generator_assignment":[1,0],"goal":5,"start":1,"action_noise":0.15,"location_history":"[1,0,5]","action_history":"[1,0]","door_history":"[0,1]","location_rts":"[5806,271]","trial_type":"two-door-navigation","trial_index":17,"time_elapsed":776693,"internal_node_id":"0.0-2.0-15.0"},{"group":"hexagon_bi","room_assignment":["purple","blue","red","green","yellow","grey"],"door_color_assignment":["white","black"],"door_generator_assignment":[1,0],"goal":3,"start":5,"action_noise":0.15,"location_history":"[5,0,1,2,3]","action_history":"[0,1,0,1]","door_history":"[1,0,1,0]","location_rts":"[2949,4785,427,326]","trial_type":"two-door-navigation","trial_index":18,"time_elapsed":792754,"internal_node_id":"0.0-2.0-16.0"},{"group":"hexagon_bi","room_assignment":["purple","blue","red","green","yellow","grey"],"door_color_assignment":["white","black"],"door_generator_assignment":[1,0],"goal":2,"start":3,"action_noise":0.15,"location_history":"[3,2]","action_history":"[1]","door_history":"[0]","location_rts":"[1294]","trial_type":"two-door-navigation","trial_index":19,"time_elapsed":798571,"internal_node_id":"0.0-2.0-17.0"},{"group":"hexagon_bi","room_assignment":["purple","blue","red","green","yellow","grey"],"door_color_assignment":["white","black"],"door_generator_assignment":[1,0],"goal":1,"start":2,"action_noise":0.15,"location_history":"[2,1]","action_history":"[0]","door_history":"[1]","location_rts":"[1648]","trial_type":"two-door-navigation","trial_index":20,"time_elapsed":804737,"internal_node_id":"0.0-2.0-18.0"},{"group":"hexagon_bi","room_assignment":["purple","blue","red","green","yellow","grey"],"door_color_assignment":["white","black"],"door_generator_assignment":[1,0],"goal":4,"start":1,"action_noise":0.15,"location_history":"[1,0,1,2,3,2,1,2,1,2,3,4]","action_history":"[1,1,0,1,0,1,0,0,0,1,0]","door_history":"[0,0,1,0,1,0,1,1,1,0,1]","location_rts":"[7248,1120,341,589,284,2059,581,923,894,583,675]","trial_type":"two-door-navigation","trial_index":21,"time_elapsed":834728,"internal_node_id":"0.0-2.0-19.0"},{"group":"hexagon_bi","room_assignment":["purple","blue","red","green","yellow","grey"],"door_color_assignment":["white","black"],"door_generator_assignment":[1,0],"goal":0,"start":4,"action_noise":0.15,"location_history":"[4,5,0]","action_history":"[1,0]","door_history":"[0,1]","location_rts":"[1680,86]","trial_type":"two-door-navigation","trial_index":22,"time_elapsed":842031,"internal_node_id":"0.0-2.0-20.0"},{"group":"hexagon_bi","room_assignment":["purple","blue","red","green","yellow","grey"],"door_color_assignment":["white","black"],"door_generator_assignment":[1,0],"goal":3,"start":0,"action_noise":0.15,"location_history":"[0,5,0,5,0,1,2,3]","action_history":"[0,0,0,0,1,0,1]","door_history":"[1,1,1,1,0,1,0]","location_rts":"[2283,418,1361,742,309,1387,319]","trial_type":"two-door-navigation","trial_index":23,"time_elapsed":859481,"internal_node_id":"0.0-2.0-21.0"},{"group":"hexagon_bi","room_assignment":["purple","blue","red","green","yellow","grey"],"door_color_assignment":["white","black"],"door_generator_assignment":[1,0],"goal":1,"start":3,"action_noise":0.15,"location_history":"[3,2,1]","action_history":"[1,0]","door_history":"[0,1]","location_rts":"[3136,259]","trial_type":"two-door-navigation","trial_index":24,"time_elapsed":868417,"internal_node_id":"0.0-2.0-22.0"},{"group":"hexagon_bi","room_assignment":["purple","blue","red","green","yellow","grey"],"door_color_assignment":["white","black"],"door_generator_assignment":[1,0],"goal":0,"start":1,"action_noise":0.15,"location_history":"[1,0]","action_history":"[1]","door_history":"[0]","location_rts":"[2342]","trial_type":"two-door-navigation","trial_index":25,"time_elapsed":875285,"internal_node_id":"0.0-2.0-23.0"},{"group":"hexagon_bi","room_assignment":["purple","blue","red","green","yellow","grey"],"door_color_assignment":["white","black"],"door_generator_assignment":[1,0],"goal":2,"start":0,"action_noise":0.15,"location_history":"[0,1,2]","action_history":"[1,0]","door_history":"[0,1]","location_rts":"[3463,345]","trial_type":"two-door-navigation","trial_index":26,"time_elapsed":884637,"internal_node_id":"0.0-2.0-24.0"},{"group":"hexagon_bi","room_assignment":["purple","blue","red","green","yellow","grey"],"door_color_assignment":["white","black"],"door_generator_assignment":[1,0],"goal":4,"start":2,"action_noise":0.15,"location_history":"[2,3,4]","action_history":"[1,0]","door_history":"[0,1]","location_rts":"[4999,447]","trial_type":"two-door-navigation","trial_index":27,"time_elapsed":895690,"internal_node_id":"0.0-2.0-25.0"},{"group":"hexagon_bi","room_assignment":["purple","blue","red","green","yellow","grey"],"door_color_assignment":["white","black"],"door_generator_assignment":[1,0],"goal":5,"start":4,"action_noise":0.15,"location_history":"[4,5]","action_history":"[1]","door_history":"[0]","location_rts":"[1826]","trial_type":"two-door-navigation","trial_index":28,"time_elapsed":902071,"internal_node_id":"0.0-2.0-26.0"},{"group":"hexagon_bi","room_assignment":["purple","blue","red","green","yellow","grey"],"door_color_assignment":["white","black"],"door_generator_assignment":[1,0],"goal":2,"start":5,"action_noise":0.15,"location_history":"[5,0,1,2]","action_history":"[0,1,0]","door_history":"[1,0,1]","location_rts":"[2155,771,284]","trial_type":"two-door-navigation","trial_index":29,"time_elapsed":911918,"internal_node_id":"0.0-2.0-27.0"},{"group":"hexagon_bi","room_assignment":["purple","blue","red","green","yellow","grey"],"door_color_assignment":["white","black"],"door_generator_assignment":[1,0],"goal":3,"start":2,"action_noise":0.15,"location_history":"[2,3]","action_history":"[1]","door_history":"[0]","location_rts":"[2865]","trial_type":"two-door-navigation","trial_index":30,"time_elapsed":919330,"internal_node_id":"0.0-2.0-28.0"},{"group":"hexagon_bi","room_assignment":["purple","blue","red","green","yellow","grey"],"door_color_assignment":["white","black"],"door_generator_assignment":[1,0],"goal":1,"start":3,"action_noise":0.15,"location_history":"[3,2,3,2,1]","action_history":"[1,0,1,0]","door_history":"[0,1,0,1]","location_rts":"[2222,282,3174,481]","trial_type":"two-door-navigation","trial_index":31,"time_elapsed":933169,"internal_node_id":"0.0-2.0-29.0"},{"group":"hexagon_bi","room_assignment":["purple","blue","red","green","yellow","grey"],"door_color_assignment":["white","black"],"door_generator_assignment":[1,0],"goal":4,"start":1,"action_noise":0.15,"location_history":"[1,0,5,4]","action_history":"[1,0,1]","door_history":"[0,1,0]","location_rts":"[2357,574,296]","trial_type":"two-door-navigation","trial_index":32,"time_elapsed":943067,"internal_node_id":"0.0-2.0-30.0"},{"group":"hexagon_bi","room_assignment":["purple","blue","red","green","yellow","grey"],"door_color_assignment":["white","black"],"door_generator_assignment":[1,0],"goal":5,"start":4,"action_noise":0.15,"location_history":"[4,5]","action_history":"[1]","door_history":"[0]","location_rts":"[1234]","trial_type":"two-door-navigation","trial_index":33,"time_elapsed":948853,"internal_node_id":"0.0-2.0-31.0"},{"group":"hexagon_bi","room_assignment":["purple","blue","red","green","yellow","grey"],"door_color_assignment":["white","black"],"door_generator_assignment":[1,0],"goal":0,"start":5,"action_noise":0.15,"location_history":"[5,4,5,0]","action_history":"[1,1,0]","door_history":"[0,0,1]","location_rts":"[1310,349,232]","trial_type":"two-door-navigation","trial_index":34,"time_elapsed":957405,"internal_node_id":"0.0-2.0-32.0"},{"group":"hexagon_bi","room_assignment":["purple","blue","red","green","yellow","grey"],"door_color_assignment":["white","black"],"door_generator_assignment":[1,0],"goal":2,"start":0,"action_noise":0.15,"location_history":"[0,5,4,5,0,1,2]","action_history":"[0,1,1,0,1,0]","door_history":"[1,0,0,1,0,1]","location_rts":"[9704,531,249,203,489,431]","trial_type":"two-door-navigation","trial_index":35,"time_elapsed":978638,"internal_node_id":"0.0-2.0-33.0"},{"group":"hexagon_bi","room_assignment":["purple","blue","red","green","yellow","grey"],"door_color_assignment":["white","black"],"door_generator_assignment":[1,0],"goal":0,"start":2,"action_noise":0.15,"location_history":"[2,3,2,3,2,1,0]","action_history":"[1,1,0,1,0,1]","door_history":"[0,0,1,0,1,0]","location_rts":"[2181,610,570,2682,5371,453]","trial_type":"two-door-navigation","trial_index":36,"time_elapsed":1000132,"internal_node_id":"0.0-2.0-34.0"},{"group":"hexagon_bi","room_assignment":["purple","blue","red","green","yellow","grey"],"door_color_assignment":["white","black"],"door_generator_assignment":[1,0],"goal":5,"start":0,"action_noise":0.15,"location_history":"[0,5]","action_history":"[1]","door_history":"[0]","location_rts":"[1597]","trial_type":"two-door-navigation","trial_index":37,"time_elapsed":1006252,"internal_node_id":"0.0-2.0-35.0"},{"group":"hexagon_bi","room_assignment":["purple","blue","red","green","yellow","grey"],"door_color_assignment":["white","black"],"door_generator_assignment":[1,0],"goal":1,"start":5,"action_noise":0.15,"location_history":"[5,0,1]","action_history":"[0,1]","door_history":"[1,0]","location_rts":"[4395,401]","trial_type":"two-door-navigation","trial_index":38,"time_elapsed":1016591,"internal_node_id":"0.0-2.0-36.0"},{"group":"hexagon_bi","room_assignment":["purple","blue","red","green","yellow","grey"],"door_color_assignment":["white","black"],"door_generator_assignment":[1,0],"goal":4,"start":1,"action_noise":0.15,"location_history":"[1,0,1,0,1,0,1,2,3,4]","action_history":"[1,0,1,1,0,1,0,1,0]","door_history":"[0,1,0,0,1,0,1,0,1]","location_rts":"[1536,909,374,479,366,1491,2501,858,822]","trial_type":"two-door-navigation","trial_index":39,"time_elapsed":1038603,"internal_node_id":"0.0-2.0-37.0"},{"group":"hexagon_bi","room_assignment":["purple","blue","red","green","yellow","grey"],"door_color_assignment":["white","black"],"door_generator_assignment":[1,0],"goal":3,"start":4,"action_noise":0.15,"location_history":"[4,5,0,5,4,5,0,5,0,1,0,5,0,1,2,3]","action_history":"[1,1,0,1,0,0,1,1,0,1,0,0,1,0,1]","door_history":"[0,0,1,0,1,1,0,0,1,0,1,1,0,1,0]","location_rts":"[4175,270,271,390,277,1365,942,906,3853,1186,856,634,362,699,1011]","trial_type":"two-door-navigation","trial_index":40,"time_elapsed":1074606,"internal_node_id":"0.0-2.0-38.0"},{"group":"hexagon_bi","room_assignment":["purple","blue","red","green","yellow","grey"],"door_color_assignment":["white","black"],"door_generator_assignment":[1,0],"goal":5,"start":3,"action_noise":0.15,"location_history":"[3,2,3,4,5]","action_history":"[1,0,0,1]","door_history":"[0,1,1,0]","location_rts":"[7277,537,2006,379]","trial_type":"two-door-navigation","trial_index":41,"time_elapsed":1092382,"internal_node_id":"0.0-2.0-39.0"},{"group":"hexagon_bi","room_assignment":["purple","blue","red","green","yellow","grey"],"door_color_assignment":["white","black"],"door_generator_assignment":[1,0],"goal":1,"start":5,"action_noise":0.15,"location_history":"[5,4,3,4,3,2,1]","action_history":"[1,1,0,0,1,0]","door_history":"[0,0,1,1,0,1]","location_rts":"[1690,608,406,1508,570,570]","trial_type":"two-door-navigation","trial_index":42,"time_elapsed":1107357,"internal_node_id":"0.0-2.0-40.0"},{"group":"hexagon_bi","room_assignment":["purple","blue","red","green","yellow","grey"],"door_color_assignment":["white","black"],"door_generator_assignment":[1,0],"goal":2,"start":1,"action_noise":0.15,"location_history":"[1,2]","action_history":"[0]","door_history":"[1]","location_rts":"[6282]","trial_type":"two-door-navigation","trial_index":43,"time_elapsed":1118160,"internal_node_id":"0.0-2.0-41.0"},{"group":"hexagon_bi","room_assignment":["purple","blue","red","green","yellow","grey"],"door_color_assignment":["white","black"],"door_generator_assignment":[1,0],"goal":4,"start":2,"action_noise":0.15,"location_history":"[2,3,4]","action_history":"[1,0]","door_history":"[0,1]","location_rts":"[2373,354]","trial_type":"two-door-navigation","trial_index":44,"time_elapsed":1126431,"internal_node_id":"0.0-2.0-42.0"},{"group":"hexagon_bi","room_assignment":["purple","blue","red","green","yellow","grey"],"door_color_assignment":["white","black"],"door_generator_assignment":[1,0],"goal":0,"start":4,"action_noise":0.15,"location_history":"[4,5,4,5,4,5,0]","action_history":"[1,0,1,1,1,0]","door_history":"[0,1,0,0,0,1]","location_rts":"[1341,93,348,805,650,326]","trial_type":"two-door-navigation","trial_index":45,"time_elapsed":1139631,"internal_node_id":"0.0-2.0-43.0"},{"group":"hexagon_bi","room_assignment":["purple","blue","red","green","yellow","grey"],"door_color_assignment":["white","black"],"door_generator_assignment":[1,0],"goal":3,"start":0,"action_noise":0.15,"location_history":"[0,5,0,5,0,1,2,3]","action_history":"[1,0,0,0,1,0,1]","door_history":"[0,1,1,1,0,1,0]","location_rts":"[7681,953,1167,1088,815,424,530]","trial_type":"two-door-navigation","trial_index":46,"time_elapsed":1162951,"internal_node_id":"0.0-2.0-44.0"},{"group":"hexagon_bi","room_assignment":["purple","blue","red","green","yellow","grey"],"door_color_assignment":["white","black"],"door_generator_assignment":[1,0],"goal":0,"start":3,"action_noise":0.15,"location_history":"[3,2,1,2,3,4,5,0]","action_history":"[1,0,1,1,0,1,0]","door_history":"[0,1,0,0,1,0,1]","location_rts":"[4034,476,314,1012,699,641,2199]","trial_type":"two-door-navigation","trial_index":47,"time_elapsed":1182988,"internal_node_id":"0.0-2.0-45.0"},{"group":"hexagon_bi","room_assignment":["purple","blue","red","green","yellow","grey"],"door_color_assignment":["white","black"],"door_generator_assignment":[1,0],"goal":4,"start":0,"action_noise":0.15,"location_history":"[0,1,2,1,0,5,4]","action_history":"[1,1,0,1,0,1]","door_history":"[0,0,1,0,1,0]","location_rts":"[2352,897,1068,1137,528,311]","trial_type":"two-door-navigation","trial_index":48,"time_elapsed":1198922,"internal_node_id":"0.0-2.0-46.0"},{"group":"hexagon_bi","room_assignment":["purple","blue","red","green","yellow","grey"],"door_color_assignment":["white","black"],"door_generator_assignment":[1,0],"goal":5,"start":4,"action_noise":0.15,"location_history":"[4,5]","action_history":"[1]","door_history":"[0]","location_rts":"[1167]","trial_type":"two-door-navigation","trial_index":49,"time_elapsed":1204615,"internal_node_id":"0.0-2.0-47.0"},{"group":"hexagon_bi","room_assignment":["purple","blue","red","green","yellow","grey"],"door_color_assignment":["white","black"],"door_generator_assignment":[1,0],"goal":2,"start":5,"action_noise":0.15,"location_history":"[5,0,5,4,3,2]","action_history":"[0,1,1,0,1]","door_history":"[1,0,0,1,0]","location_rts":"[1274,761,947,476,516]","trial_type":"two-door-navigation","trial_index":50,"time_elapsed":1217194,"internal_node_id":"0.0-2.0-48.0"},{"group":"hexagon_bi","room_assignment":["purple","blue","red","green","yellow","grey"],"door_color_assignment":["white","black"],"door_generator_assignment":[1,0],"goal":1,"start":2,"action_noise":0.15,"location_history":"[2,3,2,1]","action_history":"[1,1,0]","door_history":"[0,0,1]","location_rts":"[1642,680,715]","trial_type":"two-door-navigation","trial_index":51,"time_elapsed":1226805,"internal_node_id":"0.0-2.0-49.0"},{"view_history":"[{\"page_index\":0,\"viewing_time\":20965}]","rt":20965,"trial_type":"instructions","trial_index":52,"time_elapsed":1248772,"internal_node_id":"0.0-3.0"},{"view_history":"[{\"page_index\":0,\"viewing_time\":1098},{\"page_index\":1,\"viewing_time\":3957}]","rt":5055,"trial_type":"instructions","trial_index":53,"time_elapsed":1254828,"internal_node_id":"0.0-4.0"},{"group":"hexagon_tri","fractal_assignment":["../images/gry_blk.png","../images/cyn_red.png","../images/ylw_slt.png","../images/pnk_blu.png","../images/blu_wht.png","../images/org_blu.png"],"mutagen_generator_assignment":[0,1],"goal":2,"start":1,"action_noise":0.15,"location_history":"[1,3,2]","action_history":"[0,0]","mutagen_history":"[0,0]","location_rts":"[3698,698]","trial_type":"fractal-mutation","trial_index":54,"time_elapsed":1264908,"internal_node_id":"0.0-5.0-0.0"},{"group":"hexagon_tri","fractal_assignment":["../images/gry_blk.png","../images/cyn_red.png","../images/ylw_slt.png","../images/pnk_blu.png","../images/blu_wht.png","../images/org_blu.png"],"mutagen_generator_assignment":[0,1],"goal":0,"start":2,"action_noise":0.15,"location_history":"[2,3,4,0]","action_history":"[1,0,0]","mutagen_history":"[1,0,0]","location_rts":"[994,385,351]","trial_type":"fractal-mutation","trial_index":55,"time_elapsed":1273458,"internal_node_id":"0.0-5.0-1.0"},{"group":"hexagon_tri","fractal_assignment":["../images/gry_blk.png","../images/cyn_red.png","../images/ylw_slt.png","../images/pnk_blu.png","../images/blu_wht.png","../images/org_blu.png"],"mutagen_generator_assignment":[0,1],"goal":5,"start":0,"action_noise":0.15,"location_history":"[0,1,3,2,3,4,0,1,3,2,3,4,0,1,3,4,2,1,3,4,2,1,5]","action_history":"[1,0,0,1,0,0,1,0,0,1,1,0,1,0,1,0,0,0,1,0,0,1]","mutagen_history":"[1,0,0,1,0,0,1,0,0,1,1,0,1,0,1,0,0,0,1,0,0,1]","location_rts":"[1878,393,379,591,429,408,546,492,440,601,950,402,779,1114,1090,1250,429,554,489,459,459,1034]","trial_type":"fractal-mutation","trial_index":56,"time_elapsed":1316196,"internal_node_id":"0.0-5.0-2.0"},{"group":"hexagon_tri","fractal_assignment":["../images/gry_blk.png","../images/cyn_red.png","../images/ylw_slt.png","../images/pnk_blu.png","../images/blu_wht.png","../images/org_blu.png"],"mutagen_generator_assignment":[0,1],"goal":1,"start":5,"action_noise":0.15,"location_history":"[5,4,0,1]","action_history":"[0,0,1]","mutagen_history":"[0,0,1]","location_rts":"[1534,406,587]","trial_type":"fractal-mutation","trial_index":57,"time_elapsed":1325503,"internal_node_id":"0.0-5.0-3.0"},{"group":"hexagon_tri","fractal_assignment":["../images/gry_blk.png","../images/cyn_red.png","../images/ylw_slt.png","../images/pnk_blu.png","../images/blu_wht.png","../images/org_blu.png"],"mutagen_generator_assignment":[0,1],"goal":3,"start":1,"action_noise":0.15,"location_history":"[1,3]","action_history":"[0]","mutagen_history":"[0]","location_rts":"[1028]","trial_type":"fractal-mutation","trial_index":58,"time_elapsed":1331109,"internal_node_id":"0.0-5.0-4.0"},{"group":"hexagon_tri","fractal_assignment":["../images/gry_blk.png","../images/cyn_red.png","../images/ylw_slt.png","../images/pnk_blu.png","../images/blu_wht.png","../images/org_blu.png"],"mutagen_generator_assignment":[0,1],"goal":5,"start":3,"action_noise":0.15,"location_history":"[3,2,3,2,1,3,4,2,3,4,0,1,5]","action_history":"[0,1,0,0,0,1,1,1,1,0,1,1]","mutagen_history":"[0,1,0,0,0,1,1,1,1,0,1,1]","location_rts":"[1008,636,437,363,502,365,506,636,748,601,432,852]","trial_type":"fractal-mutation","trial_index":59,"time_elapsed":1354862,"internal_node_id":"0.0-5.0-5.0"},{"group":"hexagon_tri","fractal_assignment":["../images/gry_blk.png","../images/cyn_red.png","../images/ylw_slt.png","../images/pnk_blu.png","../images/blu_wht.png","../images/org_blu.png"],"mutagen_generator_assignment":[0,1],"goal":4,"start":5,"action_noise":0.15,"location_history":"[5,4]","action_history":"[0]","mutagen_history":"[0]","location_rts":"[1750]","trial_type":"fractal-mutation","trial_index":60,"time_elapsed":1361201,"internal_node_id":"0.0-5.0-6.0"},{"group":"hexagon_tri","fractal_assignment":["../images/gry_blk.png","../images/cyn_red.png","../images/ylw_slt.png","../images/pnk_blu.png","../images/blu_wht.png","../images/org_blu.png"],"mutagen_generator_assignment":[0,1],"goal":0,"start":4,"action_noise":0.15,"location_history":"[4,2,1,3,2,1,5,4,2,3,2,1,3,2,1,3,2,1,5,4,2,3,4,2,3,2,1,5,0]","action_history":"[0,0,0,0,0,1,0,0,1,0,0,1,0,0,0,1,0,1,0,1,1,1,1,1,0,0,1,1]","mutagen_history":"[0,0,0,0,0,1,0,0,1,0,0,1,0,0,0,1,0,1,0,1,1,1,1,1,0,0,1,1]","location_rts":"[1246,424,654,654,299,156,350,355,551,402,288,473,499,356,788,298,597,548,1075,664,759,1458,754,647,478,429,550,1100]","trial_type":"fractal-mutation","trial_index":61,"time_elapsed":1412280,"internal_node_id":"0.0-5.0-7.0"},{"group":"hexagon_tri","fractal_assignment":["../images/gry_blk.png","../images/cyn_red.png","../images/ylw_slt.png","../images/pnk_blu.png","../images/blu_wht.png","../images/org_blu.png"],"mutagen_generator_assignment":[0,1],"goal":2,"start":0,"action_noise":0.15,"location_history":"[0,5,4,0,5,0,5,0,5,0,5,4,2]","action_history":"[0,0,1,0,1,0,0,0,1,0,0,1]","mutagen_history":"[0,0,1,0,1,0,0,0,1,0,0,1]","location_rts":"[1131,646,359,348,436,486,850,1367,536,1064,480,188]","trial_type":"fractal-mutation","trial_index":62,"time_elapsed":1436752,"internal_node_id":"0.0-5.0-8.0"},{"group":"hexagon_tri","fractal_assignment":["../images/gry_blk.png","../images/cyn_red.png","../images/ylw_slt.png","../images/pnk_blu.png","../images/blu_wht.png","../images/org_blu.png"],"mutagen_generator_assignment":[0,1],"goal":4,"start":2,"action_noise":0.15,"location_history":"[2,1,3,4]","action_history":"[0,0,1]","mutagen_history":"[0,0,1]","location_rts":"[874,564,495]","trial_type":"fractal-mutation","trial_index":63,"time_elapsed":1445466,"internal_node_id":"0.0-5.0-9.0"},{"group":"hexagon_tri","fractal_assignment":["../images/gry_blk.png","../images/cyn_red.png","../images/ylw_slt.png","../images/pnk_blu.png","../images/blu_wht.png","../images/org_blu.png"],"mutagen_generator_assignment":[0,1],"goal":2,"start":4,"action_noise":0.15,"location_history":"[4,2]","action_history":"[1]","mutagen_history":"[1]","location_rts":"[1530]","trial_type":"fractal-mutation","trial_index":64,"time_elapsed":1451633,"internal_node_id":"0.0-5.0-10.0"},{"group":"hexagon_tri","fractal_assignment":["../images/gry_blk.png","../images/cyn_red.png","../images/ylw_slt.png","../images/pnk_blu.png","../images/blu_wht.png","../images/org_blu.png"],"mutagen_generator_assignment":[0,1],"goal":3,"start":2,"action_noise":0.15,"location_history":"[2,3]","action_history":"[0]","mutagen_history":"[0]","location_rts":"[1198]","trial_type":"fractal-mutation","trial_index":65,"time_elapsed":1457407,"internal_node_id":"0.0-5.0-11.0"},{"group":"hexagon_tri","fractal_assignment":["../images/gry_blk.png","../images/cyn_red.png","../images/ylw_slt.png","../images/pnk_blu.png","../images/blu_wht.png","../images/org_blu.png"],"mutagen_generator_assignment":[0,1],"goal":0,"start":3,"action_noise":0.15,"location_history":"[3,4,2,3,4,2,3,4,2,1,5,4,0]","action_history":"[0,1,1,1,0,1,1,1,1,1,0,0]","mutagen_history":"[0,1,1,1,0,1,1,1,1,1,0,0]","location_rts":"[1451,1028,1452,638,932,574,2128,846,829,1433,809,932]","trial_type":"fractal-mutation","trial_index":66,"time_elapsed":1487186,"internal_node_id":"0.0-5.0-12.0"},{"group":"hexagon_tri","fractal_assignment":["../images/gry_blk.png","../images/cyn_red.png","../images/ylw_slt.png","../images/pnk_blu.png","../images/blu_wht.png","../images/org_blu.png"],"mutagen_generator_assignment":[0,1],"goal":5,"start":0,"action_noise":0.15,"location_history":"[0,1,5]","action_history":"[1,1]","mutagen_history":"[1,1]","location_rts":"[1240,730]","trial_type":"fractal-mutation","trial_index":67,"time_elapsed":1494871,"internal_node_id":"0.0-5.0-13.0"},{"group":"hexagon_tri","fractal_assignment":["../images/gry_blk.png","../images/cyn_red.png","../images/ylw_slt.png","../images/pnk_blu.png","../images/blu_wht.png","../images/org_blu.png"],"mutagen_generator_assignment":[0,1],"goal":1,"start":5,"action_noise":0.15,"location_history":"[5,0,5,4,0,5,4,0,1]","action_history":"[1,0,0,0,1,0,0,1]","mutagen_history":"[1,0,0,0,1,0,0,1]","location_rts":"[1271,539,386,443,704,538,396,621]","trial_type":"fractal-mutation","trial_index":68,"time_elapsed":1512022,"internal_node_id":"0.0-5.0-14.0"},{"group":"hexagon_tri","fractal_assignment":["../images/gry_blk.png","../images/cyn_red.png","../images/ylw_slt.png","../images/pnk_blu.png","../images/blu_wht.png","../images/org_blu.png"],"mutagen_generator_assignment":[0,1],"goal":5,"start":1,"action_noise":0.15,"location_history":"[1,5]","action_history":"[1]","mutagen_history":"[1]","location_rts":"[1322]","trial_type":"fractal-mutation","trial_index":69,"time_elapsed":1517968,"internal_node_id":"0.0-5.0-15.0"},{"group":"hexagon_tri","fractal_assignment":["../images/gry_blk.png","../images/cyn_red.png","../images/ylw_slt.png","../images/pnk_blu.png","../images/blu_wht.png","../images/org_blu.png"],"mutagen_generator_assignment":[0,1],"goal":3,"start":5,"action_noise":0.15,"location_history":"[5,4,0,5,0,5,0,1,5,4,2,1,3]","action_history":"[0,1,0,1,0,0,1,0,0,1,0,0]","mutagen_history":"[0,1,0,1,0,0,1,0,0,1,0,0]","location_rts":"[1654,783,656,840,552,638,467,535,483,616,432,472]","trial_type":"fractal-mutation","trial_index":70,"time_elapsed":1542806,"internal_node_id":"0.0-5.0-16.0"},{"group":"hexagon_tri","fractal_assignment":["../images/gry_blk.png","../images/cyn_red.png","../images/ylw_slt.png","../images/pnk_blu.png","../images/blu_wht.png","../images/org_blu.png"],"mutagen_generator_assignment":[0,1],"goal":2,"start":3,"action_noise":0.15,"location_history":"[3,2]","action_history":"[0]","mutagen_history":"[0]","location_rts":"[6829]","trial_type":"fractal-mutation","trial_index":71,"time_elapsed":1554220,"internal_node_id":"0.0-5.0-17.0"},{"group":"hexagon_tri","fractal_assignment":["../images/gry_blk.png","../images/cyn_red.png","../images/ylw_slt.png","../images/pnk_blu.png","../images/blu_wht.png","../images/org_blu.png"],"mutagen_generator_assignment":[0,1],"goal":1,"start":2,"action_noise":0.15,"location_history":"[2,3,2,3,2,3,4,0,5,4,0,5,0,5,4,0,5,4,0,1]","action_history":"[0,0,1,0,0,1,0,0,1,0,0,1,0,1,0,0,1,0,1]","mutagen_history":"[0,0,1,0,0,1,0,0,1,0,0,1,0,1,0,0,1,0,1]","location_rts":"[1223,534,538,438,360,437,484,446,731,388,604,650,367,659,1068,433,702,517,838]","trial_type":"fractal-mutation","trial_index":72,"time_elapsed":1590030,"internal_node_id":"0.0-5.0-18.0"},{"group":"hexagon_tri","fractal_assignment":["../images/gry_blk.png","../images/cyn_red.png","../images/ylw_slt.png","../images/pnk_blu.png","../images/blu_wht.png","../images/org_blu.png"],"mutagen_generator_assignment":[0,1],"goal":4,"start":1,"action_noise":0.15,"location_history":"[1,5,4]","action_history":"[0,0]","mutagen_history":"[0,0]","location_rts":"[1057,565]","trial_type":"fractal-mutation","trial_index":73,"time_elapsed":1597331,"internal_node_id":"0.0-5.0-19.0"},{"group":"hexagon_tri","fractal_assignment":["../images/gry_blk.png","../images/cyn_red.png","../images/ylw_slt.png","../images/pnk_blu.png","../images/blu_wht.png","../images/org_blu.png"],"mutagen_generator_assignment":[0,1],"goal":0,"start":4,"action_noise":0.15,"location_history":"[4,0]","action_history":"[0]","mutagen_history":"[0]","location_rts":"[944]","trial_type":"fractal-mutation","trial_index":74,"time_elapsed":1602857,"internal_node_id":"0.0-5.0-20.0"},{"group":"hexagon_tri","fractal_assignment":["../images/gry_blk.png","../images/cyn_red.png","../images/ylw_slt.png","../images/pnk_blu.png","../images/blu_wht.png","../images/org_blu.png"],"mutagen_generator_assignment":[0,1],"goal":3,"start":0,"action_noise":0.15,"location_history":"[0,5,4,2,3]","action_history":"[0,0,1,0]","mutagen_history":"[0,0,1,0]","location_rts":"[1851,509,691,572]","trial_type":"fractal-mutation","trial_index":75,"time_elapsed":1614339,"internal_node_id":"0.0-5.0-21.0"},{"group":"hexagon_tri","fractal_assignment":["../images/gry_blk.png","../images/cyn_red.png","../images/ylw_slt.png","../images/pnk_blu.png","../images/blu_wht.png","../images/org_blu.png"],"mutagen_generator_assignment":[0,1],"goal":1,"start":3,"action_noise":0.15,"location_history":"[3,2,1]","action_history":"[0,0]","mutagen_history":"[0,0]","location_rts":"[738,390]","trial_type":"fractal-mutation","trial_index":76,"time_elapsed":1621122,"internal_node_id":"0.0-5.0-22.0"},{"group":"hexagon_tri","fractal_assignment":["../images/gry_blk.png","../images/cyn_red.png","../images/ylw_slt.png","../images/pnk_blu.png","../images/blu_wht.png","../images/org_blu.png"],"mutagen_generator_assignment":[0,1],"goal":0,"start":1,"action_noise":0.15,"location_history":"[1,3,2,3,4,0]","action_history":"[0,0,1,1,0]","mutagen_history":"[0,0,1,1,0]","location_rts":"[875,387,347,1037,661]","trial_type":"fractal-mutation","trial_index":77,"time_elapsed":1633393,"internal_node_id":"0.0-5.0-23.0"},{"group":"hexagon_tri","fractal_assignment":["../images/gry_blk.png","../images/cyn_red.png","../images/ylw_slt.png","../images/pnk_blu.png","../images/blu_wht.png","../images/org_blu.png"],"mutagen_generator_assignment":[0,1],"goal":2,"start":0,"action_noise":0.15,"location_history":"[0,5,0,5,4,2]","action_history":"[0,1,0,0,1]","mutagen_history":"[0,1,0,0,1]","location_rts":"[929,741,308,434,563]","trial_type":"fractal-mutation","trial_index":78,"time_elapsed":1645337,"internal_node_id":"0.0-5.0-24.0"},{"group":"hexagon_tri","fractal_assignment":["../images/gry_blk.png","../images/cyn_red.png","../images/ylw_slt.png","../images/pnk_blu.png","../images/blu_wht.png","../images/org_blu.png"],"mutagen_generator_assignment":[0,1],"goal":4,"start":2,"action_noise":0.15,"location_history":"[2,1,3,2,1,5,0,1,3,4]","action_history":"[0,0,1,0,0,1,0,0,1]","mutagen_history":"[0,0,1,0,0,1,0,0,1]","location_rts":"[1730,488,579,364,352,491,410,438,598]","trial_type":"fractal-mutation","trial_index":79,"time_elapsed":1664138,"internal_node_id":"0.0-5.0-25.0"},{"group":"hexagon_tri","fractal_assignment":["../images/gry_blk.png","../images/cyn_red.png","../images/ylw_slt.png","../images/pnk_blu.png","../images/blu_wht.png","../images/org_blu.png"],"mutagen_generator_assignment":[0,1],"goal":5,"start":4,"action_noise":0.15,"location_history":"[4,0,1,5]","action_history":"[0,0,1]","mutagen_history":"[0,0,1]","location_rts":"[3746,405,493]","trial_type":"fractal-mutation","trial_index":80,"time_elapsed":1675558,"internal_node_id":"0.0-5.0-26.0"},{"group":"hexagon_tri","fractal_assignment":["../images/gry_blk.png","../images/cyn_red.png","../images/ylw_slt.png","../images/pnk_blu.png","../images/blu_wht.png","../images/org_blu.png"],"mutagen_generator_assignment":[0,1],"goal":2,"start":5,"action_noise":0.15,"location_history":"[5,0,5,0,5,0,5,0,5,4,2]","action_history":"[0,0,1,0,1,0,1,0,0,1]","mutagen_history":"[0,0,1,0,1,0,1,0,0,1]","location_rts":"[1146,435,511,360,866,562,602,629,453,524]","trial_type":"fractal-mutation","trial_index":81,"time_elapsed":1696089,"internal_node_id":"0.0-5.0-27.0"},{"group":"hexagon_tri","fractal_assignment":["../images/gry_blk.png","../images/cyn_red.png","../images/ylw_slt.png","../images/pnk_blu.png","../images/blu_wht.png","../images/org_blu.png"],"mutagen_generator_assignment":[0,1],"goal":3,"start":2,"action_noise":0.15,"location_history":"[2,1,3]","action_history":"[0,0]","mutagen_history":"[0,0]","location_rts":"[2946,852]","trial_type":"fractal-mutation","trial_index":82,"time_elapsed":1705571,"internal_node_id":"0.0-5.0-28.0"},{"group":"hexagon_tri","fractal_assignment":["../images/gry_blk.png","../images/cyn_red.png","../images/ylw_slt.png","../images/pnk_blu.png","../images/blu_wht.png","../images/org_blu.png"],"mutagen_generator_assignment":[0,1],"goal":1,"start":3,"action_noise":0.15,"location_history":"[3,2,1]","action_history":"[0,0]","mutagen_history":"[0,0]","location_rts":"[1402,314]","trial_type":"fractal-mutation","trial_index":83,"time_elapsed":1712956,"internal_node_id":"0.0-5.0-29.0"},{"group":"hexagon_tri","fractal_assignment":["../images/gry_blk.png","../images/cyn_red.png","../images/ylw_slt.png","../images/pnk_blu.png","../images/blu_wht.png","../images/org_blu.png"],"mutagen_generator_assignment":[0,1],"goal":4,"start":1,"action_noise":0.15,"location_history":"[1,3,4]","action_history":"[0,1]","mutagen_history":"[0,1]","location_rts":"[769,601]","trial_type":"fractal-mutation","trial_index":84,"time_elapsed":1720052,"internal_node_id":"0.0-5.0-30.0"},{"group":"hexagon_tri","fractal_assignment":["../images/gry_blk.png","../images/cyn_red.png","../images/ylw_slt.png","../images/pnk_blu.png","../images/blu_wht.png","../images/org_blu.png"],"mutagen_generator_assignment":[0,1],"goal":5,"start":4,"action_noise":0.15,"location_history":"[4,2,1,3,2,1,5]","action_history":"[1,0,1,0,0,1]","mutagen_history":"[1,0,1,0,0,1]","location_rts":"[1361,847,574,400,422,552]","trial_type":"fractal-mutation","trial_index":85,"time_elapsed":1734366,"internal_node_id":"0.0-5.0-31.0"},{"group":"hexagon_tri","fractal_assignment":["../images/gry_blk.png","../images/cyn_red.png","../images/ylw_slt.png","../images/pnk_blu.png","../images/blu_wht.png","../images/org_blu.png"],"mutagen_generator_assignment":[0,1],"goal":0,"start":5,"action_noise":0.15,"location_history":"[5,4,2,3,2,1,3,2,1,5,4,0]","action_history":"[0,0,1,0,0,1,0,0,1,0,0]","mutagen_history":"[0,0,1,0,0,1,0,0,1,0,0]","location_rts":"[799,469,472,569,655,603,621,399,587,580,636]","trial_type":"fractal-mutation","trial_index":86,"time_elapsed":1756318,"internal_node_id":"0.0-5.0-32.0"},{"group":"hexagon_tri","fractal_assignment":["../images/gry_blk.png","../images/cyn_red.png","../images/ylw_slt.png","../images/pnk_blu.png","../images/blu_wht.png","../images/org_blu.png"],"mutagen_generator_assignment":[0,1],"goal":2,"start":0,"action_noise":0.15,"location_history":"[0,5,4,0,5,4,0,1,3,2]","action_history":"[0,0,1,0,0,0,1,0,0]","mutagen_history":"[0,0,1,0,0,0,1,0,0]","location_rts":"[799,364,401,301,418,489,275,365,356]","trial_type":"fractal-mutation","trial_index":87,"time_elapsed":1773406,"internal_node_id":"0.0-5.0-33.0"},{"group":"hexagon_tri","fractal_assignment":["../images/gry_blk.png","../images/cyn_red.png","../images/ylw_slt.png","../images/pnk_blu.png","../images/blu_wht.png","../images/org_blu.png"],"mutagen_generator_assignment":[0,1],"goal":0,"start":2,"action_noise":0.15,"location_history":"[2,1,3,4,0]","action_history":"[0,0,1,0]","mutagen_history":"[0,0,1,0]","location_rts":"[1574,506,371,373]","trial_type":"fractal-mutation","trial_index":88,"time_elapsed":1784079,"internal_node_id":"0.0-5.0-34.0"},{"group":"hexagon_tri","fractal_assignment":["../images/gry_blk.png","../images/cyn_red.png","../images/ylw_slt.png","../images/pnk_blu.png","../images/blu_wht.png","../images/org_blu.png"],"mutagen_generator_assignment":[0,1],"goal":5,"start":0,"action_noise":0.15,"location_history":"[0,5]","action_history":"[0]","mutagen_history":"[0]","location_rts":"[835]","trial_type":"fractal-mutation","trial_index":89,"time_elapsed":1789495,"internal_node_id":"0.0-5.0-35.0"},{"group":"hexagon_tri","fractal_assignment":["../images/gry_blk.png","../images/cyn_red.png","../images/ylw_slt.png","../images/pnk_blu.png","../images/blu_wht.png","../images/org_blu.png"],"mutagen_generator_assignment":[0,1],"goal":1,"start":5,"action_noise":0.15,"location_history":"[5,4,2,1]","action_history":"[0,1,0]","mutagen_history":"[0,1,0]","location_rts":"[758,305,393]","trial_type":"fractal-mutation","trial_index":90,"time_elapsed":1797719,"internal_node_id":"0.0-5.0-36.0"},{"group":"hexagon_tri","fractal_assignment":["../images/gry_blk.png","../images/cyn_red.png","../images/ylw_slt.png","../images/pnk_blu.png","../images/blu_wht.png","../images/org_blu.png"],"mutagen_generator_assignment":[0,1],"goal":4,"start":1,"action_noise":0.15,"location_history":"[1,3,2,3,2,1,5,4]","action_history":"[0,0,1,0,0,1,0]","mutagen_history":"[0,0,1,0,0,1,0]","location_rts":"[677,501,397,381,390,451,411]","trial_type":"fractal-mutation","trial_index":91,"time_elapsed":1812032,"internal_node_id":"0.0-5.0-37.0"},{"group":"hexagon_tri","fractal_assignment":["../images/gry_blk.png","../images/cyn_red.png","../images/ylw_slt.png","../images/pnk_blu.png","../images/blu_wht.png","../images/org_blu.png"],"mutagen_generator_assignment":[0,1],"goal":3,"start":4,"action_noise":0.15,"location_history":"[4,2,1,5,4,2,1,3]","action_history":"[0,0,1,0,0,1,0]","mutagen_history":"[0,0,1,0,0,1,0]","location_rts":"[753,421,286,404,729,440,393]","trial_type":"fractal-mutation","trial_index":92,"time_elapsed":1826581,"internal_node_id":"0.0-5.0-38.0"},{"group":"hexagon_tri","fractal_assignment":["../images/gry_blk.png","../images/cyn_red.png","../images/ylw_slt.png","../images/pnk_blu.png","../images/blu_wht.png","../images/org_blu.png"],"mutagen_generator_assignment":[0,1],"goal":5,"start":3,"action_noise":0.15,"location_history":"[3,2,3,4,2,3,4,0,1,5]","action_history":"[0,0,1,1,1,1,0,1,0]","mutagen_history":"[0,0,1,1,1,1,0,1,0]","location_rts":"[815,359,754,524,726,605,811,28,717]","trial_type":"fractal-mutation","trial_index":93,"time_elapsed":1845305,"internal_node_id":"0.0-5.0-39.0"},{"group":"hexagon_tri","fractal_assignment":["../images/gry_blk.png","../images/cyn_red.png","../images/ylw_slt.png","../images/pnk_blu.png","../images/blu_wht.png","../images/org_blu.png"],"mutagen_generator_assignment":[0,1],"goal":1,"start":5,"action_noise":0.15,"location_history":"[5,0,5,4,2,1]","action_history":"[1,0,0,1,0]","mutagen_history":"[1,0,0,1,0]","location_rts":"[1839,617,496,436,386]","trial_type":"fractal-mutation","trial_index":94,"time_elapsed":1858084,"internal_node_id":"0.0-5.0-40.0"},{"group":"hexagon_tri","fractal_assignment":["../images/gry_blk.png","../images/cyn_red.png","../images/ylw_slt.png","../images/pnk_blu.png","../images/blu_wht.png","../images/org_blu.png"],"mutagen_generator_assignment":[0,1],"goal":2,"start":1,"action_noise":0.15,"location_history":"[1,3,2]","action_history":"[0,0]","mutagen_history":"[0,0]","location_rts":"[680,879]","trial_type":"fractal-mutation","trial_index":95,"time_elapsed":1865300,"internal_node_id":"0.0-5.0-41.0"},{"group":"hexagon_tri","fractal_assignment":["../images/gry_blk.png","../images/cyn_red.png","../images/ylw_slt.png","../images/pnk_blu.png","../images/blu_wht.png","../images/org_blu.png"],"mutagen_generator_assignment":[0,1],"goal":4,"start":2,"action_noise":0.15,"location_history":"[2,1,5,4]","action_history":"[0,0,1]","mutagen_history":"[0,0,1]","location_rts":"[1410,340,392]","trial_type":"fractal-mutation","trial_index":96,"time_elapsed":1874245,"internal_node_id":"0.0-5.0-42.0"},{"group":"hexagon_tri","fractal_assignment":["../images/gry_blk.png","../images/cyn_red.png","../images/ylw_slt.png","../images/pnk_blu.png","../images/blu_wht.png","../images/org_blu.png"],"mutagen_generator_assignment":[0,1],"goal":0,"start":4,"action_noise":0.15,"location_history":"[4,0]","action_history":"[0]","mutagen_history":"[0]","location_rts":"[742]","trial_type":"fractal-mutation","trial_index":97,"time_elapsed":1879566,"internal_node_id":"0.0-5.0-43.0"},{"group":"hexagon_tri","fractal_assignment":["../images/gry_blk.png","../images/cyn_red.png","../images/ylw_slt.png","../images/pnk_blu.png","../images/blu_wht.png","../images/org_blu.png"],"mutagen_generator_assignment":[0,1],"goal":3,"start":0,"action_noise":0.15,"location_history":"[0,1,3]","action_history":"[0,0]","mutagen_history":"[0,0]","location_rts":"[894,450]","trial_type":"fractal-mutation","trial_index":98,"time_elapsed":1886581,"internal_node_id":"0.0-5.0-44.0"},{"group":"hexagon_tri","fractal_assignment":["../images/gry_blk.png","../images/cyn_red.png","../images/ylw_slt.png","../images/pnk_blu.png","../images/blu_wht.png","../images/org_blu.png"],"mutagen_generator_assignment":[0,1],"goal":0,"start":3,"action_noise":0.15,"location_history":"[3,4,0]","action_history":"[0,0]","mutagen_history":"[0,0]","location_rts":"[833,456]","trial_type":"fractal-mutation","trial_index":99,"time_elapsed":1893533,"internal_node_id":"0.0-5.0-45.0"},{"group":"hexagon_tri","fractal_assignment":["../images/gry_blk.png","../images/cyn_red.png","../images/ylw_slt.png","../images/pnk_blu.png","../images/blu_wht.png","../images/org_blu.png"],"mutagen_generator_assignment":[0,1],"goal":4,"start":0,"action_noise":0.15,"location_history":"[0,1,3,2,1,3,4]","action_history":"[0,0,1,0,0,1]","mutagen_history":"[0,0,1,0,0,1]","location_rts":"[863,406,422,518,352,894]","trial_type":"fractal-mutation","trial_index":100,"time_elapsed":1907117,"internal_node_id":"0.0-5.0-46.0"},{"group":"hexagon_tri","fractal_assignment":["../images/gry_blk.png","../images/cyn_red.png","../images/ylw_slt.png","../images/pnk_blu.png","../images/blu_wht.png","../images/org_blu.png"],"mutagen_generator_assignment":[0,1],"goal":5,"start":4,"action_noise":0.15,"location_history":"[4,0,1,3,2,3,2,1,5]","action_history":"[0,1,0,0,1,0,0,1]","mutagen_history":"[0,1,0,0,1,0,0,1]","location_rts":"[1461,1155,485,615,433,421,540,241]","trial_type":"fractal-mutation","trial_index":101,"time_elapsed":1924776,"internal_node_id":"0.0-5.0-47.0"},{"group":"hexagon_tri","fractal_assignment":["../images/gry_blk.png","../images/cyn_red.png","../images/ylw_slt.png","../images/pnk_blu.png","../images/blu_wht.png","../images/org_blu.png"],"mutagen_generator_assignment":[0,1],"goal":2,"start":5,"action_noise":0.15,"location_history":"[5,0,5,0,5,4,2]","action_history":"[1,0,1,0,0,1]","mutagen_history":"[1,0,1,0,0,1]","location_rts":"[852,754,741,1407,445,240]","trial_type":"fractal-mutation","trial_index":102,"time_elapsed":1939367,"internal_node_id":"0.0-5.0-48.0"},{"group":"hexagon_tri","fractal_assignment":["../images/gry_blk.png","../images/cyn_red.png","../images/ylw_slt.png","../images/pnk_blu.png","../images/blu_wht.png","../images/org_blu.png"],"mutagen_generator_assignment":[0,1],"goal":1,"start":2,"action_noise":0.15,"location_history":"[2,1]","action_history":"[0]","mutagen_history":"[0]","location_rts":"[793]","trial_type":"fractal-mutation","trial_index":103,"time_elapsed":1944743,"internal_node_id":"0.0-5.0-49.0"},{"view_history":"[{\"page_index\":0,\"viewing_time\":3202}]","rt":3202,"trial_type":"instructions","trial_index":104,"time_elapsed":1948946,"internal_node_id":"0.0-6.0"},{"rt":60693,"responses":"{\"Q0\":\"On whether or not we could find the connections between the colors. \"}","trial_type":"survey-text","trial_index":105,"time_elapsed":2010646,"internal_node_id":"0.0-7.0-0.0"},{"rt":21638,"responses":"{\"Q0\":\"To see if adding more randomness affected our learning speed. \"}","trial_type":"survey-text","trial_index":106,"time_elapsed":2033294,"internal_node_id":"0.0-7.0-1.0"},{"rt":16225,"responses":"{\"Q0\":\"<img src='../images/diagrams/hexagon_tri.png'>\"}","trial_type":"survey-multi-choice","trial_index":107,"time_elapsed":2050525,"internal_node_id":"0.0-7.0-2.0"},{"rt":33517,"assignments":["../images/gry_blk.png","../images/cyn_red.png","../images/blu_wht.png","../images/ylw_slt.png","../images/pnk_blu.png","../images/org_blu.png"],"trial_type":"drag-drop-on-image","trial_index":108,"time_elapsed":2085053,"internal_node_id":"0.0-7.0-3.0"},{"rt":43715,"responses":"{\"Q0\":\"2\"}","trial_type":"survey-likert","trial_index":109,"time_elapsed":2129771,"internal_node_id":"0.0-7.0-4.0"},{"rt":19026,"responses":"{\"Q0\":\"They both focused on links between certain colors. \"}","trial_type":"survey-text","trial_index":110,"time_elapsed":2149799,"internal_node_id":"0.0-7.0-5.0"},{"rt":56992,"responses":"{\"Q0\":\"Yes\"}","trial_type":"survey-multi-choice","trial_index":111,"time_elapsed":2207794,"internal_node_id":"0.0-7.0-6.0"},{"rt":7137,"responses":"{\"Q0\":\"During session 2\"}","trial_type":"survey-multi-choice","trial_index":112,"time_elapsed":2215934,"internal_node_id":"0.0-7.0-7.0"},{"rt":177025,"responses":"{\"Q0\":\"I seemed like their were different levels and certain responses were what took you between them\"}","trial_type":"survey-text","trial_index":113,"time_elapsed":2393962,"internal_node_id":"0.0-7.0-8.0"},{"rt":6206,"responses":"{\"Q0\":\"0\"}","trial_type":"survey-likert","trial_index":114,"time_elapsed":2401178,"internal_node_id":"0.0-7.0-9.0"},{"rt":10428,"responses":"{\"Q0\":\"Different structure\"}","trial_type":"survey-multi-choice","trial_index":115,"time_elapsed":2412608,"internal_node_id":"0.0-7.0-10.0"},{"rt":61573,"responses":"{\"Q0\":\"left (white) door = ray, right (black) door = acid\",\"Q1\":\"Slightly confident\"}","trial_type":"survey-multi-choice","trial_index":116,"time_elapsed":2475188,"internal_node_id":"0.0-7.0-11.0"},{"rt":8090,"responses":"{\"Q0\":\"25-35\",\"Q1\":\"Bachelor's degree\",\"Q2\":\"Female\",\"Q3\":\"Asian\"}","trial_type":"survey-multi-choice","trial_index":117,"time_elapsed":2484286,"internal_node_id":"0.0-8.0"},{"rt":1800,"responses":"{\"Q0\":\"\"}","trial_type":"survey-text","trial_index":118,"time_elapsed":2487089,"internal_node_id":"0.0-9.0"}]