[{"view_history":"[{\"page_index\":0,\"viewing_time\":53112},{\"page_index\":1,\"viewing_time\":12852}]","rt":65966,"trial_type":"instructions","trial_index":0,"time_elapsed":65969,"internal_node_id":"0.0-0.0"},{"view_history":"[{\"page_index\":0,\"viewing_time\":2292},{\"page_index\":1,\"viewing_time\":9400}]","rt":11693,"trial_type":"instructions","trial_index":1,"time_elapsed":78663,"internal_node_id":"0.0-1.0"},{"group":"hexagon_bi","room_assignment":["purple","yellow","red","green","blue","grey"],"door_color_assignment":["white","black"],"door_generator_assignment":[0,1],"goal":2,"start":1,"action_noise":0.15,"location_history":"[1,0,5,4,5,4,5,0,5,4,5,4,3,2]","action_history":"[1,0,1,1,1,1,0,0,1,1,1,0,1]","door_history":"[1,0,1,1,1,1,0,0,1,1,1,0,1]","location_rts":"[6180,4788,4731,3491,949,267,873,1030,1148,730,1778,293,2726]","trial_type":"two-door-navigation","trial_index":2,"time_elapsed":124505,"internal_node_id":"0.0-2.0-0.0"},{"group":"hexagon_bi","room_assignment":["purple","yellow","red","green","blue","grey"],"door_color_assignment":["white","black"],"door_generator_assignment":[0,1],"goal":0,"start":2,"action_noise":0.15,"location_history":"[2,3,4,5,0]","action_history":"[1,0,1,0]","door_history":"[1,0,1,0]","location_rts":"[8154,1009,1775,3662]","trial_type":"two-door-navigation","trial_index":3,"time_elapsed":146898,"internal_node_id":"0.0-2.0-1.0"},{"group":"hexagon_bi","room_assignment":["purple","yellow","red","green","blue","grey"],"door_color_assignment":["white","black"],"door_generator_assignment":[0,1],"goal":5,"start":0,"action_noise":0.15,"location_history":"[0,5]","action_history":"[0]","door_history":"[0]","location_rts":"[1594]","trial_type":"two-door-navigation","trial_index":4,"time_elapsed":153033,"internal_node_id":"0.0-2.0-2.0"},{"group":"hexagon_bi","room_assignment":["purple","yellow","red","green","blue","grey"],"door_color_assignment":["white","black"],"door_generator_assignment":[0,1],"goal":1,"start":5,"action_noise":0.15,"location_history":"[5,0,5,4,5,0,5,4,3,2,1]","action_history":"[0,1,1,1,1,0,0,1,1,0]","door_history":"[0,1,1,1,1,0,0,1,1,0]","location_rts":"[2156,781,885,1528,741,320,975,1265,3439,2301]","trial_type":"two-door-navigation","trial_index":5,"time_elapsed":181855,"internal_node_id":"0.0-2.0-3.0"},{"group":"hexagon_bi","room_assignment":["purple","yellow","red","green","blue","grey"],"door_color_assignment":["white","black"],"door_generator_assignment":[0,1],"goal":3,"start":1,"action_noise":0.15,"location_history":"[1,2,1,0,5,4,5,4,3]","action_history":"[0,1,1,0,1,1,1,0]","door_history":"[0,1,1,0,1,1,1,0]","location_rts":"[3343,3247,3531,3387,3523,1859,423,275]","trial_type":"two-door-navigation","trial_index":6,"time_elapsed":213290,"internal_node_id":"0.0-2.0-4.0"},{"group":"hexagon_bi","room_assignment":["purple","yellow","red","green","blue","grey"],"door_color_assignment":["white","black"],"door_generator_assignment":[0,1],"goal":5,"start":3,"action_noise":0.15,"location_history":"[3,4,5]","action_history":"[1,1]","door_history":"[1,1]","location_rts":"[2012,798]","trial_type":"two-door-navigation","trial_index":7,"time_elapsed":221668,"internal_node_id":"0.0-2.0-5.0"},{"group":"hexagon_bi","room_assignment":["purple","yellow","red","green","blue","grey"],"door_color_assignment":["white","black"],"door_generator_assignment":[0,1],"goal":4,"start":5,"action_noise":0.15,"location_history":"[5,4]","action_history":"[1]","door_history":"[1]","location_rts":"[1339]","trial_type":"two-door-navigation","trial_index":8,"time_elapsed":227624,"internal_node_id":"0.0-2.0-6.0"},{"group":"hexagon_bi","room_assignment":["purple","yellow","red","green","blue","grey"],"door_color_assignment":["white","black"],"door_generator_assignment":[0,1],"goal":0,"start":4,"action_noise":0.15,"location_history":"[4,3,2,3,2,3,4,3,2,3,2,1,0]","action_history":"[0,1,1,1,0,0,0,1,0,1,1,1]","door_history":"[0,1,1,1,0,0,0,1,0,1,1,1]","location_rts":"[2512,1306,2842,832,307,2346,4003,3798,2837,1390,380,2621]","trial_type":"two-door-navigation","trial_index":9,"time_elapsed":268823,"internal_node_id":"0.0-2.0-7.0"},{"group":"hexagon_bi","room_assignment":["purple","yellow","red","green","blue","grey"],"door_color_assignment":["white","black"],"door_generator_assignment":[0,1],"goal":2,"start":0,"action_noise":0.15,"location_history":"[0,5,4,3,4,3,2]","action_history":"[1,1,0,1,1,1]","door_history":"[1,1,0,1,1,1]","location_rts":"[7491,796,1236,1215,1351,1832]","trial_type":"two-door-navigation","trial_index":10,"time_elapsed":292489,"internal_node_id":"0.0-2.0-8.0"},{"group":"hexagon_bi","room_assignment":["purple","yellow","red","green","blue","grey"],"door_color_assignment":["white","black"],"door_generator_assignment":[0,1],"goal":4,"start":2,"action_noise":0.15,"location_history":"[2,3,4]","action_history":"[1,0]","door_history":"[1,0]","location_rts":"[4501,2454]","trial_type":"two-door-navigation","trial_index":11,"time_elapsed":305045,"internal_node_id":"0.0-2.0-9.0"},{"group":"hexagon_bi","room_assignment":["purple","yellow","red","green","blue","grey"],"door_color_assignment":["white","black"],"door_generator_assignment":[0,1],"goal":2,"start":4,"action_noise":0.15,"location_history":"[4,5,4,3,2]","action_history":"[1,0,0,1]","door_history":"[1,0,0,1]","location_rts":"[3915,3341,1390,2547]","trial_type":"two-door-navigation","trial_index":12,"time_elapsed":323860,"internal_node_id":"0.0-2.0-10.0"},{"group":"hexagon_bi","room_assignment":["purple","yellow","red","green","blue","grey"],"door_color_assignment":["white","black"],"door_generator_assignment":[0,1],"goal":3,"start":2,"action_noise":0.15,"location_history":"[2,3]","action_history":"[1]","door_history":"[1]","location_rts":"[1196]","trial_type":"two-door-navigation","trial_index":13,"time_elapsed":329570,"internal_node_id":"0.0-2.0-11.0"},{"group":"hexagon_bi","room_assignment":["purple","yellow","red","green","blue","grey"],"door_color_assignment":["white","black"],"door_generator_assignment":[0,1],"goal":0,"start":3,"action_noise":0.15,"location_history":"[3,4,5,0]","action_history":"[0,1,0]","door_history":"[0,1,0]","location_rts":"[2026,2925,1182]","trial_type":"two-door-navigation","trial_index":14,"time_elapsed":342438,"internal_node_id":"0.0-2.0-12.0"},{"group":"hexagon_bi","room_assignment":["purple","yellow","red","green","blue","grey"],"door_color_assignment":["white","black"],"door_generator_assignment":[0,1],"goal":5,"start":0,"action_noise":0.15,"location_history":"[0,5]","action_history":"[1]","door_history":"[1]","location_rts":"[1768]","trial_type":"two-door-navigation","trial_index":15,"time_elapsed":348739,"internal_node_id":"0.0-2.0-13.0"},{"group":"hexagon_bi","room_assignment":["purple","yellow","red","green","blue","grey"],"door_color_assignment":["white","black"],"door_generator_assignment":[0,1],"goal":1,"start":5,"action_noise":0.15,"location_history":"[5,0,1]","action_history":"[0,1]","door_history":"[0,1]","location_rts":"[2924,2883]","trial_type":"two-door-navigation","trial_index":16,"time_elapsed":360085,"internal_node_id":"0.0-2.0-14.0"},{"group":"hexagon_bi","room_assignment":["purple","yellow","red","green","blue","grey"],"door_color_assignment":["white","black"],"door_generator_assignment":[0,1],"goal":5,"start":1,"action_noise":0.15,"location_history":"[1,0,5]","action_history":"[1,0]","door_history":"[1,0]","location_rts":"[4832,1393]","trial_type":"two-door-navigation","trial_index":17,"time_elapsed":372045,"internal_node_id":"0.0-2.0-15.0"},{"group":"hexagon_bi","room_assignment":["purple","yellow","red","green","blue","grey"],"door_color_assignment":["white","black"],"door_generator_assignment":[0,1],"goal":3,"start":5,"action_noise":0.15,"location_history":"[5,0,1,0,5,0,5,4,5,4,3]","action_history":"[1,1,1,1,0,0,1,1,1,0]","door_history":"[1,1,1,1,0,0,1,1,1,0]","location_rts":"[1336,2778,2834,724,176,601,1124,2854,501,264]","trial_type":"two-door-navigation","trial_index":18,"time_elapsed":399153,"internal_node_id":"0.0-2.0-16.0"},{"group":"hexagon_bi","room_assignment":["purple","yellow","red","green","blue","grey"],"door_color_assignment":["white","black"],"door_generator_assignment":[0,1],"goal":2,"start":3,"action_noise":0.15,"location_history":"[3,2]","action_history":"[1]","door_history":"[1]","location_rts":"[1516]","trial_type":"two-door-navigation","trial_index":19,"time_elapsed":405192,"internal_node_id":"0.0-2.0-17.0"},{"group":"hexagon_bi","room_assignment":["purple","yellow","red","green","blue","grey"],"door_color_assignment":["white","black"],"door_generator_assignment":[0,1],"goal":1,"start":2,"action_noise":0.15,"location_history":"[2,1]","action_history":"[0]","door_history":"[0]","location_rts":"[4266]","trial_type":"two-door-navigation","trial_index":20,"time_elapsed":414041,"internal_node_id":"0.0-2.0-18.0"},{"group":"hexagon_bi","room_assignment":["purple","yellow","red","green","blue","grey"],"door_color_assignment":["white","black"],"door_generator_assignment":[0,1],"goal":4,"start":1,"action_noise":0.15,"location_history":"[1,2,3,4]","action_history":"[1,1,0]","door_history":"[1,1,0]","location_rts":"[4012,3400,2691]","trial_type":"two-door-navigation","trial_index":21,"time_elapsed":430796,"internal_node_id":"0.0-2.0-19.0"},{"group":"hexagon_bi","room_assignment":["purple","yellow","red","green","blue","grey"],"door_color_assignment":["white","black"],"door_generator_assignment":[0,1],"goal":0,"start":4,"action_noise":0.15,"location_history":"[4,5,0]","action_history":"[1,0]","door_history":"[1,0]","location_rts":"[3306,3289]","trial_type":"two-door-navigation","trial_index":22,"time_elapsed":443015,"internal_node_id":"0.0-2.0-20.0"},{"group":"hexagon_bi","room_assignment":["purple","yellow","red","green","blue","grey"],"door_color_assignment":["white","black"],"door_generator_assignment":[0,1],"goal":3,"start":0,"action_noise":0.15,"location_history":"[0,5,0,1,0,1,0,5,0,1,0,1,0,1,2,3]","action_history":"[0,1,1,1,1,0,0,0,1,0,1,1,1,0,1]","door_history":"[0,1,1,1,1,0,0,0,1,0,1,1,1,0,1]","location_rts":"[4192,2596,3063,2776,649,263,1704,1693,1601,2955,1327,291,2742,459,2507]","trial_type":"two-door-navigation","trial_index":23,"time_elapsed":490800,"internal_node_id":"0.0-2.0-21.0"},{"group":"hexagon_bi","room_assignment":["purple","yellow","red","green","blue","grey"],"door_color_assignment":["white","black"],"door_generator_assignment":[0,1],"goal":1,"start":3,"action_noise":0.15,"location_history":"[3,2,1]","action_history":"[1,0]","door_history":"[1,0]","location_rts":"[10231,3305]","trial_type":"two-door-navigation","trial_index":24,"time_elapsed":509992,"internal_node_id":"0.0-2.0-22.0"},{"group":"hexagon_bi","room_assignment":["purple","yellow","red","green","blue","grey"],"door_color_assignment":["white","black"],"door_generator_assignment":[0,1],"goal":0,"start":1,"action_noise":0.15,"location_history":"[1,0]","action_history":"[1]","door_history":"[1]","location_rts":"[2919]","trial_type":"two-door-navigation","trial_index":25,"time_elapsed":517540,"internal_node_id":"0.0-2.0-23.0"},{"group":"hexagon_bi","room_assignment":["purple","yellow","red","green","blue","grey"],"door_color_assignment":["white","black"],"door_generator_assignment":[0,1],"goal":2,"start":0,"action_noise":0.15,"location_history":"[0,1,2]","action_history":"[1,1]","door_history":"[1,1]","location_rts":"[5378,1983]","trial_type":"two-door-navigation","trial_index":26,"time_elapsed":530417,"internal_node_id":"0.0-2.0-24.0"},{"group":"hexagon_bi","room_assignment":["purple","yellow","red","green","blue","grey"],"door_color_assignment":["white","black"],"door_generator_assignment":[0,1],"goal":4,"start":2,"action_noise":0.15,"location_history":"[2,3,4]","action_history":"[1,0]","door_history":"[1,0]","location_rts":"[3451,2310]","trial_type":"two-door-navigation","trial_index":27,"time_elapsed":541742,"internal_node_id":"0.0-2.0-25.0"},{"group":"hexagon_bi","room_assignment":["purple","yellow","red","green","blue","grey"],"door_color_assignment":["white","black"],"door_generator_assignment":[0,1],"goal":5,"start":4,"action_noise":0.15,"location_history":"[4,5]","action_history":"[1]","door_history":"[1]","location_rts":"[3225]","trial_type":"two-door-navigation","trial_index":28,"time_elapsed":549483,"internal_node_id":"0.0-2.0-26.0"},{"group":"hexagon_bi","room_assignment":["purple","yellow","red","green","blue","grey"],"door_color_assignment":["white","black"],"door_generator_assignment":[0,1],"goal":2,"start":5,"action_noise":0.15,"location_history":"[5,4,3,2]","action_history":"[1,0,1]","door_history":"[1,0,1]","location_rts":"[4108,3152,2381]","trial_type":"two-door-navigation","trial_index":29,"time_elapsed":565889,"internal_node_id":"0.0-2.0-27.0"},{"group":"hexagon_bi","room_assignment":["purple","yellow","red","green","blue","grey"],"door_color_assignment":["white","black"],"door_generator_assignment":[0,1],"goal":3,"start":2,"action_noise":0.15,"location_history":"[2,3]","action_history":"[1]","door_history":"[1]","location_rts":"[4606]","trial_type":"two-door-navigation","trial_index":30,"time_elapsed":575047,"internal_node_id":"0.0-2.0-28.0"},{"group":"hexagon_bi","room_assignment":["purple","yellow","red","green","blue","grey"],"door_color_assignment":["white","black"],"door_generator_assignment":[0,1],"goal":1,"start":3,"action_noise":0.15,"location_history":"[3,2,1]","action_history":"[1,0]","door_history":"[1,0]","location_rts":"[4534,827]","trial_type":"two-door-navigation","trial_index":31,"time_elapsed":586043,"internal_node_id":"0.0-2.0-29.0"},{"group":"hexagon_bi","room_assignment":["purple","yellow","red","green","blue","grey"],"door_color_assignment":["white","black"],"door_generator_assignment":[0,1],"goal":4,"start":1,"action_noise":0.15,"location_history":"[1,0,1,2,3,4]","action_history":"[1,0,0,1,0]","door_history":"[1,0,0,1,0]","location_rts":"[2930,3964,2165,3052,2130]","trial_type":"two-door-navigation","trial_index":32,"time_elapsed":608905,"internal_node_id":"0.0-2.0-30.0"},{"group":"hexagon_bi","room_assignment":["purple","yellow","red","green","blue","grey"],"door_color_assignment":["white","black"],"door_generator_assignment":[0,1],"goal":5,"start":4,"action_noise":0.15,"location_history":"[4,5]","action_history":"[1]","door_history":"[1]","location_rts":"[1404]","trial_type":"two-door-navigation","trial_index":33,"time_elapsed":614844,"internal_node_id":"0.0-2.0-31.0"},{"group":"hexagon_bi","room_assignment":["purple","yellow","red","green","blue","grey"],"door_color_assignment":["white","black"],"door_generator_assignment":[0,1],"goal":0,"start":5,"action_noise":0.15,"location_history":"[5,4,3,2,1,0]","action_history":"[1,0,1,0,1]","door_history":"[1,0,1,0,1]","location_rts":"[1864,3432,2719,3082,1988]","trial_type":"two-door-navigation","trial_index":34,"time_elapsed":636856,"internal_node_id":"0.0-2.0-32.0"},{"group":"hexagon_bi","room_assignment":["purple","yellow","red","green","blue","grey"],"door_color_assignment":["white","black"],"door_generator_assignment":[0,1],"goal":2,"start":0,"action_noise":0.15,"location_history":"[0,1,0,1,0,5,4,5,4,5,4,3,2]","action_history":"[1,1,1,0,0,1,0,1,1,1,0,1]","door_history":"[1,1,1,0,0,1,0,1,1,1,0,1]","location_rts":"[3790,2355,543,373,1311,3477,2618,1408,1473,1947,240,2155]","trial_type":"two-door-navigation","trial_index":35,"time_elapsed":674613,"internal_node_id":"0.0-2.0-33.0"},{"group":"hexagon_bi","room_assignment":["purple","yellow","red","green","blue","grey"],"door_color_assignment":["white","black"],"door_generator_assignment":[0,1],"goal":0,"start":2,"action_noise":0.15,"location_history":"[2,3,4,3,2,1,0]","action_history":"[1,1,0,1,0,1]","door_history":"[1,1,0,1,0,1]","location_rts":"[4106,2333,2913,2593,3036,2026]","trial_type":"two-door-navigation","trial_index":36,"time_elapsed":701513,"internal_node_id":"0.0-2.0-34.0"},{"group":"hexagon_bi","room_assignment":["purple","yellow","red","green","blue","grey"],"door_color_assignment":["white","black"],"door_generator_assignment":[0,1],"goal":5,"start":0,"action_noise":0.15,"location_history":"[0,1,0,5]","action_history":"[1,0,0]","door_history":"[1,0,0]","location_rts":"[1533,2912,2856]","trial_type":"two-door-navigation","trial_index":37,"time_elapsed":715447,"internal_node_id":"0.0-2.0-35.0"},{"group":"hexagon_bi","room_assignment":["purple","yellow","red","green","blue","grey"],"door_color_assignment":["white","black"],"door_generator_assignment":[0,1],"goal":1,"start":5,"action_noise":0.15,"location_history":"[5,4,3,2,1]","action_history":"[1,0,1,0]","door_history":"[1,0,1,0]","location_rts":"[5071,4539,2584,2301]","trial_type":"two-door-navigation","trial_index":38,"time_elapsed":737796,"internal_node_id":"0.0-2.0-36.0"},{"group":"hexagon_bi","room_assignment":["purple","yellow","red","green","blue","grey"],"door_color_assignment":["white","black"],"door_generator_assignment":[0,1],"goal":4,"start":1,"action_noise":0.15,"location_history":"[1,2,3,4]","action_history":"[1,1,0]","door_history":"[1,1,0]","location_rts":"[2689,3230,2111]","trial_type":"two-door-navigation","trial_index":39,"time_elapsed":752628,"internal_node_id":"0.0-2.0-37.0"},{"group":"hexagon_bi","room_assignment":["purple","yellow","red","green","blue","grey"],"door_color_assignment":["white","black"],"door_generator_assignment":[0,1],"goal":3,"start":4,"action_noise":0.15,"location_history":"[4,5,4,3]","action_history":"[1,1,0]","door_history":"[1,1,0]","location_rts":"[12986,1233,384]","trial_type":"two-door-navigation","trial_index":40,"time_elapsed":773797,"internal_node_id":"0.0-2.0-38.0"},{"group":"hexagon_bi","room_assignment":["purple","yellow","red","green","blue","grey"],"door_color_assignment":["white","black"],"door_generator_assignment":[0,1],"goal":5,"start":3,"action_noise":0.15,"location_history":"[3,2,1,0,5]","action_history":"[1,0,1,1]","door_history":"[1,0,1,1]","location_rts":"[2551,3533,2433,619]","trial_type":"two-door-navigation","trial_index":41,"time_elapsed":790663,"internal_node_id":"0.0-2.0-39.0"},{"group":"hexagon_bi","room_assignment":["purple","yellow","red","green","blue","grey"],"door_color_assignment":["white","black"],"door_generator_assignment":[0,1],"goal":1,"start":5,"action_noise":0.15,"location_history":"[5,0,5,4,3,4,5,0,1]","action_history":"[1,0,1,1,1,1,0,1]","door_history":"[1,0,1,1,1,1,0,1]","location_rts":"[2975,3971,965,111,3527,3090,3623,3300]","trial_type":"two-door-navigation","trial_index":42,"time_elapsed":824153,"internal_node_id":"0.0-2.0-40.0"},{"group":"hexagon_bi","room_assignment":["purple","yellow","red","green","blue","grey"],"door_color_assignment":["white","black"],"door_generator_assignment":[0,1],"goal":2,"start":1,"action_noise":0.15,"location_history":"[1,0,1,2]","action_history":"[1,1,0]","door_history":"[1,1,0]","location_rts":"[2663,4045,5401]","trial_type":"two-door-navigation","trial_index":43,"time_elapsed":843060,"internal_node_id":"0.0-2.0-41.0"},{"group":"hexagon_bi","room_assignment":["purple","yellow","red","green","blue","grey"],"door_color_assignment":["white","black"],"door_generator_assignment":[0,1],"goal":4,"start":2,"action_noise":0.15,"location_history":"[2,3,4]","action_history":"[1,0]","door_history":"[1,0]","location_rts":"[3412,816]","trial_type":"two-door-navigation","trial_index":44,"time_elapsed":853083,"internal_node_id":"0.0-2.0-42.0"},{"group":"hexagon_bi","room_assignment":["purple","yellow","red","green","blue","grey"],"door_color_assignment":["white","black"],"door_generator_assignment":[0,1],"goal":0,"start":4,"action_noise":0.15,"location_history":"[4,5,0]","action_history":"[1,1]","door_history":"[1,1]","location_rts":"[5443,3517]","trial_type":"two-door-navigation","trial_index":45,"time_elapsed":867721,"internal_node_id":"0.0-2.0-43.0"},{"group":"hexagon_bi","room_assignment":["purple","yellow","red","green","blue","grey"],"door_color_assignment":["white","black"],"door_generator_assignment":[0,1],"goal":3,"start":0,"action_noise":0.15,"location_history":"[0,1,2,3]","action_history":"[1,0,1]","door_history":"[1,0,1]","location_rts":"[3845,3056,2207]","trial_type":"two-door-navigation","trial_index":46,"time_elapsed":883445,"internal_node_id":"0.0-2.0-44.0"},{"group":"hexagon_bi","room_assignment":["purple","yellow","red","green","blue","grey"],"door_color_assignment":["white","black"],"door_generator_assignment":[0,1],"goal":0,"start":3,"action_noise":0.15,"location_history":"[3,2,1,0]","action_history":"[1,0,1]","door_history":"[1,0,1]","location_rts":"[2216,2726,771]","trial_type":"two-door-navigation","trial_index":47,"time_elapsed":895819,"internal_node_id":"0.0-2.0-45.0"},{"group":"hexagon_bi","room_assignment":["purple","yellow","red","green","blue","grey"],"door_color_assignment":["white","black"],"door_generator_assignment":[0,1],"goal":4,"start":0,"action_noise":0.15,"location_history":"[0,1,0,1,0,5,4]","action_history":"[1,1,1,0,0,1]","door_history":"[1,1,1,0,0,1]","location_rts":"[5395,2537,676,284,1255,1195]","trial_type":"two-door-navigation","trial_index":48,"time_elapsed":916930,"internal_node_id":"0.0-2.0-46.0"},{"group":"hexagon_bi","room_assignment":["purple","yellow","red","green","blue","grey"],"door_color_assignment":["white","black"],"door_generator_assignment":[0,1],"goal":5,"start":4,"action_noise":0.15,"location_history":"[4,5]","action_history":"[1]","door_history":"[1]","location_rts":"[1386]","trial_type":"two-door-navigation","trial_index":49,"time_elapsed":922826,"internal_node_id":"0.0-2.0-47.0"},{"group":"hexagon_bi","room_assignment":["purple","yellow","red","green","blue","grey"],"door_color_assignment":["white","black"],"door_generator_assignment":[0,1],"goal":2,"start":5,"action_noise":0.15,"location_history":"[5,4,3,2]","action_history":"[1,0,1]","door_history":"[1,0,1]","location_rts":"[1629,3734,2465]","trial_type":"two-door-navigation","trial_index":50,"time_elapsed":937311,"internal_node_id":"0.0-2.0-48.0"},{"group":"hexagon_bi","room_assignment":["purple","yellow","red","green","blue","grey"],"door_color_assignment":["white","black"],"door_generator_assignment":[0,1],"goal":1,"start":2,"action_noise":0.15,"location_history":"[2,3,4,5,4,5,4,5,0,1]","action_history":"[0,0,1,0,0,1,1,0,1]","door_history":"[0,0,1,0,0,1,1,0,1]","location_rts":"[4059,4909,4297,1831,805,1460,319,2564,272]","trial_type":"two-door-navigation","trial_index":51,"time_elapsed":970634,"internal_node_id":"0.0-2.0-49.0"},{"view_history":"[{\"page_index\":0,\"viewing_time\":7282}]","rt":7285,"trial_type":"instructions","trial_index":52,"time_elapsed":978948,"internal_node_id":"0.0-3.0"},{"view_history":"[{\"page_index\":0,\"viewing_time\":2802},{\"page_index\":1,\"viewing_time\":4144}]","rt":6947,"trial_type":"instructions","trial_index":53,"time_elapsed":986895,"internal_node_id":"0.0-4.0"},{"group":"hexagon_bi","fractal_assignment":["../images/ylw_slt.png","../images/gry_blk.png","../images/blu_wht.png","../images/org_blu.png","../images/pnk_blu.png","../images/cyn_red.png"],"mutagen_generator_assignment":[1,0],"goal":2,"start":1,"action_noise":0.15,"location_history":"[1,0,1,0,5,4,3,4,3,4,3,2]","action_history":"[0,1,1,0,1,0,1,0,0,1,0]","mutagen_history":"[1,0,0,1,0,1,0,1,1,0,1]","location_rts":"[4551,1013,1243,1169,1645,583,1390,1357,624,2163,1118]","trial_type":"fractal-mutation","trial_index":54,"time_elapsed":1019761,"internal_node_id":"0.0-5.0-0.0"},{"group":"hexagon_bi","fractal_assignment":["../images/ylw_slt.png","../images/gry_blk.png","../images/blu_wht.png","../images/org_blu.png","../images/pnk_blu.png","../images/cyn_red.png"],"mutagen_generator_assignment":[1,0],"goal":0,"start":2,"action_noise":0.15,"location_history":"[2,1,0]","action_history":"[0,1]","mutagen_history":"[1,0]","location_rts":"[1362,1432]","trial_type":"fractal-mutation","trial_index":55,"time_elapsed":1028340,"internal_node_id":"0.0-5.0-1.0"},{"group":"hexagon_bi","fractal_assignment":["../images/ylw_slt.png","../images/gry_blk.png","../images/blu_wht.png","../images/org_blu.png","../images/pnk_blu.png","../images/cyn_red.png"],"mutagen_generator_assignment":[1,0],"goal":5,"start":0,"action_noise":0.15,"location_history":"[0,1,0,5]","action_history":"[1,1,0]","mutagen_history":"[0,0,1]","location_rts":"[3249,1075,726]","trial_type":"fractal-mutation","trial_index":56,"time_elapsed":1040229,"internal_node_id":"0.0-5.0-2.0"},{"group":"hexagon_bi","fractal_assignment":["../images/ylw_slt.png","../images/gry_blk.png","../images/blu_wht.png","../images/org_blu.png","../images/pnk_blu.png","../images/cyn_red.png"],"mutagen_generator_assignment":[1,0],"goal":1,"start":5,"action_noise":0.15,"location_history":"[5,4,3,4,5,4,5,0,1]","action_history":"[0,1,0,0,1,1,0,1]","mutagen_history":"[1,0,1,1,0,0,1,0]","location_rts":"[1325,1193,1236,1256,660,627,1072,1377]","trial_type":"fractal-mutation","trial_index":57,"time_elapsed":1061479,"internal_node_id":"0.0-5.0-3.0"},{"group":"hexagon_bi","fractal_assignment":["../images/ylw_slt.png","../images/gry_blk.png","../images/blu_wht.png","../images/org_blu.png","../images/pnk_blu.png","../images/cyn_red.png"],"mutagen_generator_assignment":[1,0],"goal":3,"start":1,"action_noise":0.15,"location_history":"[1,2,3]","action_history":"[0,1]","mutagen_history":"[1,0]","location_rts":"[1732,1277]","trial_type":"fractal-mutation","trial_index":58,"time_elapsed":1070266,"internal_node_id":"0.0-5.0-4.0"},{"group":"hexagon_bi","fractal_assignment":["../images/ylw_slt.png","../images/gry_blk.png","../images/blu_wht.png","../images/org_blu.png","../images/pnk_blu.png","../images/cyn_red.png"],"mutagen_generator_assignment":[1,0],"goal":5,"start":3,"action_noise":0.15,"location_history":"[3,2,1,2,1,0,5]","action_history":"[1,0,0,0,1,0]","mutagen_history":"[0,1,1,1,0,1]","location_rts":"[1800,991,1249,1511,1220,1174]","trial_type":"fractal-mutation","trial_index":59,"time_elapsed":1088411,"internal_node_id":"0.0-5.0-5.0"},{"group":"hexagon_bi","fractal_assignment":["../images/ylw_slt.png","../images/gry_blk.png","../images/blu_wht.png","../images/org_blu.png","../images/pnk_blu.png","../images/cyn_red.png"],"mutagen_generator_assignment":[1,0],"goal":4,"start":5,"action_noise":0.15,"location_history":"[5,0,1,2,1,2,3,4]","action_history":"[1,1,0,1,0,1,0]","mutagen_history":"[0,0,1,0,1,0,1]","location_rts":"[1249,1620,1059,1336,1433,936,1251]","trial_type":"fractal-mutation","trial_index":60,"time_elapsed":1108889,"internal_node_id":"0.0-5.0-6.0"},{"group":"hexagon_bi","fractal_assignment":["../images/ylw_slt.png","../images/gry_blk.png","../images/blu_wht.png","../images/org_blu.png","../images/pnk_blu.png","../images/cyn_red.png"],"mutagen_generator_assignment":[1,0],"goal":0,"start":4,"action_noise":0.15,"location_history":"[4,3,2,1,0]","action_history":"[0,1,0,1]","mutagen_history":"[1,0,1,0]","location_rts":"[1512,1374,1405,1676]","trial_type":"fractal-mutation","trial_index":61,"time_elapsed":1122824,"internal_node_id":"0.0-5.0-7.0"},{"group":"hexagon_bi","fractal_assignment":["../images/ylw_slt.png","../images/gry_blk.png","../images/blu_wht.png","../images/org_blu.png","../images/pnk_blu.png","../images/cyn_red.png"],"mutagen_generator_assignment":[1,0],"goal":2,"start":0,"action_noise":0.15,"location_history":"[0,5,4,3,2]","action_history":"[0,1,0,1]","mutagen_history":"[1,0,1,0]","location_rts":"[1221,1340,365,1135]","trial_type":"fractal-mutation","trial_index":62,"time_elapsed":1134786,"internal_node_id":"0.0-5.0-8.0"},{"group":"hexagon_bi","fractal_assignment":["../images/ylw_slt.png","../images/gry_blk.png","../images/blu_wht.png","../images/org_blu.png","../images/pnk_blu.png","../images/cyn_red.png"],"mutagen_generator_assignment":[1,0],"goal":4,"start":2,"action_noise":0.15,"location_history":"[2,1,2,1,0,5,4]","action_history":"[1,0,0,1,0,1]","mutagen_history":"[0,1,1,0,1,0]","location_rts":"[3418,1069,1046,1049,787,1009]","trial_type":"fractal-mutation","trial_index":63,"time_elapsed":1153454,"internal_node_id":"0.0-5.0-9.0"},{"group":"hexagon_bi","fractal_assignment":["../images/ylw_slt.png","../images/gry_blk.png","../images/blu_wht.png","../images/org_blu.png","../images/pnk_blu.png","../images/cyn_red.png"],"mutagen_generator_assignment":[1,0],"goal":2,"start":4,"action_noise":0.15,"location_history":"[4,3,2]","action_history":"[0,1]","mutagen_history":"[1,0]","location_rts":"[1419,1627]","trial_type":"fractal-mutation","trial_index":64,"time_elapsed":1162336,"internal_node_id":"0.0-5.0-10.0"},{"group":"hexagon_bi","fractal_assignment":["../images/ylw_slt.png","../images/gry_blk.png","../images/blu_wht.png","../images/org_blu.png","../images/pnk_blu.png","../images/cyn_red.png"],"mutagen_generator_assignment":[1,0],"goal":3,"start":2,"action_noise":0.15,"location_history":"[2,3]","action_history":"[1]","mutagen_history":"[0]","location_rts":"[1411]","trial_type":"fractal-mutation","trial_index":65,"time_elapsed":1168366,"internal_node_id":"0.0-5.0-11.0"},{"group":"hexagon_bi","fractal_assignment":["../images/ylw_slt.png","../images/gry_blk.png","../images/blu_wht.png","../images/org_blu.png","../images/pnk_blu.png","../images/cyn_red.png"],"mutagen_generator_assignment":[1,0],"goal":0,"start":3,"action_noise":0.15,"location_history":"[3,2,1,2,3,4,3,2,1,0]","action_history":"[1,0,0,1,0,0,1,0,1]","mutagen_history":"[0,1,1,0,1,1,0,1,0]","location_rts":"[1791,862,3169,997,1090,1296,729,1166,1017]","trial_type":"fractal-mutation","trial_index":66,"time_elapsed":1193694,"internal_node_id":"0.0-5.0-12.0"},{"group":"hexagon_bi","fractal_assignment":["../images/ylw_slt.png","../images/gry_blk.png","../images/blu_wht.png","../images/org_blu.png","../images/pnk_blu.png","../images/cyn_red.png"],"mutagen_generator_assignment":[1,0],"goal":5,"start":0,"action_noise":0.15,"location_history":"[0,5]","action_history":"[0]","mutagen_history":"[1]","location_rts":"[3551]","trial_type":"fractal-mutation","trial_index":67,"time_elapsed":1201915,"internal_node_id":"0.0-5.0-13.0"},{"group":"hexagon_bi","fractal_assignment":["../images/ylw_slt.png","../images/gry_blk.png","../images/blu_wht.png","../images/org_blu.png","../images/pnk_blu.png","../images/cyn_red.png"],"mutagen_generator_assignment":[1,0],"goal":1,"start":5,"action_noise":0.15,"location_history":"[5,4,3,2,1]","action_history":"[1,0,1,0]","mutagen_history":"[0,1,0,1]","location_rts":"[2280,1614,1872,1168]","trial_type":"fractal-mutation","trial_index":68,"time_elapsed":1217360,"internal_node_id":"0.0-5.0-14.0"},{"group":"hexagon_bi","fractal_assignment":["../images/ylw_slt.png","../images/gry_blk.png","../images/blu_wht.png","../images/org_blu.png","../images/pnk_blu.png","../images/cyn_red.png"],"mutagen_generator_assignment":[1,0],"goal":5,"start":1,"action_noise":0.15,"location_history":"[1,0,5]","action_history":"[1,0]","mutagen_history":"[0,1]","location_rts":"[5075,3978]","trial_type":"fractal-mutation","trial_index":69,"time_elapsed":1232104,"internal_node_id":"0.0-5.0-15.0"},{"group":"hexagon_bi","fractal_assignment":["../images/ylw_slt.png","../images/gry_blk.png","../images/blu_wht.png","../images/org_blu.png","../images/pnk_blu.png","../images/cyn_red.png"],"mutagen_generator_assignment":[1,0],"goal":3,"start":5,"action_noise":0.15,"location_history":"[5,0,5,4,5,0,1,0,1,0,1,2,3]","action_history":"[0,1,1,0,0,1,0,1,1,1,0,1]","mutagen_history":"[1,0,0,1,1,0,1,0,0,0,1,0]","location_rts":"[1653,1170,1747,534,1875,1085,1015,797,642,1267,761,1087]","trial_type":"fractal-mutation","trial_index":70,"time_elapsed":1262235,"internal_node_id":"0.0-5.0-16.0"},{"group":"hexagon_bi","fractal_assignment":["../images/ylw_slt.png","../images/gry_blk.png","../images/blu_wht.png","../images/org_blu.png","../images/pnk_blu.png","../images/cyn_red.png"],"mutagen_generator_assignment":[1,0],"goal":2,"start":3,"action_noise":0.15,"location_history":"[3,2]","action_history":"[1]","mutagen_history":"[0]","location_rts":"[1431]","trial_type":"fractal-mutation","trial_index":71,"time_elapsed":1268210,"internal_node_id":"0.0-5.0-17.0"},{"group":"hexagon_bi","fractal_assignment":["../images/ylw_slt.png","../images/gry_blk.png","../images/blu_wht.png","../images/org_blu.png","../images/pnk_blu.png","../images/cyn_red.png"],"mutagen_generator_assignment":[1,0],"goal":1,"start":2,"action_noise":0.15,"location_history":"[2,1]","action_history":"[0]","mutagen_history":"[1]","location_rts":"[1571]","trial_type":"fractal-mutation","trial_index":72,"time_elapsed":1274401,"internal_node_id":"0.0-5.0-18.0"},{"group":"hexagon_bi","fractal_assignment":["../images/ylw_slt.png","../images/gry_blk.png","../images/blu_wht.png","../images/org_blu.png","../images/pnk_blu.png","../images/cyn_red.png"],"mutagen_generator_assignment":[1,0],"goal":4,"start":1,"action_noise":0.15,"location_history":"[1,2,1,2,1,0,5,4]","action_history":"[1,0,0,0,1,0,1]","mutagen_history":"[0,1,1,1,0,1,0]","location_rts":"[1569,899,1565,690,358,949,855]","trial_type":"fractal-mutation","trial_index":73,"time_elapsed":1292528,"internal_node_id":"0.0-5.0-19.0"},{"group":"hexagon_bi","fractal_assignment":["../images/ylw_slt.png","../images/gry_blk.png","../images/blu_wht.png","../images/org_blu.png","../images/pnk_blu.png","../images/cyn_red.png"],"mutagen_generator_assignment":[1,0],"goal":0,"start":4,"action_noise":0.15,"location_history":"[4,5,4,3,2,1,2,1,0]","action_history":"[1,0,0,1,0,0,0,1]","mutagen_history":"[0,1,1,0,1,1,1,0]","location_rts":"[1403,905,1817,961,989,747,816,319]","trial_type":"fractal-mutation","trial_index":74,"time_elapsed":1312945,"internal_node_id":"0.0-5.0-20.0"},{"group":"hexagon_bi","fractal_assignment":["../images/ylw_slt.png","../images/gry_blk.png","../images/blu_wht.png","../images/org_blu.png","../images/pnk_blu.png","../images/cyn_red.png"],"mutagen_generator_assignment":[1,0],"goal":3,"start":0,"action_noise":0.15,"location_history":"[0,1,0,5,0,5,4,5,4,3]","action_history":"[1,1,0,0,0,1,1,1,0]","mutagen_history":"[0,0,1,1,1,0,0,0,1]","location_rts":"[2042,687,418,1410,1528,483,1196,752,281]","trial_type":"fractal-mutation","trial_index":75,"time_elapsed":1335050,"internal_node_id":"0.0-5.0-21.0"},{"group":"hexagon_bi","fractal_assignment":["../images/ylw_slt.png","../images/gry_blk.png","../images/blu_wht.png","../images/org_blu.png","../images/pnk_blu.png","../images/cyn_red.png"],"mutagen_generator_assignment":[1,0],"goal":1,"start":3,"action_noise":0.15,"location_history":"[3,2,3,4,3,4,5,0,5,4,3,4,3,4,3,2,3,2,1]","action_history":"[1,0,1,0,0,1,0,1,1,0,0,1,0,0,1,1,1,0]","mutagen_history":"[0,1,0,1,1,0,1,0,0,1,1,0,1,1,0,0,0,1]","location_rts":"[1097,1039,1214,1008,841,1180,602,1142,1201,343,604,769,1285,1510,456,1804,759,471]","trial_type":"fractal-mutation","trial_index":76,"time_elapsed":1375873,"internal_node_id":"0.0-5.0-22.0"},{"group":"hexagon_bi","fractal_assignment":["../images/ylw_slt.png","../images/gry_blk.png","../images/blu_wht.png","../images/org_blu.png","../images/pnk_blu.png","../images/cyn_red.png"],"mutagen_generator_assignment":[1,0],"goal":0,"start":1,"action_noise":0.15,"location_history":"[1,0]","action_history":"[0]","mutagen_history":"[1]","location_rts":"[1482]","trial_type":"fractal-mutation","trial_index":77,"time_elapsed":1381942,"internal_node_id":"0.0-5.0-23.0"},{"group":"hexagon_bi","fractal_assignment":["../images/ylw_slt.png","../images/gry_blk.png","../images/blu_wht.png","../images/org_blu.png","../images/pnk_blu.png","../images/cyn_red.png"],"mutagen_generator_assignment":[1,0],"goal":2,"start":0,"action_noise":0.15,"location_history":"[0,5,4,3,4,5,4,3,2]","action_history":"[0,1,0,0,0,1,0,1]","mutagen_history":"[1,0,1,1,1,0,1,0]","location_rts":"[2190,389,564,1275,547,304,949,1222]","trial_type":"fractal-mutation","trial_index":78,"time_elapsed":1401679,"internal_node_id":"0.0-5.0-24.0"},{"group":"hexagon_bi","fractal_assignment":["../images/ylw_slt.png","../images/gry_blk.png","../images/blu_wht.png","../images/org_blu.png","../images/pnk_blu.png","../images/cyn_red.png"],"mutagen_generator_assignment":[1,0],"goal":4,"start":2,"action_noise":0.15,"location_history":"[2,1,0,1,2,3,4]","action_history":"[0,1,0,0,1,0]","mutagen_history":"[1,0,1,1,0,1]","location_rts":"[10323,1337,920,1409,1270,1610]","trial_type":"fractal-mutation","trial_index":79,"time_elapsed":1428733,"internal_node_id":"0.0-5.0-25.0"},{"group":"hexagon_bi","fractal_assignment":["../images/ylw_slt.png","../images/gry_blk.png","../images/blu_wht.png","../images/org_blu.png","../images/pnk_blu.png","../images/cyn_red.png"],"mutagen_generator_assignment":[1,0],"goal":5,"start":4,"action_noise":0.15,"location_history":"[4,5]","action_history":"[1]","mutagen_history":"[0]","location_rts":"[2079]","trial_type":"fractal-mutation","trial_index":80,"time_elapsed":1435399,"internal_node_id":"0.0-5.0-26.0"},{"group":"hexagon_bi","fractal_assignment":["../images/ylw_slt.png","../images/gry_blk.png","../images/blu_wht.png","../images/org_blu.png","../images/pnk_blu.png","../images/cyn_red.png"],"mutagen_generator_assignment":[1,0],"goal":2,"start":5,"action_noise":0.15,"location_history":"[5,0,1,0,5,4,3,2]","action_history":"[0,1,0,0,1,0,1]","mutagen_history":"[1,0,1,1,0,1,0]","location_rts":"[1341,2353,782,976,902,492,1094]","trial_type":"fractal-mutation","trial_index":81,"time_elapsed":1454351,"internal_node_id":"0.0-5.0-27.0"},{"group":"hexagon_bi","fractal_assignment":["../images/ylw_slt.png","../images/gry_blk.png","../images/blu_wht.png","../images/org_blu.png","../images/pnk_blu.png","../images/cyn_red.png"],"mutagen_generator_assignment":[1,0],"goal":3,"start":2,"action_noise":0.15,"location_history":"[2,1,0,1,2,1,0,5,4,3]","action_history":"[0,1,1,0,1,1,0,1,0]","mutagen_history":"[1,0,0,1,0,0,1,0,1]","location_rts":"[2218,959,1799,1051,1048,1573,677,1284,596]","trial_type":"fractal-mutation","trial_index":82,"time_elapsed":1479260,"internal_node_id":"0.0-5.0-28.0"},{"group":"hexagon_bi","fractal_assignment":["../images/ylw_slt.png","../images/gry_blk.png","../images/blu_wht.png","../images/org_blu.png","../images/pnk_blu.png","../images/cyn_red.png"],"mutagen_generator_assignment":[1,0],"goal":1,"start":3,"action_noise":0.15,"location_history":"[3,2,1]","action_history":"[1,0]","mutagen_history":"[0,1]","location_rts":"[1799,1076]","trial_type":"fractal-mutation","trial_index":83,"time_elapsed":1487851,"internal_node_id":"0.0-5.0-29.0"},{"group":"hexagon_bi","fractal_assignment":["../images/ylw_slt.png","../images/gry_blk.png","../images/blu_wht.png","../images/org_blu.png","../images/pnk_blu.png","../images/cyn_red.png"],"mutagen_generator_assignment":[1,0],"goal":4,"start":1,"action_noise":0.15,"location_history":"[1,0,5,0,5,0,5,4]","action_history":"[0,0,1,0,0,0,1]","mutagen_history":"[1,1,0,1,1,1,0]","location_rts":"[1645,1124,943,1414,1126,791,285]","trial_type":"fractal-mutation","trial_index":84,"time_elapsed":1506531,"internal_node_id":"0.0-5.0-30.0"},{"group":"hexagon_bi","fractal_assignment":["../images/ylw_slt.png","../images/gry_blk.png","../images/blu_wht.png","../images/org_blu.png","../images/pnk_blu.png","../images/cyn_red.png"],"mutagen_generator_assignment":[1,0],"goal":5,"start":4,"action_noise":0.15,"location_history":"[4,5]","action_history":"[1]","mutagen_history":"[0]","location_rts":"[3059]","trial_type":"fractal-mutation","trial_index":85,"time_elapsed":1514149,"internal_node_id":"0.0-5.0-31.0"},{"group":"hexagon_bi","fractal_assignment":["../images/ylw_slt.png","../images/gry_blk.png","../images/blu_wht.png","../images/org_blu.png","../images/pnk_blu.png","../images/cyn_red.png"],"mutagen_generator_assignment":[1,0],"goal":0,"start":5,"action_noise":0.15,"location_history":"[5,0]","action_history":"[1]","mutagen_history":"[0]","location_rts":"[1343]","trial_type":"fractal-mutation","trial_index":86,"time_elapsed":1520180,"internal_node_id":"0.0-5.0-32.0"},{"group":"hexagon_bi","fractal_assignment":["../images/ylw_slt.png","../images/gry_blk.png","../images/blu_wht.png","../images/org_blu.png","../images/pnk_blu.png","../images/cyn_red.png"],"mutagen_generator_assignment":[1,0],"goal":2,"start":0,"action_noise":0.15,"location_history":"[0,5,0,5,4,3,4,5,4,3,2]","action_history":"[1,0,0,1,0,0,0,1,0,1]","mutagen_history":"[0,1,1,0,1,1,1,0,1,0]","location_rts":"[1359,924,858,1222,1300,1229,840,317,974,1062]","trial_type":"fractal-mutation","trial_index":87,"time_elapsed":1545016,"internal_node_id":"0.0-5.0-33.0"},{"group":"hexagon_bi","fractal_assignment":["../images/ylw_slt.png","../images/gry_blk.png","../images/blu_wht.png","../images/org_blu.png","../images/pnk_blu.png","../images/cyn_red.png"],"mutagen_generator_assignment":[1,0],"goal":0,"start":2,"action_noise":0.15,"location_history":"[2,1,0]","action_history":"[0,0]","mutagen_history":"[1,1]","location_rts":"[1194,1634]","trial_type":"fractal-mutation","trial_index":88,"time_elapsed":1553607,"internal_node_id":"0.0-5.0-34.0"},{"group":"hexagon_bi","fractal_assignment":["../images/ylw_slt.png","../images/gry_blk.png","../images/blu_wht.png","../images/org_blu.png","../images/pnk_blu.png","../images/cyn_red.png"],"mutagen_generator_assignment":[1,0],"goal":5,"start":0,"action_noise":0.15,"location_history":"[0,1,0,5]","action_history":"[1,1,0]","mutagen_history":"[0,0,1]","location_rts":"[1532,1412,1302]","trial_type":"fractal-mutation","trial_index":89,"time_elapsed":1564699,"internal_node_id":"0.0-5.0-35.0"},{"group":"hexagon_bi","fractal_assignment":["../images/ylw_slt.png","../images/gry_blk.png","../images/blu_wht.png","../images/org_blu.png","../images/pnk_blu.png","../images/cyn_red.png"],"mutagen_generator_assignment":[1,0],"goal":1,"start":5,"action_noise":0.15,"location_history":"[5,4,3,2,1]","action_history":"[1,0,1,0]","mutagen_history":"[0,1,0,1]","location_rts":"[4608,2338,1072,820]","trial_type":"fractal-mutation","trial_index":90,"time_elapsed":1581622,"internal_node_id":"0.0-5.0-36.0"},{"group":"hexagon_bi","fractal_assignment":["../images/ylw_slt.png","../images/gry_blk.png","../images/blu_wht.png","../images/org_blu.png","../images/pnk_blu.png","../images/cyn_red.png"],"mutagen_generator_assignment":[1,0],"goal":4,"start":1,"action_noise":0.15,"location_history":"[1,2,1,2,1,0,5,4]","action_history":"[0,1,0,0,1,0,1]","mutagen_history":"[1,0,1,1,0,1,0]","location_rts":"[1581,798,1398,1258,679,961,871]","trial_type":"fractal-mutation","trial_index":91,"time_elapsed":1600337,"internal_node_id":"0.0-5.0-37.0"},{"group":"hexagon_bi","fractal_assignment":["../images/ylw_slt.png","../images/gry_blk.png","../images/blu_wht.png","../images/org_blu.png","../images/pnk_blu.png","../images/cyn_red.png"],"mutagen_generator_assignment":[1,0],"goal":3,"start":4,"action_noise":0.15,"location_history":"[4,5,4,3]","action_history":"[0,1,0]","mutagen_history":"[1,0,1]","location_rts":"[2722,1126,702]","trial_type":"fractal-mutation","trial_index":92,"time_elapsed":1611793,"internal_node_id":"0.0-5.0-38.0"},{"group":"hexagon_bi","fractal_assignment":["../images/ylw_slt.png","../images/gry_blk.png","../images/blu_wht.png","../images/org_blu.png","../images/pnk_blu.png","../images/cyn_red.png"],"mutagen_generator_assignment":[1,0],"goal":5,"start":3,"action_noise":0.15,"location_history":"[3,2,1,2,3,2,1,2,3,4,5]","action_history":"[1,0,0,1,1,1,0,1,0,1]","mutagen_history":"[0,1,1,0,0,0,1,0,1,0]","location_rts":"[2498,989,1723,1021,1446,592,331,1096,918,890]","trial_type":"fractal-mutation","trial_index":93,"time_elapsed":1638056,"internal_node_id":"0.0-5.0-39.0"},{"group":"hexagon_bi","fractal_assignment":["../images/ylw_slt.png","../images/gry_blk.png","../images/blu_wht.png","../images/org_blu.png","../images/pnk_blu.png","../images/cyn_red.png"],"mutagen_generator_assignment":[1,0],"goal":1,"start":5,"action_noise":0.15,"location_history":"[5,4,3,2,1]","action_history":"[1,0,1,0]","mutagen_history":"[0,1,0,1]","location_rts":"[1965,916,2127,715]","trial_type":"fractal-mutation","trial_index":94,"time_elapsed":1651645,"internal_node_id":"0.0-5.0-40.0"},{"group":"hexagon_bi","fractal_assignment":["../images/ylw_slt.png","../images/gry_blk.png","../images/blu_wht.png","../images/org_blu.png","../images/pnk_blu.png","../images/cyn_red.png"],"mutagen_generator_assignment":[1,0],"goal":2,"start":1,"action_noise":0.15,"location_history":"[1,2]","action_history":"[0]","mutagen_history":"[1]","location_rts":"[1233]","trial_type":"fractal-mutation","trial_index":95,"time_elapsed":1657462,"internal_node_id":"0.0-5.0-41.0"},{"group":"hexagon_bi","fractal_assignment":["../images/ylw_slt.png","../images/gry_blk.png","../images/blu_wht.png","../images/org_blu.png","../images/pnk_blu.png","../images/cyn_red.png"],"mutagen_generator_assignment":[1,0],"goal":4,"start":2,"action_noise":0.15,"location_history":"[2,1,2,3,4]","action_history":"[0,1,1,0]","mutagen_history":"[1,0,0,1]","location_rts":"[1261,944,1806,875]","trial_type":"fractal-mutation","trial_index":96,"time_elapsed":1670480,"internal_node_id":"0.0-5.0-42.0"},{"group":"hexagon_bi","fractal_assignment":["../images/ylw_slt.png","../images/gry_blk.png","../images/blu_wht.png","../images/org_blu.png","../images/pnk_blu.png","../images/cyn_red.png"],"mutagen_generator_assignment":[1,0],"goal":0,"start":4,"action_noise":0.15,"location_history":"[4,3,4,5,4,3,2,1,0]","action_history":"[1,0,0,1,0,1,0,1]","mutagen_history":"[0,1,1,0,1,0,1,0]","location_rts":"[2784,1005,972,911,281,1296,742,1043]","trial_type":"fractal-mutation","trial_index":97,"time_elapsed":1691807,"internal_node_id":"0.0-5.0-43.0"},{"group":"hexagon_bi","fractal_assignment":["../images/ylw_slt.png","../images/gry_blk.png","../images/blu_wht.png","../images/org_blu.png","../images/pnk_blu.png","../images/cyn_red.png"],"mutagen_generator_assignment":[1,0],"goal":3,"start":0,"action_noise":0.15,"location_history":"[0,5,4,5,4,5,4,3]","action_history":"[0,1,0,1,1,0,0]","mutagen_history":"[1,0,1,0,0,1,1]","location_rts":"[2660,1045,597,1371,291,1337,896]","trial_type":"fractal-mutation","trial_index":98,"time_elapsed":1711306,"internal_node_id":"0.0-5.0-44.0"},{"group":"hexagon_bi","fractal_assignment":["../images/ylw_slt.png","../images/gry_blk.png","../images/blu_wht.png","../images/org_blu.png","../images/pnk_blu.png","../images/cyn_red.png"],"mutagen_generator_assignment":[1,0],"goal":0,"start":3,"action_noise":0.15,"location_history":"[3,2,1,2,1,0]","action_history":"[1,0,0,0,1]","mutagen_history":"[0,1,1,1,0]","location_rts":"[1538,825,849,453,229]","trial_type":"fractal-mutation","trial_index":99,"time_elapsed":1724224,"internal_node_id":"0.0-5.0-45.0"},{"group":"hexagon_bi","fractal_assignment":["../images/ylw_slt.png","../images/gry_blk.png","../images/blu_wht.png","../images/org_blu.png","../images/pnk_blu.png","../images/cyn_red.png"],"mutagen_generator_assignment":[1,0],"goal":4,"start":0,"action_noise":0.15,"location_history":"[0,1,0,1,2,3,2,3,4]","action_history":"[1,1,0,0,1,1,1,0]","mutagen_history":"[0,0,1,1,0,0,0,1]","location_rts":"[1621,700,377,1235,813,1591,605,620]","trial_type":"fractal-mutation","trial_index":100,"time_elapsed":1744932,"internal_node_id":"0.0-5.0-46.0"},{"group":"hexagon_bi","fractal_assignment":["../images/ylw_slt.png","../images/gry_blk.png","../images/blu_wht.png","../images/org_blu.png","../images/pnk_blu.png","../images/cyn_red.png"],"mutagen_generator_assignment":[1,0],"goal":5,"start":4,"action_noise":0.15,"location_history":"[4,5]","action_history":"[1]","mutagen_history":"[0]","location_rts":"[1809]","trial_type":"fractal-mutation","trial_index":101,"time_elapsed":1751295,"internal_node_id":"0.0-5.0-47.0"},{"group":"hexagon_bi","fractal_assignment":["../images/ylw_slt.png","../images/gry_blk.png","../images/blu_wht.png","../images/org_blu.png","../images/pnk_blu.png","../images/cyn_red.png"],"mutagen_generator_assignment":[1,0],"goal":2,"start":5,"action_noise":0.15,"location_history":"[5,4,3,2]","action_history":"[1,0,1]","mutagen_history":"[0,1,0]","location_rts":"[1303,608,1682]","trial_type":"fractal-mutation","trial_index":102,"time_elapsed":1761544,"internal_node_id":"0.0-5.0-48.0"},{"group":"hexagon_bi","fractal_assignment":["../images/ylw_slt.png","../images/gry_blk.png","../images/blu_wht.png","../images/org_blu.png","../images/pnk_blu.png","../images/cyn_red.png"],"mutagen_generator_assignment":[1,0],"goal":1,"start":2,"action_noise":0.15,"location_history":"[2,3,4,5,4,3,4,3,2,1]","action_history":"[1,0,1,1,0,0,0,1,0]","mutagen_history":"[0,1,0,0,1,1,1,0,1]","location_rts":"[1221,951,1011,1888,376,1073,941,309,838]","trial_type":"fractal-mutation","trial_index":103,"time_elapsed":1783833,"internal_node_id":"0.0-5.0-49.0"},{"view_history":"[{\"page_index\":0,\"viewing_time\":5701}]","rt":5702,"trial_type":"instructions","trial_index":104,"time_elapsed":1790535,"internal_node_id":"0.0-6.0"},{"rt":32641,"responses":"{\"Q0\":\"See if we could understand different patterns/paths\"}","trial_type":"survey-text","trial_index":105,"time_elapsed":1824182,"internal_node_id":"0.0-7.0-0.0"},{"rt":24903,"responses":"{\"Q0\":\"Same as the first experiment\"}","trial_type":"survey-text","trial_index":106,"time_elapsed":1850089,"internal_node_id":"0.0-7.0-1.0"},{"rt":30081,"responses":"{\"Q0\":\"<img src='../images/diagrams/hexagon_tri.png'>\"}","trial_type":"survey-multi-choice","trial_index":107,"time_elapsed":1881178,"internal_node_id":"0.0-7.0-2.0"},{"rt":64357,"assignments":["../images/ylw_slt.png","../images/gry_blk.png","../images/blu_wht.png","../images/org_blu.png","../images/cyn_red.png","../images/pnk_blu.png"],"trial_type":"drag-drop-on-image","trial_index":108,"time_elapsed":1946541,"internal_node_id":"0.0-7.0-3.0"},{"rt":5519,"responses":"{\"Q0\":\"3\"}","trial_type":"survey-likert","trial_index":109,"time_elapsed":1953064,"internal_node_id":"0.0-7.0-4.0"},{"rt":71068,"responses":"{\"Q0\":\"Sometimes you'd get stuck in a loop on both and you'd have to find a different path\"}","trial_type":"survey-text","trial_index":110,"time_elapsed":2025135,"internal_node_id":"0.0-7.0-5.0"},{"rt":15198,"responses":"{\"Q0\":\"Yes\"}","trial_type":"survey-multi-choice","trial_index":111,"time_elapsed":2041337,"internal_node_id":"0.0-7.0-6.0"},{"rt":12655,"responses":"{\"Q0\":\"During session 2\"}","trial_type":"survey-multi-choice","trial_index":112,"time_elapsed":2055016,"internal_node_id":"0.0-7.0-7.0"},{"rt":44307,"responses":"{\"Q0\":\"Just felt similar\"}","trial_type":"survey-text","trial_index":113,"time_elapsed":2100344,"internal_node_id":"0.0-7.0-8.0"},{"rt":6589,"responses":"{\"Q0\":\"1\"}","trial_type":"survey-likert","trial_index":114,"time_elapsed":2107937,"internal_node_id":"0.0-7.0-9.0"},{"rt":11723,"responses":"{\"Q0\":\"Same structure\"}","trial_type":"survey-multi-choice","trial_index":115,"time_elapsed":2120667,"internal_node_id":"0.0-7.0-10.0"},{"rt":48092,"responses":"{\"Q0\":\"left (white) door = acid, right (black) door = ray\",\"Q1\":\"Not at all confident\"}","trial_type":"survey-multi-choice","trial_index":116,"time_elapsed":2169784,"internal_node_id":"0.0-7.0-11.0"},{"rt":10701,"responses":"{\"Q0\":\"25-35\",\"Q1\":\"Some college\",\"Q2\":\"Male\",\"Q3\":\"Hispanic\"}","trial_type":"survey-multi-choice","trial_index":117,"time_elapsed":2181530,"internal_node_id":"0.0-8.0"},{"rt":50605,"responses":"{\"Q0\":\"First and second hit felt a lot longer than the estimated time that was stated\"}","trial_type":"survey-text","trial_index":118,"time_elapsed":2233138,"internal_node_id":"0.0-9.0"}]