[{"view_history":"[{\"page_index\":0,\"viewing_time\":439780},{\"page_index\":1,\"viewing_time\":11783}]","rt":451564,"trial_type":"instructions","trial_index":0,"time_elapsed":451564,"internal_node_id":"0.0-0.0"},{"view_history":"[{\"page_index\":0,\"viewing_time\":3829},{\"page_index\":1,\"viewing_time\":3521}]","rt":7350,"trial_type":"instructions","trial_index":1,"time_elapsed":459915,"internal_node_id":"0.0-1.0"},{"group":"hexagon_tri","room_assignment":["yellow","blue","red","green","grey","purple"],"door_color_assignment":["white","black"],"door_generator_assignment":[0,1],"goal":2,"start":1,"action_noise":0.15,"location_history":"[1,3,2]","action_history":"[0,0]","door_history":"[0,0]","location_rts":"[2181,758]","trial_type":"two-door-navigation","trial_index":2,"time_elapsed":468409,"internal_node_id":"0.0-2.0-0.0"},{"group":"hexagon_tri","room_assignment":["yellow","blue","red","green","grey","purple"],"door_color_assignment":["white","black"],"door_generator_assignment":[0,1],"goal":0,"start":2,"action_noise":0.15,"location_history":"[2,1,5,0]","action_history":"[0,0,1]","door_history":"[0,0,1]","location_rts":"[2194,1188,1118]","trial_type":"two-door-navigation","trial_index":3,"time_elapsed":479475,"internal_node_id":"0.0-2.0-1.0"},{"group":"hexagon_tri","room_assignment":["yellow","blue","red","green","grey","purple"],"door_color_assignment":["white","black"],"door_generator_assignment":[0,1],"goal":5,"start":0,"action_noise":0.15,"location_history":"[0,5]","action_history":"[1]","door_history":"[1]","location_rts":"[2264]","trial_type":"two-door-navigation","trial_index":4,"time_elapsed":486266,"internal_node_id":"0.0-2.0-2.0"},{"group":"hexagon_tri","room_assignment":["yellow","blue","red","green","grey","purple"],"door_color_assignment":["white","black"],"door_generator_assignment":[0,1],"goal":1,"start":5,"action_noise":0.15,"location_history":"[5,4,0,5,0,1]","action_history":"[0,0,0,1,1]","door_history":"[0,0,0,1,1]","location_rts":"[2043,1802,1055,2935,1340]","trial_type":"two-door-navigation","trial_index":5,"time_elapsed":504052,"internal_node_id":"0.0-2.0-3.0"},{"group":"hexagon_tri","room_assignment":["yellow","blue","red","green","grey","purple"],"door_color_assignment":["white","black"],"door_generator_assignment":[0,1],"goal":3,"start":1,"action_noise":0.15,"location_history":"[1,3]","action_history":"[0]","door_history":"[0]","location_rts":"[1759]","trial_type":"two-door-navigation","trial_index":6,"time_elapsed":510341,"internal_node_id":"0.0-2.0-4.0"},{"group":"hexagon_tri","room_assignment":["yellow","blue","red","green","grey","purple"],"door_color_assignment":["white","black"],"door_generator_assignment":[0,1],"goal":5,"start":3,"action_noise":0.15,"location_history":"[3,2,3,4,2,3,2,1,3,4,2,1,5]","action_history":"[0,0,1,1,1,0,0,1,1,1,0,1]","door_history":"[0,0,1,1,1,0,0,1,1,1,0,1]","location_rts":"[2030,1031,998,816,900,1055,1222,1117,2974,711,932,934]","trial_type":"two-door-navigation","trial_index":7,"time_elapsed":540820,"internal_node_id":"0.0-2.0-5.0"},{"group":"hexagon_tri","room_assignment":["yellow","blue","red","green","grey","purple"],"door_color_assignment":["white","black"],"door_generator_assignment":[0,1],"goal":4,"start":5,"action_noise":0.15,"location_history":"[5,4]","action_history":"[0]","door_history":"[0]","location_rts":"[1591]","trial_type":"two-door-navigation","trial_index":8,"time_elapsed":546938,"internal_node_id":"0.0-2.0-6.0"},{"group":"hexagon_tri","room_assignment":["yellow","blue","red","green","grey","purple"],"door_color_assignment":["white","black"],"door_generator_assignment":[0,1],"goal":0,"start":4,"action_noise":0.15,"location_history":"[4,0]","action_history":"[0]","door_history":"[0]","location_rts":"[1140]","trial_type":"two-door-navigation","trial_index":9,"time_elapsed":552602,"internal_node_id":"0.0-2.0-7.0"},{"group":"hexagon_tri","room_assignment":["yellow","blue","red","green","grey","purple"],"door_color_assignment":["white","black"],"door_generator_assignment":[0,1],"goal":2,"start":0,"action_noise":0.15,"location_history":"[0,5,4,2]","action_history":"[0,0,1]","door_history":"[0,0,1]","location_rts":"[1362,1048,836]","trial_type":"two-door-navigation","trial_index":10,"time_elapsed":562415,"internal_node_id":"0.0-2.0-8.0"},{"group":"hexagon_tri","room_assignment":["yellow","blue","red","green","grey","purple"],"door_color_assignment":["white","black"],"door_generator_assignment":[0,1],"goal":4,"start":2,"action_noise":0.15,"location_history":"[2,1,3,2,3,2,3,4]","action_history":"[0,0,0,1,0,1,1]","door_history":"[0,0,0,1,0,1,1]","location_rts":"[1909,493,652,1061,601,1121,459]","trial_type":"two-door-navigation","trial_index":11,"time_elapsed":579355,"internal_node_id":"0.0-2.0-9.0"},{"group":"hexagon_tri","room_assignment":["yellow","blue","red","green","grey","purple"],"door_color_assignment":["white","black"],"door_generator_assignment":[0,1],"goal":2,"start":4,"action_noise":0.15,"location_history":"[4,0,5,0,1,3,2]","action_history":"[0,0,0,1,0,0]","door_history":"[0,0,0,1,0,0]","location_rts":"[2183,1156,933,638,429,595]","trial_type":"two-door-navigation","trial_index":12,"time_elapsed":594919,"internal_node_id":"0.0-2.0-10.0"},{"group":"hexagon_tri","room_assignment":["yellow","blue","red","green","grey","purple"],"door_color_assignment":["white","black"],"door_generator_assignment":[0,1],"goal":3,"start":2,"action_noise":0.15,"location_history":"[2,1,3]","action_history":"[0,0]","door_history":"[0,0]","location_rts":"[2246,1533]","trial_type":"two-door-navigation","trial_index":13,"time_elapsed":604237,"internal_node_id":"0.0-2.0-11.0"},{"group":"hexagon_tri","room_assignment":["yellow","blue","red","green","grey","purple"],"door_color_assignment":["white","black"],"door_generator_assignment":[0,1],"goal":0,"start":3,"action_noise":0.15,"location_history":"[3,2,1,3,2,1,3,2,1,3,2,3,4,0]","action_history":"[0,0,0,0,1,0,0,0,0,1,1,1,0]","door_history":"[0,0,0,0,1,0,0,0,0,1,1,1,0]","location_rts":"[1557,913,544,964,826,451,517,604,950,652,513,459,1311]","trial_type":"two-door-navigation","trial_index":14,"time_elapsed":631272,"internal_node_id":"0.0-2.0-12.0"},{"group":"hexagon_tri","room_assignment":["yellow","blue","red","green","grey","purple"],"door_color_assignment":["white","black"],"door_generator_assignment":[0,1],"goal":5,"start":0,"action_noise":0.15,"location_history":"[0,5]","action_history":"[0]","door_history":"[0]","location_rts":"[1955]","trial_type":"two-door-navigation","trial_index":15,"time_elapsed":637750,"internal_node_id":"0.0-2.0-13.0"},{"group":"hexagon_tri","room_assignment":["yellow","blue","red","green","grey","purple"],"door_color_assignment":["white","black"],"door_generator_assignment":[0,1],"goal":1,"start":5,"action_noise":0.15,"location_history":"[5,4,0,5,0,5,0,1]","action_history":"[0,0,0,1,0,1,1]","door_history":"[0,0,0,1,0,1,1]","location_rts":"[2484,1022,431,1141,1142,1205,661]","trial_type":"two-door-navigation","trial_index":16,"time_elapsed":656474,"internal_node_id":"0.0-2.0-14.0"},{"group":"hexagon_tri","room_assignment":["yellow","blue","red","green","grey","purple"],"door_color_assignment":["white","black"],"door_generator_assignment":[0,1],"goal":5,"start":1,"action_noise":0.15,"location_history":"[1,5]","action_history":"[1]","door_history":"[1]","location_rts":"[8113]","trial_type":"two-door-navigation","trial_index":17,"time_elapsed":669115,"internal_node_id":"0.0-2.0-15.0"},{"group":"hexagon_tri","room_assignment":["yellow","blue","red","green","grey","purple"],"door_color_assignment":["white","black"],"door_generator_assignment":[0,1],"goal":3,"start":5,"action_noise":0.15,"location_history":"[5,4,0,5,4,0,5,0,1,3]","action_history":"[0,0,0,0,1,0,0,1,0]","door_history":"[0,0,0,0,1,0,0,1,0]","location_rts":"[1681,1418,1028,597,611,628,562,428,4212]","trial_type":"two-door-navigation","trial_index":18,"time_elapsed":692974,"internal_node_id":"0.0-2.0-16.0"},{"group":"hexagon_tri","room_assignment":["yellow","blue","red","green","grey","purple"],"door_color_assignment":["white","black"],"door_generator_assignment":[0,1],"goal":2,"start":3,"action_noise":0.15,"location_history":"[3,2]","action_history":"[0]","door_history":"[0]","location_rts":"[1332]","trial_type":"two-door-navigation","trial_index":19,"time_elapsed":698828,"internal_node_id":"0.0-2.0-17.0"},{"group":"hexagon_tri","room_assignment":["yellow","blue","red","green","grey","purple"],"door_color_assignment":["white","black"],"door_generator_assignment":[0,1],"goal":1,"start":2,"action_noise":0.15,"location_history":"[2,1]","action_history":"[0]","door_history":"[0]","location_rts":"[1824]","trial_type":"two-door-navigation","trial_index":20,"time_elapsed":705175,"internal_node_id":"0.0-2.0-18.0"},{"group":"hexagon_tri","room_assignment":["yellow","blue","red","green","grey","purple"],"door_color_assignment":["white","black"],"door_generator_assignment":[0,1],"goal":4,"start":1,"action_noise":0.15,"location_history":"[1,3,4]","action_history":"[0,1]","door_history":"[0,1]","location_rts":"[1110,1208]","trial_type":"two-door-navigation","trial_index":21,"time_elapsed":713039,"internal_node_id":"0.0-2.0-19.0"},{"group":"hexagon_tri","room_assignment":["yellow","blue","red","green","grey","purple"],"door_color_assignment":["white","black"],"door_generator_assignment":[0,1],"goal":0,"start":4,"action_noise":0.15,"location_history":"[4,0]","action_history":"[0]","door_history":"[0]","location_rts":"[1292]","trial_type":"two-door-navigation","trial_index":22,"time_elapsed":718858,"internal_node_id":"0.0-2.0-20.0"},{"group":"hexagon_tri","room_assignment":["yellow","blue","red","green","grey","purple"],"door_color_assignment":["white","black"],"door_generator_assignment":[0,1],"goal":3,"start":0,"action_noise":0.15,"location_history":"[0,5,4,0,1,3]","action_history":"[0,0,0,0,0]","door_history":"[0,0,0,0,0]","location_rts":"[6450,814,485,401,1403]","trial_type":"two-door-navigation","trial_index":23,"time_elapsed":737020,"internal_node_id":"0.0-2.0-21.0"},{"group":"hexagon_tri","room_assignment":["yellow","blue","red","green","grey","purple"],"door_color_assignment":["white","black"],"door_generator_assignment":[0,1],"goal":1,"start":3,"action_noise":0.15,"location_history":"[3,2,3,2,1]","action_history":"[0,1,0,0]","door_history":"[0,1,0,0]","location_rts":"[1537,1239,717,1167]","trial_type":"two-door-navigation","trial_index":24,"time_elapsed":749271,"internal_node_id":"0.0-2.0-22.0"},{"group":"hexagon_tri","room_assignment":["yellow","blue","red","green","grey","purple"],"door_color_assignment":["white","black"],"door_generator_assignment":[0,1],"goal":0,"start":1,"action_noise":0.15,"location_history":"[1,3,2,1,5,4,0]","action_history":"[0,0,0,1,0,0]","door_history":"[0,0,0,1,0,0]","location_rts":"[4752,660,805,785,386,975]","trial_type":"two-door-navigation","trial_index":25,"time_elapsed":767257,"internal_node_id":"0.0-2.0-23.0"},{"group":"hexagon_tri","room_assignment":["yellow","blue","red","green","grey","purple"],"door_color_assignment":["white","black"],"door_generator_assignment":[0,1],"goal":2,"start":0,"action_noise":0.15,"location_history":"[0,5,4,2]","action_history":"[0,0,0]","door_history":"[0,0,0]","location_rts":"[1877,3059,974]","trial_type":"two-door-navigation","trial_index":26,"time_elapsed":779735,"internal_node_id":"0.0-2.0-24.0"},{"group":"hexagon_tri","room_assignment":["yellow","blue","red","green","grey","purple"],"door_color_assignment":["white","black"],"door_generator_assignment":[0,1],"goal":4,"start":2,"action_noise":0.15,"location_history":"[2,1,3,2,1,3,4]","action_history":"[0,0,0,0,0,1]","door_history":"[0,0,0,0,0,1]","location_rts":"[4138,399,354,648,669,514]","trial_type":"two-door-navigation","trial_index":27,"time_elapsed":796084,"internal_node_id":"0.0-2.0-25.0"},{"group":"hexagon_tri","room_assignment":["yellow","blue","red","green","grey","purple"],"door_color_assignment":["white","black"],"door_generator_assignment":[0,1],"goal":5,"start":4,"action_noise":0.15,"location_history":"[4,2,1,5]","action_history":"[1,0,1]","door_history":"[1,0,1]","location_rts":"[1975,574,761]","trial_type":"two-door-navigation","trial_index":28,"time_elapsed":805965,"internal_node_id":"0.0-2.0-26.0"},{"group":"hexagon_tri","room_assignment":["yellow","blue","red","green","grey","purple"],"door_color_assignment":["white","black"],"door_generator_assignment":[0,1],"goal":2,"start":5,"action_noise":0.15,"location_history":"[5,0,5,4,0,5,0,5,4,2]","action_history":"[0,0,0,1,0,0,0,0,1]","door_history":"[0,0,0,1,0,0,0,0,1]","location_rts":"[3264,618,2475,2175,1265,1207,550,1498,6842]","trial_type":"two-door-navigation","trial_index":29,"time_elapsed":838558,"internal_node_id":"0.0-2.0-27.0"},{"group":"hexagon_tri","room_assignment":["yellow","blue","red","green","grey","purple"],"door_color_assignment":["white","black"],"door_generator_assignment":[0,1],"goal":3,"start":2,"action_noise":0.15,"location_history":"[2,3]","action_history":"[0]","door_history":"[0]","location_rts":"[1349]","trial_type":"two-door-navigation","trial_index":30,"time_elapsed":844432,"internal_node_id":"0.0-2.0-28.0"},{"group":"hexagon_tri","room_assignment":["yellow","blue","red","green","grey","purple"],"door_color_assignment":["white","black"],"door_generator_assignment":[0,1],"goal":1,"start":3,"action_noise":0.15,"location_history":"[3,4,0,5,0,1]","action_history":"[0,0,0,1,1]","door_history":"[0,0,0,1,1]","location_rts":"[3915,661,442,1121,676]","trial_type":"two-door-navigation","trial_index":31,"time_elapsed":859857,"internal_node_id":"0.0-2.0-29.0"},{"group":"hexagon_tri","room_assignment":["yellow","blue","red","green","grey","purple"],"door_color_assignment":["white","black"],"door_generator_assignment":[0,1],"goal":4,"start":1,"action_noise":0.15,"location_history":"[1,5,0,5,4]","action_history":"[0,0,0,0]","door_history":"[0,0,0,0]","location_rts":"[1380,576,812,568]","trial_type":"two-door-navigation","trial_index":32,"time_elapsed":870790,"internal_node_id":"0.0-2.0-30.0"},{"group":"hexagon_tri","room_assignment":["yellow","blue","red","green","grey","purple"],"door_color_assignment":["white","black"],"door_generator_assignment":[0,1],"goal":5,"start":4,"action_noise":0.15,"location_history":"[4,2,3,2,1,5]","action_history":"[1,1,0,0,1]","door_history":"[1,1,0,0,1]","location_rts":"[5368,969,804,829,3340]","trial_type":"two-door-navigation","trial_index":33,"time_elapsed":890707,"internal_node_id":"0.0-2.0-31.0"},{"group":"hexagon_tri","room_assignment":["yellow","blue","red","green","grey","purple"],"door_color_assignment":["white","black"],"door_generator_assignment":[0,1],"goal":0,"start":5,"action_noise":0.15,"location_history":"[5,0]","action_history":"[0]","door_history":"[0]","location_rts":"[1183]","trial_type":"two-door-navigation","trial_index":34,"time_elapsed":896418,"internal_node_id":"0.0-2.0-32.0"},{"group":"hexagon_tri","room_assignment":["yellow","blue","red","green","grey","purple"],"door_color_assignment":["white","black"],"door_generator_assignment":[0,1],"goal":2,"start":0,"action_noise":0.15,"location_history":"[0,5,4,0,5,4,0,5,0,5,0,5,4,0,5,4,2]","action_history":"[0,0,0,0,0,1,0,0,0,1,0,0,0,0,0,1]","door_history":"[0,0,0,0,0,1,0,0,0,1,0,0,0,0,0,1]","location_rts":"[979,342,435,1316,1381,1145,1341,9618,613,1573,549,394,485,487,1123,533]","trial_type":"two-door-navigation","trial_index":35,"time_elapsed":938559,"internal_node_id":"0.0-2.0-33.0"},{"group":"hexagon_tri","room_assignment":["yellow","blue","red","green","grey","purple"],"door_color_assignment":["white","black"],"door_generator_assignment":[0,1],"goal":0,"start":2,"action_noise":0.15,"location_history":"[2,1,3,2,1,3,4,2,3,4,0]","action_history":"[0,0,0,0,0,1,1,1,1,0]","door_history":"[0,0,0,0,0,1,1,1,1,0]","location_rts":"[6821,400,458,525,809,858,886,1504,776,420]","trial_type":"two-door-navigation","trial_index":36,"time_elapsed":965724,"internal_node_id":"0.0-2.0-34.0"},{"group":"hexagon_tri","room_assignment":["yellow","blue","red","green","grey","purple"],"door_color_assignment":["white","black"],"door_generator_assignment":[0,1],"goal":5,"start":0,"action_noise":0.15,"location_history":"[0,5]","action_history":"[0]","door_history":"[0]","location_rts":"[1168]","trial_type":"two-door-navigation","trial_index":37,"time_elapsed":971419,"internal_node_id":"0.0-2.0-35.0"},{"group":"hexagon_tri","room_assignment":["yellow","blue","red","green","grey","purple"],"door_color_assignment":["white","black"],"door_generator_assignment":[0,1],"goal":1,"start":5,"action_noise":0.15,"location_history":"[5,0,1]","action_history":"[1,1]","door_history":"[1,1]","location_rts":"[1714,825]","trial_type":"two-door-navigation","trial_index":38,"time_elapsed":979498,"internal_node_id":"0.0-2.0-36.0"},{"group":"hexagon_tri","room_assignment":["yellow","blue","red","green","grey","purple"],"door_color_assignment":["white","black"],"door_generator_assignment":[0,1],"goal":4,"start":1,"action_noise":0.15,"location_history":"[1,5,4]","action_history":"[0,0]","door_history":"[0,0]","location_rts":"[1133,372]","trial_type":"two-door-navigation","trial_index":39,"time_elapsed":986556,"internal_node_id":"0.0-2.0-37.0"},{"group":"hexagon_tri","room_assignment":["yellow","blue","red","green","grey","purple"],"door_color_assignment":["white","black"],"door_generator_assignment":[0,1],"goal":3,"start":4,"action_noise":0.15,"location_history":"[4,2,1,5,4,2,3]","action_history":"[0,0,1,0,0,0]","door_history":"[0,0,1,0,0,0]","location_rts":"[1822,410,779,329,582,420]","trial_type":"two-door-navigation","trial_index":40,"time_elapsed":1000535,"internal_node_id":"0.0-2.0-38.0"},{"group":"hexagon_tri","room_assignment":["yellow","blue","red","green","grey","purple"],"door_color_assignment":["white","black"],"door_generator_assignment":[0,1],"goal":5,"start":3,"action_noise":0.15,"location_history":"[3,4,0,5]","action_history":"[1,1,0]","door_history":"[1,1,0]","location_rts":"[3983,1267,791]","trial_type":"two-door-navigation","trial_index":41,"time_elapsed":1013136,"internal_node_id":"0.0-2.0-39.0"},{"group":"hexagon_tri","room_assignment":["yellow","blue","red","green","grey","purple"],"door_color_assignment":["white","black"],"door_generator_assignment":[0,1],"goal":1,"start":5,"action_noise":0.15,"location_history":"[5,0,1]","action_history":"[1,1]","door_history":"[1,1]","location_rts":"[2226,652]","trial_type":"two-door-navigation","trial_index":42,"time_elapsed":1021556,"internal_node_id":"0.0-2.0-40.0"},{"group":"hexagon_tri","room_assignment":["yellow","blue","red","green","grey","purple"],"door_color_assignment":["white","black"],"door_generator_assignment":[0,1],"goal":2,"start":1,"action_noise":0.15,"location_history":"[1,3,2]","action_history":"[0,0]","door_history":"[0,0]","location_rts":"[1165,400]","trial_type":"two-door-navigation","trial_index":43,"time_elapsed":1028669,"internal_node_id":"0.0-2.0-41.0"},{"group":"hexagon_tri","room_assignment":["yellow","blue","red","green","grey","purple"],"door_color_assignment":["white","black"],"door_generator_assignment":[0,1],"goal":4,"start":2,"action_noise":0.15,"location_history":"[2,1,3,2,1,3,4]","action_history":"[0,0,0,0,0,0]","door_history":"[0,0,0,0,0,0]","location_rts":"[1568,419,471,940,491,499]","trial_type":"two-door-navigation","trial_index":44,"time_elapsed":1042692,"internal_node_id":"0.0-2.0-42.0"},{"group":"hexagon_tri","room_assignment":["yellow","blue","red","green","grey","purple"],"door_color_assignment":["white","black"],"door_generator_assignment":[0,1],"goal":0,"start":4,"action_noise":0.15,"location_history":"[4,0]","action_history":"[0]","door_history":"[0]","location_rts":"[2161]","trial_type":"two-door-navigation","trial_index":45,"time_elapsed":1049376,"internal_node_id":"0.0-2.0-43.0"},{"group":"hexagon_tri","room_assignment":["yellow","blue","red","green","grey","purple"],"door_color_assignment":["white","black"],"door_generator_assignment":[0,1],"goal":3,"start":0,"action_noise":0.15,"location_history":"[0,5,4,0,5,0,5,4,2,1,3]","action_history":"[0,0,0,1,0,0,1,1,0,0]","door_history":"[0,0,0,1,0,0,1,1,0,0]","location_rts":"[1502,977,748,1341,404,426,491,731,535,854]","trial_type":"two-door-navigation","trial_index":46,"time_elapsed":1071111,"internal_node_id":"0.0-2.0-44.0"},{"group":"hexagon_tri","room_assignment":["yellow","blue","red","green","grey","purple"],"door_color_assignment":["white","black"],"door_generator_assignment":[0,1],"goal":0,"start":3,"action_noise":0.15,"location_history":"[3,2,1,5,4,0]","action_history":"[0,0,1,0,0]","door_history":"[0,0,1,0,0]","location_rts":"[1822,377,896,342,392]","trial_type":"two-door-navigation","trial_index":47,"time_elapsed":1083539,"internal_node_id":"0.0-2.0-45.0"},{"group":"hexagon_tri","room_assignment":["yellow","blue","red","green","grey","purple"],"door_color_assignment":["white","black"],"door_generator_assignment":[0,1],"goal":4,"start":0,"action_noise":0.15,"location_history":"[0,5,4]","action_history":"[0,0]","door_history":"[0,0]","location_rts":"[6435,859]","trial_type":"two-door-navigation","trial_index":48,"time_elapsed":1096377,"internal_node_id":"0.0-2.0-46.0"},{"group":"hexagon_tri","room_assignment":["yellow","blue","red","green","grey","purple"],"door_color_assignment":["white","black"],"door_generator_assignment":[0,1],"goal":5,"start":4,"action_noise":0.15,"location_history":"[4,2,3,4,2,1,5]","action_history":"[1,1,1,0,0,1]","door_history":"[1,1,1,0,0,1]","location_rts":"[7019,1325,581,1169,463,504]","trial_type":"two-door-navigation","trial_index":49,"time_elapsed":1117054,"internal_node_id":"0.0-2.0-47.0"},{"group":"hexagon_tri","room_assignment":["yellow","blue","red","green","grey","purple"],"door_color_assignment":["white","black"],"door_generator_assignment":[0,1],"goal":2,"start":5,"action_noise":0.15,"location_history":"[5,4,2]","action_history":"[0,0]","door_history":"[0,0]","location_rts":"[4265,1052]","trial_type":"two-door-navigation","trial_index":50,"time_elapsed":1127912,"internal_node_id":"0.0-2.0-48.0"},{"group":"hexagon_tri","room_assignment":["yellow","blue","red","green","grey","purple"],"door_color_assignment":["white","black"],"door_generator_assignment":[0,1],"goal":1,"start":2,"action_noise":0.15,"location_history":"[2,1]","action_history":"[0]","door_history":"[0]","location_rts":"[8109]","trial_type":"two-door-navigation","trial_index":51,"time_elapsed":1140544,"internal_node_id":"0.0-2.0-49.0"},{"view_history":"[{\"page_index\":0,\"viewing_time\":81419}]","rt":81420,"trial_type":"instructions","trial_index":52,"time_elapsed":1222965,"internal_node_id":"0.0-3.0"},{"view_history":"[{\"page_index\":0,\"viewing_time\":38400},{\"page_index\":1,\"viewing_time\":1792}]","rt":40192,"trial_type":"instructions","trial_index":53,"time_elapsed":1264157,"internal_node_id":"0.0-4.0"},{"group":"hexagon_tri","fractal_assignment":["../images/gry_blk.png","../images/ylw_slt.png","../images/pnk_blu.png","../images/cyn_red.png","../images/blu_wht.png","../images/org_blu.png"],"mutagen_generator_assignment":[1,0],"goal":2,"start":1,"action_noise":0.15,"location_history":"[1,3,2]","action_history":"[0,0]","mutagen_history":"[1,1]","location_rts":"[3312,985]","trial_type":"fractal-mutation","trial_index":54,"time_elapsed":1274049,"internal_node_id":"0.0-5.0-0.0"},{"group":"hexagon_tri","fractal_assignment":["../images/gry_blk.png","../images/ylw_slt.png","../images/pnk_blu.png","../images/cyn_red.png","../images/blu_wht.png","../images/org_blu.png"],"mutagen_generator_assignment":[1,0],"goal":0,"start":2,"action_noise":0.15,"location_history":"[2,3,2,3,2,1,3,4,0]","action_history":"[0,0,0,1,0,0,1,0]","mutagen_history":"[1,1,1,0,1,1,0,1]","location_rts":"[2363,415,461,858,638,628,904,761]","trial_type":"fractal-mutation","trial_index":55,"time_elapsed":1292859,"internal_node_id":"0.0-5.0-1.0"},{"group":"hexagon_tri","fractal_assignment":["../images/gry_blk.png","../images/ylw_slt.png","../images/pnk_blu.png","../images/cyn_red.png","../images/blu_wht.png","../images/org_blu.png"],"mutagen_generator_assignment":[1,0],"goal":5,"start":0,"action_noise":0.15,"location_history":"[0,1,3,2,1,5]","action_history":"[1,0,0,0,1]","mutagen_history":"[0,1,1,1,0]","location_rts":"[5600,768,705,440,709]","trial_type":"fractal-mutation","trial_index":56,"time_elapsed":1309742,"internal_node_id":"0.0-5.0-2.0"},{"group":"hexagon_tri","fractal_assignment":["../images/gry_blk.png","../images/ylw_slt.png","../images/pnk_blu.png","../images/cyn_red.png","../images/blu_wht.png","../images/org_blu.png"],"mutagen_generator_assignment":[1,0],"goal":1,"start":5,"action_noise":0.15,"location_history":"[5,0,5,4,0,1]","action_history":"[1,0,0,0,1]","mutagen_history":"[0,1,1,1,0]","location_rts":"[1245,857,484,538,811]","trial_type":"fractal-mutation","trial_index":57,"time_elapsed":1322336,"internal_node_id":"0.0-5.0-3.0"},{"group":"hexagon_tri","fractal_assignment":["../images/gry_blk.png","../images/ylw_slt.png","../images/pnk_blu.png","../images/cyn_red.png","../images/blu_wht.png","../images/org_blu.png"],"mutagen_generator_assignment":[1,0],"goal":3,"start":1,"action_noise":0.15,"location_history":"[1,5,0,5,4,2,3]","action_history":"[1,0,0,0,1,0]","mutagen_history":"[0,1,1,1,0,1]","location_rts":"[2540,1368,453,948,1569,1068]","trial_type":"fractal-mutation","trial_index":58,"time_elapsed":1339985,"internal_node_id":"0.0-5.0-4.0"},{"group":"hexagon_tri","fractal_assignment":["../images/gry_blk.png","../images/ylw_slt.png","../images/pnk_blu.png","../images/cyn_red.png","../images/blu_wht.png","../images/org_blu.png"],"mutagen_generator_assignment":[1,0],"goal":5,"start":3,"action_noise":0.15,"location_history":"[3,4,2,1,3,4,0,5]","action_history":"[1,0,0,0,1,0,0]","mutagen_history":"[0,1,1,1,0,1,1]","location_rts":"[4409,522,439,614,959,668,501]","trial_type":"fractal-mutation","trial_index":59,"time_elapsed":1358816,"internal_node_id":"0.0-5.0-5.0"},{"group":"hexagon_tri","fractal_assignment":["../images/gry_blk.png","../images/ylw_slt.png","../images/pnk_blu.png","../images/cyn_red.png","../images/blu_wht.png","../images/org_blu.png"],"mutagen_generator_assignment":[1,0],"goal":4,"start":5,"action_noise":0.15,"location_history":"[5,0,5,0,5,4]","action_history":"[1,0,0,0,0]","mutagen_history":"[0,1,1,1,1]","location_rts":"[1707,781,375,320,439]","trial_type":"fractal-mutation","trial_index":60,"time_elapsed":1371085,"internal_node_id":"0.0-5.0-6.0"},{"group":"hexagon_tri","fractal_assignment":["../images/gry_blk.png","../images/ylw_slt.png","../images/pnk_blu.png","../images/cyn_red.png","../images/blu_wht.png","../images/org_blu.png"],"mutagen_generator_assignment":[1,0],"goal":0,"start":4,"action_noise":0.15,"location_history":"[4,2,3,4,0]","action_history":"[1,1,1,0]","mutagen_history":"[0,0,0,1]","location_rts":"[4463,1224,619,761]","trial_type":"fractal-mutation","trial_index":61,"time_elapsed":1385775,"internal_node_id":"0.0-5.0-7.0"},{"group":"hexagon_tri","fractal_assignment":["../images/gry_blk.png","../images/ylw_slt.png","../images/pnk_blu.png","../images/cyn_red.png","../images/blu_wht.png","../images/org_blu.png"],"mutagen_generator_assignment":[1,0],"goal":2,"start":0,"action_noise":0.15,"location_history":"[0,1,5,4,0,1,3,2]","action_history":"[1,0,0,0,1,0,0]","mutagen_history":"[0,1,1,1,0,1,1]","location_rts":"[814,555,500,556,1414,410,455]","trial_type":"fractal-mutation","trial_index":62,"time_elapsed":1401207,"internal_node_id":"0.0-5.0-8.0"},{"group":"hexagon_tri","fractal_assignment":["../images/gry_blk.png","../images/ylw_slt.png","../images/pnk_blu.png","../images/cyn_red.png","../images/blu_wht.png","../images/org_blu.png"],"mutagen_generator_assignment":[1,0],"goal":4,"start":2,"action_noise":0.15,"location_history":"[2,3,2,1,3,2,1,3,4]","action_history":"[1,0,0,0,0,1,0,0]","mutagen_history":"[0,1,1,1,1,0,1,1]","location_rts":"[7909,907,584,728,457,492,390,357]","trial_type":"fractal-mutation","trial_index":63,"time_elapsed":1424785,"internal_node_id":"0.0-5.0-9.0"},{"group":"hexagon_tri","fractal_assignment":["../images/gry_blk.png","../images/ylw_slt.png","../images/pnk_blu.png","../images/cyn_red.png","../images/blu_wht.png","../images/org_blu.png"],"mutagen_generator_assignment":[1,0],"goal":2,"start":4,"action_noise":0.15,"location_history":"[4,0,5,4,2]","action_history":"[1,0,0,0]","mutagen_history":"[0,1,1,1]","location_rts":"[2634,909,567,738]","trial_type":"fractal-mutation","trial_index":64,"time_elapsed":1437274,"internal_node_id":"0.0-5.0-10.0"},{"group":"hexagon_tri","fractal_assignment":["../images/gry_blk.png","../images/ylw_slt.png","../images/pnk_blu.png","../images/cyn_red.png","../images/blu_wht.png","../images/org_blu.png"],"mutagen_generator_assignment":[1,0],"goal":3,"start":2,"action_noise":0.15,"location_history":"[2,3]","action_history":"[1]","mutagen_history":"[0]","location_rts":"[4242]","trial_type":"fractal-mutation","trial_index":65,"time_elapsed":1446054,"internal_node_id":"0.0-5.0-11.0"},{"group":"hexagon_tri","fractal_assignment":["../images/gry_blk.png","../images/ylw_slt.png","../images/pnk_blu.png","../images/cyn_red.png","../images/blu_wht.png","../images/org_blu.png"],"mutagen_generator_assignment":[1,0],"goal":0,"start":3,"action_noise":0.15,"location_history":"[3,4,0]","action_history":"[1,0]","mutagen_history":"[0,1]","location_rts":"[1941,717]","trial_type":"fractal-mutation","trial_index":66,"time_elapsed":1454279,"internal_node_id":"0.0-5.0-12.0"},{"group":"hexagon_tri","fractal_assignment":["../images/gry_blk.png","../images/ylw_slt.png","../images/pnk_blu.png","../images/cyn_red.png","../images/blu_wht.png","../images/org_blu.png"],"mutagen_generator_assignment":[1,0],"goal":5,"start":0,"action_noise":0.15,"location_history":"[0,1,5]","action_history":"[1,1]","mutagen_history":"[0,0]","location_rts":"[1125,456]","trial_type":"fractal-mutation","trial_index":67,"time_elapsed":1461420,"internal_node_id":"0.0-5.0-13.0"},{"group":"hexagon_tri","fractal_assignment":["../images/gry_blk.png","../images/ylw_slt.png","../images/pnk_blu.png","../images/cyn_red.png","../images/blu_wht.png","../images/org_blu.png"],"mutagen_generator_assignment":[1,0],"goal":1,"start":5,"action_noise":0.15,"location_history":"[5,0,5,4,2,1]","action_history":"[1,1,0,0,0]","mutagen_history":"[0,0,1,1,1]","location_rts":"[10863,701,477,532,514]","trial_type":"fractal-mutation","trial_index":68,"time_elapsed":1483174,"internal_node_id":"0.0-5.0-14.0"},{"group":"hexagon_tri","fractal_assignment":["../images/gry_blk.png","../images/ylw_slt.png","../images/pnk_blu.png","../images/cyn_red.png","../images/blu_wht.png","../images/org_blu.png"],"mutagen_generator_assignment":[1,0],"goal":5,"start":1,"action_noise":0.15,"location_history":"[1,5]","action_history":"[1]","mutagen_history":"[0]","location_rts":"[918]","trial_type":"fractal-mutation","trial_index":69,"time_elapsed":1488630,"internal_node_id":"0.0-5.0-15.0"},{"group":"hexagon_tri","fractal_assignment":["../images/gry_blk.png","../images/ylw_slt.png","../images/pnk_blu.png","../images/cyn_red.png","../images/blu_wht.png","../images/org_blu.png"],"mutagen_generator_assignment":[1,0],"goal":3,"start":5,"action_noise":0.15,"location_history":"[5,0,1,3]","action_history":"[1,1,0]","mutagen_history":"[0,0,1]","location_rts":"[2083,526,683]","trial_type":"fractal-mutation","trial_index":70,"time_elapsed":1498515,"internal_node_id":"0.0-5.0-16.0"},{"group":"hexagon_tri","fractal_assignment":["../images/gry_blk.png","../images/ylw_slt.png","../images/pnk_blu.png","../images/cyn_red.png","../images/blu_wht.png","../images/org_blu.png"],"mutagen_generator_assignment":[1,0],"goal":2,"start":3,"action_noise":0.15,"location_history":"[3,2]","action_history":"[1]","mutagen_history":"[0]","location_rts":"[1158]","trial_type":"fractal-mutation","trial_index":71,"time_elapsed":1504207,"internal_node_id":"0.0-5.0-17.0"},{"group":"hexagon_tri","fractal_assignment":["../images/gry_blk.png","../images/ylw_slt.png","../images/pnk_blu.png","../images/cyn_red.png","../images/blu_wht.png","../images/org_blu.png"],"mutagen_generator_assignment":[1,0],"goal":1,"start":2,"action_noise":0.15,"location_history":"[2,3,2,3,2,3,2,1]","action_history":"[1,0,0,0,1,0,0]","mutagen_history":"[0,1,1,1,0,1,1]","location_rts":"[2267,1243,489,617,832,430,514]","trial_type":"fractal-mutation","trial_index":72,"time_elapsed":1521335,"internal_node_id":"0.0-5.0-18.0"},{"group":"hexagon_tri","fractal_assignment":["../images/gry_blk.png","../images/ylw_slt.png","../images/pnk_blu.png","../images/cyn_red.png","../images/blu_wht.png","../images/org_blu.png"],"mutagen_generator_assignment":[1,0],"goal":4,"start":1,"action_noise":0.15,"location_history":"[1,5,4]","action_history":"[1,1]","mutagen_history":"[0,0]","location_rts":"[980,636]","trial_type":"fractal-mutation","trial_index":73,"time_elapsed":1528515,"internal_node_id":"0.0-5.0-19.0"},{"group":"hexagon_tri","fractal_assignment":["../images/gry_blk.png","../images/ylw_slt.png","../images/pnk_blu.png","../images/cyn_red.png","../images/blu_wht.png","../images/org_blu.png"],"mutagen_generator_assignment":[1,0],"goal":0,"start":4,"action_noise":0.15,"location_history":"[4,0]","action_history":"[0]","mutagen_history":"[1]","location_rts":"[1223]","trial_type":"fractal-mutation","trial_index":74,"time_elapsed":1534279,"internal_node_id":"0.0-5.0-20.0"},{"group":"hexagon_tri","fractal_assignment":["../images/gry_blk.png","../images/ylw_slt.png","../images/pnk_blu.png","../images/cyn_red.png","../images/blu_wht.png","../images/org_blu.png"],"mutagen_generator_assignment":[1,0],"goal":3,"start":0,"action_noise":0.15,"location_history":"[0,1,5,0,1,5,4,0,5,4,2,1,5,4,0,5,0,5,4,0,5,0,1,3]","action_history":"[1,1,1,1,1,0,0,0,0,1,1,1,0,0,0,1,0,0,0,0,1,1,0]","mutagen_history":"[0,0,0,0,0,1,1,1,1,0,0,0,1,1,1,0,1,1,1,1,0,0,1]","location_rts":"[1653,523,1037,606,553,909,663,679,790,1429,505,471,1275,522,456,772,554,658,468,572,594,1660,529]","trial_type":"fractal-mutation","trial_index":75,"time_elapsed":1579384,"internal_node_id":"0.0-5.0-21.0"},{"group":"hexagon_tri","fractal_assignment":["../images/gry_blk.png","../images/ylw_slt.png","../images/pnk_blu.png","../images/cyn_red.png","../images/blu_wht.png","../images/org_blu.png"],"mutagen_generator_assignment":[1,0],"goal":1,"start":3,"action_noise":0.15,"location_history":"[3,4,0,1]","action_history":"[1,0,0]","mutagen_history":"[0,1,1]","location_rts":"[1894,1102,552]","trial_type":"fractal-mutation","trial_index":76,"time_elapsed":1589528,"internal_node_id":"0.0-5.0-22.0"},{"group":"hexagon_tri","fractal_assignment":["../images/gry_blk.png","../images/ylw_slt.png","../images/pnk_blu.png","../images/cyn_red.png","../images/blu_wht.png","../images/org_blu.png"],"mutagen_generator_assignment":[1,0],"goal":0,"start":1,"action_noise":0.15,"location_history":"[1,5,4,0]","action_history":"[1,0,0]","mutagen_history":"[0,1,1]","location_rts":"[1283,747,568]","trial_type":"fractal-mutation","trial_index":77,"time_elapsed":1598725,"internal_node_id":"0.0-5.0-23.0"},{"group":"hexagon_tri","fractal_assignment":["../images/gry_blk.png","../images/ylw_slt.png","../images/pnk_blu.png","../images/cyn_red.png","../images/blu_wht.png","../images/org_blu.png"],"mutagen_generator_assignment":[1,0],"goal":2,"start":0,"action_noise":0.15,"location_history":"[0,5,4,0,5,4,0,1,5,4,0,5,0,1,3,2]","action_history":"[1,0,0,0,0,0,1,1,0,0,0,1,1,0,0]","mutagen_history":"[0,1,1,1,1,1,0,0,1,1,1,0,0,1,1]","location_rts":"[1461,938,619,791,581,1016,792,992,588,615,1051,515,618,413,485]","trial_type":"fractal-mutation","trial_index":78,"time_elapsed":1629174,"internal_node_id":"0.0-5.0-24.0"},{"group":"hexagon_tri","fractal_assignment":["../images/gry_blk.png","../images/ylw_slt.png","../images/pnk_blu.png","../images/cyn_red.png","../images/blu_wht.png","../images/org_blu.png"],"mutagen_generator_assignment":[1,0],"goal":4,"start":2,"action_noise":0.15,"location_history":"[2,3,2,1,5,4]","action_history":"[1,1,0,0,0]","mutagen_history":"[0,0,1,1,1]","location_rts":"[1742,515,944,896,712]","trial_type":"fractal-mutation","trial_index":79,"time_elapsed":1642643,"internal_node_id":"0.0-5.0-25.0"},{"group":"hexagon_tri","fractal_assignment":["../images/gry_blk.png","../images/ylw_slt.png","../images/pnk_blu.png","../images/cyn_red.png","../images/blu_wht.png","../images/org_blu.png"],"mutagen_generator_assignment":[1,0],"goal":5,"start":4,"action_noise":0.15,"location_history":"[4,2,3,2,1,3,4,0,5]","action_history":"[1,1,0,0,0,1,0,0]","mutagen_history":"[0,0,1,1,1,0,1,1]","location_rts":"[1065,652,831,488,536,983,512,544]","trial_type":"fractal-mutation","trial_index":80,"time_elapsed":1660006,"internal_node_id":"0.0-5.0-26.0"},{"group":"hexagon_tri","fractal_assignment":["../images/gry_blk.png","../images/ylw_slt.png","../images/pnk_blu.png","../images/cyn_red.png","../images/blu_wht.png","../images/org_blu.png"],"mutagen_generator_assignment":[1,0],"goal":2,"start":5,"action_noise":0.15,"location_history":"[5,0,1,3,2]","action_history":"[1,1,0,0]","mutagen_history":"[0,0,1,1]","location_rts":"[2151,590,313,376]","trial_type":"fractal-mutation","trial_index":81,"time_elapsed":1671064,"internal_node_id":"0.0-5.0-27.0"},{"group":"hexagon_tri","fractal_assignment":["../images/gry_blk.png","../images/ylw_slt.png","../images/pnk_blu.png","../images/cyn_red.png","../images/blu_wht.png","../images/org_blu.png"],"mutagen_generator_assignment":[1,0],"goal":3,"start":2,"action_noise":0.15,"location_history":"[2,1,5,4,0,1,5,4,2,1,5,4,0,5,0,5,0,5,4,2,3]","action_history":"[1,0,0,0,1,1,0,0,0,1,0,0,0,1,1,0,0,0,1,1]","mutagen_history":"[0,1,1,1,0,0,1,1,1,0,1,1,1,0,0,1,1,1,0,0]","location_rts":"[851,1356,986,606,701,508,941,443,452,502,473,454,445,424,2956,547,469,565,447,460]","trial_type":"fractal-mutation","trial_index":82,"time_elapsed":1709754,"internal_node_id":"0.0-5.0-28.0"},{"group":"hexagon_tri","fractal_assignment":["../images/gry_blk.png","../images/ylw_slt.png","../images/pnk_blu.png","../images/cyn_red.png","../images/blu_wht.png","../images/org_blu.png"],"mutagen_generator_assignment":[1,0],"goal":1,"start":3,"action_noise":0.15,"location_history":"[3,2,1]","action_history":"[0,0]","mutagen_history":"[1,1]","location_rts":"[1107,4642]","trial_type":"fractal-mutation","trial_index":83,"time_elapsed":1721080,"internal_node_id":"0.0-5.0-29.0"},{"group":"hexagon_tri","fractal_assignment":["../images/gry_blk.png","../images/ylw_slt.png","../images/pnk_blu.png","../images/cyn_red.png","../images/blu_wht.png","../images/org_blu.png"],"mutagen_generator_assignment":[1,0],"goal":4,"start":1,"action_noise":0.15,"location_history":"[1,5,0,1,3,4]","action_history":"[1,1,0,0,0]","mutagen_history":"[0,0,1,1,1]","location_rts":"[837,521,453,389,408]","trial_type":"fractal-mutation","trial_index":84,"time_elapsed":1732359,"internal_node_id":"0.0-5.0-30.0"},{"group":"hexagon_tri","fractal_assignment":["../images/gry_blk.png","../images/ylw_slt.png","../images/pnk_blu.png","../images/cyn_red.png","../images/blu_wht.png","../images/org_blu.png"],"mutagen_generator_assignment":[1,0],"goal":5,"start":4,"action_noise":0.15,"location_history":"[4,0,1,3,2,1,5]","action_history":"[1,1,0,0,0,1]","mutagen_history":"[0,0,1,1,1,0]","location_rts":"[1254,3372,484,412,403,458]","trial_type":"fractal-mutation","trial_index":85,"time_elapsed":1748413,"internal_node_id":"0.0-5.0-31.0"},{"group":"hexagon_tri","fractal_assignment":["../images/gry_blk.png","../images/ylw_slt.png","../images/pnk_blu.png","../images/cyn_red.png","../images/blu_wht.png","../images/org_blu.png"],"mutagen_generator_assignment":[1,0],"goal":0,"start":5,"action_noise":0.15,"location_history":"[5,4,0]","action_history":"[0,0]","mutagen_history":"[1,1]","location_rts":"[1647,771]","trial_type":"fractal-mutation","trial_index":86,"time_elapsed":1756405,"internal_node_id":"0.0-5.0-32.0"},{"group":"hexagon_tri","fractal_assignment":["../images/gry_blk.png","../images/ylw_slt.png","../images/pnk_blu.png","../images/cyn_red.png","../images/blu_wht.png","../images/org_blu.png"],"mutagen_generator_assignment":[1,0],"goal":2,"start":0,"action_noise":0.15,"location_history":"[0,5,4,0,5,4,2]","action_history":"[1,0,0,0,0,1]","mutagen_history":"[0,1,1,1,1,0]","location_rts":"[856,857,618,805,537,613]","trial_type":"fractal-mutation","trial_index":87,"time_elapsed":1770380,"internal_node_id":"0.0-5.0-33.0"},{"group":"hexagon_tri","fractal_assignment":["../images/gry_blk.png","../images/ylw_slt.png","../images/pnk_blu.png","../images/cyn_red.png","../images/blu_wht.png","../images/org_blu.png"],"mutagen_generator_assignment":[1,0],"goal":0,"start":2,"action_noise":0.15,"location_history":"[2,3,2,1,3,4,0]","action_history":"[1,0,0,0,0,0]","mutagen_history":"[0,1,1,1,1,1]","location_rts":"[1601,557,441,668,535,555]","trial_type":"fractal-mutation","trial_index":88,"time_elapsed":1784418,"internal_node_id":"0.0-5.0-34.0"},{"group":"hexagon_tri","fractal_assignment":["../images/gry_blk.png","../images/ylw_slt.png","../images/pnk_blu.png","../images/cyn_red.png","../images/blu_wht.png","../images/org_blu.png"],"mutagen_generator_assignment":[1,0],"goal":5,"start":0,"action_noise":0.15,"location_history":"[0,1,5]","action_history":"[1,1]","mutagen_history":"[0,0]","location_rts":"[1640,504]","trial_type":"fractal-mutation","trial_index":89,"time_elapsed":1792130,"internal_node_id":"0.0-5.0-35.0"},{"group":"hexagon_tri","fractal_assignment":["../images/gry_blk.png","../images/ylw_slt.png","../images/pnk_blu.png","../images/cyn_red.png","../images/blu_wht.png","../images/org_blu.png"],"mutagen_generator_assignment":[1,0],"goal":1,"start":5,"action_noise":0.15,"location_history":"[5,0,1]","action_history":"[1,0]","mutagen_history":"[0,1]","location_rts":"[6907,602]","trial_type":"fractal-mutation","trial_index":90,"time_elapsed":1805209,"internal_node_id":"0.0-5.0-36.0"},{"group":"hexagon_tri","fractal_assignment":["../images/gry_blk.png","../images/ylw_slt.png","../images/pnk_blu.png","../images/cyn_red.png","../images/blu_wht.png","../images/org_blu.png"],"mutagen_generator_assignment":[1,0],"goal":4,"start":1,"action_noise":0.15,"location_history":"[1,3,2,3,2,1,3,2,1,5,0,5,4]","action_history":"[0,0,1,0,0,1,0,0,1,1,0,0]","mutagen_history":"[1,1,0,1,1,0,1,1,0,0,1,1]","location_rts":"[1009,417,459,443,391,825,505,444,486,545,670,403]","trial_type":"fractal-mutation","trial_index":91,"time_elapsed":1827684,"internal_node_id":"0.0-5.0-37.0"},{"group":"hexagon_tri","fractal_assignment":["../images/gry_blk.png","../images/ylw_slt.png","../images/pnk_blu.png","../images/cyn_red.png","../images/blu_wht.png","../images/org_blu.png"],"mutagen_generator_assignment":[1,0],"goal":3,"start":4,"action_noise":0.15,"location_history":"[4,2,3]","action_history":"[1,1]","mutagen_history":"[0,0]","location_rts":"[1366,702]","trial_type":"fractal-mutation","trial_index":92,"time_elapsed":1835315,"internal_node_id":"0.0-5.0-38.0"},{"group":"hexagon_tri","fractal_assignment":["../images/gry_blk.png","../images/ylw_slt.png","../images/pnk_blu.png","../images/cyn_red.png","../images/blu_wht.png","../images/org_blu.png"],"mutagen_generator_assignment":[1,0],"goal":5,"start":3,"action_noise":0.15,"location_history":"[3,2,1,5]","action_history":"[0,0,0]","mutagen_history":"[1,1,1]","location_rts":"[1000,484,602]","trial_type":"fractal-mutation","trial_index":93,"time_elapsed":1844003,"internal_node_id":"0.0-5.0-39.0"},{"group":"hexagon_tri","fractal_assignment":["../images/gry_blk.png","../images/ylw_slt.png","../images/pnk_blu.png","../images/cyn_red.png","../images/blu_wht.png","../images/org_blu.png"],"mutagen_generator_assignment":[1,0],"goal":1,"start":5,"action_noise":0.15,"location_history":"[5,0,5,4,2,3,2,1]","action_history":"[1,1,0,0,0,0,0]","mutagen_history":"[0,0,1,1,1,1,1]","location_rts":"[958,1011,522,562,763,589,802]","trial_type":"fractal-mutation","trial_index":94,"time_elapsed":1859940,"internal_node_id":"0.0-5.0-40.0"},{"group":"hexagon_tri","fractal_assignment":["../images/gry_blk.png","../images/ylw_slt.png","../images/pnk_blu.png","../images/cyn_red.png","../images/blu_wht.png","../images/org_blu.png"],"mutagen_generator_assignment":[1,0],"goal":2,"start":1,"action_noise":0.15,"location_history":"[1,5,4,0,5,4,0,5,4,0,1,3,2]","action_history":"[1,1,0,0,0,0,0,0,1,1,0,0]","mutagen_history":"[0,0,1,1,1,1,1,1,0,0,1,1]","location_rts":"[1431,795,844,733,469,613,750,697,615,961,9185,510]","trial_type":"fractal-mutation","trial_index":95,"time_elapsed":1893413,"internal_node_id":"0.0-5.0-41.0"},{"group":"hexagon_tri","fractal_assignment":["../images/gry_blk.png","../images/ylw_slt.png","../images/pnk_blu.png","../images/cyn_red.png","../images/blu_wht.png","../images/org_blu.png"],"mutagen_generator_assignment":[1,0],"goal":4,"start":2,"action_noise":0.15,"location_history":"[2,3,4]","action_history":"[1,1]","mutagen_history":"[0,0]","location_rts":"[1016,510]","trial_type":"fractal-mutation","trial_index":96,"time_elapsed":1900499,"internal_node_id":"0.0-5.0-42.0"},{"group":"hexagon_tri","fractal_assignment":["../images/gry_blk.png","../images/ylw_slt.png","../images/pnk_blu.png","../images/cyn_red.png","../images/blu_wht.png","../images/org_blu.png"],"mutagen_generator_assignment":[1,0],"goal":0,"start":4,"action_noise":0.15,"location_history":"[4,0]","action_history":"[0]","mutagen_history":"[1]","location_rts":"[935]","trial_type":"fractal-mutation","trial_index":97,"time_elapsed":1905972,"internal_node_id":"0.0-5.0-43.0"},{"group":"hexagon_tri","fractal_assignment":["../images/gry_blk.png","../images/ylw_slt.png","../images/pnk_blu.png","../images/cyn_red.png","../images/blu_wht.png","../images/org_blu.png"],"mutagen_generator_assignment":[1,0],"goal":3,"start":0,"action_noise":0.15,"location_history":"[0,5,0,5,4,0,1,5,4,2,3]","action_history":"[1,1,0,0,0,1,1,0,1,1]","mutagen_history":"[0,0,1,1,1,0,0,1,0,0]","location_rts":"[1031,479,636,477,485,469,523,734,488,1004]","trial_type":"fractal-mutation","trial_index":98,"time_elapsed":1926097,"internal_node_id":"0.0-5.0-44.0"},{"group":"hexagon_tri","fractal_assignment":["../images/gry_blk.png","../images/ylw_slt.png","../images/pnk_blu.png","../images/cyn_red.png","../images/blu_wht.png","../images/org_blu.png"],"mutagen_generator_assignment":[1,0],"goal":0,"start":3,"action_noise":0.15,"location_history":"[3,2,1,3,4,2,1,5,4,2,1,3,4,2,3,2,1,5,4,0]","action_history":"[1,0,0,1,1,0,0,0,1,1,0,0,0,1,0,0,1,0,0]","mutagen_history":"[0,1,1,0,0,1,1,1,0,0,1,1,1,0,1,1,0,1,1]","location_rts":"[2013,839,790,810,2251,1402,1078,1731,670,1118,697,439,472,440,504,472,648,377,424]","trial_type":"fractal-mutation","trial_index":99,"time_elapsed":1966375,"internal_node_id":"0.0-5.0-45.0"},{"group":"hexagon_tri","fractal_assignment":["../images/gry_blk.png","../images/ylw_slt.png","../images/pnk_blu.png","../images/cyn_red.png","../images/blu_wht.png","../images/org_blu.png"],"mutagen_generator_assignment":[1,0],"goal":4,"start":0,"action_noise":0.15,"location_history":"[0,5,4]","action_history":"[0,0]","mutagen_history":"[1,1]","location_rts":"[1236,326]","trial_type":"fractal-mutation","trial_index":100,"time_elapsed":1973505,"internal_node_id":"0.0-5.0-46.0"},{"group":"hexagon_tri","fractal_assignment":["../images/gry_blk.png","../images/ylw_slt.png","../images/pnk_blu.png","../images/cyn_red.png","../images/blu_wht.png","../images/org_blu.png"],"mutagen_generator_assignment":[1,0],"goal":5,"start":4,"action_noise":0.15,"location_history":"[4,2,3,2,1,3,4,0,5]","action_history":"[1,1,0,0,0,1,1,0]","mutagen_history":"[0,0,1,1,1,0,0,1]","location_rts":"[1258,478,1230,931,720,646,587,426]","trial_type":"fractal-mutation","trial_index":101,"time_elapsed":1991524,"internal_node_id":"0.0-5.0-47.0"},{"group":"hexagon_tri","fractal_assignment":["../images/gry_blk.png","../images/ylw_slt.png","../images/pnk_blu.png","../images/cyn_red.png","../images/blu_wht.png","../images/org_blu.png"],"mutagen_generator_assignment":[1,0],"goal":2,"start":5,"action_noise":0.15,"location_history":"[5,4,0,5,0,5,4,0,1,5,0,5,4,2]","action_history":"[0,0,0,1,0,0,0,1,1,1,0,0,1]","mutagen_history":"[1,1,1,0,1,1,1,0,0,0,1,1,0]","location_rts":"[1305,517,682,464,620,585,410,679,553,783,620,556,722]","trial_type":"fractal-mutation","trial_index":102,"time_elapsed":2016907,"internal_node_id":"0.0-5.0-48.0"},{"group":"hexagon_tri","fractal_assignment":["../images/gry_blk.png","../images/ylw_slt.png","../images/pnk_blu.png","../images/cyn_red.png","../images/blu_wht.png","../images/org_blu.png"],"mutagen_generator_assignment":[1,0],"goal":1,"start":2,"action_noise":0.15,"location_history":"[2,3,2,1]","action_history":"[1,1,0]","mutagen_history":"[0,0,1]","location_rts":"[1327,446,448]","trial_type":"fractal-mutation","trial_index":103,"time_elapsed":2025719,"internal_node_id":"0.0-5.0-49.0"},{"view_history":"[{\"page_index\":0,\"viewing_time\":4653}]","rt":4653,"trial_type":"instructions","trial_index":104,"time_elapsed":2031372,"internal_node_id":"0.0-6.0"},{"rt":46319,"responses":"{\"Q0\":\"how people can build associations through repetition\"}","trial_type":"survey-text","trial_index":105,"time_elapsed":2078694,"internal_node_id":"0.0-7.0-0.0"},{"rt":25292,"responses":"{\"Q0\":\"how people can recognize patterns in shapes and build associations\"}","trial_type":"survey-text","trial_index":106,"time_elapsed":2104989,"internal_node_id":"0.0-7.0-1.0"},{"rt":26264,"responses":"{\"Q0\":\"<img src='../images/diagrams/hexagon_bi.png'>\"}","trial_type":"survey-multi-choice","trial_index":107,"time_elapsed":2132262,"internal_node_id":"0.0-7.0-2.0"},{"rt":37055,"assignments":["../images/gry_blk.png","../images/org_blu.png","../images/pnk_blu.png","../images/ylw_slt.png","../images/cyn_red.png","../images/blu_wht.png"],"trial_type":"drag-drop-on-image","trial_index":108,"time_elapsed":2170317,"internal_node_id":"0.0-7.0-3.0"},{"rt":5686,"responses":"{\"Q0\":\"2\"}","trial_type":"survey-likert","trial_index":109,"time_elapsed":2177005,"internal_node_id":"0.0-7.0-4.0"},{"rt":34767,"responses":"{\"Q0\":\"certain patterns or colors consistently lead to certain others\"}","trial_type":"survey-text","trial_index":110,"time_elapsed":2212773,"internal_node_id":"0.0-7.0-5.0"},{"rt":10766,"responses":"{\"Q0\":\"Yes\"}","trial_type":"survey-multi-choice","trial_index":111,"time_elapsed":2224541,"internal_node_id":"0.0-7.0-6.0"},{"rt":11833,"responses":"{\"Q0\":\"During session 1\"}","trial_type":"survey-multi-choice","trial_index":112,"time_elapsed":2237380,"internal_node_id":"0.0-7.0-7.0"},{"rt":50558,"responses":"{\"Q0\":\"There were set patterns in both and I was able to recognize that even if I wasn't great at memorizing the patterns.\"}","trial_type":"survey-text","trial_index":113,"time_elapsed":2288940,"internal_node_id":"0.0-7.0-8.0"},{"rt":7904,"responses":"{\"Q0\":\"1\"}","trial_type":"survey-likert","trial_index":114,"time_elapsed":2297847,"internal_node_id":"0.0-7.0-9.0"},{"rt":12851,"responses":"{\"Q0\":\"Different structure\"}","trial_type":"survey-multi-choice","trial_index":115,"time_elapsed":2311701,"internal_node_id":"0.0-7.0-10.0"},{"rt":22311,"responses":"{\"Q0\":\"left (white) door = ray, right (black) door = acid\",\"Q1\":\"Not at all confident\"}","trial_type":"survey-multi-choice","trial_index":116,"time_elapsed":2335022,"internal_node_id":"0.0-7.0-11.0"},{"rt":8391,"responses":"{\"Q0\":\"35-45\",\"Q1\":\"Some college\",\"Q2\":\"Male\",\"Q3\":\"White\"}","trial_type":"survey-multi-choice","trial_index":117,"time_elapsed":2344422,"internal_node_id":"0.0-8.0"},{"rt":12924,"responses":"{\"Q0\":\"this was a lot of fun and very interesting\"}","trial_type":"survey-text","trial_index":118,"time_elapsed":2358348,"internal_node_id":"0.0-9.0"}]