[{"view_history":"[{\"page_index\":0,\"viewing_time\":39265},{\"page_index\":1,\"viewing_time\":31747}]","rt":71012,"trial_type":"instructions","trial_index":0,"time_elapsed":71013,"internal_node_id":"0.0-0.0"},{"view_history":"[{\"page_index\":0,\"viewing_time\":4721},{\"page_index\":1,\"viewing_time\":15457}]","rt":20179,"trial_type":"instructions","trial_index":1,"time_elapsed":92195,"internal_node_id":"0.0-1.0"},{"group":"hexagon_tri","room_assignment":["yellow","green","red","purple","blue","grey"],"door_color_assignment":["white","black"],"door_generator_assignment":[0,1],"goal":2,"start":1,"action_noise":0.15,"location_history":"[1,3,2]","action_history":"[0,0]","door_history":"[0,0]","location_rts":"[5196,1152]","trial_type":"two-door-navigation","trial_index":2,"time_elapsed":104164,"internal_node_id":"0.0-2.0-0.0"},{"group":"hexagon_tri","room_assignment":["yellow","green","red","purple","blue","grey"],"door_color_assignment":["white","black"],"door_generator_assignment":[0,1],"goal":0,"start":2,"action_noise":0.15,"location_history":"[2,1,3,2,1,5,4,0]","action_history":"[0,0,0,0,0,0,0]","door_history":"[0,0,0,0,0,0,0]","location_rts":"[3266,861,820,665,612,1251,1043]","trial_type":"two-door-navigation","trial_index":3,"time_elapsed":123425,"internal_node_id":"0.0-2.0-1.0"},{"group":"hexagon_tri","room_assignment":["yellow","green","red","purple","blue","grey"],"door_color_assignment":["white","black"],"door_generator_assignment":[0,1],"goal":5,"start":0,"action_noise":0.15,"location_history":"[0,5]","action_history":"[0]","door_history":"[0]","location_rts":"[7004]","trial_type":"two-door-navigation","trial_index":4,"time_elapsed":134952,"internal_node_id":"0.0-2.0-2.0"},{"group":"hexagon_tri","room_assignment":["yellow","green","red","purple","blue","grey"],"door_color_assignment":["white","black"],"door_generator_assignment":[0,1],"goal":1,"start":5,"action_noise":0.15,"location_history":"[5,4,0,5,4,0,5,0,1]","action_history":"[0,0,0,0,0,0,1,1]","door_history":"[0,0,0,0,0,0,1,1]","location_rts":"[1886,876,802,608,724,640,1349,720]","trial_type":"two-door-navigation","trial_index":5,"time_elapsed":154342,"internal_node_id":"0.0-2.0-3.0"},{"group":"hexagon_tri","room_assignment":["yellow","green","red","purple","blue","grey"],"door_color_assignment":["white","black"],"door_generator_assignment":[0,1],"goal":3,"start":1,"action_noise":0.15,"location_history":"[1,3]","action_history":"[0]","door_history":"[0]","location_rts":"[28414]","trial_type":"two-door-navigation","trial_index":6,"time_elapsed":187347,"internal_node_id":"0.0-2.0-4.0"},{"group":"hexagon_tri","room_assignment":["yellow","green","red","purple","blue","grey"],"door_color_assignment":["white","black"],"door_generator_assignment":[0,1],"goal":5,"start":3,"action_noise":0.15,"location_history":"[3,2,1,3,2,1,3,2,1,5]","action_history":"[0,0,0,0,0,0,0,1,1]","door_history":"[0,0,0,0,0,0,0,1,1]","location_rts":"[2200,855,819,552,720,500,547,598,524]","trial_type":"two-door-navigation","trial_index":7,"time_elapsed":207495,"internal_node_id":"0.0-2.0-5.0"},{"group":"hexagon_tri","room_assignment":["yellow","green","red","purple","blue","grey"],"door_color_assignment":["white","black"],"door_generator_assignment":[0,1],"goal":4,"start":5,"action_noise":0.15,"location_history":"[5,0,1,3,2,1,5,0,1,5,0,5,4]","action_history":"[0,0,0,0,0,1,1,1,1,1,0,0]","door_history":"[0,0,0,0,0,1,1,1,1,1,0,0]","location_rts":"[2057,864,987,795,724,1061,603,727,663,691,589,488]","trial_type":"two-door-navigation","trial_index":8,"time_elapsed":233744,"internal_node_id":"0.0-2.0-6.0"},{"group":"hexagon_tri","room_assignment":["yellow","green","red","purple","blue","grey"],"door_color_assignment":["white","black"],"door_generator_assignment":[0,1],"goal":0,"start":4,"action_noise":0.15,"location_history":"[4,2,1,3,2,1,3,4,2,1,3,4,0]","action_history":"[0,0,0,0,0,0,1,1,1,0,0,0]","door_history":"[0,0,0,0,0,0,1,1,1,0,0,0]","location_rts":"[11329,834,489,510,601,749,1164,1202,757,600,573,684]","trial_type":"two-door-navigation","trial_index":9,"time_elapsed":269270,"internal_node_id":"0.0-2.0-7.0"},{"group":"hexagon_tri","room_assignment":["yellow","green","red","purple","blue","grey"],"door_color_assignment":["white","black"],"door_generator_assignment":[0,1],"goal":2,"start":0,"action_noise":0.15,"location_history":"[0,5,4,0,5,0,1,5,4,0,5,4,0,1,3,2]","action_history":"[0,0,0,0,1,1,1,0,0,0,0,1,1,0,0]","door_history":"[0,0,0,0,1,1,1,0,0,0,0,1,1,0,0]","location_rts":"[4070,536,565,464,472,680,783,964,441,436,495,546,426,808,579]","trial_type":"two-door-navigation","trial_index":10,"time_elapsed":300633,"internal_node_id":"0.0-2.0-8.0"},{"group":"hexagon_tri","room_assignment":["yellow","green","red","purple","blue","grey"],"door_color_assignment":["white","black"],"door_generator_assignment":[0,1],"goal":4,"start":2,"action_noise":0.15,"location_history":"[2,1,3,2,1,3,4]","action_history":"[0,0,0,0,0,1]","door_history":"[0,0,0,0,0,1]","location_rts":"[8050,374,525,405,1184,1186]","trial_type":"two-door-navigation","trial_index":11,"time_elapsed":322151,"internal_node_id":"0.0-2.0-9.0"},{"group":"hexagon_tri","room_assignment":["yellow","green","red","purple","blue","grey"],"door_color_assignment":["white","black"],"door_generator_assignment":[0,1],"goal":2,"start":4,"action_noise":0.15,"location_history":"[4,0,5,4,0,5,0,5,0,1,5,4,0,1,5,0,5,4,0,1,5,0,1,5,4,0,5,4,0,1,5,4,0,5,0,1,5,0,5,0,5,4,0,1,3,4,2]","action_history":"[0,0,0,0,0,1,1,1,0,0,0,1,1,1,1,0,0,0,0,0,0,1,1,0,0,0,0,0,1,1,0,0,0,0,0,1,1,1,1,1,0,0,0,0,0,0]","door_history":"[0,0,0,0,0,1,1,1,0,0,0,1,1,1,1,0,0,0,0,0,0,1,1,0,0,0,0,0,1,1,0,0,0,0,0,1,1,1,1,1,0,0,0,0,0,0]","location_rts":"[20102,565,484,543,595,1092,864,517,424,2012,696,1653,480,416,418,333,507,468,362,390,401,541,487,786,407,440,522,463,523,545,931,698,669,1074,1489,823,499,386,659,515,833,646,632,2851,1281,1576]","trial_type":"two-door-navigation","trial_index":12,"time_elapsed":427018,"internal_node_id":"0.0-2.0-10.0"},{"group":"hexagon_tri","room_assignment":["yellow","green","red","purple","blue","grey"],"door_color_assignment":["white","black"],"door_generator_assignment":[0,1],"goal":3,"start":2,"action_noise":0.15,"location_history":"[2,1,3]","action_history":"[0,0]","door_history":"[0,0]","location_rts":"[8976,904]","trial_type":"two-door-navigation","trial_index":13,"time_elapsed":442473,"internal_node_id":"0.0-2.0-11.0"},{"group":"hexagon_tri","room_assignment":["yellow","green","red","purple","blue","grey"],"door_color_assignment":["white","black"],"door_generator_assignment":[0,1],"goal":0,"start":3,"action_noise":0.15,"location_history":"[3,2,1,3,2,1,3,4,2,3,4,0]","action_history":"[0,0,0,0,0,0,1,1,1,0,0]","door_history":"[0,0,0,0,0,0,1,1,1,0,0]","location_rts":"[1387,974,484,513,440,638,730,472,673,1238,536]","trial_type":"two-door-navigation","trial_index":14,"time_elapsed":465375,"internal_node_id":"0.0-2.0-12.0"},{"group":"hexagon_tri","room_assignment":["yellow","green","red","purple","blue","grey"],"door_color_assignment":["white","black"],"door_generator_assignment":[0,1],"goal":5,"start":0,"action_noise":0.15,"location_history":"[0,5]","action_history":"[0]","door_history":"[0]","location_rts":"[2702]","trial_type":"two-door-navigation","trial_index":15,"time_elapsed":472599,"internal_node_id":"0.0-2.0-13.0"},{"group":"hexagon_tri","room_assignment":["yellow","green","red","purple","blue","grey"],"door_color_assignment":["white","black"],"door_generator_assignment":[0,1],"goal":1,"start":5,"action_noise":0.15,"location_history":"[5,4,0,5,4,0,5,4,0,1]","action_history":"[0,0,0,0,0,0,0,1,1]","door_history":"[0,0,0,0,0,0,0,1,1]","location_rts":"[1511,500,424,429,452,461,606,769,618]","trial_type":"two-door-navigation","trial_index":16,"time_elapsed":491252,"internal_node_id":"0.0-2.0-14.0"},{"group":"hexagon_tri","room_assignment":["yellow","green","red","purple","blue","grey"],"door_color_assignment":["white","black"],"door_generator_assignment":[0,1],"goal":5,"start":1,"action_noise":0.15,"location_history":"[1,3,2,1,3,2,3,2,3,4,2,3,2,1,3,2,3,4,0,1,5]","action_history":"[0,0,0,0,0,0,0,1,1,1,1,0,0,0,0,1,1,1,1,1]","door_history":"[0,0,0,0,0,0,0,1,1,1,1,0,0,0,0,1,1,1,1,1]","location_rts":"[2140,775,690,552,372,664,472,490,420,537,465,394,413,436,404,2590,468,522,335,369]","trial_type":"two-door-navigation","trial_index":17,"time_elapsed":529038,"internal_node_id":"0.0-2.0-15.0"},{"group":"hexagon_tri","room_assignment":["yellow","green","red","purple","blue","grey"],"door_color_assignment":["white","black"],"door_generator_assignment":[0,1],"goal":3,"start":5,"action_noise":0.15,"location_history":"[5,4,0,5,0,1,5,0,5,4,2,1,3]","action_history":"[0,0,0,1,1,1,1,0,0,0,0,0]","door_history":"[0,0,0,1,1,1,1,0,0,0,0,0]","location_rts":"[1680,917,615,1501,490,474,491,496,579,458,444,444]","trial_type":"two-door-navigation","trial_index":18,"time_elapsed":553621,"internal_node_id":"0.0-2.0-16.0"},{"group":"hexagon_tri","room_assignment":["yellow","green","red","purple","blue","grey"],"door_color_assignment":["white","black"],"door_generator_assignment":[0,1],"goal":2,"start":3,"action_noise":0.15,"location_history":"[3,2]","action_history":"[0]","door_history":"[0]","location_rts":"[2048]","trial_type":"two-door-navigation","trial_index":19,"time_elapsed":560200,"internal_node_id":"0.0-2.0-17.0"},{"group":"hexagon_tri","room_assignment":["yellow","green","red","purple","blue","grey"],"door_color_assignment":["white","black"],"door_generator_assignment":[0,1],"goal":1,"start":2,"action_noise":0.15,"location_history":"[2,1]","action_history":"[0]","door_history":"[0]","location_rts":"[697]","trial_type":"two-door-navigation","trial_index":20,"time_elapsed":565425,"internal_node_id":"0.0-2.0-18.0"},{"group":"hexagon_tri","room_assignment":["yellow","green","red","purple","blue","grey"],"door_color_assignment":["white","black"],"door_generator_assignment":[0,1],"goal":4,"start":1,"action_noise":0.15,"location_history":"[1,3,4]","action_history":"[0,0]","door_history":"[0,0]","location_rts":"[1166,1085]","trial_type":"two-door-navigation","trial_index":21,"time_elapsed":573239,"internal_node_id":"0.0-2.0-19.0"},{"group":"hexagon_tri","room_assignment":["yellow","green","red","purple","blue","grey"],"door_color_assignment":["white","black"],"door_generator_assignment":[0,1],"goal":0,"start":4,"action_noise":0.15,"location_history":"[4,0]","action_history":"[0]","door_history":"[0]","location_rts":"[1168]","trial_type":"two-door-navigation","trial_index":22,"time_elapsed":578935,"internal_node_id":"0.0-2.0-20.0"},{"group":"hexagon_tri","room_assignment":["yellow","green","red","purple","blue","grey"],"door_color_assignment":["white","black"],"door_generator_assignment":[0,1],"goal":3,"start":0,"action_noise":0.15,"location_history":"[0,5,4,0,1,5,0,1,5,4,0,5,4,0,5,0,1,5,0,1,5,0,5,4,0,5,0,5,4,2,3]","action_history":"[0,0,0,1,1,1,1,1,1,0,0,0,0,0,1,1,1,1,1,1,1,0,0,0,0,0,0,0,1,1]","door_history":"[0,0,0,1,1,1,1,1,1,0,0,0,0,0,1,1,1,1,1,1,1,0,0,0,0,0,0,0,1,1]","location_rts":"[910,758,645,1094,462,521,660,610,930,495,662,403,1402,543,789,1008,474,414,414,386,456,475,539,479,931,453,592,548,1265,562]","trial_type":"two-door-navigation","trial_index":23,"time_elapsed":633244,"internal_node_id":"0.0-2.0-21.0"},{"group":"hexagon_tri","room_assignment":["yellow","green","red","purple","blue","grey"],"door_color_assignment":["white","black"],"door_generator_assignment":[0,1],"goal":1,"start":3,"action_noise":0.15,"location_history":"[3,2,1]","action_history":"[0,0]","door_history":"[0,0]","location_rts":"[15910,534]","trial_type":"two-door-navigation","trial_index":24,"time_elapsed":655250,"internal_node_id":"0.0-2.0-22.0"},{"group":"hexagon_tri","room_assignment":["yellow","green","red","purple","blue","grey"],"door_color_assignment":["white","black"],"door_generator_assignment":[0,1],"goal":0,"start":1,"action_noise":0.15,"location_history":"[1,3,2,1,5,4,0]","action_history":"[0,0,0,0,0,0]","door_history":"[0,0,0,0,0,0]","location_rts":"[680,450,495,662,830,694]","trial_type":"two-door-navigation","trial_index":25,"time_elapsed":668805,"internal_node_id":"0.0-2.0-23.0"},{"group":"hexagon_tri","room_assignment":["yellow","green","red","purple","blue","grey"],"door_color_assignment":["white","black"],"door_generator_assignment":[0,1],"goal":2,"start":0,"action_noise":0.15,"location_history":"[0,5,4,0,5,4,0,1,3,4,2]","action_history":"[0,0,0,0,0,1,1,1,1,1]","door_history":"[0,0,0,0,0,1,1,1,1,1]","location_rts":"[2520,440,657,414,449,420,468,401,431,697]","trial_type":"two-door-navigation","trial_index":26,"time_elapsed":689597,"internal_node_id":"0.0-2.0-24.0"},{"group":"hexagon_tri","room_assignment":["yellow","green","red","purple","blue","grey"],"door_color_assignment":["white","black"],"door_generator_assignment":[0,1],"goal":4,"start":2,"action_noise":0.15,"location_history":"[2,1,5,4]","action_history":"[0,0,0]","door_history":"[0,0,0]","location_rts":"[884,549,364]","trial_type":"two-door-navigation","trial_index":27,"time_elapsed":698024,"internal_node_id":"0.0-2.0-25.0"},{"group":"hexagon_tri","room_assignment":["yellow","green","red","purple","blue","grey"],"door_color_assignment":["white","black"],"door_generator_assignment":[0,1],"goal":5,"start":4,"action_noise":0.15,"location_history":"[4,0,5]","action_history":"[0,0]","door_history":"[0,0]","location_rts":"[891,452]","trial_type":"two-door-navigation","trial_index":28,"time_elapsed":704968,"internal_node_id":"0.0-2.0-26.0"},{"group":"hexagon_tri","room_assignment":["yellow","green","red","purple","blue","grey"],"door_color_assignment":["white","black"],"door_generator_assignment":[0,1],"goal":2,"start":5,"action_noise":0.15,"location_history":"[5,4,0,5,4,0,5,4,2]","action_history":"[0,0,0,0,0,0,1,1]","door_history":"[0,0,0,0,0,0,1,1]","location_rts":"[729,594,494,483,561,568,1311,835]","trial_type":"two-door-navigation","trial_index":29,"time_elapsed":722353,"internal_node_id":"0.0-2.0-27.0"},{"group":"hexagon_tri","room_assignment":["yellow","green","red","purple","blue","grey"],"door_color_assignment":["white","black"],"door_generator_assignment":[0,1],"goal":3,"start":2,"action_noise":0.15,"location_history":"[2,1,3]","action_history":"[0,0]","door_history":"[0,0]","location_rts":"[1716,840]","trial_type":"two-door-navigation","trial_index":30,"time_elapsed":730450,"internal_node_id":"0.0-2.0-28.0"},{"group":"hexagon_tri","room_assignment":["yellow","green","red","purple","blue","grey"],"door_color_assignment":["white","black"],"door_generator_assignment":[0,1],"goal":1,"start":3,"action_noise":0.15,"location_history":"[3,2,1]","action_history":"[0,0]","door_history":"[0,0]","location_rts":"[683,558]","trial_type":"two-door-navigation","trial_index":31,"time_elapsed":737245,"internal_node_id":"0.0-2.0-29.0"},{"group":"hexagon_tri","room_assignment":["yellow","green","red","purple","blue","grey"],"door_color_assignment":["white","black"],"door_generator_assignment":[0,1],"goal":4,"start":1,"action_noise":0.15,"location_history":"[1,3,2,1,5,4]","action_history":"[0,0,0,0,0]","door_history":"[0,0,0,0,0]","location_rts":"[1059,531,440,458,927]","trial_type":"two-door-navigation","trial_index":32,"time_elapsed":749404,"internal_node_id":"0.0-2.0-30.0"},{"group":"hexagon_tri","room_assignment":["yellow","green","red","purple","blue","grey"],"door_color_assignment":["white","black"],"door_generator_assignment":[0,1],"goal":5,"start":4,"action_noise":0.15,"location_history":"[4,2,3,2,1,3,2,3,2,1,3,4,2,3,4,0,5]","action_history":"[0,0,0,0,0,0,0,0,0,0,0,1,1,1,0,0]","door_history":"[0,0,0,0,0,0,0,0,0,0,0,1,1,1,0,0]","location_rts":"[746,371,1211,496,505,477,606,593,907,734,457,505,419,690,696,481]","trial_type":"two-door-navigation","trial_index":33,"time_elapsed":779200,"internal_node_id":"0.0-2.0-31.0"},{"group":"hexagon_tri","room_assignment":["yellow","green","red","purple","blue","grey"],"door_color_assignment":["white","black"],"door_generator_assignment":[0,1],"goal":0,"start":5,"action_noise":0.15,"location_history":"[5,4,2,1,5,4,0]","action_history":"[0,0,0,0,0,0]","door_history":"[0,0,0,0,0,0]","location_rts":"[1081,525,825,421,488,505]","trial_type":"two-door-navigation","trial_index":34,"time_elapsed":792803,"internal_node_id":"0.0-2.0-32.0"},{"group":"hexagon_tri","room_assignment":["yellow","green","red","purple","blue","grey"],"door_color_assignment":["white","black"],"door_generator_assignment":[0,1],"goal":2,"start":0,"action_noise":0.15,"location_history":"[0,5,4,2]","action_history":"[0,0,0]","door_history":"[0,0,0]","location_rts":"[1381,477,524]","trial_type":"two-door-navigation","trial_index":35,"time_elapsed":801843,"internal_node_id":"0.0-2.0-33.0"},{"group":"hexagon_tri","room_assignment":["yellow","green","red","purple","blue","grey"],"door_color_assignment":["white","black"],"door_generator_assignment":[0,1],"goal":0,"start":2,"action_noise":0.15,"location_history":"[2,1,3,2,1,3,2,1,3,2,3,4,2,3,4,0]","action_history":"[0,0,0,0,0,0,0,0,0,0,1,1,1,1,0]","door_history":"[0,0,0,0,0,0,0,0,0,0,1,1,1,1,0]","location_rts":"[817,357,462,525,426,458,430,843,518,467,1023,444,624,450,680]","trial_type":"two-door-navigation","trial_index":36,"time_elapsed":829410,"internal_node_id":"0.0-2.0-34.0"},{"group":"hexagon_tri","room_assignment":["yellow","green","red","purple","blue","grey"],"door_color_assignment":["white","black"],"door_generator_assignment":[0,1],"goal":5,"start":0,"action_noise":0.15,"location_history":"[0,5]","action_history":"[0]","door_history":"[0]","location_rts":"[1020]","trial_type":"two-door-navigation","trial_index":37,"time_elapsed":835039,"internal_node_id":"0.0-2.0-35.0"},{"group":"hexagon_tri","room_assignment":["yellow","green","red","purple","blue","grey"],"door_color_assignment":["white","black"],"door_generator_assignment":[0,1],"goal":1,"start":5,"action_noise":0.15,"location_history":"[5,4,0,5,4,2,1]","action_history":"[0,0,0,0,1,1]","door_history":"[0,0,0,0,1,1]","location_rts":"[1066,494,868,583,806,644]","trial_type":"two-door-navigation","trial_index":38,"time_elapsed":849224,"internal_node_id":"0.0-2.0-36.0"},{"group":"hexagon_tri","room_assignment":["yellow","green","red","purple","blue","grey"],"door_color_assignment":["white","black"],"door_generator_assignment":[0,1],"goal":4,"start":1,"action_noise":0.15,"location_history":"[1,3,2,3,2,3,4]","action_history":"[0,0,0,0,1,1]","door_history":"[0,0,0,0,1,1]","location_rts":"[1024,757,994,966,762,835]","trial_type":"two-door-navigation","trial_index":39,"time_elapsed":864329,"internal_node_id":"0.0-2.0-37.0"},{"group":"hexagon_tri","room_assignment":["yellow","green","red","purple","blue","grey"],"door_color_assignment":["white","black"],"door_generator_assignment":[0,1],"goal":3,"start":4,"action_noise":0.15,"location_history":"[4,0,1,3]","action_history":"[0,0,0]","door_history":"[0,0,0]","location_rts":"[1300,644,556]","trial_type":"two-door-navigation","trial_index":40,"time_elapsed":873485,"internal_node_id":"0.0-2.0-38.0"},{"group":"hexagon_tri","room_assignment":["yellow","green","red","purple","blue","grey"],"door_color_assignment":["white","black"],"door_generator_assignment":[0,1],"goal":5,"start":3,"action_noise":0.15,"location_history":"[3,2,1,3,2,1,3,2,3,4,2,3,2,3,4,0,1,5]","action_history":"[0,0,0,0,0,0,0,1,1,1,1,0,0,0,0,1,1]","door_history":"[0,0,0,0,0,0,0,1,1,1,1,0,0,0,0,1,1]","location_rts":"[673,691,461,491,441,1022,435,732,617,561,513,1065,511,1166,699,1668,595]","trial_type":"two-door-navigation","trial_index":41,"time_elapsed":906907,"internal_node_id":"0.0-2.0-39.0"},{"group":"hexagon_tri","room_assignment":["yellow","green","red","purple","blue","grey"],"door_color_assignment":["white","black"],"door_generator_assignment":[0,1],"goal":1,"start":5,"action_noise":0.15,"location_history":"[5,4,0,5,4,0,1]","action_history":"[0,0,0,0,1,1]","door_history":"[0,0,0,0,1,1]","location_rts":"[1244,597,455,592,472,502]","trial_type":"two-door-navigation","trial_index":42,"time_elapsed":920497,"internal_node_id":"0.0-2.0-40.0"},{"group":"hexagon_tri","room_assignment":["yellow","green","red","purple","blue","grey"],"door_color_assignment":["white","black"],"door_generator_assignment":[0,1],"goal":2,"start":1,"action_noise":0.15,"location_history":"[1,3,4,0,5,4,0,1,3,2]","action_history":"[0,0,0,0,0,1,1,0,0]","door_history":"[0,0,0,0,0,1,1,0,0]","location_rts":"[718,577,518,492,453,518,458,1012,680]","trial_type":"two-door-navigation","trial_index":43,"time_elapsed":938719,"internal_node_id":"0.0-2.0-41.0"},{"group":"hexagon_tri","room_assignment":["yellow","green","red","purple","blue","grey"],"door_color_assignment":["white","black"],"door_generator_assignment":[0,1],"goal":4,"start":2,"action_noise":0.15,"location_history":"[2,1,3,2,1,5,0,1,5,4]","action_history":"[0,0,0,0,1,1,1,1,0]","door_history":"[0,0,0,0,1,1,1,1,0]","location_rts":"[1440,670,753,665,807,464,496,485,1161]","trial_type":"two-door-navigation","trial_index":44,"time_elapsed":958663,"internal_node_id":"0.0-2.0-42.0"},{"group":"hexagon_tri","room_assignment":["yellow","green","red","purple","blue","grey"],"door_color_assignment":["white","black"],"door_generator_assignment":[0,1],"goal":0,"start":4,"action_noise":0.15,"location_history":"[4,0]","action_history":"[0]","door_history":"[0]","location_rts":"[674]","trial_type":"two-door-navigation","trial_index":45,"time_elapsed":963889,"internal_node_id":"0.0-2.0-43.0"},{"group":"hexagon_tri","room_assignment":["yellow","green","red","purple","blue","grey"],"door_color_assignment":["white","black"],"door_generator_assignment":[0,1],"goal":3,"start":0,"action_noise":0.15,"location_history":"[0,5,4,2,3]","action_history":"[0,0,1,1]","door_history":"[0,0,1,1]","location_rts":"[849,528,1206,579]","trial_type":"two-door-navigation","trial_index":46,"time_elapsed":974637,"internal_node_id":"0.0-2.0-44.0"},{"group":"hexagon_tri","room_assignment":["yellow","green","red","purple","blue","grey"],"door_color_assignment":["white","black"],"door_generator_assignment":[0,1],"goal":0,"start":3,"action_noise":0.15,"location_history":"[3,2,1,3,4,2,3,4,0]","action_history":"[0,0,0,1,1,1,1,0]","door_history":"[0,0,0,1,1,1,1,0]","location_rts":"[711,451,505,1006,702,593,532,745]","trial_type":"two-door-navigation","trial_index":47,"time_elapsed":991654,"internal_node_id":"0.0-2.0-45.0"},{"group":"hexagon_tri","room_assignment":["yellow","green","red","purple","blue","grey"],"door_color_assignment":["white","black"],"door_generator_assignment":[0,1],"goal":4,"start":0,"action_noise":0.15,"location_history":"[0,5,4]","action_history":"[0,0]","door_history":"[0,0]","location_rts":"[773,685]","trial_type":"two-door-navigation","trial_index":48,"time_elapsed":998709,"internal_node_id":"0.0-2.0-46.0"},{"group":"hexagon_tri","room_assignment":["yellow","green","red","purple","blue","grey"],"door_color_assignment":["white","black"],"door_generator_assignment":[0,1],"goal":5,"start":4,"action_noise":0.15,"location_history":"[4,0,5]","action_history":"[0,0]","door_history":"[0,0]","location_rts":"[1138,762]","trial_type":"two-door-navigation","trial_index":49,"time_elapsed":1006172,"internal_node_id":"0.0-2.0-47.0"},{"group":"hexagon_tri","room_assignment":["yellow","green","red","purple","blue","grey"],"door_color_assignment":["white","black"],"door_generator_assignment":[0,1],"goal":2,"start":5,"action_noise":0.15,"location_history":"[5,4,0,5,0,1,5,0,5,4,0,5,0,1,5,0,1,3,2]","action_history":"[0,0,0,1,1,1,1,0,0,0,0,1,1,1,1,1,0,0]","door_history":"[0,0,0,1,1,1,1,0,0,0,0,1,1,1,1,1,0,0]","location_rts":"[683,859,870,1948,730,568,676,885,484,570,740,635,499,538,1033,575,434,610]","trial_type":"two-door-navigation","trial_index":50,"time_elapsed":1041654,"internal_node_id":"0.0-2.0-48.0"},{"group":"hexagon_tri","room_assignment":["yellow","green","red","purple","blue","grey"],"door_color_assignment":["white","black"],"door_generator_assignment":[0,1],"goal":1,"start":2,"action_noise":0.15,"location_history":"[2,1]","action_history":"[0]","door_history":"[0]","location_rts":"[11563]","trial_type":"two-door-navigation","trial_index":51,"time_elapsed":1057747,"internal_node_id":"0.0-2.0-49.0"},{"view_history":"[{\"page_index\":0,\"viewing_time\":4918}]","rt":4918,"trial_type":"instructions","trial_index":52,"time_elapsed":1063666,"internal_node_id":"0.0-3.0"},{"view_history":"[{\"page_index\":0,\"viewing_time\":2407},{\"page_index\":1,\"viewing_time\":7862}]","rt":10269,"trial_type":"instructions","trial_index":53,"time_elapsed":1074936,"internal_node_id":"0.0-4.0"},{"group":"hexagon_tri","fractal_assignment":["../images/cyn_red.png","../images/org_blu.png","../images/blu_wht.png","../images/pnk_blu.png","../images/gry_blk.png","../images/ylw_slt.png"],"mutagen_generator_assignment":[0,1],"goal":2,"start":1,"action_noise":0.15,"location_history":"[1,5,4,2]","action_history":"[1,0,1]","mutagen_history":"[1,0,1]","location_rts":"[3487,835,809]","trial_type":"fractal-mutation","trial_index":54,"time_elapsed":1087206,"internal_node_id":"0.0-5.0-0.0"},{"group":"hexagon_tri","fractal_assignment":["../images/cyn_red.png","../images/org_blu.png","../images/blu_wht.png","../images/pnk_blu.png","../images/gry_blk.png","../images/ylw_slt.png"],"mutagen_generator_assignment":[0,1],"goal":0,"start":2,"action_noise":0.15,"location_history":"[2,1,3,4,2,3,2,3,2,3,2,1,3,2,1,5,0]","action_history":"[1,0,1,1,1,0,0,0,1,0,0,0,0,0,1,1]","mutagen_history":"[1,0,1,1,1,0,0,0,1,0,0,0,0,0,1,1]","location_rts":"[2941,2774,677,627,541,711,624,931,677,893,1102,728,989,1293,550,1277]","trial_type":"fractal-mutation","trial_index":55,"time_elapsed":1126596,"internal_node_id":"0.0-5.0-1.0"},{"group":"hexagon_tri","fractal_assignment":["../images/cyn_red.png","../images/org_blu.png","../images/blu_wht.png","../images/pnk_blu.png","../images/gry_blk.png","../images/ylw_slt.png"],"mutagen_generator_assignment":[0,1],"goal":5,"start":0,"action_noise":0.15,"location_history":"[0,1,5]","action_history":"[0,1]","mutagen_history":"[0,1]","location_rts":"[1753,675]","trial_type":"fractal-mutation","trial_index":56,"time_elapsed":1134858,"internal_node_id":"0.0-5.0-2.0"},{"group":"hexagon_tri","fractal_assignment":["../images/cyn_red.png","../images/org_blu.png","../images/blu_wht.png","../images/pnk_blu.png","../images/gry_blk.png","../images/ylw_slt.png"],"mutagen_generator_assignment":[0,1],"goal":1,"start":5,"action_noise":0.15,"location_history":"[5,4,0,1]","action_history":"[1,1,0]","mutagen_history":"[1,1,0]","location_rts":"[6648,836,1986]","trial_type":"fractal-mutation","trial_index":57,"time_elapsed":1151389,"internal_node_id":"0.0-5.0-3.0"},{"group":"hexagon_tri","fractal_assignment":["../images/cyn_red.png","../images/org_blu.png","../images/blu_wht.png","../images/pnk_blu.png","../images/gry_blk.png","../images/ylw_slt.png"],"mutagen_generator_assignment":[0,1],"goal":3,"start":1,"action_noise":0.15,"location_history":"[1,5,0,5,0,5,0,5,0,1,3]","action_history":"[1,0,0,1,0,0,0,1,0,0]","mutagen_history":"[1,0,0,1,0,0,0,1,0,0]","location_rts":"[1937,486,991,879,593,416,799,913,613,590]","trial_type":"fractal-mutation","trial_index":58,"time_elapsed":1174777,"internal_node_id":"0.0-5.0-4.0"},{"group":"hexagon_tri","fractal_assignment":["../images/cyn_red.png","../images/org_blu.png","../images/blu_wht.png","../images/pnk_blu.png","../images/gry_blk.png","../images/ylw_slt.png"],"mutagen_generator_assignment":[0,1],"goal":5,"start":3,"action_noise":0.15,"location_history":"[3,4,2,1,3,2,1,3,4,0,5]","action_history":"[1,1,0,0,0,0,1,1,1,0]","mutagen_history":"[1,1,0,0,0,0,1,1,1,0]","location_rts":"[5278,825,1122,593,853,866,675,587,658,672]","trial_type":"fractal-mutation","trial_index":59,"time_elapsed":1201987,"internal_node_id":"0.0-5.0-5.0"},{"group":"hexagon_tri","fractal_assignment":["../images/cyn_red.png","../images/org_blu.png","../images/blu_wht.png","../images/pnk_blu.png","../images/gry_blk.png","../images/ylw_slt.png"],"mutagen_generator_assignment":[0,1],"goal":4,"start":5,"action_noise":0.15,"location_history":"[5,0,5,4]","action_history":"[1,0,0]","mutagen_history":"[1,0,0]","location_rts":"[2408,621,1403]","trial_type":"fractal-mutation","trial_index":60,"time_elapsed":1213401,"internal_node_id":"0.0-5.0-6.0"},{"group":"hexagon_tri","fractal_assignment":["../images/cyn_red.png","../images/org_blu.png","../images/blu_wht.png","../images/pnk_blu.png","../images/gry_blk.png","../images/ylw_slt.png"],"mutagen_generator_assignment":[0,1],"goal":0,"start":4,"action_noise":0.15,"location_history":"[4,2,1,3,4,2,1,3,4,0]","action_history":"[1,1,0,1,1,1,0,0,0]","mutagen_history":"[1,1,0,1,1,1,0,0,0]","location_rts":"[3769,1851,907,685,584,468,765,552,751]","trial_type":"fractal-mutation","trial_index":61,"time_elapsed":1237882,"internal_node_id":"0.0-5.0-7.0"},{"group":"hexagon_tri","fractal_assignment":["../images/cyn_red.png","../images/org_blu.png","../images/blu_wht.png","../images/pnk_blu.png","../images/gry_blk.png","../images/ylw_slt.png"],"mutagen_generator_assignment":[0,1],"goal":2,"start":0,"action_noise":0.15,"location_history":"[0,5,4,2]","action_history":"[0,1,1]","mutagen_history":"[0,1,1]","location_rts":"[4268,683,696]","trial_type":"fractal-mutation","trial_index":62,"time_elapsed":1250517,"internal_node_id":"0.0-5.0-8.0"},{"group":"hexagon_tri","fractal_assignment":["../images/cyn_red.png","../images/org_blu.png","../images/blu_wht.png","../images/pnk_blu.png","../images/gry_blk.png","../images/ylw_slt.png"],"mutagen_generator_assignment":[0,1],"goal":4,"start":2,"action_noise":0.15,"location_history":"[2,3,2,1,5,0,5,4]","action_history":"[1,0,0,1,1,0,0]","mutagen_history":"[1,0,0,1,1,0,0]","location_rts":"[1872,531,719,625,563,956,1143]","trial_type":"fractal-mutation","trial_index":63,"time_elapsed":1268505,"internal_node_id":"0.0-5.0-9.0"},{"group":"hexagon_tri","fractal_assignment":["../images/cyn_red.png","../images/org_blu.png","../images/blu_wht.png","../images/pnk_blu.png","../images/gry_blk.png","../images/ylw_slt.png"],"mutagen_generator_assignment":[0,1],"goal":2,"start":4,"action_noise":0.15,"location_history":"[4,2]","action_history":"[1]","mutagen_history":"[1]","location_rts":"[1369]","trial_type":"fractal-mutation","trial_index":64,"time_elapsed":1274565,"internal_node_id":"0.0-5.0-10.0"},{"group":"hexagon_tri","fractal_assignment":["../images/cyn_red.png","../images/org_blu.png","../images/blu_wht.png","../images/pnk_blu.png","../images/gry_blk.png","../images/ylw_slt.png"],"mutagen_generator_assignment":[0,1],"goal":3,"start":2,"action_noise":0.15,"location_history":"[2,3]","action_history":"[1]","mutagen_history":"[1]","location_rts":"[2139]","trial_type":"fractal-mutation","trial_index":65,"time_elapsed":1281429,"internal_node_id":"0.0-5.0-11.0"},{"group":"hexagon_tri","fractal_assignment":["../images/cyn_red.png","../images/org_blu.png","../images/blu_wht.png","../images/pnk_blu.png","../images/gry_blk.png","../images/ylw_slt.png"],"mutagen_generator_assignment":[0,1],"goal":0,"start":3,"action_noise":0.15,"location_history":"[3,2,1,5,4,2,3,2,1,3,2,1,3,4,2,3,4,2,1,5,0]","action_history":"[0,0,1,0,1,1,0,0,1,0,0,0,1,1,1,1,1,0,1,1]","mutagen_history":"[0,0,1,0,1,1,0,0,1,0,0,0,1,1,1,1,1,0,1,1]","location_rts":"[1975,1074,1773,854,677,734,554,745,955,693,553,873,651,621,480,941,683,606,1210,858]","trial_type":"fractal-mutation","trial_index":66,"time_elapsed":1325950,"internal_node_id":"0.0-5.0-12.0"},{"group":"hexagon_tri","fractal_assignment":["../images/cyn_red.png","../images/org_blu.png","../images/blu_wht.png","../images/pnk_blu.png","../images/gry_blk.png","../images/ylw_slt.png"],"mutagen_generator_assignment":[0,1],"goal":5,"start":0,"action_noise":0.15,"location_history":"[0,5]","action_history":"[0]","mutagen_history":"[0]","location_rts":"[5131]","trial_type":"fractal-mutation","trial_index":67,"time_elapsed":1335750,"internal_node_id":"0.0-5.0-13.0"},{"group":"hexagon_tri","fractal_assignment":["../images/cyn_red.png","../images/org_blu.png","../images/blu_wht.png","../images/pnk_blu.png","../images/gry_blk.png","../images/ylw_slt.png"],"mutagen_generator_assignment":[0,1],"goal":1,"start":5,"action_noise":0.15,"location_history":"[5,0,1]","action_history":"[1,0]","mutagen_history":"[1,0]","location_rts":"[3141,843]","trial_type":"fractal-mutation","trial_index":68,"time_elapsed":1345659,"internal_node_id":"0.0-5.0-14.0"},{"group":"hexagon_tri","fractal_assignment":["../images/cyn_red.png","../images/org_blu.png","../images/blu_wht.png","../images/pnk_blu.png","../images/gry_blk.png","../images/ylw_slt.png"],"mutagen_generator_assignment":[0,1],"goal":5,"start":1,"action_noise":0.15,"location_history":"[1,3,2,3,2,1,5]","action_history":"[1,0,1,0,0,1]","mutagen_history":"[1,0,1,0,0,1]","location_rts":"[1033,774,783,479,448,671]","trial_type":"fractal-mutation","trial_index":69,"time_elapsed":1360351,"internal_node_id":"0.0-5.0-15.0"},{"group":"hexagon_tri","fractal_assignment":["../images/cyn_red.png","../images/org_blu.png","../images/blu_wht.png","../images/pnk_blu.png","../images/gry_blk.png","../images/ylw_slt.png"],"mutagen_generator_assignment":[0,1],"goal":3,"start":5,"action_noise":0.15,"location_history":"[5,0,5,0,5,4,2,3]","action_history":"[1,0,1,0,0,1,1]","mutagen_history":"[1,0,1,0,0,1,1]","location_rts":"[2267,698,646,454,501,621,546]","trial_type":"fractal-mutation","trial_index":70,"time_elapsed":1377703,"internal_node_id":"0.0-5.0-16.0"},{"group":"hexagon_tri","fractal_assignment":["../images/cyn_red.png","../images/org_blu.png","../images/blu_wht.png","../images/pnk_blu.png","../images/gry_blk.png","../images/ylw_slt.png"],"mutagen_generator_assignment":[0,1],"goal":2,"start":3,"action_noise":0.15,"location_history":"[3,4,2]","action_history":"[1,1]","mutagen_history":"[1,1]","location_rts":"[2656,707]","trial_type":"fractal-mutation","trial_index":71,"time_elapsed":1386988,"internal_node_id":"0.0-5.0-17.0"},{"group":"hexagon_tri","fractal_assignment":["../images/cyn_red.png","../images/org_blu.png","../images/blu_wht.png","../images/pnk_blu.png","../images/gry_blk.png","../images/ylw_slt.png"],"mutagen_generator_assignment":[0,1],"goal":1,"start":2,"action_noise":0.15,"location_history":"[2,1]","action_history":"[0]","mutagen_history":"[0]","location_rts":"[1908]","trial_type":"fractal-mutation","trial_index":72,"time_elapsed":1393517,"internal_node_id":"0.0-5.0-18.0"},{"group":"hexagon_tri","fractal_assignment":["../images/cyn_red.png","../images/org_blu.png","../images/blu_wht.png","../images/pnk_blu.png","../images/gry_blk.png","../images/ylw_slt.png"],"mutagen_generator_assignment":[0,1],"goal":4,"start":1,"action_noise":0.15,"location_history":"[1,5,0,5,4]","action_history":"[1,1,0,0]","mutagen_history":"[1,1,0,0]","location_rts":"[3243,1160,651,509]","trial_type":"fractal-mutation","trial_index":73,"time_elapsed":1407291,"internal_node_id":"0.0-5.0-19.0"},{"group":"hexagon_tri","fractal_assignment":["../images/cyn_red.png","../images/org_blu.png","../images/blu_wht.png","../images/pnk_blu.png","../images/gry_blk.png","../images/ylw_slt.png"],"mutagen_generator_assignment":[0,1],"goal":0,"start":4,"action_noise":0.15,"location_history":"[4,2,1,5,0]","action_history":"[1,0,0,1]","mutagen_history":"[1,0,0,1]","location_rts":"[3576,536,692,648]","trial_type":"fractal-mutation","trial_index":74,"time_elapsed":1420936,"internal_node_id":"0.0-5.0-20.0"},{"group":"hexagon_tri","fractal_assignment":["../images/cyn_red.png","../images/org_blu.png","../images/blu_wht.png","../images/pnk_blu.png","../images/gry_blk.png","../images/ylw_slt.png"],"mutagen_generator_assignment":[0,1],"goal":3,"start":0,"action_noise":0.15,"location_history":"[0,1,3]","action_history":"[1,0]","mutagen_history":"[1,0]","location_rts":"[793,425]","trial_type":"fractal-mutation","trial_index":75,"time_elapsed":1428055,"internal_node_id":"0.0-5.0-21.0"},{"group":"hexagon_tri","fractal_assignment":["../images/cyn_red.png","../images/org_blu.png","../images/blu_wht.png","../images/pnk_blu.png","../images/gry_blk.png","../images/ylw_slt.png"],"mutagen_generator_assignment":[0,1],"goal":1,"start":3,"action_noise":0.15,"location_history":"[3,4,0,1]","action_history":"[1,0,1]","mutagen_history":"[1,0,1]","location_rts":"[913,1467,685]","trial_type":"fractal-mutation","trial_index":76,"time_elapsed":1438126,"internal_node_id":"0.0-5.0-22.0"},{"group":"hexagon_tri","fractal_assignment":["../images/cyn_red.png","../images/org_blu.png","../images/blu_wht.png","../images/pnk_blu.png","../images/gry_blk.png","../images/ylw_slt.png"],"mutagen_generator_assignment":[0,1],"goal":0,"start":1,"action_noise":0.15,"location_history":"[1,5,4,2,3,4,0]","action_history":"[1,0,1,1,1,0]","mutagen_history":"[1,0,1,1,1,0]","location_rts":"[837,496,698,1001,932,662]","trial_type":"fractal-mutation","trial_index":77,"time_elapsed":1453351,"internal_node_id":"0.0-5.0-23.0"},{"group":"hexagon_tri","fractal_assignment":["../images/cyn_red.png","../images/org_blu.png","../images/blu_wht.png","../images/pnk_blu.png","../images/gry_blk.png","../images/ylw_slt.png"],"mutagen_generator_assignment":[0,1],"goal":2,"start":0,"action_noise":0.15,"location_history":"[0,5,4,2]","action_history":"[1,0,1]","mutagen_history":"[1,0,1]","location_rts":"[2901,1177,781]","trial_type":"fractal-mutation","trial_index":78,"time_elapsed":1465235,"internal_node_id":"0.0-5.0-24.0"},{"group":"hexagon_tri","fractal_assignment":["../images/cyn_red.png","../images/org_blu.png","../images/blu_wht.png","../images/pnk_blu.png","../images/gry_blk.png","../images/ylw_slt.png"],"mutagen_generator_assignment":[0,1],"goal":4,"start":2,"action_noise":0.15,"location_history":"[2,3,4]","action_history":"[1,0]","mutagen_history":"[1,0]","location_rts":"[834,614]","trial_type":"fractal-mutation","trial_index":79,"time_elapsed":1472525,"internal_node_id":"0.0-5.0-25.0"},{"group":"hexagon_tri","fractal_assignment":["../images/cyn_red.png","../images/org_blu.png","../images/blu_wht.png","../images/pnk_blu.png","../images/gry_blk.png","../images/ylw_slt.png"],"mutagen_generator_assignment":[0,1],"goal":5,"start":4,"action_noise":0.15,"location_history":"[4,0,1,3,2,3,4,2,1,3,4,2,3,2,1,3,2,1,3,4,2,3,4,0,1,3,2,1,3,4,0,5]","action_history":"[0,1,0,0,1,1,1,0,0,0,1,1,0,0,0,0,0,1,1,1,1,0,0,1,0,0,0,0,1,0,0]","mutagen_history":"[0,1,0,0,1,1,1,0,0,0,1,1,0,0,0,0,0,1,1,1,1,0,0,1,0,0,0,0,1,0,0]","location_rts":"[1941,786,606,595,663,543,823,442,1518,667,931,676,582,386,552,479,1408,668,516,739,740,571,735,908,493,503,380,507,1491,618,509]","trial_type":"fractal-mutation","trial_index":80,"time_elapsed":1534754,"internal_node_id":"0.0-5.0-26.0"},{"group":"hexagon_tri","fractal_assignment":["../images/cyn_red.png","../images/org_blu.png","../images/blu_wht.png","../images/pnk_blu.png","../images/gry_blk.png","../images/ylw_slt.png"],"mutagen_generator_assignment":[0,1],"goal":2,"start":5,"action_noise":0.15,"location_history":"[5,0,5,4,0,5,0,1,5,0,5,4,0,1,3,4,2]","action_history":"[1,0,0,0,1,1,1,1,1,0,0,0,1,0,0,1]","mutagen_history":"[1,0,0,0,1,1,1,1,1,0,0,0,1,0,0,1]","location_rts":"[2046,635,621,1215,788,1003,645,621,481,452,660,802,1322,427,456,663]","trial_type":"fractal-mutation","trial_index":81,"time_elapsed":1569844,"internal_node_id":"0.0-5.0-27.0"},{"group":"hexagon_tri","fractal_assignment":["../images/cyn_red.png","../images/org_blu.png","../images/blu_wht.png","../images/pnk_blu.png","../images/gry_blk.png","../images/ylw_slt.png"],"mutagen_generator_assignment":[0,1],"goal":3,"start":2,"action_noise":0.15,"location_history":"[2,1,3]","action_history":"[1,0]","mutagen_history":"[1,0]","location_rts":"[1733,966]","trial_type":"fractal-mutation","trial_index":82,"time_elapsed":1578396,"internal_node_id":"0.0-5.0-28.0"},{"group":"hexagon_tri","fractal_assignment":["../images/cyn_red.png","../images/org_blu.png","../images/blu_wht.png","../images/pnk_blu.png","../images/gry_blk.png","../images/ylw_slt.png"],"mutagen_generator_assignment":[0,1],"goal":1,"start":3,"action_noise":0.15,"location_history":"[3,4,0,5,4,2,1]","action_history":"[1,0,1,0,1,0]","mutagen_history":"[1,0,1,0,1,0]","location_rts":"[1580,890,597,696,874,656]","trial_type":"fractal-mutation","trial_index":83,"time_elapsed":1594136,"internal_node_id":"0.0-5.0-29.0"},{"group":"hexagon_tri","fractal_assignment":["../images/cyn_red.png","../images/org_blu.png","../images/blu_wht.png","../images/pnk_blu.png","../images/gry_blk.png","../images/ylw_slt.png"],"mutagen_generator_assignment":[0,1],"goal":4,"start":1,"action_noise":0.15,"location_history":"[1,5,4]","action_history":"[1,0]","mutagen_history":"[1,0]","location_rts":"[1201,543]","trial_type":"fractal-mutation","trial_index":84,"time_elapsed":1601802,"internal_node_id":"0.0-5.0-30.0"},{"group":"hexagon_tri","fractal_assignment":["../images/cyn_red.png","../images/org_blu.png","../images/blu_wht.png","../images/pnk_blu.png","../images/gry_blk.png","../images/ylw_slt.png"],"mutagen_generator_assignment":[0,1],"goal":5,"start":4,"action_noise":0.15,"location_history":"[4,0,1,3,2,3,2,1,3,2,3,4,2,1,3,2,1,5]","action_history":"[0,1,0,1,1,0,0,0,0,1,1,1,0,0,0,1,1]","mutagen_history":"[0,1,0,1,1,0,0,0,0,1,1,1,0,0,0,1,1]","location_rts":"[2142,697,558,794,759,710,609,799,834,542,425,592,938,687,780,525,474]","trial_type":"fractal-mutation","trial_index":85,"time_elapsed":1637976,"internal_node_id":"0.0-5.0-31.0"},{"group":"hexagon_tri","fractal_assignment":["../images/cyn_red.png","../images/org_blu.png","../images/blu_wht.png","../images/pnk_blu.png","../images/gry_blk.png","../images/ylw_slt.png"],"mutagen_generator_assignment":[0,1],"goal":0,"start":5,"action_noise":0.15,"location_history":"[5,0]","action_history":"[1]","mutagen_history":"[1]","location_rts":"[1179]","trial_type":"fractal-mutation","trial_index":86,"time_elapsed":1643819,"internal_node_id":"0.0-5.0-32.0"},{"group":"hexagon_tri","fractal_assignment":["../images/cyn_red.png","../images/org_blu.png","../images/blu_wht.png","../images/pnk_blu.png","../images/gry_blk.png","../images/ylw_slt.png"],"mutagen_generator_assignment":[0,1],"goal":2,"start":0,"action_noise":0.15,"location_history":"[0,5,4,2]","action_history":"[1,0,1]","mutagen_history":"[1,0,1]","location_rts":"[4243,1110,612]","trial_type":"fractal-mutation","trial_index":87,"time_elapsed":1656834,"internal_node_id":"0.0-5.0-33.0"},{"group":"hexagon_tri","fractal_assignment":["../images/cyn_red.png","../images/org_blu.png","../images/blu_wht.png","../images/pnk_blu.png","../images/gry_blk.png","../images/ylw_slt.png"],"mutagen_generator_assignment":[0,1],"goal":0,"start":2,"action_noise":0.15,"location_history":"[2,3,2,1,3,4,2,3,4,2,3,4,2,1,3,4,2,3,4,2,3,4,0]","action_history":"[1,0,0,0,1,1,1,0,1,0,1,1,1,0,1,1,1,1,1,1,1,0]","mutagen_history":"[1,0,0,0,1,1,1,0,1,0,1,1,1,0,1,1,1,1,1,1,1,0]","location_rts":"[666,483,644,994,909,577,609,455,468,1104,640,724,962,659,859,518,466,463,853,558,301,521]","trial_type":"fractal-mutation","trial_index":88,"time_elapsed":1700406,"internal_node_id":"0.0-5.0-34.0"},{"group":"hexagon_tri","fractal_assignment":["../images/cyn_red.png","../images/org_blu.png","../images/blu_wht.png","../images/pnk_blu.png","../images/gry_blk.png","../images/ylw_slt.png"],"mutagen_generator_assignment":[0,1],"goal":5,"start":0,"action_noise":0.15,"location_history":"[0,5]","action_history":"[0]","mutagen_history":"[0]","location_rts":"[2077]","trial_type":"fractal-mutation","trial_index":89,"time_elapsed":1707151,"internal_node_id":"0.0-5.0-35.0"},{"group":"hexagon_tri","fractal_assignment":["../images/cyn_red.png","../images/org_blu.png","../images/blu_wht.png","../images/pnk_blu.png","../images/gry_blk.png","../images/ylw_slt.png"],"mutagen_generator_assignment":[0,1],"goal":1,"start":5,"action_noise":0.15,"location_history":"[5,4,2,1]","action_history":"[0,1,0]","mutagen_history":"[0,1,0]","location_rts":"[1478,659,535]","trial_type":"fractal-mutation","trial_index":90,"time_elapsed":1716786,"internal_node_id":"0.0-5.0-36.0"},{"group":"hexagon_tri","fractal_assignment":["../images/cyn_red.png","../images/org_blu.png","../images/blu_wht.png","../images/pnk_blu.png","../images/gry_blk.png","../images/ylw_slt.png"],"mutagen_generator_assignment":[0,1],"goal":4,"start":1,"action_noise":0.15,"location_history":"[1,5,4]","action_history":"[1,0]","mutagen_history":"[1,0]","location_rts":"[907,919]","trial_type":"fractal-mutation","trial_index":91,"time_elapsed":1724417,"internal_node_id":"0.0-5.0-37.0"},{"group":"hexagon_tri","fractal_assignment":["../images/cyn_red.png","../images/org_blu.png","../images/blu_wht.png","../images/pnk_blu.png","../images/gry_blk.png","../images/ylw_slt.png"],"mutagen_generator_assignment":[0,1],"goal":3,"start":4,"action_noise":0.15,"location_history":"[4,2,3]","action_history":"[1,0]","mutagen_history":"[1,0]","location_rts":"[670,849]","trial_type":"fractal-mutation","trial_index":92,"time_elapsed":1731711,"internal_node_id":"0.0-5.0-38.0"},{"group":"hexagon_tri","fractal_assignment":["../images/cyn_red.png","../images/org_blu.png","../images/blu_wht.png","../images/pnk_blu.png","../images/gry_blk.png","../images/ylw_slt.png"],"mutagen_generator_assignment":[0,1],"goal":5,"start":3,"action_noise":0.15,"location_history":"[3,4,0,5]","action_history":"[1,0,0]","mutagen_history":"[1,0,0]","location_rts":"[1034,457,502]","trial_type":"fractal-mutation","trial_index":93,"time_elapsed":1740675,"internal_node_id":"0.0-5.0-39.0"},{"group":"hexagon_tri","fractal_assignment":["../images/cyn_red.png","../images/org_blu.png","../images/blu_wht.png","../images/pnk_blu.png","../images/gry_blk.png","../images/ylw_slt.png"],"mutagen_generator_assignment":[0,1],"goal":1,"start":5,"action_noise":0.15,"location_history":"[5,0,5,0,5,0,5,4,2,3,2,3,2,3,2,1]","action_history":"[1,0,0,1,1,0,0,1,0,0,1,0,0,0,0]","mutagen_history":"[1,0,0,1,1,0,0,1,0,0,1,0,0,0,0]","location_rts":"[720,634,778,1036,604,682,568,413,547,1566,739,748,589,487,599]","trial_type":"fractal-mutation","trial_index":94,"time_elapsed":1772073,"internal_node_id":"0.0-5.0-40.0"},{"group":"hexagon_tri","fractal_assignment":["../images/cyn_red.png","../images/org_blu.png","../images/blu_wht.png","../images/pnk_blu.png","../images/gry_blk.png","../images/ylw_slt.png"],"mutagen_generator_assignment":[0,1],"goal":2,"start":1,"action_noise":0.15,"location_history":"[1,5,4,0,1,3,4,2]","action_history":"[1,0,0,1,1,1,1]","mutagen_history":"[1,0,0,1,1,1,1]","location_rts":"[1230,621,515,745,469,558,576]","trial_type":"fractal-mutation","trial_index":95,"time_elapsed":1788583,"internal_node_id":"0.0-5.0-41.0"},{"group":"hexagon_tri","fractal_assignment":["../images/cyn_red.png","../images/org_blu.png","../images/blu_wht.png","../images/pnk_blu.png","../images/gry_blk.png","../images/ylw_slt.png"],"mutagen_generator_assignment":[0,1],"goal":4,"start":2,"action_noise":0.15,"location_history":"[2,3,4]","action_history":"[1,1]","mutagen_history":"[1,1]","location_rts":"[932,399]","trial_type":"fractal-mutation","trial_index":96,"time_elapsed":1795832,"internal_node_id":"0.0-5.0-42.0"},{"group":"hexagon_tri","fractal_assignment":["../images/cyn_red.png","../images/org_blu.png","../images/blu_wht.png","../images/pnk_blu.png","../images/gry_blk.png","../images/ylw_slt.png"],"mutagen_generator_assignment":[0,1],"goal":0,"start":4,"action_noise":0.15,"location_history":"[4,2,1,5,0]","action_history":"[1,0,1,0]","mutagen_history":"[1,0,1,0]","location_rts":"[941,1236,585,500]","trial_type":"fractal-mutation","trial_index":97,"time_elapsed":1807304,"internal_node_id":"0.0-5.0-43.0"},{"group":"hexagon_tri","fractal_assignment":["../images/cyn_red.png","../images/org_blu.png","../images/blu_wht.png","../images/pnk_blu.png","../images/gry_blk.png","../images/ylw_slt.png"],"mutagen_generator_assignment":[0,1],"goal":3,"start":0,"action_noise":0.15,"location_history":"[0,1,3]","action_history":"[1,0]","mutagen_history":"[1,0]","location_rts":"[523,414]","trial_type":"fractal-mutation","trial_index":98,"time_elapsed":1814086,"internal_node_id":"0.0-5.0-44.0"},{"group":"hexagon_tri","fractal_assignment":["../images/cyn_red.png","../images/org_blu.png","../images/blu_wht.png","../images/pnk_blu.png","../images/gry_blk.png","../images/ylw_slt.png"],"mutagen_generator_assignment":[0,1],"goal":0,"start":3,"action_noise":0.15,"location_history":"[3,4,0]","action_history":"[1,0]","mutagen_history":"[1,0]","location_rts":"[1349,457]","trial_type":"fractal-mutation","trial_index":99,"time_elapsed":1821815,"internal_node_id":"0.0-5.0-45.0"},{"group":"hexagon_tri","fractal_assignment":["../images/cyn_red.png","../images/org_blu.png","../images/blu_wht.png","../images/pnk_blu.png","../images/gry_blk.png","../images/ylw_slt.png"],"mutagen_generator_assignment":[0,1],"goal":4,"start":0,"action_noise":0.15,"location_history":"[0,5,0,1,3,4]","action_history":"[0,1,0,0,1]","mutagen_history":"[0,1,0,0,1]","location_rts":"[3455,484,797,470,638]","trial_type":"fractal-mutation","trial_index":100,"time_elapsed":1836868,"internal_node_id":"0.0-5.0-46.0"},{"group":"hexagon_tri","fractal_assignment":["../images/cyn_red.png","../images/org_blu.png","../images/blu_wht.png","../images/pnk_blu.png","../images/gry_blk.png","../images/ylw_slt.png"],"mutagen_generator_assignment":[0,1],"goal":5,"start":4,"action_noise":0.15,"location_history":"[4,0,5]","action_history":"[0,1]","mutagen_history":"[0,1]","location_rts":"[2177,595]","trial_type":"fractal-mutation","trial_index":101,"time_elapsed":1845404,"internal_node_id":"0.0-5.0-47.0"},{"group":"hexagon_tri","fractal_assignment":["../images/cyn_red.png","../images/org_blu.png","../images/blu_wht.png","../images/pnk_blu.png","../images/gry_blk.png","../images/ylw_slt.png"],"mutagen_generator_assignment":[0,1],"goal":2,"start":5,"action_noise":0.15,"location_history":"[5,4,2]","action_history":"[0,1]","mutagen_history":"[0,1]","location_rts":"[1445,648]","trial_type":"fractal-mutation","trial_index":102,"time_elapsed":1853377,"internal_node_id":"0.0-5.0-48.0"},{"group":"hexagon_tri","fractal_assignment":["../images/cyn_red.png","../images/org_blu.png","../images/blu_wht.png","../images/pnk_blu.png","../images/gry_blk.png","../images/ylw_slt.png"],"mutagen_generator_assignment":[0,1],"goal":1,"start":2,"action_noise":0.15,"location_history":"[2,3,2,1]","action_history":"[1,0,0]","mutagen_history":"[1,0,0]","location_rts":"[2685,560,794]","trial_type":"fractal-mutation","trial_index":103,"time_elapsed":1864443,"internal_node_id":"0.0-5.0-49.0"},{"view_history":"[{\"page_index\":0,\"viewing_time\":6270}]","rt":6271,"trial_type":"instructions","trial_index":104,"time_elapsed":1871714,"internal_node_id":"0.0-6.0"},{"rt":45917,"responses":"{\"Q0\":\"how you can find your way without having reference to any physical objects?\"}","trial_type":"survey-text","trial_index":105,"time_elapsed":1918637,"internal_node_id":"0.0-7.0-0.0"},{"rt":24536,"responses":"{\"Q0\":\"Memory with reference to something visual.\"}","trial_type":"survey-text","trial_index":106,"time_elapsed":1944176,"internal_node_id":"0.0-7.0-1.0"},{"rt":53138,"responses":"{\"Q0\":\"<img src='../images/diagrams/hexagon_tri.png'>\"}","trial_type":"survey-multi-choice","trial_index":107,"time_elapsed":1998324,"internal_node_id":"0.0-7.0-2.0"},{"rt":53664,"assignments":["../images/cyn_red.png","../images/ylw_slt.png","../images/gry_blk.png","../images/blu_wht.png","../images/org_blu.png","../images/pnk_blu.png"],"trial_type":"drag-drop-on-image","trial_index":108,"time_elapsed":2052992,"internal_node_id":"0.0-7.0-3.0"},{"rt":8703,"responses":"{\"Q0\":\"2\"}","trial_type":"survey-likert","trial_index":109,"time_elapsed":2062701,"internal_node_id":"0.0-7.0-4.0"},{"rt":32128,"responses":"{\"Q0\":\"seemed to zig-zag all over the place.\"}","trial_type":"survey-text","trial_index":110,"time_elapsed":2095832,"internal_node_id":"0.0-7.0-5.0"},{"rt":7062,"responses":"{\"Q0\":\"Yes\"}","trial_type":"survey-multi-choice","trial_index":111,"time_elapsed":2103900,"internal_node_id":"0.0-7.0-6.0"},{"rt":25920,"responses":"{\"Q0\":\"During these questions/I wasn't aware until you pointed it out\"}","trial_type":"survey-multi-choice","trial_index":112,"time_elapsed":2130825,"internal_node_id":"0.0-7.0-7.0"},{"rt":7852,"responses":"{\"Q0\":\"\"}","trial_type":"survey-text","trial_index":113,"time_elapsed":2139681,"internal_node_id":"0.0-7.0-8.0"},{"rt":13498,"responses":"{\"Q0\":\"0\"}","trial_type":"survey-likert","trial_index":114,"time_elapsed":2154184,"internal_node_id":"0.0-7.0-9.0"},{"rt":21916,"responses":"{\"Q0\":\"Same structure\"}","trial_type":"survey-multi-choice","trial_index":115,"time_elapsed":2177105,"internal_node_id":"0.0-7.0-10.0"},{"rt":58990,"responses":"{\"Q0\":\"left (white) door = ray, right (black) door = acid\",\"Q1\":\"Not at all confident\"}","trial_type":"survey-multi-choice","trial_index":116,"time_elapsed":2237106,"internal_node_id":"0.0-7.0-11.0"},{"rt":12480,"responses":"{\"Q0\":\"45-55\",\"Q1\":\"Bachelor's degree\",\"Q2\":\"Female\",\"Q3\":\"White\"}","trial_type":"survey-multi-choice","trial_index":117,"time_elapsed":2250608,"internal_node_id":"0.0-8.0"},{"rt":13458,"responses":"{\"Q0\":\"A great hit. Thanks very much :)\"}","trial_type":"survey-text","trial_index":118,"time_elapsed":2265071,"internal_node_id":"0.0-9.0"}]