[{"view_history":"[{\"page_index\":0,\"viewing_time\":2718},{\"page_index\":1,\"viewing_time\":15114}]","rt":17833,"trial_type":"instructions","trial_index":0,"time_elapsed":17834,"internal_node_id":"0.0-0.0"},{"view_history":"[{\"page_index\":0,\"viewing_time\":3138},{\"page_index\":1,\"viewing_time\":120741}]","rt":123880,"trial_type":"instructions","trial_index":1,"time_elapsed":142716,"internal_node_id":"0.0-1.0"},{"group":"hexagon_bi","room_assignment":["green","red","yellow","blue","grey","purple"],"door_color_assignment":["white","black"],"door_generator_assignment":[0,1],"goal":2,"start":1,"action_noise":0.15,"location_history":"[1,2]","action_history":"[0]","door_history":"[0]","location_rts":"[3441]","trial_type":"two-door-navigation","trial_index":2,"time_elapsed":150841,"internal_node_id":"0.0-2.0-0.0"},{"group":"hexagon_bi","room_assignment":["green","red","yellow","blue","grey","purple"],"door_color_assignment":["white","black"],"door_generator_assignment":[0,1],"goal":0,"start":2,"action_noise":0.15,"location_history":"[2,3,2,3,4,5,4,5,4,5,0]","action_history":"[1,1,1,0,1,0,1,1,1,1]","door_history":"[1,1,1,0,1,0,1,1,1,1]","location_rts":"[1535,1713,961,326,1790,950,1311,420,1914,541]","trial_type":"two-door-navigation","trial_index":3,"time_elapsed":176129,"internal_node_id":"0.0-2.0-1.0"},{"group":"hexagon_bi","room_assignment":["green","red","yellow","blue","grey","purple"],"door_color_assignment":["white","black"],"door_generator_assignment":[0,1],"goal":5,"start":0,"action_noise":0.15,"location_history":"[0,5]","action_history":"[0]","door_history":"[0]","location_rts":"[1618]","trial_type":"two-door-navigation","trial_index":4,"time_elapsed":182386,"internal_node_id":"0.0-2.0-2.0"},{"group":"hexagon_bi","room_assignment":["green","red","yellow","blue","grey","purple"],"door_color_assignment":["white","black"],"door_generator_assignment":[0,1],"goal":1,"start":5,"action_noise":0.15,"location_history":"[5,0,5,0,5,0,5,4,5,4,3,2,1]","action_history":"[0,0,0,0,0,0,1,1,1,0,1,0]","door_history":"[0,0,0,0,0,0,1,1,1,0,1,0]","location_rts":"[1678,710,523,503,354,307,475,486,513,268,1218,1083]","trial_type":"two-door-navigation","trial_index":5,"time_elapsed":206532,"internal_node_id":"0.0-2.0-3.0"},{"group":"hexagon_bi","room_assignment":["green","red","yellow","blue","grey","purple"],"door_color_assignment":["white","black"],"door_generator_assignment":[0,1],"goal":3,"start":1,"action_noise":0.15,"location_history":"[1,0,5,0,5,0,1,2,3]","action_history":"[1,0,0,0,1,1,0,1]","door_history":"[1,0,0,0,1,1,0,1]","location_rts":"[1487,967,544,394,421,1081,1670,470]","trial_type":"two-door-navigation","trial_index":6,"time_elapsed":225378,"internal_node_id":"0.0-2.0-4.0"},{"group":"hexagon_bi","room_assignment":["green","red","yellow","blue","grey","purple"],"door_color_assignment":["white","black"],"door_generator_assignment":[0,1],"goal":5,"start":3,"action_noise":0.15,"location_history":"[3,4,5]","action_history":"[0,1]","door_history":"[0,1]","location_rts":"[2904,1155]","trial_type":"two-door-navigation","trial_index":7,"time_elapsed":235205,"internal_node_id":"0.0-2.0-5.0"},{"group":"hexagon_bi","room_assignment":["green","red","yellow","blue","grey","purple"],"door_color_assignment":["white","black"],"door_generator_assignment":[0,1],"goal":4,"start":5,"action_noise":0.15,"location_history":"[5,0,1,2,1,2,1,2,3,2,3,4]","action_history":"[0,1,0,0,0,1,1,1,1,1,0]","door_history":"[0,1,0,0,0,1,1,1,1,1,0]","location_rts":"[1175,1256,1013,1547,1226,1337,495,1078,1065,356,318]","trial_type":"two-door-navigation","trial_index":8,"time_elapsed":260976,"internal_node_id":"0.0-2.0-6.0"},{"group":"hexagon_bi","room_assignment":["green","red","yellow","blue","grey","purple"],"door_color_assignment":["white","black"],"door_generator_assignment":[0,1],"goal":0,"start":4,"action_noise":0.15,"location_history":"[4,5,0]","action_history":"[1,0]","door_history":"[1,0]","location_rts":"[1312,1280]","trial_type":"two-door-navigation","trial_index":9,"time_elapsed":269122,"internal_node_id":"0.0-2.0-7.0"},{"group":"hexagon_bi","room_assignment":["green","red","yellow","blue","grey","purple"],"door_color_assignment":["white","black"],"door_generator_assignment":[0,1],"goal":2,"start":0,"action_noise":0.15,"location_history":"[0,1,2]","action_history":"[0,0]","door_history":"[0,0]","location_rts":"[10436,994]","trial_type":"two-door-navigation","trial_index":10,"time_elapsed":286961,"internal_node_id":"0.0-2.0-8.0"},{"group":"hexagon_bi","room_assignment":["green","red","yellow","blue","grey","purple"],"door_color_assignment":["white","black"],"door_generator_assignment":[0,1],"goal":4,"start":2,"action_noise":0.15,"location_history":"[2,1,0,1,0,1,0,5,0,5,4]","action_history":"[0,1,0,1,1,1,0,0,1,1]","door_history":"[0,1,0,1,1,1,0,0,1,1]","location_rts":"[1902,1296,984,695,364,872,441,986,886,594]","trial_type":"two-door-navigation","trial_index":11,"time_elapsed":309793,"internal_node_id":"0.0-2.0-9.0"},{"group":"hexagon_bi","room_assignment":["green","red","yellow","blue","grey","purple"],"door_color_assignment":["white","black"],"door_generator_assignment":[0,1],"goal":2,"start":4,"action_noise":0.15,"location_history":"[4,5,0,1,2]","action_history":"[0,0,1,0]","door_history":"[0,0,1,0]","location_rts":"[1270,646,1029,953]","trial_type":"two-door-navigation","trial_index":12,"time_elapsed":321460,"internal_node_id":"0.0-2.0-10.0"},{"group":"hexagon_bi","room_assignment":["green","red","yellow","blue","grey","purple"],"door_color_assignment":["white","black"],"door_generator_assignment":[0,1],"goal":3,"start":2,"action_noise":0.15,"location_history":"[2,3]","action_history":"[1]","door_history":"[1]","location_rts":"[1269]","trial_type":"two-door-navigation","trial_index":13,"time_elapsed":327271,"internal_node_id":"0.0-2.0-11.0"},{"group":"hexagon_bi","room_assignment":["green","red","yellow","blue","grey","purple"],"door_color_assignment":["white","black"],"door_generator_assignment":[0,1],"goal":0,"start":3,"action_noise":0.15,"location_history":"[3,4,5,0]","action_history":"[0,1,0]","door_history":"[0,1,0]","location_rts":"[1107,2050,683]","trial_type":"two-door-navigation","trial_index":14,"time_elapsed":337679,"internal_node_id":"0.0-2.0-12.0"},{"group":"hexagon_bi","room_assignment":["green","red","yellow","blue","grey","purple"],"door_color_assignment":["white","black"],"door_generator_assignment":[0,1],"goal":5,"start":0,"action_noise":0.15,"location_history":"[0,1,2,1,0,5]","action_history":"[1,0,1,1,0]","door_history":"[1,0,1,1,0]","location_rts":"[1400,1658,1286,637,1838]","trial_type":"two-door-navigation","trial_index":15,"time_elapsed":353098,"internal_node_id":"0.0-2.0-13.0"},{"group":"hexagon_bi","room_assignment":["green","red","yellow","blue","grey","purple"],"door_color_assignment":["white","black"],"door_generator_assignment":[0,1],"goal":1,"start":5,"action_noise":0.15,"location_history":"[5,4,3,4,5,0,1]","action_history":"[1,0,0,1,0,0]","door_history":"[1,0,0,1,0,0]","location_rts":"[1857,1200,2304,1233,888,732]","trial_type":"two-door-navigation","trial_index":16,"time_elapsed":370979,"internal_node_id":"0.0-2.0-14.0"},{"group":"hexagon_bi","room_assignment":["green","red","yellow","blue","grey","purple"],"door_color_assignment":["white","black"],"door_generator_assignment":[0,1],"goal":5,"start":1,"action_noise":0.15,"location_history":"[1,0,5]","action_history":"[1,1]","door_history":"[1,1]","location_rts":"[2411,2101]","trial_type":"two-door-navigation","trial_index":17,"time_elapsed":381049,"internal_node_id":"0.0-2.0-15.0"},{"group":"hexagon_bi","room_assignment":["green","red","yellow","blue","grey","purple"],"door_color_assignment":["white","black"],"door_generator_assignment":[0,1],"goal":3,"start":5,"action_noise":0.15,"location_history":"[5,4,5,0,1,0,5,0,5,4,3]","action_history":"[0,1,0,1,1,0,0,0,0,0]","door_history":"[0,1,0,1,1,0,0,0,0,0]","location_rts":"[1075,1219,1395,1187,661,726,657,841,519,1292]","trial_type":"two-door-navigation","trial_index":18,"time_elapsed":404457,"internal_node_id":"0.0-2.0-16.0"},{"group":"hexagon_bi","room_assignment":["green","red","yellow","blue","grey","purple"],"door_color_assignment":["white","black"],"door_generator_assignment":[0,1],"goal":2,"start":3,"action_noise":0.15,"location_history":"[3,4,5,4,5,4,3,2]","action_history":"[0,0,1,1,1,0,1]","door_history":"[0,0,1,1,1,0,1]","location_rts":"[2669,1640,1113,359,514,641,371]","trial_type":"two-door-navigation","trial_index":19,"time_elapsed":422469,"internal_node_id":"0.0-2.0-17.0"},{"group":"hexagon_bi","room_assignment":["green","red","yellow","blue","grey","purple"],"door_color_assignment":["white","black"],"door_generator_assignment":[0,1],"goal":1,"start":2,"action_noise":0.15,"location_history":"[2,1]","action_history":"[0]","door_history":"[0]","location_rts":"[2056]","trial_type":"two-door-navigation","trial_index":20,"time_elapsed":429968,"internal_node_id":"0.0-2.0-18.0"},{"group":"hexagon_bi","room_assignment":["green","red","yellow","blue","grey","purple"],"door_color_assignment":["white","black"],"door_generator_assignment":[0,1],"goal":4,"start":1,"action_noise":0.15,"location_history":"[1,0,1,0,5,4]","action_history":"[1,1,1,0,1]","door_history":"[1,1,1,0,1]","location_rts":"[4246,1598,1388,355,1398]","trial_type":"two-door-navigation","trial_index":21,"time_elapsed":448563,"internal_node_id":"0.0-2.0-19.0"},{"group":"hexagon_bi","room_assignment":["green","red","yellow","blue","grey","purple"],"door_color_assignment":["white","black"],"door_generator_assignment":[0,1],"goal":0,"start":4,"action_noise":0.15,"location_history":"[4,3,4,5,0]","action_history":"[0,0,1,0]","door_history":"[0,0,1,0]","location_rts":"[1813,786,1088,878]","trial_type":"two-door-navigation","trial_index":22,"time_elapsed":460711,"internal_node_id":"0.0-2.0-20.0"},{"group":"hexagon_bi","room_assignment":["green","red","yellow","blue","grey","purple"],"door_color_assignment":["white","black"],"door_generator_assignment":[0,1],"goal":3,"start":0,"action_noise":0.15,"location_history":"[0,1,0,5,0,5,0,5,4,3]","action_history":"[1,1,1,0,0,0,0,1,0]","door_history":"[1,1,1,0,0,0,0,1,0]","location_rts":"[2852,2015,743,1041,536,1062,901,271,704]","trial_type":"two-door-navigation","trial_index":23,"time_elapsed":483538,"internal_node_id":"0.0-2.0-21.0"},{"group":"hexagon_bi","room_assignment":["green","red","yellow","blue","grey","purple"],"door_color_assignment":["white","black"],"door_generator_assignment":[0,1],"goal":1,"start":3,"action_noise":0.15,"location_history":"[3,2,1]","action_history":"[1,0]","door_history":"[1,0]","location_rts":"[1562,1240]","trial_type":"two-door-navigation","trial_index":24,"time_elapsed":491893,"internal_node_id":"0.0-2.0-22.0"},{"group":"hexagon_bi","room_assignment":["green","red","yellow","blue","grey","purple"],"door_color_assignment":["white","black"],"door_generator_assignment":[0,1],"goal":0,"start":1,"action_noise":0.15,"location_history":"[1,0]","action_history":"[1]","door_history":"[1]","location_rts":"[1752]","trial_type":"two-door-navigation","trial_index":25,"time_elapsed":498194,"internal_node_id":"0.0-2.0-23.0"},{"group":"hexagon_bi","room_assignment":["green","red","yellow","blue","grey","purple"],"door_color_assignment":["white","black"],"door_generator_assignment":[0,1],"goal":2,"start":0,"action_noise":0.15,"location_history":"[0,1,2]","action_history":"[0,0]","door_history":"[0,0]","location_rts":"[1871,1136]","trial_type":"two-door-navigation","trial_index":26,"time_elapsed":506750,"internal_node_id":"0.0-2.0-24.0"},{"group":"hexagon_bi","room_assignment":["green","red","yellow","blue","grey","purple"],"door_color_assignment":["white","black"],"door_generator_assignment":[0,1],"goal":4,"start":2,"action_noise":0.15,"location_history":"[2,3,2,3,4]","action_history":"[1,1,1,0]","door_history":"[1,1,1,0]","location_rts":"[1345,1804,337,342]","trial_type":"two-door-navigation","trial_index":27,"time_elapsed":518264,"internal_node_id":"0.0-2.0-25.0"},{"group":"hexagon_bi","room_assignment":["green","red","yellow","blue","grey","purple"],"door_color_assignment":["white","black"],"door_generator_assignment":[0,1],"goal":5,"start":4,"action_noise":0.15,"location_history":"[4,5]","action_history":"[1]","door_history":"[1]","location_rts":"[1598]","trial_type":"two-door-navigation","trial_index":28,"time_elapsed":524422,"internal_node_id":"0.0-2.0-26.0"},{"group":"hexagon_bi","room_assignment":["green","red","yellow","blue","grey","purple"],"door_color_assignment":["white","black"],"door_generator_assignment":[0,1],"goal":2,"start":5,"action_noise":0.15,"location_history":"[5,0,1,2]","action_history":"[0,1,0]","door_history":"[0,1,0]","location_rts":"[1129,1343,872]","trial_type":"two-door-navigation","trial_index":29,"time_elapsed":534338,"internal_node_id":"0.0-2.0-27.0"},{"group":"hexagon_bi","room_assignment":["green","red","yellow","blue","grey","purple"],"door_color_assignment":["white","black"],"door_generator_assignment":[0,1],"goal":3,"start":2,"action_noise":0.15,"location_history":"[2,1,2,1,0,5,4,5,4,3]","action_history":"[1,0,0,1,0,1,1,1,0]","door_history":"[1,0,0,1,0,1,1,1,0]","location_rts":"[3692,1427,1015,1381,763,1166,2145,1115,388]","trial_type":"two-door-navigation","trial_index":30,"time_elapsed":560157,"internal_node_id":"0.0-2.0-28.0"},{"group":"hexagon_bi","room_assignment":["green","red","yellow","blue","grey","purple"],"door_color_assignment":["white","black"],"door_generator_assignment":[0,1],"goal":1,"start":3,"action_noise":0.15,"location_history":"[3,2,3,4,3,2,1]","action_history":"[1,0,1,0,0,1]","door_history":"[1,0,1,0,0,1]","location_rts":"[4249,844,1393,834,1264,894]","trial_type":"two-door-navigation","trial_index":31,"time_elapsed":579280,"internal_node_id":"0.0-2.0-29.0"},{"group":"hexagon_bi","room_assignment":["green","red","yellow","blue","grey","purple"],"door_color_assignment":["white","black"],"door_generator_assignment":[0,1],"goal":4,"start":1,"action_noise":0.15,"location_history":"[1,2,1,0,5,0,1,2,1,2,1,2,3,4]","action_history":"[0,0,1,0,0,1,0,0,0,0,1,1,0]","door_history":"[0,0,1,0,0,1,0,0,0,0,1,1,0]","location_rts":"[1926,1640,753,1437,1341,1586,949,440,933,465,426,904,892]","trial_type":"two-door-navigation","trial_index":32,"time_elapsed":609763,"internal_node_id":"0.0-2.0-30.0"},{"group":"hexagon_bi","room_assignment":["green","red","yellow","blue","grey","purple"],"door_color_assignment":["white","black"],"door_generator_assignment":[0,1],"goal":5,"start":4,"action_noise":0.15,"location_history":"[4,5]","action_history":"[1]","door_history":"[1]","location_rts":"[1292]","trial_type":"two-door-navigation","trial_index":33,"time_elapsed":615584,"internal_node_id":"0.0-2.0-31.0"},{"group":"hexagon_bi","room_assignment":["green","red","yellow","blue","grey","purple"],"door_color_assignment":["white","black"],"door_generator_assignment":[0,1],"goal":0,"start":5,"action_noise":0.15,"location_history":"[5,4,5,4,5,0]","action_history":"[0,1,1,0,0]","door_history":"[0,1,1,0,0]","location_rts":"[1998,1077,574,923,738]","trial_type":"two-door-navigation","trial_index":34,"time_elapsed":629550,"internal_node_id":"0.0-2.0-32.0"},{"group":"hexagon_bi","room_assignment":["green","red","yellow","blue","grey","purple"],"door_color_assignment":["white","black"],"door_generator_assignment":[0,1],"goal":2,"start":0,"action_noise":0.15,"location_history":"[0,1,2]","action_history":"[1,0]","door_history":"[1,0]","location_rts":"[1732,1043]","trial_type":"two-door-navigation","trial_index":35,"time_elapsed":637882,"internal_node_id":"0.0-2.0-33.0"},{"group":"hexagon_bi","room_assignment":["green","red","yellow","blue","grey","purple"],"door_color_assignment":["white","black"],"door_generator_assignment":[0,1],"goal":0,"start":2,"action_noise":0.15,"location_history":"[2,3,2,3,4,5,4,5,4,5,0]","action_history":"[1,1,1,0,1,0,1,1,1,0]","door_history":"[1,1,1,0,1,0,1,1,1,0]","location_rts":"[1647,1250,1085,803,598,633,1890,381,989,1120]","trial_type":"two-door-navigation","trial_index":36,"time_elapsed":662968,"internal_node_id":"0.0-2.0-34.0"},{"group":"hexagon_bi","room_assignment":["green","red","yellow","blue","grey","purple"],"door_color_assignment":["white","black"],"door_generator_assignment":[0,1],"goal":5,"start":0,"action_noise":0.15,"location_history":"[0,5]","action_history":"[0]","door_history":"[0]","location_rts":"[3748]","trial_type":"two-door-navigation","trial_index":37,"time_elapsed":671256,"internal_node_id":"0.0-2.0-35.0"},{"group":"hexagon_bi","room_assignment":["green","red","yellow","blue","grey","purple"],"door_color_assignment":["white","black"],"door_generator_assignment":[0,1],"goal":1,"start":5,"action_noise":0.15,"location_history":"[5,0,1]","action_history":"[1,1]","door_history":"[1,1]","location_rts":"[2756,664]","trial_type":"two-door-navigation","trial_index":38,"time_elapsed":680244,"internal_node_id":"0.0-2.0-36.0"},{"group":"hexagon_bi","room_assignment":["green","red","yellow","blue","grey","purple"],"door_color_assignment":["white","black"],"door_generator_assignment":[0,1],"goal":4,"start":1,"action_noise":0.15,"location_history":"[1,2,1,0,5,0,1,2,1,2,1,0,5,0,5,0,1,0,1,2,3,2,1,2,1,2,3,4]","action_history":"[0,0,1,0,0,1,0,0,0,1,1,0,0,0,1,1,1,1,1,1,1,0,0,0,0,1,0]","door_history":"[0,0,1,0,0,1,0,0,0,1,1,0,0,0,1,1,1,1,1,1,1,0,0,0,0,1,0]","location_rts":"[1258,681,894,948,1513,1114,738,500,407,1208,470,984,441,2290,480,875,411,261,301,326,531,1055,476,453,457,781,487]","trial_type":"two-door-navigation","trial_index":39,"time_elapsed":731780,"internal_node_id":"0.0-2.0-37.0"},{"group":"hexagon_bi","room_assignment":["green","red","yellow","blue","grey","purple"],"door_color_assignment":["white","black"],"door_generator_assignment":[0,1],"goal":3,"start":4,"action_noise":0.15,"location_history":"[4,3]","action_history":"[1]","door_history":"[1]","location_rts":"[1641]","trial_type":"two-door-navigation","trial_index":40,"time_elapsed":737946,"internal_node_id":"0.0-2.0-38.0"},{"group":"hexagon_bi","room_assignment":["green","red","yellow","blue","grey","purple"],"door_color_assignment":["white","black"],"door_generator_assignment":[0,1],"goal":5,"start":3,"action_noise":0.15,"location_history":"[3,2,3,2,1,0,5]","action_history":"[0,1,1,0,1,0]","door_history":"[0,1,1,0,1,0]","location_rts":"[1346,1156,519,1421,899,971]","trial_type":"two-door-navigation","trial_index":41,"time_elapsed":753924,"internal_node_id":"0.0-2.0-39.0"},{"group":"hexagon_bi","room_assignment":["green","red","yellow","blue","grey","purple"],"door_color_assignment":["white","black"],"door_generator_assignment":[0,1],"goal":1,"start":5,"action_noise":0.15,"location_history":"[5,4,3,2,1]","action_history":"[1,0,1,0]","door_history":"[1,0,1,0]","location_rts":"[1331,662,1045,665]","trial_type":"two-door-navigation","trial_index":42,"time_elapsed":765229,"internal_node_id":"0.0-2.0-40.0"},{"group":"hexagon_bi","room_assignment":["green","red","yellow","blue","grey","purple"],"door_color_assignment":["white","black"],"door_generator_assignment":[0,1],"goal":2,"start":1,"action_noise":0.15,"location_history":"[1,2]","action_history":"[0]","door_history":"[0]","location_rts":"[2492]","trial_type":"two-door-navigation","trial_index":43,"time_elapsed":772248,"internal_node_id":"0.0-2.0-41.0"},{"group":"hexagon_bi","room_assignment":["green","red","yellow","blue","grey","purple"],"door_color_assignment":["white","black"],"door_generator_assignment":[0,1],"goal":4,"start":2,"action_noise":0.15,"location_history":"[2,3,2,1,0,1,0,5,0,5,0,5,0,5,0,5,0,5,0,5,4]","action_history":"[1,1,1,1,1,1,0,1,0,0,0,1,0,0,0,0,0,0,0,1]","door_history":"[1,1,1,1,1,1,0,1,0,0,0,1,0,0,0,0,0,0,0,1]","location_rts":"[1771,1993,1324,338,500,403,525,1353,3092,771,1049,919,1158,418,325,296,280,463,828,298]","trial_type":"two-door-navigation","trial_index":44,"time_elapsed":814322,"internal_node_id":"0.0-2.0-42.0"},{"group":"hexagon_bi","room_assignment":["green","red","yellow","blue","grey","purple"],"door_color_assignment":["white","black"],"door_generator_assignment":[0,1],"goal":0,"start":4,"action_noise":0.15,"location_history":"[4,3,2,3,4,5,4,5,0]","action_history":"[0,1,1,1,1,1,1,0]","door_history":"[0,1,1,1,1,1,1,0]","location_rts":"[1637,669,462,474,1066,989,730,410]","trial_type":"two-door-navigation","trial_index":45,"time_elapsed":832499,"internal_node_id":"0.0-2.0-43.0"},{"group":"hexagon_bi","room_assignment":["green","red","yellow","blue","grey","purple"],"door_color_assignment":["white","black"],"door_generator_assignment":[0,1],"goal":3,"start":0,"action_noise":0.15,"location_history":"[0,5,4,5,4,5,0,1,2,3]","action_history":"[0,1,0,1,1,0,1,0,1]","door_history":"[0,1,0,1,1,0,1,0,1]","location_rts":"[1055,548,1228,871,476,1576,724,1065,411]","trial_type":"two-door-navigation","trial_index":46,"time_elapsed":853221,"internal_node_id":"0.0-2.0-44.0"},{"group":"hexagon_bi","room_assignment":["green","red","yellow","blue","grey","purple"],"door_color_assignment":["white","black"],"door_generator_assignment":[0,1],"goal":0,"start":3,"action_noise":0.15,"location_history":"[3,4,3,4,3,4,3,4,3,2,3,2,3,2,3,2,3,4,3,2,1,2,3,4,3,4,5,0]","action_history":"[0,0,0,1,0,1,1,0,1,1,1,1,1,1,0,1,0,0,1,0,1,1,0,0,0,1,0]","door_history":"[0,0,0,1,0,1,1,0,1,1,1,1,1,1,0,1,0,0,1,0,1,1,0,0,0,1,0]","location_rts":"[1186,1156,750,233,1102,680,772,693,967,361,391,296,346,324,505,767,620,1010,884,647,948,1085,475,392,540,695,941]","trial_type":"two-door-navigation","trial_index":47,"time_elapsed":903258,"internal_node_id":"0.0-2.0-45.0"},{"group":"hexagon_bi","room_assignment":["green","red","yellow","blue","grey","purple"],"door_color_assignment":["white","black"],"door_generator_assignment":[0,1],"goal":4,"start":0,"action_noise":0.15,"location_history":"[0,1,2,3,4]","action_history":"[1,0,1,0]","door_history":"[1,0,1,0]","location_rts":"[1602,725,1183,825]","trial_type":"two-door-navigation","trial_index":48,"time_elapsed":915190,"internal_node_id":"0.0-2.0-46.0"},{"group":"hexagon_bi","room_assignment":["green","red","yellow","blue","grey","purple"],"door_color_assignment":["white","black"],"door_generator_assignment":[0,1],"goal":5,"start":4,"action_noise":0.15,"location_history":"[4,5]","action_history":"[1]","door_history":"[1]","location_rts":"[1472]","trial_type":"two-door-navigation","trial_index":49,"time_elapsed":921192,"internal_node_id":"0.0-2.0-47.0"},{"group":"hexagon_bi","room_assignment":["green","red","yellow","blue","grey","purple"],"door_color_assignment":["white","black"],"door_generator_assignment":[0,1],"goal":2,"start":5,"action_noise":0.15,"location_history":"[5,4,3,4,3,4,3,4,5,4,5,4,5,0,1,2]","action_history":"[0,0,1,0,0,1,0,1,1,1,1,1,1,0,0]","door_history":"[0,0,1,0,0,1,0,1,1,1,1,1,1,0,0]","location_rts":"[1389,425,903,1330,444,912,518,775,351,359,417,341,476,208,1106]","trial_type":"two-door-navigation","trial_index":50,"time_elapsed":950968,"internal_node_id":"0.0-2.0-48.0"},{"group":"hexagon_bi","room_assignment":["green","red","yellow","blue","grey","purple"],"door_color_assignment":["white","black"],"door_generator_assignment":[0,1],"goal":1,"start":2,"action_noise":0.15,"location_history":"[2,1]","action_history":"[0]","door_history":"[0]","location_rts":"[1262]","trial_type":"two-door-navigation","trial_index":51,"time_elapsed":957327,"internal_node_id":"0.0-2.0-49.0"},{"view_history":"[{\"page_index\":0,\"viewing_time\":1587}]","rt":1587,"trial_type":"instructions","trial_index":52,"time_elapsed":959915,"internal_node_id":"0.0-3.0"},{"view_history":"[{\"page_index\":0,\"viewing_time\":1898},{\"page_index\":1,\"viewing_time\":1792}]","rt":3690,"trial_type":"instructions","trial_index":53,"time_elapsed":964607,"internal_node_id":"0.0-4.0"},{"group":"hexagon_bi","fractal_assignment":["../images/cyn_red.png","../images/ylw_slt.png","../images/org_blu.png","../images/pnk_blu.png","../images/blu_wht.png","../images/gry_blk.png"],"mutagen_generator_assignment":[0,1],"goal":2,"start":1,"action_noise":0.15,"location_history":"[1,0,5,4,3,2]","action_history":"[1,0,1,0,1]","mutagen_history":"[1,0,1,0,1]","location_rts":"[4540,774,861,913,2926]","trial_type":"fractal-mutation","trial_index":54,"time_elapsed":983469,"internal_node_id":"0.0-5.0-0.0"},{"group":"hexagon_bi","fractal_assignment":["../images/cyn_red.png","../images/ylw_slt.png","../images/org_blu.png","../images/pnk_blu.png","../images/blu_wht.png","../images/gry_blk.png"],"mutagen_generator_assignment":[0,1],"goal":0,"start":2,"action_noise":0.15,"location_history":"[2,1,0]","action_history":"[0,1]","mutagen_history":"[0,1]","location_rts":"[1455,751]","trial_type":"fractal-mutation","trial_index":55,"time_elapsed":991262,"internal_node_id":"0.0-5.0-1.0"},{"group":"hexagon_bi","fractal_assignment":["../images/cyn_red.png","../images/ylw_slt.png","../images/org_blu.png","../images/pnk_blu.png","../images/blu_wht.png","../images/gry_blk.png"],"mutagen_generator_assignment":[0,1],"goal":5,"start":0,"action_noise":0.15,"location_history":"[0,5]","action_history":"[0]","mutagen_history":"[0]","location_rts":"[2075]","trial_type":"fractal-mutation","trial_index":56,"time_elapsed":997885,"internal_node_id":"0.0-5.0-2.0"},{"group":"hexagon_bi","fractal_assignment":["../images/cyn_red.png","../images/ylw_slt.png","../images/org_blu.png","../images/pnk_blu.png","../images/blu_wht.png","../images/gry_blk.png"],"mutagen_generator_assignment":[0,1],"goal":1,"start":5,"action_noise":0.15,"location_history":"[5,4,3,2,1]","action_history":"[1,0,1,0]","mutagen_history":"[1,0,1,0]","location_rts":"[1590,1160,756,1123]","trial_type":"fractal-mutation","trial_index":57,"time_elapsed":1010224,"internal_node_id":"0.0-5.0-3.0"},{"group":"hexagon_bi","fractal_assignment":["../images/cyn_red.png","../images/ylw_slt.png","../images/org_blu.png","../images/pnk_blu.png","../images/blu_wht.png","../images/gry_blk.png"],"mutagen_generator_assignment":[0,1],"goal":3,"start":1,"action_noise":0.15,"location_history":"[1,2,1,2,1,2,3]","action_history":"[0,1,1,0,0,1]","mutagen_history":"[0,1,1,0,0,1]","location_rts":"[1761,810,789,1159,756,1049]","trial_type":"fractal-mutation","trial_index":58,"time_elapsed":1026347,"internal_node_id":"0.0-5.0-4.0"},{"group":"hexagon_bi","fractal_assignment":["../images/cyn_red.png","../images/ylw_slt.png","../images/org_blu.png","../images/pnk_blu.png","../images/blu_wht.png","../images/gry_blk.png"],"mutagen_generator_assignment":[0,1],"goal":5,"start":3,"action_noise":0.15,"location_history":"[3,4,5]","action_history":"[0,1]","mutagen_history":"[0,1]","location_rts":"[1400,703]","trial_type":"fractal-mutation","trial_index":59,"time_elapsed":1034033,"internal_node_id":"0.0-5.0-5.0"},{"group":"hexagon_bi","fractal_assignment":["../images/cyn_red.png","../images/ylw_slt.png","../images/org_blu.png","../images/pnk_blu.png","../images/blu_wht.png","../images/gry_blk.png"],"mutagen_generator_assignment":[0,1],"goal":4,"start":5,"action_noise":0.15,"location_history":"[5,0,1,0,5,4]","action_history":"[0,1,1,0,1]","mutagen_history":"[0,1,1,0,1]","location_rts":"[1040,555,1881,982,844]","trial_type":"fractal-mutation","trial_index":60,"time_elapsed":1048043,"internal_node_id":"0.0-5.0-6.0"},{"group":"hexagon_bi","fractal_assignment":["../images/cyn_red.png","../images/ylw_slt.png","../images/org_blu.png","../images/pnk_blu.png","../images/blu_wht.png","../images/gry_blk.png"],"mutagen_generator_assignment":[0,1],"goal":0,"start":4,"action_noise":0.15,"location_history":"[4,5,0]","action_history":"[1,0]","mutagen_history":"[1,0]","location_rts":"[8356,765]","trial_type":"fractal-mutation","trial_index":61,"time_elapsed":1063678,"internal_node_id":"0.0-5.0-7.0"},{"group":"hexagon_bi","fractal_assignment":["../images/cyn_red.png","../images/ylw_slt.png","../images/org_blu.png","../images/pnk_blu.png","../images/blu_wht.png","../images/gry_blk.png"],"mutagen_generator_assignment":[0,1],"goal":2,"start":0,"action_noise":0.15,"location_history":"[0,1,2]","action_history":"[1,0]","mutagen_history":"[1,0]","location_rts":"[1203,1715]","trial_type":"fractal-mutation","trial_index":62,"time_elapsed":1072231,"internal_node_id":"0.0-5.0-8.0"},{"group":"hexagon_bi","fractal_assignment":["../images/cyn_red.png","../images/ylw_slt.png","../images/org_blu.png","../images/pnk_blu.png","../images/blu_wht.png","../images/gry_blk.png"],"mutagen_generator_assignment":[0,1],"goal":4,"start":2,"action_noise":0.15,"location_history":"[2,1,2,3,4]","action_history":"[0,1,1,0]","mutagen_history":"[0,1,1,0]","location_rts":"[1738,582,935,1166]","trial_type":"fractal-mutation","trial_index":63,"time_elapsed":1084337,"internal_node_id":"0.0-5.0-9.0"},{"group":"hexagon_bi","fractal_assignment":["../images/cyn_red.png","../images/ylw_slt.png","../images/org_blu.png","../images/pnk_blu.png","../images/blu_wht.png","../images/gry_blk.png"],"mutagen_generator_assignment":[0,1],"goal":2,"start":4,"action_noise":0.15,"location_history":"[4,5,4,3,2]","action_history":"[1,0,0,1]","mutagen_history":"[1,0,0,1]","location_rts":"[1336,665,1200,780]","trial_type":"fractal-mutation","trial_index":64,"time_elapsed":1095987,"internal_node_id":"0.0-5.0-10.0"},{"group":"hexagon_bi","fractal_assignment":["../images/cyn_red.png","../images/ylw_slt.png","../images/org_blu.png","../images/pnk_blu.png","../images/blu_wht.png","../images/gry_blk.png"],"mutagen_generator_assignment":[0,1],"goal":3,"start":2,"action_noise":0.15,"location_history":"[2,1,2,3]","action_history":"[0,1,1]","mutagen_history":"[0,1,1]","location_rts":"[1293,726,642]","trial_type":"fractal-mutation","trial_index":65,"time_elapsed":1105371,"internal_node_id":"0.0-5.0-11.0"},{"group":"hexagon_bi","fractal_assignment":["../images/cyn_red.png","../images/ylw_slt.png","../images/org_blu.png","../images/pnk_blu.png","../images/blu_wht.png","../images/gry_blk.png"],"mutagen_generator_assignment":[0,1],"goal":0,"start":3,"action_noise":0.15,"location_history":"[3,4,5,0]","action_history":"[0,1,0]","mutagen_history":"[0,1,0]","location_rts":"[1166,686,646]","trial_type":"fractal-mutation","trial_index":66,"time_elapsed":1114504,"internal_node_id":"0.0-5.0-12.0"},{"group":"hexagon_bi","fractal_assignment":["../images/cyn_red.png","../images/ylw_slt.png","../images/org_blu.png","../images/pnk_blu.png","../images/blu_wht.png","../images/gry_blk.png"],"mutagen_generator_assignment":[0,1],"goal":5,"start":0,"action_noise":0.15,"location_history":"[0,1,2,3,4,5]","action_history":"[1,0,1,0,1]","mutagen_history":"[1,0,1,0,1]","location_rts":"[1080,759,797,700,710]","trial_type":"fractal-mutation","trial_index":67,"time_elapsed":1127300,"internal_node_id":"0.0-5.0-13.0"},{"group":"hexagon_bi","fractal_assignment":["../images/cyn_red.png","../images/ylw_slt.png","../images/org_blu.png","../images/pnk_blu.png","../images/blu_wht.png","../images/gry_blk.png"],"mutagen_generator_assignment":[0,1],"goal":1,"start":5,"action_noise":0.15,"location_history":"[5,0,1]","action_history":"[0,1]","mutagen_history":"[0,1]","location_rts":"[917,984]","trial_type":"fractal-mutation","trial_index":68,"time_elapsed":1134856,"internal_node_id":"0.0-5.0-14.0"},{"group":"hexagon_bi","fractal_assignment":["../images/cyn_red.png","../images/ylw_slt.png","../images/org_blu.png","../images/pnk_blu.png","../images/blu_wht.png","../images/gry_blk.png"],"mutagen_generator_assignment":[0,1],"goal":5,"start":1,"action_noise":0.15,"location_history":"[1,2,3,2,1,0,5]","action_history":"[0,1,1,0,1,0]","mutagen_history":"[0,1,1,0,1,0]","location_rts":"[1382,820,934,722,638,788]","trial_type":"fractal-mutation","trial_index":69,"time_elapsed":1149929,"internal_node_id":"0.0-5.0-15.0"},{"group":"hexagon_bi","fractal_assignment":["../images/cyn_red.png","../images/ylw_slt.png","../images/org_blu.png","../images/pnk_blu.png","../images/blu_wht.png","../images/gry_blk.png"],"mutagen_generator_assignment":[0,1],"goal":3,"start":5,"action_noise":0.15,"location_history":"[5,0,5,0,5,4,5,4,3]","action_history":"[1,0,0,0,1,0,1,1]","mutagen_history":"[1,0,0,0,1,0,1,1]","location_rts":"[2023,712,592,1667,428,828,981,528]","trial_type":"fractal-mutation","trial_index":70,"time_elapsed":1169702,"internal_node_id":"0.0-5.0-16.0"},{"group":"hexagon_bi","fractal_assignment":["../images/cyn_red.png","../images/ylw_slt.png","../images/org_blu.png","../images/pnk_blu.png","../images/blu_wht.png","../images/gry_blk.png"],"mutagen_generator_assignment":[0,1],"goal":2,"start":3,"action_noise":0.15,"location_history":"[3,4,5,0,1,0,1,2]","action_history":"[0,1,0,1,1,1,0]","mutagen_history":"[0,1,0,1,1,1,0]","location_rts":"[1913,624,999,769,1057,583,341]","trial_type":"fractal-mutation","trial_index":71,"time_elapsed":1186759,"internal_node_id":"0.0-5.0-17.0"},{"group":"hexagon_bi","fractal_assignment":["../images/cyn_red.png","../images/ylw_slt.png","../images/org_blu.png","../images/pnk_blu.png","../images/blu_wht.png","../images/gry_blk.png"],"mutagen_generator_assignment":[0,1],"goal":1,"start":2,"action_noise":0.15,"location_history":"[2,1]","action_history":"[1]","mutagen_history":"[1]","location_rts":"[1389]","trial_type":"fractal-mutation","trial_index":72,"time_elapsed":1192690,"internal_node_id":"0.0-5.0-18.0"},{"group":"hexagon_bi","fractal_assignment":["../images/cyn_red.png","../images/ylw_slt.png","../images/org_blu.png","../images/pnk_blu.png","../images/blu_wht.png","../images/gry_blk.png"],"mutagen_generator_assignment":[0,1],"goal":4,"start":1,"action_noise":0.15,"location_history":"[1,2,3,2,3,2,1,2,1,0,5,4]","action_history":"[0,1,0,1,1,0,0,0,1,0,1]","mutagen_history":"[0,1,0,1,1,0,0,0,1,0,1]","location_rts":"[1341,747,833,761,640,941,579,605,338,604,672]","trial_type":"fractal-mutation","trial_index":73,"time_elapsed":1215695,"internal_node_id":"0.0-5.0-19.0"},{"group":"hexagon_bi","fractal_assignment":["../images/cyn_red.png","../images/ylw_slt.png","../images/org_blu.png","../images/pnk_blu.png","../images/blu_wht.png","../images/gry_blk.png"],"mutagen_generator_assignment":[0,1],"goal":0,"start":4,"action_noise":0.15,"location_history":"[4,5,0]","action_history":"[1,0]","mutagen_history":"[1,0]","location_rts":"[1327,699]","trial_type":"fractal-mutation","trial_index":74,"time_elapsed":1223346,"internal_node_id":"0.0-5.0-20.0"},{"group":"hexagon_bi","fractal_assignment":["../images/cyn_red.png","../images/ylw_slt.png","../images/org_blu.png","../images/pnk_blu.png","../images/blu_wht.png","../images/gry_blk.png"],"mutagen_generator_assignment":[0,1],"goal":3,"start":0,"action_noise":0.15,"location_history":"[0,1,2,3]","action_history":"[1,0,1]","mutagen_history":"[1,0,1]","location_rts":"[1285,779,619]","trial_type":"fractal-mutation","trial_index":75,"time_elapsed":1232659,"internal_node_id":"0.0-5.0-21.0"},{"group":"hexagon_bi","fractal_assignment":["../images/cyn_red.png","../images/ylw_slt.png","../images/org_blu.png","../images/pnk_blu.png","../images/blu_wht.png","../images/gry_blk.png"],"mutagen_generator_assignment":[0,1],"goal":1,"start":3,"action_noise":0.15,"location_history":"[3,4,5,0,1]","action_history":"[0,1,0,1]","mutagen_history":"[0,1,0,1]","location_rts":"[1371,696,1120,894]","trial_type":"fractal-mutation","trial_index":76,"time_elapsed":1244423,"internal_node_id":"0.0-5.0-22.0"},{"group":"hexagon_bi","fractal_assignment":["../images/cyn_red.png","../images/ylw_slt.png","../images/org_blu.png","../images/pnk_blu.png","../images/blu_wht.png","../images/gry_blk.png"],"mutagen_generator_assignment":[0,1],"goal":0,"start":1,"action_noise":0.15,"location_history":"[1,0]","action_history":"[1]","mutagen_history":"[1]","location_rts":"[786]","trial_type":"fractal-mutation","trial_index":77,"time_elapsed":1249780,"internal_node_id":"0.0-5.0-23.0"},{"group":"hexagon_bi","fractal_assignment":["../images/cyn_red.png","../images/ylw_slt.png","../images/org_blu.png","../images/pnk_blu.png","../images/blu_wht.png","../images/gry_blk.png"],"mutagen_generator_assignment":[0,1],"goal":2,"start":0,"action_noise":0.15,"location_history":"[0,5,4,3,2]","action_history":"[0,1,0,1]","mutagen_history":"[0,1,0,1]","location_rts":"[860,646,657,627]","trial_type":"fractal-mutation","trial_index":78,"time_elapsed":1260222,"internal_node_id":"0.0-5.0-24.0"},{"group":"hexagon_bi","fractal_assignment":["../images/cyn_red.png","../images/ylw_slt.png","../images/org_blu.png","../images/pnk_blu.png","../images/blu_wht.png","../images/gry_blk.png"],"mutagen_generator_assignment":[0,1],"goal":4,"start":2,"action_noise":0.15,"location_history":"[2,1,0,5,4]","action_history":"[0,1,0,1]","mutagen_history":"[0,1,0,1]","location_rts":"[1106,518,681,567]","trial_type":"fractal-mutation","trial_index":79,"time_elapsed":1270731,"internal_node_id":"0.0-5.0-25.0"},{"group":"hexagon_bi","fractal_assignment":["../images/cyn_red.png","../images/ylw_slt.png","../images/org_blu.png","../images/pnk_blu.png","../images/blu_wht.png","../images/gry_blk.png"],"mutagen_generator_assignment":[0,1],"goal":5,"start":4,"action_noise":0.15,"location_history":"[4,5]","action_history":"[1]","mutagen_history":"[1]","location_rts":"[1436]","trial_type":"fractal-mutation","trial_index":80,"time_elapsed":1276726,"internal_node_id":"0.0-5.0-26.0"},{"group":"hexagon_bi","fractal_assignment":["../images/cyn_red.png","../images/ylw_slt.png","../images/org_blu.png","../images/pnk_blu.png","../images/blu_wht.png","../images/gry_blk.png"],"mutagen_generator_assignment":[0,1],"goal":2,"start":5,"action_noise":0.15,"location_history":"[5,4,5,4,5,0,1,2]","action_history":"[0,1,1,1,0,1,0]","mutagen_history":"[0,1,1,1,0,1,0]","location_rts":"[1080,604,491,521,353,1630,726]","trial_type":"fractal-mutation","trial_index":81,"time_elapsed":1292894,"internal_node_id":"0.0-5.0-27.0"},{"group":"hexagon_bi","fractal_assignment":["../images/cyn_red.png","../images/ylw_slt.png","../images/org_blu.png","../images/pnk_blu.png","../images/blu_wht.png","../images/gry_blk.png"],"mutagen_generator_assignment":[0,1],"goal":3,"start":2,"action_noise":0.15,"location_history":"[2,3]","action_history":"[1]","mutagen_history":"[1]","location_rts":"[9903]","trial_type":"fractal-mutation","trial_index":82,"time_elapsed":1307391,"internal_node_id":"0.0-5.0-28.0"},{"group":"hexagon_bi","fractal_assignment":["../images/cyn_red.png","../images/ylw_slt.png","../images/org_blu.png","../images/pnk_blu.png","../images/blu_wht.png","../images/gry_blk.png"],"mutagen_generator_assignment":[0,1],"goal":1,"start":3,"action_noise":0.15,"location_history":"[3,4,5,0,1]","action_history":"[0,1,0,1]","mutagen_history":"[0,1,0,1]","location_rts":"[1400,501,744,648]","trial_type":"fractal-mutation","trial_index":83,"time_elapsed":1318399,"internal_node_id":"0.0-5.0-29.0"},{"group":"hexagon_bi","fractal_assignment":["../images/cyn_red.png","../images/ylw_slt.png","../images/org_blu.png","../images/pnk_blu.png","../images/blu_wht.png","../images/gry_blk.png"],"mutagen_generator_assignment":[0,1],"goal":4,"start":1,"action_noise":0.15,"location_history":"[1,2,1,2,1,2,1,0,5,4]","action_history":"[0,1,1,0,0,0,1,0,1]","mutagen_history":"[0,1,1,0,0,0,1,0,1]","location_rts":"[2864,569,586,775,1004,749,509,1594,570]","trial_type":"fractal-mutation","trial_index":84,"time_elapsed":1340459,"internal_node_id":"0.0-5.0-30.0"},{"group":"hexagon_bi","fractal_assignment":["../images/cyn_red.png","../images/ylw_slt.png","../images/org_blu.png","../images/pnk_blu.png","../images/blu_wht.png","../images/gry_blk.png"],"mutagen_generator_assignment":[0,1],"goal":5,"start":4,"action_noise":0.15,"location_history":"[4,3,4,5]","action_history":"[0,1,1]","mutagen_history":"[0,1,1]","location_rts":"[1620,651,732]","trial_type":"fractal-mutation","trial_index":85,"time_elapsed":1350116,"internal_node_id":"0.0-5.0-31.0"},{"group":"hexagon_bi","fractal_assignment":["../images/cyn_red.png","../images/ylw_slt.png","../images/org_blu.png","../images/pnk_blu.png","../images/blu_wht.png","../images/gry_blk.png"],"mutagen_generator_assignment":[0,1],"goal":0,"start":5,"action_noise":0.15,"location_history":"[5,0]","action_history":"[0]","mutagen_history":"[0]","location_rts":"[840]","trial_type":"fractal-mutation","trial_index":86,"time_elapsed":1355507,"internal_node_id":"0.0-5.0-32.0"},{"group":"hexagon_bi","fractal_assignment":["../images/cyn_red.png","../images/ylw_slt.png","../images/org_blu.png","../images/pnk_blu.png","../images/blu_wht.png","../images/gry_blk.png"],"mutagen_generator_assignment":[0,1],"goal":2,"start":0,"action_noise":0.15,"location_history":"[0,1,2]","action_history":"[1,0]","mutagen_history":"[1,0]","location_rts":"[1156,912]","trial_type":"fractal-mutation","trial_index":87,"time_elapsed":1363148,"internal_node_id":"0.0-5.0-33.0"},{"group":"hexagon_bi","fractal_assignment":["../images/cyn_red.png","../images/ylw_slt.png","../images/org_blu.png","../images/pnk_blu.png","../images/blu_wht.png","../images/gry_blk.png"],"mutagen_generator_assignment":[0,1],"goal":0,"start":2,"action_noise":0.15,"location_history":"[2,3,4,3,2,3,2,3,2,1,0]","action_history":"[1,0,0,1,1,0,1,1,0,1]","mutagen_history":"[1,0,0,1,1,0,1,1,0,1]","location_rts":"[505,756,824,702,765,890,540,1321,620,1816]","trial_type":"fractal-mutation","trial_index":88,"time_elapsed":1385854,"internal_node_id":"0.0-5.0-34.0"},{"group":"hexagon_bi","fractal_assignment":["../images/cyn_red.png","../images/ylw_slt.png","../images/org_blu.png","../images/pnk_blu.png","../images/blu_wht.png","../images/gry_blk.png"],"mutagen_generator_assignment":[0,1],"goal":5,"start":0,"action_noise":0.15,"location_history":"[0,5]","action_history":"[0]","mutagen_history":"[0]","location_rts":"[1046]","trial_type":"fractal-mutation","trial_index":89,"time_elapsed":1391574,"internal_node_id":"0.0-5.0-35.0"},{"group":"hexagon_bi","fractal_assignment":["../images/cyn_red.png","../images/ylw_slt.png","../images/org_blu.png","../images/pnk_blu.png","../images/blu_wht.png","../images/gry_blk.png"],"mutagen_generator_assignment":[0,1],"goal":1,"start":5,"action_noise":0.15,"location_history":"[5,4,3,2,1]","action_history":"[1,0,1,0]","mutagen_history":"[1,0,1,0]","location_rts":"[899,1045,580,682]","trial_type":"fractal-mutation","trial_index":90,"time_elapsed":1402434,"internal_node_id":"0.0-5.0-36.0"},{"group":"hexagon_bi","fractal_assignment":["../images/cyn_red.png","../images/ylw_slt.png","../images/org_blu.png","../images/pnk_blu.png","../images/blu_wht.png","../images/gry_blk.png"],"mutagen_generator_assignment":[0,1],"goal":4,"start":1,"action_noise":0.15,"location_history":"[1,2,3,2,3,4]","action_history":"[1,0,1,1,0]","mutagen_history":"[1,0,1,1,0]","location_rts":"[7162,480,547,794,531]","trial_type":"fractal-mutation","trial_index":91,"time_elapsed":1420655,"internal_node_id":"0.0-5.0-37.0"},{"group":"hexagon_bi","fractal_assignment":["../images/cyn_red.png","../images/ylw_slt.png","../images/org_blu.png","../images/pnk_blu.png","../images/blu_wht.png","../images/gry_blk.png"],"mutagen_generator_assignment":[0,1],"goal":3,"start":4,"action_noise":0.15,"location_history":"[4,3]","action_history":"[1]","mutagen_history":"[1]","location_rts":"[2206]","trial_type":"fractal-mutation","trial_index":92,"time_elapsed":1427405,"internal_node_id":"0.0-5.0-38.0"},{"group":"hexagon_bi","fractal_assignment":["../images/cyn_red.png","../images/ylw_slt.png","../images/org_blu.png","../images/pnk_blu.png","../images/blu_wht.png","../images/gry_blk.png"],"mutagen_generator_assignment":[0,1],"goal":5,"start":3,"action_noise":0.15,"location_history":"[3,4,3,2,1,0,1,2,1,0,5]","action_history":"[0,1,1,0,1,1,1,0,1,0]","mutagen_history":"[0,1,1,0,1,1,1,0,1,0]","location_rts":"[887,706,524,777,786,993,564,642,554,1382]","trial_type":"fractal-mutation","trial_index":93,"time_elapsed":1449112,"internal_node_id":"0.0-5.0-39.0"},{"group":"hexagon_bi","fractal_assignment":["../images/cyn_red.png","../images/ylw_slt.png","../images/org_blu.png","../images/pnk_blu.png","../images/blu_wht.png","../images/gry_blk.png"],"mutagen_generator_assignment":[0,1],"goal":1,"start":5,"action_noise":0.15,"location_history":"[5,4,3,2,1]","action_history":"[1,0,1,0]","mutagen_history":"[1,0,1,0]","location_rts":"[716,872,638,489]","trial_type":"fractal-mutation","trial_index":94,"time_elapsed":1459554,"internal_node_id":"0.0-5.0-40.0"},{"group":"hexagon_bi","fractal_assignment":["../images/cyn_red.png","../images/ylw_slt.png","../images/org_blu.png","../images/pnk_blu.png","../images/blu_wht.png","../images/gry_blk.png"],"mutagen_generator_assignment":[0,1],"goal":2,"start":1,"action_noise":0.15,"location_history":"[1,2]","action_history":"[0]","mutagen_history":"[0]","location_rts":"[1626]","trial_type":"fractal-mutation","trial_index":95,"time_elapsed":1465715,"internal_node_id":"0.0-5.0-41.0"},{"group":"hexagon_bi","fractal_assignment":["../images/cyn_red.png","../images/ylw_slt.png","../images/org_blu.png","../images/pnk_blu.png","../images/blu_wht.png","../images/gry_blk.png"],"mutagen_generator_assignment":[0,1],"goal":4,"start":2,"action_noise":0.15,"location_history":"[2,3,4]","action_history":"[1,0]","mutagen_history":"[1,0]","location_rts":"[1046,699]","trial_type":"fractal-mutation","trial_index":96,"time_elapsed":1473045,"internal_node_id":"0.0-5.0-42.0"},{"group":"hexagon_bi","fractal_assignment":["../images/cyn_red.png","../images/ylw_slt.png","../images/org_blu.png","../images/pnk_blu.png","../images/blu_wht.png","../images/gry_blk.png"],"mutagen_generator_assignment":[0,1],"goal":0,"start":4,"action_noise":0.15,"location_history":"[4,5,0]","action_history":"[1,0]","mutagen_history":"[1,0]","location_rts":"[2118,34149]","trial_type":"fractal-mutation","trial_index":97,"time_elapsed":1514891,"internal_node_id":"0.0-5.0-43.0"},{"group":"hexagon_bi","fractal_assignment":["../images/cyn_red.png","../images/ylw_slt.png","../images/org_blu.png","../images/pnk_blu.png","../images/blu_wht.png","../images/gry_blk.png"],"mutagen_generator_assignment":[0,1],"goal":3,"start":0,"action_noise":0.15,"location_history":"[0,1,2,3]","action_history":"[1,0,1]","mutagen_history":"[1,0,1]","location_rts":"[927,846,634]","trial_type":"fractal-mutation","trial_index":98,"time_elapsed":1524000,"internal_node_id":"0.0-5.0-44.0"},{"group":"hexagon_bi","fractal_assignment":["../images/cyn_red.png","../images/ylw_slt.png","../images/org_blu.png","../images/pnk_blu.png","../images/blu_wht.png","../images/gry_blk.png"],"mutagen_generator_assignment":[0,1],"goal":0,"start":3,"action_noise":0.15,"location_history":"[3,2,1,0]","action_history":"[1,0,1]","mutagen_history":"[1,0,1]","location_rts":"[29148,661,1316]","trial_type":"fractal-mutation","trial_index":99,"time_elapsed":1561839,"internal_node_id":"0.0-5.0-45.0"},{"group":"hexagon_bi","fractal_assignment":["../images/cyn_red.png","../images/ylw_slt.png","../images/org_blu.png","../images/pnk_blu.png","../images/blu_wht.png","../images/gry_blk.png"],"mutagen_generator_assignment":[0,1],"goal":4,"start":0,"action_noise":0.15,"location_history":"[0,5,4]","action_history":"[0,1]","mutagen_history":"[0,1]","location_rts":"[1043,505]","trial_type":"fractal-mutation","trial_index":100,"time_elapsed":1568978,"internal_node_id":"0.0-5.0-46.0"},{"group":"hexagon_bi","fractal_assignment":["../images/cyn_red.png","../images/ylw_slt.png","../images/org_blu.png","../images/pnk_blu.png","../images/blu_wht.png","../images/gry_blk.png"],"mutagen_generator_assignment":[0,1],"goal":5,"start":4,"action_noise":0.15,"location_history":"[4,5]","action_history":"[1]","mutagen_history":"[1]","location_rts":"[871]","trial_type":"fractal-mutation","trial_index":101,"time_elapsed":1574403,"internal_node_id":"0.0-5.0-47.0"},{"group":"hexagon_bi","fractal_assignment":["../images/cyn_red.png","../images/ylw_slt.png","../images/org_blu.png","../images/pnk_blu.png","../images/blu_wht.png","../images/gry_blk.png"],"mutagen_generator_assignment":[0,1],"goal":2,"start":5,"action_noise":0.15,"location_history":"[5,0,1,0,5,0,5,0,5,0,5,0,5,0,1,0,1,0,5,0,1,0,1,2]","action_history":"[0,1,1,0,1,0,0,1,0,0,0,0,1,1,0,1,1,1,0,1,1,1,0]","mutagen_history":"[0,1,1,0,1,0,0,1,0,0,0,0,1,1,0,1,1,1,0,1,1,1,0]","location_rts":"[841,718,566,580,607,2033,564,1124,738,399,517,801,337,959,461,1052,1016,686,489,585,1059,1413,477]","trial_type":"fractal-mutation","trial_index":102,"time_elapsed":1620202,"internal_node_id":"0.0-5.0-48.0"},{"group":"hexagon_bi","fractal_assignment":["../images/cyn_red.png","../images/ylw_slt.png","../images/org_blu.png","../images/pnk_blu.png","../images/blu_wht.png","../images/gry_blk.png"],"mutagen_generator_assignment":[0,1],"goal":1,"start":2,"action_noise":0.15,"location_history":"[2,3,4,3,2,1]","action_history":"[1,0,0,1,0]","mutagen_history":"[1,0,0,1,0]","location_rts":"[1351,892,935,585,1030]","trial_type":"fractal-mutation","trial_index":103,"time_elapsed":1633689,"internal_node_id":"0.0-5.0-49.0"},{"view_history":"[{\"page_index\":0,\"viewing_time\":2780}]","rt":2781,"trial_type":"instructions","trial_index":104,"time_elapsed":1637471,"internal_node_id":"0.0-6.0"},{"rt":41586,"responses":"{\"Q0\":\"If we could remember patterns from the decisions we made\"}","trial_type":"survey-text","trial_index":105,"time_elapsed":1680064,"internal_node_id":"0.0-7.0-0.0"},{"rt":27697,"responses":"{\"Q0\":\"If we picked up on patterns from the decisions we made\\n\"}","trial_type":"survey-text","trial_index":106,"time_elapsed":1708766,"internal_node_id":"0.0-7.0-1.0"},{"rt":24564,"responses":"{\"Q0\":\"<img src='../images/diagrams/hexagon_tri.png'>\"}","trial_type":"survey-multi-choice","trial_index":107,"time_elapsed":1734348,"internal_node_id":"0.0-7.0-2.0"},{"rt":33165,"assignments":["../images/cyn_red.png","../images/ylw_slt.png","../images/org_blu.png","../images/blu_wht.png","../images/pnk_blu.png","../images/gry_blk.png"],"trial_type":"drag-drop-on-image","trial_index":108,"time_elapsed":1768516,"internal_node_id":"0.0-7.0-3.0"},{"rt":4818,"responses":"{\"Q0\":\"3\"}","trial_type":"survey-likert","trial_index":109,"time_elapsed":1774337,"internal_node_id":"0.0-7.0-4.0"},{"rt":30397,"responses":"{\"Q0\":\"they both followed patterns depending on the option chosen. \"}","trial_type":"survey-text","trial_index":110,"time_elapsed":1805739,"internal_node_id":"0.0-7.0-5.0"},{"rt":5762,"responses":"{\"Q0\":\"Yes\"}","trial_type":"survey-multi-choice","trial_index":111,"time_elapsed":1812506,"internal_node_id":"0.0-7.0-6.0"},{"rt":5782,"responses":"{\"Q0\":\"During session 1\"}","trial_type":"survey-multi-choice","trial_index":112,"time_elapsed":1819293,"internal_node_id":"0.0-7.0-7.0"},{"rt":45886,"responses":"{\"Q0\":\"With the rooms, a certain door took you to a certain room or in a circle. With the 2nd game, it did the same thing. \"}","trial_type":"survey-text","trial_index":113,"time_elapsed":1866183,"internal_node_id":"0.0-7.0-8.0"},{"rt":4018,"responses":"{\"Q0\":\"2\"}","trial_type":"survey-likert","trial_index":114,"time_elapsed":1871207,"internal_node_id":"0.0-7.0-9.0"},{"rt":10211,"responses":"{\"Q0\":\"Same structure\"}","trial_type":"survey-multi-choice","trial_index":115,"time_elapsed":1882422,"internal_node_id":"0.0-7.0-10.0"},{"rt":40794,"responses":"{\"Q0\":\"left (white) door = acid, right (black) door = ray\",\"Q1\":\"Moderately confident\"}","trial_type":"survey-multi-choice","trial_index":116,"time_elapsed":1924227,"internal_node_id":"0.0-7.0-11.0"},{"rt":10601,"responses":"{\"Q0\":\"35-45\",\"Q1\":\"Some college\",\"Q2\":\"Female\",\"Q3\":\"White\"}","trial_type":"survey-multi-choice","trial_index":117,"time_elapsed":1935855,"internal_node_id":"0.0-8.0"},{"rt":2636,"responses":"{\"Q0\":\"\"}","trial_type":"survey-text","trial_index":118,"time_elapsed":1939493,"internal_node_id":"0.0-9.0"}]