[{"view_history":"[{\"page_index\":0,\"viewing_time\":1826},{\"page_index\":1,\"viewing_time\":3187}]","rt":5013,"trial_type":"instructions","trial_index":0,"time_elapsed":5014,"internal_node_id":"0.0-0.0"},{"view_history":"[{\"page_index\":0,\"viewing_time\":4819},{\"page_index\":1,\"viewing_time\":1149}]","rt":5968,"trial_type":"instructions","trial_index":1,"time_elapsed":11984,"internal_node_id":"0.0-1.0"},{"group":"hexagon_bi","room_assignment":["green","purple","blue","yellow","grey","red"],"door_color_assignment":["white","black"],"door_generator_assignment":[0,1],"goal":2,"start":1,"action_noise":0.15,"location_history":"[1,2]","action_history":"[0]","door_history":"[0]","location_rts":"[1397]","trial_type":"two-door-navigation","trial_index":2,"time_elapsed":17944,"internal_node_id":"0.0-2.0-0.0"},{"group":"hexagon_bi","room_assignment":["green","purple","blue","yellow","grey","red"],"door_color_assignment":["white","black"],"door_generator_assignment":[0,1],"goal":0,"start":2,"action_noise":0.15,"location_history":"[2,3,4,3,4,5,0]","action_history":"[1,0,0,0,1,0]","door_history":"[1,0,0,0,1,0]","location_rts":"[2287,1171,786,406,281,823]","trial_type":"two-door-navigation","trial_index":3,"time_elapsed":33546,"internal_node_id":"0.0-2.0-1.0"},{"group":"hexagon_bi","room_assignment":["green","purple","blue","yellow","grey","red"],"door_color_assignment":["white","black"],"door_generator_assignment":[0,1],"goal":5,"start":0,"action_noise":0.15,"location_history":"[0,5]","action_history":"[0]","door_history":"[0]","location_rts":"[20950]","trial_type":"two-door-navigation","trial_index":4,"time_elapsed":59059,"internal_node_id":"0.0-2.0-2.0"},{"group":"hexagon_bi","room_assignment":["green","purple","blue","yellow","grey","red"],"door_color_assignment":["white","black"],"door_generator_assignment":[0,1],"goal":1,"start":5,"action_noise":0.15,"location_history":"[5,4,3,4,3,2,3,4,5,4,5,4,3,4,5,4,3,4,3,4,5,4,5,0,1]","action_history":"[1,0,0,0,1,0,0,1,0,1,1,0,0,1,1,1,0,0,0,1,1,1,0,1]","door_history":"[1,0,0,0,1,0,0,1,0,1,1,0,0,1,1,1,0,0,0,1,1,1,0,1]","location_rts":"[1995,868,652,666,292,493,2581,532,512,696,502,542,234,892,618,567,242,601,353,263,413,509,477,2086]","trial_type":"two-door-navigation","trial_index":5,"time_elapsed":105336,"internal_node_id":"0.0-2.0-3.0"},{"group":"hexagon_bi","room_assignment":["green","purple","blue","yellow","grey","red"],"door_color_assignment":["white","black"],"door_generator_assignment":[0,1],"goal":3,"start":1,"action_noise":0.15,"location_history":"[1,0,1,0,5,4,3]","action_history":"[1,1,1,0,1,0]","door_history":"[1,1,1,0,1,0]","location_rts":"[4086,1064,923,223,223,2300]","trial_type":"two-door-navigation","trial_index":6,"time_elapsed":123974,"internal_node_id":"0.0-2.0-4.0"},{"group":"hexagon_bi","room_assignment":["green","purple","blue","yellow","grey","red"],"door_color_assignment":["white","black"],"door_generator_assignment":[0,1],"goal":5,"start":3,"action_noise":0.15,"location_history":"[3,2,1,0,1,2,3,2,1,0,5]","action_history":"[1,0,1,0,0,1,1,0,1,0]","door_history":"[1,0,1,0,0,1,1,0,1,0]","location_rts":"[1364,1337,98,1064,1940,3679,1044,222,249,959]","trial_type":"two-door-navigation","trial_index":7,"time_elapsed":150012,"internal_node_id":"0.0-2.0-5.0"},{"group":"hexagon_bi","room_assignment":["green","purple","blue","yellow","grey","red"],"door_color_assignment":["white","black"],"door_generator_assignment":[0,1],"goal":4,"start":5,"action_noise":0.15,"location_history":"[5,4]","action_history":"[1]","door_history":"[1]","location_rts":"[1561]","trial_type":"two-door-navigation","trial_index":8,"time_elapsed":156152,"internal_node_id":"0.0-2.0-6.0"},{"group":"hexagon_bi","room_assignment":["green","purple","blue","yellow","grey","red"],"door_color_assignment":["white","black"],"door_generator_assignment":[0,1],"goal":0,"start":4,"action_noise":0.15,"location_history":"[4,5,4,3,2,3,2,3,2,3,4,5,0]","action_history":"[1,0,0,1,1,0,1,1,1,0,1,0]","door_history":"[1,0,0,1,1,0,1,1,1,0,1,0]","location_rts":"[1091,321,1004,812,912,227,342,573,479,753,712,286]","trial_type":"two-door-navigation","trial_index":9,"time_elapsed":179804,"internal_node_id":"0.0-2.0-7.0"},{"group":"hexagon_bi","room_assignment":["green","purple","blue","yellow","grey","red"],"door_color_assignment":["white","black"],"door_generator_assignment":[0,1],"goal":2,"start":0,"action_noise":0.15,"location_history":"[0,1,2]","action_history":"[1,0]","door_history":"[1,0]","location_rts":"[2170,548]","trial_type":"two-door-navigation","trial_index":10,"time_elapsed":188146,"internal_node_id":"0.0-2.0-8.0"},{"group":"hexagon_bi","room_assignment":["green","purple","blue","yellow","grey","red"],"door_color_assignment":["white","black"],"door_generator_assignment":[0,1],"goal":4,"start":2,"action_noise":0.15,"location_history":"[2,1,0,1,0,5,4]","action_history":"[0,1,1,1,0,1]","door_history":"[0,1,1,1,0,1]","location_rts":"[1999,111,838,552,375,160]","trial_type":"two-door-navigation","trial_index":11,"time_elapsed":201983,"internal_node_id":"0.0-2.0-9.0"},{"group":"hexagon_bi","room_assignment":["green","purple","blue","yellow","grey","red"],"door_color_assignment":["white","black"],"door_generator_assignment":[0,1],"goal":2,"start":4,"action_noise":0.15,"location_history":"[4,5,0,5,4,3,4,5,4,3,4,3,4,3,4,5,4,3,4,3,2]","action_history":"[1,1,0,1,0,0,1,1,0,0,0,1,1,0,1,1,0,0,0,1]","door_history":"[1,1,0,1,0,0,1,1,0,0,0,1,1,0,1,1,0,0,0,1]","location_rts":"[2196,1230,1462,342,939,1504,201,980,552,2420,393,85,835,662,337,888,572,766,527,177]","trial_type":"two-door-navigation","trial_index":12,"time_elapsed":243785,"internal_node_id":"0.0-2.0-10.0"},{"group":"hexagon_bi","room_assignment":["green","purple","blue","yellow","grey","red"],"door_color_assignment":["white","black"],"door_generator_assignment":[0,1],"goal":3,"start":2,"action_noise":0.15,"location_history":"[2,3]","action_history":"[1]","door_history":"[1]","location_rts":"[3351]","trial_type":"two-door-navigation","trial_index":13,"time_elapsed":251708,"internal_node_id":"0.0-2.0-11.0"},{"group":"hexagon_bi","room_assignment":["green","purple","blue","yellow","grey","red"],"door_color_assignment":["white","black"],"door_generator_assignment":[0,1],"goal":0,"start":3,"action_noise":0.15,"location_history":"[3,2,1,0]","action_history":"[1,0,1]","door_history":"[1,0,1]","location_rts":"[1128,830,69]","trial_type":"two-door-navigation","trial_index":14,"time_elapsed":260455,"internal_node_id":"0.0-2.0-12.0"},{"group":"hexagon_bi","room_assignment":["green","purple","blue","yellow","grey","red"],"door_color_assignment":["white","black"],"door_generator_assignment":[0,1],"goal":5,"start":0,"action_noise":0.15,"location_history":"[0,5]","action_history":"[0]","door_history":"[0]","location_rts":"[1133]","trial_type":"two-door-navigation","trial_index":15,"time_elapsed":266166,"internal_node_id":"0.0-2.0-13.0"},{"group":"hexagon_bi","room_assignment":["green","purple","blue","yellow","grey","red"],"door_color_assignment":["white","black"],"door_generator_assignment":[0,1],"goal":1,"start":5,"action_noise":0.15,"location_history":"[5,4,3,2,3,4,5,4,3,2,1]","action_history":"[1,0,1,0,0,1,1,0,1,0]","door_history":"[1,0,1,0,0,1,1,0,1,0]","location_rts":"[1271,431,1322,641,2438,78,500,438,1252,1959]","trial_type":"two-door-navigation","trial_index":16,"time_elapsed":290584,"internal_node_id":"0.0-2.0-14.0"},{"group":"hexagon_bi","room_assignment":["green","purple","blue","yellow","grey","red"],"door_color_assignment":["white","black"],"door_generator_assignment":[0,1],"goal":5,"start":1,"action_noise":0.15,"location_history":"[1,2,1,0,5]","action_history":"[0,1,1,0]","door_history":"[0,1,1,0]","location_rts":"[3033,31,821,597]","trial_type":"two-door-navigation","trial_index":17,"time_elapsed":302847,"internal_node_id":"0.0-2.0-15.0"},{"group":"hexagon_bi","room_assignment":["green","purple","blue","yellow","grey","red"],"door_color_assignment":["white","black"],"door_generator_assignment":[0,1],"goal":3,"start":5,"action_noise":0.15,"location_history":"[5,4,3]","action_history":"[1,0]","door_history":"[1,0]","location_rts":"[1311,471]","trial_type":"two-door-navigation","trial_index":18,"time_elapsed":310273,"internal_node_id":"0.0-2.0-16.0"},{"group":"hexagon_bi","room_assignment":["green","purple","blue","yellow","grey","red"],"door_color_assignment":["white","black"],"door_generator_assignment":[0,1],"goal":2,"start":3,"action_noise":0.15,"location_history":"[3,2]","action_history":"[1]","door_history":"[1]","location_rts":"[5025]","trial_type":"two-door-navigation","trial_index":19,"time_elapsed":319868,"internal_node_id":"0.0-2.0-17.0"},{"group":"hexagon_bi","room_assignment":["green","purple","blue","yellow","grey","red"],"door_color_assignment":["white","black"],"door_generator_assignment":[0,1],"goal":1,"start":2,"action_noise":0.15,"location_history":"[2,1]","action_history":"[0]","door_history":"[0]","location_rts":"[3124]","trial_type":"two-door-navigation","trial_index":20,"time_elapsed":327570,"internal_node_id":"0.0-2.0-18.0"},{"group":"hexagon_bi","room_assignment":["green","purple","blue","yellow","grey","red"],"door_color_assignment":["white","black"],"door_generator_assignment":[0,1],"goal":4,"start":1,"action_noise":0.15,"location_history":"[1,0,5,4]","action_history":"[1,0,1]","door_history":"[1,0,1]","location_rts":"[4472,959,314]","trial_type":"two-door-navigation","trial_index":21,"time_elapsed":340020,"internal_node_id":"0.0-2.0-19.0"},{"group":"hexagon_bi","room_assignment":["green","purple","blue","yellow","grey","red"],"door_color_assignment":["white","black"],"door_generator_assignment":[0,1],"goal":0,"start":4,"action_noise":0.15,"location_history":"[4,5,4,5,0]","action_history":"[1,0,1,0]","door_history":"[1,0,1,0]","location_rts":"[2665,700,2962,406]","trial_type":"two-door-navigation","trial_index":22,"time_elapsed":354519,"internal_node_id":"0.0-2.0-20.0"},{"group":"hexagon_bi","room_assignment":["green","purple","blue","yellow","grey","red"],"door_color_assignment":["white","black"],"door_generator_assignment":[0,1],"goal":3,"start":0,"action_noise":0.15,"location_history":"[0,1,0,5,4,3]","action_history":"[1,1,0,1,0]","door_history":"[1,1,0,1,0]","location_rts":"[1442,1015,965,838,838]","trial_type":"two-door-navigation","trial_index":23,"time_elapsed":368447,"internal_node_id":"0.0-2.0-21.0"},{"group":"hexagon_bi","room_assignment":["green","purple","blue","yellow","grey","red"],"door_color_assignment":["white","black"],"door_generator_assignment":[0,1],"goal":1,"start":3,"action_noise":0.15,"location_history":"[3,2,1]","action_history":"[1,0]","door_history":"[1,0]","location_rts":"[2488,1032]","trial_type":"two-door-navigation","trial_index":24,"time_elapsed":377586,"internal_node_id":"0.0-2.0-22.0"},{"group":"hexagon_bi","room_assignment":["green","purple","blue","yellow","grey","red"],"door_color_assignment":["white","black"],"door_generator_assignment":[0,1],"goal":0,"start":1,"action_noise":0.15,"location_history":"[1,0]","action_history":"[1]","door_history":"[1]","location_rts":"[1019]","trial_type":"two-door-navigation","trial_index":25,"time_elapsed":383180,"internal_node_id":"0.0-2.0-23.0"},{"group":"hexagon_bi","room_assignment":["green","purple","blue","yellow","grey","red"],"door_color_assignment":["white","black"],"door_generator_assignment":[0,1],"goal":2,"start":0,"action_noise":0.15,"location_history":"[0,1,2]","action_history":"[1,0]","door_history":"[1,0]","location_rts":"[1345,682]","trial_type":"two-door-navigation","trial_index":26,"time_elapsed":390819,"internal_node_id":"0.0-2.0-24.0"},{"group":"hexagon_bi","room_assignment":["green","purple","blue","yellow","grey","red"],"door_color_assignment":["white","black"],"door_generator_assignment":[0,1],"goal":4,"start":2,"action_noise":0.15,"location_history":"[2,3,4]","action_history":"[1,0]","door_history":"[1,0]","location_rts":"[1234,925]","trial_type":"two-door-navigation","trial_index":27,"time_elapsed":398602,"internal_node_id":"0.0-2.0-25.0"},{"group":"hexagon_bi","room_assignment":["green","purple","blue","yellow","grey","red"],"door_color_assignment":["white","black"],"door_generator_assignment":[0,1],"goal":5,"start":4,"action_noise":0.15,"location_history":"[4,5]","action_history":"[1]","door_history":"[1]","location_rts":"[3176]","trial_type":"two-door-navigation","trial_index":28,"time_elapsed":406364,"internal_node_id":"0.0-2.0-26.0"},{"group":"hexagon_bi","room_assignment":["green","purple","blue","yellow","grey","red"],"door_color_assignment":["white","black"],"door_generator_assignment":[0,1],"goal":2,"start":5,"action_noise":0.15,"location_history":"[5,4,3,4,5,4,3,2]","action_history":"[1,0,1,0,1,0,1]","door_history":"[1,0,1,0,1,0,1]","location_rts":"[1624,1859,152,1556,57,556,332]","trial_type":"two-door-navigation","trial_index":29,"time_elapsed":423422,"internal_node_id":"0.0-2.0-27.0"},{"group":"hexagon_bi","room_assignment":["green","purple","blue","yellow","grey","red"],"door_color_assignment":["white","black"],"door_generator_assignment":[0,1],"goal":3,"start":2,"action_noise":0.15,"location_history":"[2,3]","action_history":"[1]","door_history":"[1]","location_rts":"[2209]","trial_type":"two-door-navigation","trial_index":30,"time_elapsed":430214,"internal_node_id":"0.0-2.0-28.0"},{"group":"hexagon_bi","room_assignment":["green","purple","blue","yellow","grey","red"],"door_color_assignment":["white","black"],"door_generator_assignment":[0,1],"goal":1,"start":3,"action_noise":0.15,"location_history":"[3,2,1]","action_history":"[1,0]","door_history":"[1,0]","location_rts":"[1139,869]","trial_type":"two-door-navigation","trial_index":31,"time_elapsed":437864,"internal_node_id":"0.0-2.0-29.0"},{"group":"hexagon_bi","room_assignment":["green","purple","blue","yellow","grey","red"],"door_color_assignment":["white","black"],"door_generator_assignment":[0,1],"goal":4,"start":1,"action_noise":0.15,"location_history":"[1,0,5,4]","action_history":"[1,0,1]","door_history":"[1,0,1]","location_rts":"[1218,1144,959]","trial_type":"two-door-navigation","trial_index":32,"time_elapsed":447874,"internal_node_id":"0.0-2.0-30.0"},{"group":"hexagon_bi","room_assignment":["green","purple","blue","yellow","grey","red"],"door_color_assignment":["white","black"],"door_generator_assignment":[0,1],"goal":5,"start":4,"action_noise":0.15,"location_history":"[4,5]","action_history":"[0]","door_history":"[0]","location_rts":"[2063]","trial_type":"two-door-navigation","trial_index":33,"time_elapsed":454520,"internal_node_id":"0.0-2.0-31.0"},{"group":"hexagon_bi","room_assignment":["green","purple","blue","yellow","grey","red"],"door_color_assignment":["white","black"],"door_generator_assignment":[0,1],"goal":0,"start":5,"action_noise":0.15,"location_history":"[5,0]","action_history":"[0]","door_history":"[0]","location_rts":"[1463]","trial_type":"two-door-navigation","trial_index":34,"time_elapsed":460568,"internal_node_id":"0.0-2.0-32.0"},{"group":"hexagon_bi","room_assignment":["green","purple","blue","yellow","grey","red"],"door_color_assignment":["white","black"],"door_generator_assignment":[0,1],"goal":2,"start":0,"action_noise":0.15,"location_history":"[0,1,2]","action_history":"[1,0]","door_history":"[1,0]","location_rts":"[1167,751]","trial_type":"two-door-navigation","trial_index":35,"time_elapsed":468133,"internal_node_id":"0.0-2.0-33.0"},{"group":"hexagon_bi","room_assignment":["green","purple","blue","yellow","grey","red"],"door_color_assignment":["white","black"],"door_generator_assignment":[0,1],"goal":0,"start":2,"action_noise":0.15,"location_history":"[2,3,4,5,0]","action_history":"[1,0,1,0]","door_history":"[1,0,1,0]","location_rts":"[1081,1220,146,134]","trial_type":"two-door-navigation","trial_index":36,"time_elapsed":478481,"internal_node_id":"0.0-2.0-34.0"},{"group":"hexagon_bi","room_assignment":["green","purple","blue","yellow","grey","red"],"door_color_assignment":["white","black"],"door_generator_assignment":[0,1],"goal":5,"start":0,"action_noise":0.15,"location_history":"[0,1,2,3,2,1,2,3,2,3,4,5]","action_history":"[0,0,1,1,1,0,1,1,1,0,1]","door_history":"[0,0,1,1,1,0,1,1,1,0,1]","location_rts":"[1302,876,395,1519,857,442,917,3480,844,216,402]","trial_type":"two-door-navigation","trial_index":37,"time_elapsed":504947,"internal_node_id":"0.0-2.0-35.0"},{"group":"hexagon_bi","room_assignment":["green","purple","blue","yellow","grey","red"],"door_color_assignment":["white","black"],"door_generator_assignment":[0,1],"goal":1,"start":5,"action_noise":0.15,"location_history":"[5,4,3,2,1]","action_history":"[1,0,1,0]","door_history":"[1,0,1,0]","location_rts":"[1168,2441,1201,864]","trial_type":"two-door-navigation","trial_index":38,"time_elapsed":518390,"internal_node_id":"0.0-2.0-36.0"},{"group":"hexagon_bi","room_assignment":["green","purple","blue","yellow","grey","red"],"door_color_assignment":["white","black"],"door_generator_assignment":[0,1],"goal":4,"start":1,"action_noise":0.15,"location_history":"[1,0,1,2,3,4]","action_history":"[1,1,0,1,0]","door_history":"[1,1,0,1,0]","location_rts":"[1779,2331,882,390,496]","trial_type":"two-door-navigation","trial_index":39,"time_elapsed":533052,"internal_node_id":"0.0-2.0-37.0"},{"group":"hexagon_bi","room_assignment":["green","purple","blue","yellow","grey","red"],"door_color_assignment":["white","black"],"door_generator_assignment":[0,1],"goal":3,"start":4,"action_noise":0.15,"location_history":"[4,3]","action_history":"[0]","door_history":"[0]","location_rts":"[1836]","trial_type":"two-door-navigation","trial_index":40,"time_elapsed":539460,"internal_node_id":"0.0-2.0-38.0"},{"group":"hexagon_bi","room_assignment":["green","purple","blue","yellow","grey","red"],"door_color_assignment":["white","black"],"door_generator_assignment":[0,1],"goal":5,"start":3,"action_noise":0.15,"location_history":"[3,2,1,0,5]","action_history":"[1,0,1,0]","door_history":"[1,0,1,0]","location_rts":"[2378,849,100,728]","trial_type":"two-door-navigation","trial_index":41,"time_elapsed":551281,"internal_node_id":"0.0-2.0-39.0"},{"group":"hexagon_bi","room_assignment":["green","purple","blue","yellow","grey","red"],"door_color_assignment":["white","black"],"door_generator_assignment":[0,1],"goal":1,"start":5,"action_noise":0.15,"location_history":"[5,4,5,0,5,4,3,4,5,4,3,2,1]","action_history":"[1,1,0,1,1,0,0,1,1,0,1,0]","door_history":"[1,1,0,1,1,0,0,1,1,0,1,0]","location_rts":"[9052,3496,827,222,944,327,898,451,649,763,462,106]","trial_type":"two-door-navigation","trial_index":42,"time_elapsed":585638,"internal_node_id":"0.0-2.0-40.0"},{"group":"hexagon_bi","room_assignment":["green","purple","blue","yellow","grey","red"],"door_color_assignment":["white","black"],"door_generator_assignment":[0,1],"goal":2,"start":1,"action_noise":0.15,"location_history":"[1,2]","action_history":"[0]","door_history":"[0]","location_rts":"[1681]","trial_type":"two-door-navigation","trial_index":43,"time_elapsed":591898,"internal_node_id":"0.0-2.0-41.0"},{"group":"hexagon_bi","room_assignment":["green","purple","blue","yellow","grey","red"],"door_color_assignment":["white","black"],"door_generator_assignment":[0,1],"goal":4,"start":2,"action_noise":0.15,"location_history":"[2,3,4]","action_history":"[1,1]","door_history":"[1,1]","location_rts":"[1817,7843]","trial_type":"two-door-navigation","trial_index":44,"time_elapsed":607189,"internal_node_id":"0.0-2.0-42.0"},{"group":"hexagon_bi","room_assignment":["green","purple","blue","yellow","grey","red"],"door_color_assignment":["white","black"],"door_generator_assignment":[0,1],"goal":0,"start":4,"action_noise":0.15,"location_history":"[4,5,0]","action_history":"[1,0]","door_history":"[1,0]","location_rts":"[7025,575]","trial_type":"two-door-navigation","trial_index":45,"time_elapsed":620423,"internal_node_id":"0.0-2.0-43.0"},{"group":"hexagon_bi","room_assignment":["green","purple","blue","yellow","grey","red"],"door_color_assignment":["white","black"],"door_generator_assignment":[0,1],"goal":3,"start":0,"action_noise":0.15,"location_history":"[0,1,2,3]","action_history":"[1,0,1]","door_history":"[1,0,1]","location_rts":"[1440,1558,1732]","trial_type":"two-door-navigation","trial_index":46,"time_elapsed":631833,"internal_node_id":"0.0-2.0-44.0"},{"group":"hexagon_bi","room_assignment":["green","purple","blue","yellow","grey","red"],"door_color_assignment":["white","black"],"door_generator_assignment":[0,1],"goal":0,"start":3,"action_noise":0.15,"location_history":"[3,2,1,0]","action_history":"[1,1,0]","door_history":"[1,1,0]","location_rts":"[5426,2940,791]","trial_type":"two-door-navigation","trial_index":47,"time_elapsed":647691,"internal_node_id":"0.0-2.0-45.0"},{"group":"hexagon_bi","room_assignment":["green","purple","blue","yellow","grey","red"],"door_color_assignment":["white","black"],"door_generator_assignment":[0,1],"goal":4,"start":0,"action_noise":0.15,"location_history":"[0,5,0,1,0,1,2,3,2,1,2,3,4]","action_history":"[1,0,1,1,1,0,1,0,0,0,1,0]","door_history":"[1,0,1,1,1,0,1,0,0,0,1,0]","location_rts":"[1230,837,1336,868,1295,9555,549,426,2202,384,112,149]","trial_type":"two-door-navigation","trial_index":48,"time_elapsed":682853,"internal_node_id":"0.0-2.0-46.0"},{"group":"hexagon_bi","room_assignment":["green","purple","blue","yellow","grey","red"],"door_color_assignment":["white","black"],"door_generator_assignment":[0,1],"goal":5,"start":4,"action_noise":0.15,"location_history":"[4,5]","action_history":"[0]","door_history":"[0]","location_rts":"[1774]","trial_type":"two-door-navigation","trial_index":49,"time_elapsed":689209,"internal_node_id":"0.0-2.0-47.0"},{"group":"hexagon_bi","room_assignment":["green","purple","blue","yellow","grey","red"],"door_color_assignment":["white","black"],"door_generator_assignment":[0,1],"goal":2,"start":5,"action_noise":0.15,"location_history":"[5,4,3,2]","action_history":"[1,0,1]","door_history":"[1,0,1]","location_rts":"[2190,1064,906]","trial_type":"two-door-navigation","trial_index":50,"time_elapsed":700064,"internal_node_id":"0.0-2.0-48.0"},{"group":"hexagon_bi","room_assignment":["green","purple","blue","yellow","grey","red"],"door_color_assignment":["white","black"],"door_generator_assignment":[0,1],"goal":1,"start":2,"action_noise":0.15,"location_history":"[2,1]","action_history":"[0]","door_history":"[0]","location_rts":"[1506]","trial_type":"two-door-navigation","trial_index":51,"time_elapsed":706140,"internal_node_id":"0.0-2.0-49.0"},{"view_history":"[{\"page_index\":0,\"viewing_time\":1574}]","rt":1575,"trial_type":"instructions","trial_index":52,"time_elapsed":708718,"internal_node_id":"0.0-3.0"},{"view_history":"[{\"page_index\":0,\"viewing_time\":662},{\"page_index\":1,\"viewing_time\":1725}]","rt":2388,"trial_type":"instructions","trial_index":53,"time_elapsed":712108,"internal_node_id":"0.0-4.0"},{"group":"hexagon_tri","fractal_assignment":["../images/cyn_red.png","../images/gry_blk.png","../images/pnk_blu.png","../images/org_blu.png","../images/blu_wht.png","../images/ylw_slt.png"],"mutagen_generator_assignment":[1,0],"goal":2,"start":1,"action_noise":0.15,"location_history":"[1,5,4,0,5,4,2]","action_history":"[1,1,1,1,0,1]","mutagen_history":"[0,0,0,0,1,0]","location_rts":"[3157,375,259,396,180,515]","trial_type":"fractal-mutation","trial_index":54,"time_elapsed":727308,"internal_node_id":"0.0-5.0-0.0"},{"group":"hexagon_tri","fractal_assignment":["../images/cyn_red.png","../images/gry_blk.png","../images/pnk_blu.png","../images/org_blu.png","../images/blu_wht.png","../images/ylw_slt.png"],"mutagen_generator_assignment":[1,0],"goal":0,"start":2,"action_noise":0.15,"location_history":"[2,3,4,2,3,2,1,5,4,2,1,3,4,2,3,2,1,5,0]","action_history":"[1,1,1,1,0,0,0,0,1,0,0,1,1,1,1,0,1,1]","mutagen_history":"[0,0,0,0,1,1,1,1,0,1,1,0,0,0,0,1,0,0]","location_rts":"[6541,333,1195,873,258,204,647,397,626,115,59,750,268,718,562,1209,170,152]","trial_type":"fractal-mutation","trial_index":55,"time_elapsed":766492,"internal_node_id":"0.0-5.0-1.0"},{"group":"hexagon_tri","fractal_assignment":["../images/cyn_red.png","../images/gry_blk.png","../images/pnk_blu.png","../images/org_blu.png","../images/blu_wht.png","../images/ylw_slt.png"],"mutagen_generator_assignment":[1,0],"goal":5,"start":0,"action_noise":0.15,"location_history":"[0,5]","action_history":"[1]","mutagen_history":"[0]","location_rts":"[18822]","trial_type":"fractal-mutation","trial_index":56,"time_elapsed":789935,"internal_node_id":"0.0-5.0-2.0"},{"group":"hexagon_tri","fractal_assignment":["../images/cyn_red.png","../images/gry_blk.png","../images/pnk_blu.png","../images/org_blu.png","../images/blu_wht.png","../images/ylw_slt.png"],"mutagen_generator_assignment":[1,0],"goal":1,"start":5,"action_noise":0.15,"location_history":"[5,4,0,5,4,0,1]","action_history":"[0,0,0,0,0,1]","mutagen_history":"[1,1,1,1,1,0]","location_rts":"[1404,2220,300,46,513,225]","trial_type":"fractal-mutation","trial_index":57,"time_elapsed":805201,"internal_node_id":"0.0-5.0-3.0"},{"group":"hexagon_tri","fractal_assignment":["../images/cyn_red.png","../images/gry_blk.png","../images/pnk_blu.png","../images/org_blu.png","../images/blu_wht.png","../images/ylw_slt.png"],"mutagen_generator_assignment":[1,0],"goal":3,"start":1,"action_noise":0.15,"location_history":"[1,5,4,2,1,3]","action_history":"[1,1,1,0,0]","mutagen_history":"[0,0,0,1,1]","location_rts":"[1196,94,380,1729,429]","trial_type":"fractal-mutation","trial_index":58,"time_elapsed":818255,"internal_node_id":"0.0-5.0-4.0"},{"group":"hexagon_tri","fractal_assignment":["../images/cyn_red.png","../images/gry_blk.png","../images/pnk_blu.png","../images/org_blu.png","../images/blu_wht.png","../images/ylw_slt.png"],"mutagen_generator_assignment":[1,0],"goal":5,"start":3,"action_noise":0.15,"location_history":"[3,4,2,3,2,3,2,1,5]","action_history":"[1,1,1,0,0,0,0,1]","mutagen_history":"[0,0,0,1,1,1,1,0]","location_rts":"[563,121,139,494,406,267,776,42]","trial_type":"fractal-mutation","trial_index":59,"time_elapsed":833705,"internal_node_id":"0.0-5.0-5.0"},{"group":"hexagon_tri","fractal_assignment":["../images/cyn_red.png","../images/gry_blk.png","../images/pnk_blu.png","../images/org_blu.png","../images/blu_wht.png","../images/ylw_slt.png"],"mutagen_generator_assignment":[1,0],"goal":4,"start":5,"action_noise":0.15,"location_history":"[5,0,1,5,4]","action_history":"[1,1,1,0]","mutagen_history":"[0,0,0,1]","location_rts":"[1324,479,3520,4143]","trial_type":"fractal-mutation","trial_index":60,"time_elapsed":851205,"internal_node_id":"0.0-5.0-6.0"},{"group":"hexagon_tri","fractal_assignment":["../images/cyn_red.png","../images/gry_blk.png","../images/pnk_blu.png","../images/org_blu.png","../images/blu_wht.png","../images/ylw_slt.png"],"mutagen_generator_assignment":[1,0],"goal":0,"start":4,"action_noise":0.15,"location_history":"[4,0]","action_history":"[1]","mutagen_history":"[0]","location_rts":"[15571]","trial_type":"fractal-mutation","trial_index":61,"time_elapsed":871404,"internal_node_id":"0.0-5.0-7.0"},{"group":"hexagon_tri","fractal_assignment":["../images/cyn_red.png","../images/gry_blk.png","../images/pnk_blu.png","../images/org_blu.png","../images/blu_wht.png","../images/ylw_slt.png"],"mutagen_generator_assignment":[1,0],"goal":2,"start":0,"action_noise":0.15,"location_history":"[0,5,4,0,1,5,0,5,0,1,5,0,5,4,0,5,0,1,5,0,1,5,4,0,5,4,2]","action_history":"[0,0,0,1,1,1,0,1,1,1,1,0,0,0,0,1,1,1,1,1,0,0,0,0,0,1]","mutagen_history":"[1,1,1,0,0,0,1,0,0,0,0,1,1,1,1,0,0,0,0,0,1,1,1,1,1,0]","location_rts":"[2736,584,273,825,270,495,454,439,255,631,1241,217,214,225,372,688,894,1454,456,1621,562,402,253,200,190,187]","trial_type":"fractal-mutation","trial_index":62,"time_elapsed":920814,"internal_node_id":"0.0-5.0-8.0"},{"group":"hexagon_tri","fractal_assignment":["../images/cyn_red.png","../images/gry_blk.png","../images/pnk_blu.png","../images/org_blu.png","../images/blu_wht.png","../images/ylw_slt.png"],"mutagen_generator_assignment":[1,0],"goal":4,"start":2,"action_noise":0.15,"location_history":"[2,1,3,2,1,5,4]","action_history":"[0,0,0,0,1,1]","mutagen_history":"[1,1,1,1,0,0]","location_rts":"[308,105,84,924,319,346]","trial_type":"fractal-mutation","trial_index":63,"time_elapsed":933352,"internal_node_id":"0.0-5.0-9.0"},{"group":"hexagon_tri","fractal_assignment":["../images/cyn_red.png","../images/gry_blk.png","../images/pnk_blu.png","../images/org_blu.png","../images/blu_wht.png","../images/ylw_slt.png"],"mutagen_generator_assignment":[1,0],"goal":2,"start":4,"action_noise":0.15,"location_history":"[4,0,5,4,2]","action_history":"[0,0,0,1]","mutagen_history":"[1,1,1,0]","location_rts":"[486,1364,836,415]","trial_type":"fractal-mutation","trial_index":64,"time_elapsed":944617,"internal_node_id":"0.0-5.0-10.0"},{"group":"hexagon_tri","fractal_assignment":["../images/cyn_red.png","../images/gry_blk.png","../images/pnk_blu.png","../images/org_blu.png","../images/blu_wht.png","../images/ylw_slt.png"],"mutagen_generator_assignment":[1,0],"goal":3,"start":2,"action_noise":0.15,"location_history":"[2,1,3]","action_history":"[0,0]","mutagen_history":"[1,1]","location_rts":"[562,295]","trial_type":"fractal-mutation","trial_index":65,"time_elapsed":951351,"internal_node_id":"0.0-5.0-11.0"},{"group":"hexagon_tri","fractal_assignment":["../images/cyn_red.png","../images/gry_blk.png","../images/pnk_blu.png","../images/org_blu.png","../images/blu_wht.png","../images/ylw_slt.png"],"mutagen_generator_assignment":[1,0],"goal":0,"start":3,"action_noise":0.15,"location_history":"[3,2,3,4,2,3,4,2,3,4,2,3,4,0]","action_history":"[0,1,1,1,1,1,1,1,1,1,1,1,0]","mutagen_history":"[1,0,0,0,0,0,0,0,0,0,0,0,1]","location_rts":"[1144,163,162,83,437,180,155,475,4753,1467,180,152,36]","trial_type":"fractal-mutation","trial_index":66,"time_elapsed":978805,"internal_node_id":"0.0-5.0-12.0"},{"group":"hexagon_tri","fractal_assignment":["../images/cyn_red.png","../images/gry_blk.png","../images/pnk_blu.png","../images/org_blu.png","../images/blu_wht.png","../images/ylw_slt.png"],"mutagen_generator_assignment":[1,0],"goal":5,"start":0,"action_noise":0.15,"location_history":"[0,5]","action_history":"[0]","mutagen_history":"[1]","location_rts":"[2369]","trial_type":"fractal-mutation","trial_index":67,"time_elapsed":985874,"internal_node_id":"0.0-5.0-13.0"},{"group":"hexagon_tri","fractal_assignment":["../images/cyn_red.png","../images/gry_blk.png","../images/pnk_blu.png","../images/org_blu.png","../images/blu_wht.png","../images/ylw_slt.png"],"mutagen_generator_assignment":[1,0],"goal":1,"start":5,"action_noise":0.15,"location_history":"[5,0,1]","action_history":"[1,1]","mutagen_history":"[0,0]","location_rts":"[2448,150]","trial_type":"fractal-mutation","trial_index":68,"time_elapsed":994192,"internal_node_id":"0.0-5.0-14.0"},{"group":"hexagon_tri","fractal_assignment":["../images/cyn_red.png","../images/gry_blk.png","../images/pnk_blu.png","../images/org_blu.png","../images/blu_wht.png","../images/ylw_slt.png"],"mutagen_generator_assignment":[1,0],"goal":5,"start":1,"action_noise":0.15,"location_history":"[1,3,4,2,3,4,2,3,2,3,4,2,1,5]","action_history":"[0,1,1,1,1,0,0,0,1,1,1,1,1]","mutagen_history":"[1,0,0,0,0,1,1,1,0,0,0,0,0]","location_rts":"[673,7248,8241,96,18974,1141,434,833,810,141,257,282,110]","trial_type":"fractal-mutation","trial_index":69,"time_elapsed":1051666,"internal_node_id":"0.0-5.0-15.0"},{"group":"hexagon_tri","fractal_assignment":["../images/cyn_red.png","../images/gry_blk.png","../images/pnk_blu.png","../images/org_blu.png","../images/blu_wht.png","../images/ylw_slt.png"],"mutagen_generator_assignment":[1,0],"goal":3,"start":5,"action_noise":0.15,"location_history":"[5,0,1,5,4,0,5,4,2,3]","action_history":"[1,1,1,1,0,0,0,1,1]","mutagen_history":"[0,0,0,0,1,1,1,0,0]","location_rts":"[5439,833,112,257,331,128,162,84,41]","trial_type":"fractal-mutation","trial_index":70,"time_elapsed":1072752,"internal_node_id":"0.0-5.0-16.0"},{"group":"hexagon_tri","fractal_assignment":["../images/cyn_red.png","../images/gry_blk.png","../images/pnk_blu.png","../images/org_blu.png","../images/blu_wht.png","../images/ylw_slt.png"],"mutagen_generator_assignment":[1,0],"goal":2,"start":3,"action_noise":0.15,"location_history":"[3,2]","action_history":"[0]","mutagen_history":"[1]","location_rts":"[246]","trial_type":"fractal-mutation","trial_index":71,"time_elapsed":1077674,"internal_node_id":"0.0-5.0-17.0"},{"group":"hexagon_tri","fractal_assignment":["../images/cyn_red.png","../images/gry_blk.png","../images/pnk_blu.png","../images/org_blu.png","../images/blu_wht.png","../images/ylw_slt.png"],"mutagen_generator_assignment":[1,0],"goal":1,"start":2,"action_noise":0.15,"location_history":"[2,3,4,0,5,4,0,5,4,2,3,2,3,4,2,3,2,3,2,1]","action_history":"[1,1,0,0,0,0,0,0,1,1,0,0,1,1,1,0,0,0,0]","mutagen_history":"[0,0,1,1,1,1,1,1,0,0,1,1,0,0,0,1,1,1,1]","location_rts":"[853,180,259,60,386,409,35,772,259,68,233,11155,580,241,222,212,64,29,18]","trial_type":"fractal-mutation","trial_index":72,"time_elapsed":1119134,"internal_node_id":"0.0-5.0-18.0"},{"group":"hexagon_tri","fractal_assignment":["../images/cyn_red.png","../images/gry_blk.png","../images/pnk_blu.png","../images/org_blu.png","../images/blu_wht.png","../images/ylw_slt.png"],"mutagen_generator_assignment":[1,0],"goal":4,"start":1,"action_noise":0.15,"location_history":"[1,3,4]","action_history":"[0,0]","mutagen_history":"[1,1]","location_rts":"[2839,674]","trial_type":"fractal-mutation","trial_index":73,"time_elapsed":1128529,"internal_node_id":"0.0-5.0-19.0"},{"group":"hexagon_tri","fractal_assignment":["../images/cyn_red.png","../images/gry_blk.png","../images/pnk_blu.png","../images/org_blu.png","../images/blu_wht.png","../images/ylw_slt.png"],"mutagen_generator_assignment":[1,0],"goal":0,"start":4,"action_noise":0.15,"location_history":"[4,2,3,4,2,3,4,2,1,5,0]","action_history":"[1,1,1,0,0,0,0,0,1,1]","mutagen_history":"[0,0,0,1,1,1,1,1,0,0]","location_rts":"[807,231,500,2302,3023,246,332,280,413,63]","trial_type":"fractal-mutation","trial_index":74,"time_elapsed":1151655,"internal_node_id":"0.0-5.0-20.0"},{"group":"hexagon_tri","fractal_assignment":["../images/cyn_red.png","../images/gry_blk.png","../images/pnk_blu.png","../images/org_blu.png","../images/blu_wht.png","../images/ylw_slt.png"],"mutagen_generator_assignment":[1,0],"goal":3,"start":0,"action_noise":0.15,"location_history":"[0,1,5,0,1,3]","action_history":"[1,1,1,1,0]","mutagen_history":"[0,0,0,0,1]","location_rts":"[51,377,238,248,216]","trial_type":"fractal-mutation","trial_index":75,"time_elapsed":1161958,"internal_node_id":"0.0-5.0-21.0"},{"group":"hexagon_tri","fractal_assignment":["../images/cyn_red.png","../images/gry_blk.png","../images/pnk_blu.png","../images/org_blu.png","../images/blu_wht.png","../images/ylw_slt.png"],"mutagen_generator_assignment":[1,0],"goal":1,"start":3,"action_noise":0.15,"location_history":"[3,2,3,4,0,5,4,0,5,0,1]","action_history":"[1,1,1,0,0,0,0,0,1,1]","mutagen_history":"[0,0,0,1,1,1,1,1,0,0]","location_rts":"[305,137,302,1092,232,494,704,424,210,307]","trial_type":"fractal-mutation","trial_index":76,"time_elapsed":1181059,"internal_node_id":"0.0-5.0-22.0"},{"group":"hexagon_tri","fractal_assignment":["../images/cyn_red.png","../images/gry_blk.png","../images/pnk_blu.png","../images/org_blu.png","../images/blu_wht.png","../images/ylw_slt.png"],"mutagen_generator_assignment":[1,0],"goal":0,"start":1,"action_noise":0.15,"location_history":"[1,3,4,0]","action_history":"[0,0,0]","mutagen_history":"[1,1,1]","location_rts":"[2383,39,315]","trial_type":"fractal-mutation","trial_index":77,"time_elapsed":1190848,"internal_node_id":"0.0-5.0-23.0"},{"group":"hexagon_tri","fractal_assignment":["../images/cyn_red.png","../images/gry_blk.png","../images/pnk_blu.png","../images/org_blu.png","../images/blu_wht.png","../images/ylw_slt.png"],"mutagen_generator_assignment":[1,0],"goal":2,"start":0,"action_noise":0.15,"location_history":"[0,1,5,4,0,5,4,0,1,5,0,1,5,4,2]","action_history":"[1,1,1,0,0,0,0,1,1,1,1,1,0,0]","mutagen_history":"[0,0,0,1,1,1,1,0,0,0,0,0,1,1]","location_rts":"[12231,6714,715,2,337,477,60,133,181,2,239,73,268,10407]","trial_type":"fractal-mutation","trial_index":78,"time_elapsed":1242166,"internal_node_id":"0.0-5.0-24.0"},{"group":"hexagon_tri","fractal_assignment":["../images/cyn_red.png","../images/gry_blk.png","../images/pnk_blu.png","../images/org_blu.png","../images/blu_wht.png","../images/ylw_slt.png"],"mutagen_generator_assignment":[1,0],"goal":4,"start":2,"action_noise":0.15,"location_history":"[2,1,5,0,5,0,1,3,2,3,2,1,3,4]","action_history":"[1,1,1,1,1,1,0,0,1,0,0,0,1]","mutagen_history":"[0,0,0,0,0,0,1,1,0,1,1,1,0]","location_rts":"[1550,602,5136,333,920,6374,4329,294,278,123,0,0,98]","trial_type":"fractal-mutation","trial_index":79,"time_elapsed":1280423,"internal_node_id":"0.0-5.0-25.0"},{"group":"hexagon_tri","fractal_assignment":["../images/cyn_red.png","../images/gry_blk.png","../images/pnk_blu.png","../images/org_blu.png","../images/blu_wht.png","../images/ylw_slt.png"],"mutagen_generator_assignment":[1,0],"goal":5,"start":4,"action_noise":0.15,"location_history":"[4,0,5]","action_history":"[0,0]","mutagen_history":"[1,1]","location_rts":"[35,928]","trial_type":"fractal-mutation","trial_index":80,"time_elapsed":1287253,"internal_node_id":"0.0-5.0-26.0"},{"group":"hexagon_tri","fractal_assignment":["../images/cyn_red.png","../images/gry_blk.png","../images/pnk_blu.png","../images/org_blu.png","../images/blu_wht.png","../images/ylw_slt.png"],"mutagen_generator_assignment":[1,0],"goal":2,"start":5,"action_noise":0.15,"location_history":"[5,4,0,1,3,2]","action_history":"[1,0,1,0,0]","mutagen_history":"[0,1,0,1,1]","location_rts":"[2365,1510,2666,608,64]","trial_type":"fractal-mutation","trial_index":81,"time_elapsed":1303721,"internal_node_id":"0.0-5.0-27.0"},{"group":"hexagon_tri","fractal_assignment":["../images/cyn_red.png","../images/gry_blk.png","../images/pnk_blu.png","../images/org_blu.png","../images/blu_wht.png","../images/ylw_slt.png"],"mutagen_generator_assignment":[1,0],"goal":3,"start":2,"action_noise":0.15,"location_history":"[2,3]","action_history":"[1]","mutagen_history":"[0]","location_rts":"[285]","trial_type":"fractal-mutation","trial_index":82,"time_elapsed":1308629,"internal_node_id":"0.0-5.0-28.0"},{"group":"hexagon_tri","fractal_assignment":["../images/cyn_red.png","../images/gry_blk.png","../images/pnk_blu.png","../images/org_blu.png","../images/blu_wht.png","../images/ylw_slt.png"],"mutagen_generator_assignment":[1,0],"goal":1,"start":3,"action_noise":0.15,"location_history":"[3,2,1]","action_history":"[0,0]","mutagen_history":"[1,1]","location_rts":"[52,55]","trial_type":"fractal-mutation","trial_index":83,"time_elapsed":1314609,"internal_node_id":"0.0-5.0-29.0"},{"group":"hexagon_tri","fractal_assignment":["../images/cyn_red.png","../images/gry_blk.png","../images/pnk_blu.png","../images/org_blu.png","../images/blu_wht.png","../images/ylw_slt.png"],"mutagen_generator_assignment":[1,0],"goal":4,"start":1,"action_noise":0.15,"location_history":"[1,5,4]","action_history":"[1,1]","mutagen_history":"[0,0]","location_rts":"[9,148]","trial_type":"fractal-mutation","trial_index":84,"time_elapsed":1320500,"internal_node_id":"0.0-5.0-30.0"},{"group":"hexagon_tri","fractal_assignment":["../images/cyn_red.png","../images/gry_blk.png","../images/pnk_blu.png","../images/org_blu.png","../images/blu_wht.png","../images/ylw_slt.png"],"mutagen_generator_assignment":[1,0],"goal":5,"start":4,"action_noise":0.15,"location_history":"[4,0,5]","action_history":"[0,0]","mutagen_history":"[1,1]","location_rts":"[565,89]","trial_type":"fractal-mutation","trial_index":85,"time_elapsed":1327025,"internal_node_id":"0.0-5.0-31.0"},{"group":"hexagon_tri","fractal_assignment":["../images/cyn_red.png","../images/gry_blk.png","../images/pnk_blu.png","../images/org_blu.png","../images/blu_wht.png","../images/ylw_slt.png"],"mutagen_generator_assignment":[1,0],"goal":0,"start":5,"action_noise":0.15,"location_history":"[5,0]","action_history":"[1]","mutagen_history":"[0]","location_rts":"[323]","trial_type":"fractal-mutation","trial_index":86,"time_elapsed":1331970,"internal_node_id":"0.0-5.0-32.0"},{"group":"hexagon_tri","fractal_assignment":["../images/cyn_red.png","../images/gry_blk.png","../images/pnk_blu.png","../images/org_blu.png","../images/blu_wht.png","../images/ylw_slt.png"],"mutagen_generator_assignment":[1,0],"goal":2,"start":0,"action_noise":0.15,"location_history":"[0,1,5,0,5,0,5,0,1,3,2]","action_history":"[1,1,1,1,1,0,1,1,0,0]","mutagen_history":"[0,0,0,0,0,1,0,0,1,1]","location_rts":"[3602,509,1073,208,8,57,382,389,131,25]","trial_type":"fractal-mutation","trial_index":87,"time_elapsed":1353165,"internal_node_id":"0.0-5.0-33.0"},{"group":"hexagon_tri","fractal_assignment":["../images/cyn_red.png","../images/gry_blk.png","../images/pnk_blu.png","../images/org_blu.png","../images/blu_wht.png","../images/ylw_slt.png"],"mutagen_generator_assignment":[1,0],"goal":0,"start":2,"action_noise":0.15,"location_history":"[2,3,2,1,5,4,0]","action_history":"[1,0,0,1,0,0]","mutagen_history":"[0,1,1,0,1,1]","location_rts":"[447,94,438,198,69,36]","trial_type":"fractal-mutation","trial_index":88,"time_elapsed":1364891,"internal_node_id":"0.0-5.0-34.0"},{"group":"hexagon_tri","fractal_assignment":["../images/cyn_red.png","../images/gry_blk.png","../images/pnk_blu.png","../images/org_blu.png","../images/blu_wht.png","../images/ylw_slt.png"],"mutagen_generator_assignment":[1,0],"goal":5,"start":0,"action_noise":0.15,"location_history":"[0,1,5]","action_history":"[1,1]","mutagen_history":"[0,0]","location_rts":"[683,1]","trial_type":"fractal-mutation","trial_index":89,"time_elapsed":1371311,"internal_node_id":"0.0-5.0-35.0"},{"group":"hexagon_tri","fractal_assignment":["../images/cyn_red.png","../images/gry_blk.png","../images/pnk_blu.png","../images/org_blu.png","../images/blu_wht.png","../images/ylw_slt.png"],"mutagen_generator_assignment":[1,0],"goal":1,"start":5,"action_noise":0.15,"location_history":"[5,0,5,4,0,5,4,2,3,4,2,3,4,0,5,4,0,5,0,1]","action_history":"[1,0,0,0,1,0,1,1,1,1,1,1,0,0,0,0,0,1,0]","mutagen_history":"[0,1,1,1,0,1,0,0,0,0,0,0,1,1,1,1,1,0,1]","location_rts":"[1120,175,817,236,75,150,134,32,48,161,47,92,72,64,721,178,90,78,70]","trial_type":"fractal-mutation","trial_index":90,"time_elapsed":1400935,"internal_node_id":"0.0-5.0-36.0"},{"group":"hexagon_tri","fractal_assignment":["../images/cyn_red.png","../images/gry_blk.png","../images/pnk_blu.png","../images/org_blu.png","../images/blu_wht.png","../images/ylw_slt.png"],"mutagen_generator_assignment":[1,0],"goal":4,"start":1,"action_noise":0.15,"location_history":"[1,5,4]","action_history":"[1,1]","mutagen_history":"[0,0]","location_rts":"[1201,240]","trial_type":"fractal-mutation","trial_index":91,"time_elapsed":1408092,"internal_node_id":"0.0-5.0-37.0"},{"group":"hexagon_tri","fractal_assignment":["../images/cyn_red.png","../images/gry_blk.png","../images/pnk_blu.png","../images/org_blu.png","../images/blu_wht.png","../images/ylw_slt.png"],"mutagen_generator_assignment":[1,0],"goal":3,"start":4,"action_noise":0.15,"location_history":"[4,2,1,3]","action_history":"[1,0,0]","mutagen_history":"[0,1,1]","location_rts":"[1271,205,67]","trial_type":"fractal-mutation","trial_index":92,"time_elapsed":1416625,"internal_node_id":"0.0-5.0-38.0"},{"group":"hexagon_tri","fractal_assignment":["../images/cyn_red.png","../images/gry_blk.png","../images/pnk_blu.png","../images/org_blu.png","../images/blu_wht.png","../images/ylw_slt.png"],"mutagen_generator_assignment":[1,0],"goal":5,"start":3,"action_noise":0.15,"location_history":"[3,4,0,1,3,2,3,2,1,5]","action_history":"[1,1,1,0,0,0,0,0,1]","mutagen_history":"[0,0,0,1,1,1,1,1,0]","location_rts":"[441,208,51,197,46,79,26,62,125]","trial_type":"fractal-mutation","trial_index":93,"time_elapsed":1431739,"internal_node_id":"0.0-5.0-39.0"},{"group":"hexagon_tri","fractal_assignment":["../images/cyn_red.png","../images/gry_blk.png","../images/pnk_blu.png","../images/org_blu.png","../images/blu_wht.png","../images/ylw_slt.png"],"mutagen_generator_assignment":[1,0],"goal":1,"start":5,"action_noise":0.15,"location_history":"[5,4,0,5,0,1]","action_history":"[0,0,0,1,1]","mutagen_history":"[1,1,1,0,0]","location_rts":"[825,795,169,92,623]","trial_type":"fractal-mutation","trial_index":94,"time_elapsed":1443510,"internal_node_id":"0.0-5.0-40.0"},{"group":"hexagon_tri","fractal_assignment":["../images/cyn_red.png","../images/gry_blk.png","../images/pnk_blu.png","../images/org_blu.png","../images/blu_wht.png","../images/ylw_slt.png"],"mutagen_generator_assignment":[1,0],"goal":2,"start":1,"action_noise":0.15,"location_history":"[1,5,0,1,5,4,2]","action_history":"[1,1,1,1,0,0]","mutagen_history":"[0,0,0,0,1,1]","location_rts":"[10066,1982,235,699,197,1249]","trial_type":"fractal-mutation","trial_index":95,"time_elapsed":1468242,"internal_node_id":"0.0-5.0-41.0"},{"group":"hexagon_tri","fractal_assignment":["../images/cyn_red.png","../images/gry_blk.png","../images/pnk_blu.png","../images/org_blu.png","../images/blu_wht.png","../images/ylw_slt.png"],"mutagen_generator_assignment":[1,0],"goal":4,"start":2,"action_noise":0.15,"location_history":"[2,1,3,2,3,4]","action_history":"[0,0,0,1,1]","mutagen_history":"[1,1,1,0,0]","location_rts":"[1244,717,1958,1469,241]","trial_type":"fractal-mutation","trial_index":96,"time_elapsed":1483106,"internal_node_id":"0.0-5.0-42.0"},{"group":"hexagon_tri","fractal_assignment":["../images/cyn_red.png","../images/gry_blk.png","../images/pnk_blu.png","../images/org_blu.png","../images/blu_wht.png","../images/ylw_slt.png"],"mutagen_generator_assignment":[1,0],"goal":0,"start":4,"action_noise":0.15,"location_history":"[4,0]","action_history":"[0]","mutagen_history":"[1]","location_rts":"[506]","trial_type":"fractal-mutation","trial_index":97,"time_elapsed":1488298,"internal_node_id":"0.0-5.0-43.0"},{"group":"hexagon_tri","fractal_assignment":["../images/cyn_red.png","../images/gry_blk.png","../images/pnk_blu.png","../images/org_blu.png","../images/blu_wht.png","../images/ylw_slt.png"],"mutagen_generator_assignment":[1,0],"goal":3,"start":0,"action_noise":0.15,"location_history":"[0,5,0,5,4,0,5,0,5,0,1,3]","action_history":"[1,1,0,0,0,0,1,1,1,1,0]","mutagen_history":"[0,0,1,1,1,1,0,0,0,0,1]","location_rts":"[4886,3444,3581,1107,119,2558,329,59,20,492,127]","trial_type":"fractal-mutation","trial_index":98,"time_elapsed":1521097,"internal_node_id":"0.0-5.0-44.0"},{"group":"hexagon_tri","fractal_assignment":["../images/cyn_red.png","../images/gry_blk.png","../images/pnk_blu.png","../images/org_blu.png","../images/blu_wht.png","../images/ylw_slt.png"],"mutagen_generator_assignment":[1,0],"goal":0,"start":3,"action_noise":0.15,"location_history":"[3,4,0]","action_history":"[1,0]","mutagen_history":"[0,1]","location_rts":"[469,124]","trial_type":"fractal-mutation","trial_index":99,"time_elapsed":1527503,"internal_node_id":"0.0-5.0-45.0"},{"group":"hexagon_tri","fractal_assignment":["../images/cyn_red.png","../images/gry_blk.png","../images/pnk_blu.png","../images/org_blu.png","../images/blu_wht.png","../images/ylw_slt.png"],"mutagen_generator_assignment":[1,0],"goal":4,"start":0,"action_noise":0.15,"location_history":"[0,1,5,4]","action_history":"[1,1,0]","mutagen_history":"[0,0,1]","location_rts":"[436,132,186]","trial_type":"fractal-mutation","trial_index":100,"time_elapsed":1535187,"internal_node_id":"0.0-5.0-46.0"},{"group":"hexagon_tri","fractal_assignment":["../images/cyn_red.png","../images/gry_blk.png","../images/pnk_blu.png","../images/org_blu.png","../images/blu_wht.png","../images/ylw_slt.png"],"mutagen_generator_assignment":[1,0],"goal":5,"start":4,"action_noise":0.15,"location_history":"[4,0,1,5]","action_history":"[0,1,1]","mutagen_history":"[1,0,0]","location_rts":"[910,1788,48]","trial_type":"fractal-mutation","trial_index":101,"time_elapsed":1544816,"internal_node_id":"0.0-5.0-47.0"},{"group":"hexagon_tri","fractal_assignment":["../images/cyn_red.png","../images/gry_blk.png","../images/pnk_blu.png","../images/org_blu.png","../images/blu_wht.png","../images/ylw_slt.png"],"mutagen_generator_assignment":[1,0],"goal":2,"start":5,"action_noise":0.15,"location_history":"[5,0,5,4,2]","action_history":"[0,0,0,1]","mutagen_history":"[1,1,1,0]","location_rts":"[596,115,80,55]","trial_type":"fractal-mutation","trial_index":102,"time_elapsed":1553825,"internal_node_id":"0.0-5.0-48.0"},{"group":"hexagon_tri","fractal_assignment":["../images/cyn_red.png","../images/gry_blk.png","../images/pnk_blu.png","../images/org_blu.png","../images/blu_wht.png","../images/ylw_slt.png"],"mutagen_generator_assignment":[1,0],"goal":1,"start":2,"action_noise":0.15,"location_history":"[2,3,4,0,5,0,5,0,1]","action_history":"[1,1,0,1,1,0,1,1]","mutagen_history":"[0,0,1,0,0,1,0,0]","location_rts":"[661,8022,707,526,2922,694,468,521]","trial_type":"fractal-mutation","trial_index":103,"time_elapsed":1580865,"internal_node_id":"0.0-5.0-49.0"},{"view_history":"[{\"page_index\":0,\"viewing_time\":23539}]","rt":23540,"trial_type":"instructions","trial_index":104,"time_elapsed":1605410,"internal_node_id":"0.0-6.0"},{"rt":15024,"responses":"{\"Q0\":\"Memory\"}","trial_type":"survey-text","trial_index":105,"time_elapsed":1621444,"internal_node_id":"0.0-7.0-0.0"},{"rt":23104,"responses":"{\"Q0\":\"I have no clue as I could not get a pattern streak like the colors. That was more frustrating.\"}","trial_type":"survey-text","trial_index":106,"time_elapsed":1645554,"internal_node_id":"0.0-7.0-1.0"},{"rt":11400,"responses":"{\"Q0\":\"<img src='../images/diagrams/hexagon_tri.png'>\"}","trial_type":"survey-multi-choice","trial_index":107,"time_elapsed":1657964,"internal_node_id":"0.0-7.0-2.0"},{"rt":19330,"assignments":["../images/cyn_red.png","../images/ylw_slt.png","../images/org_blu.png","../images/pnk_blu.png","../images/gry_blk.png","../images/blu_wht.png"],"trial_type":"drag-drop-on-image","trial_index":108,"time_elapsed":1678297,"internal_node_id":"0.0-7.0-3.0"},{"rt":4198,"responses":"{\"Q0\":\"0\"}","trial_type":"survey-likert","trial_index":109,"time_elapsed":1683502,"internal_node_id":"0.0-7.0-4.0"},{"rt":30543,"responses":"{\"Q0\":\"There weren't many. Only that certain shapes were more often shown. \"}","trial_type":"survey-text","trial_index":110,"time_elapsed":1715052,"internal_node_id":"0.0-7.0-5.0"},{"rt":3490,"responses":"{\"Q0\":\"Yes\"}","trial_type":"survey-multi-choice","trial_index":111,"time_elapsed":1719546,"internal_node_id":"0.0-7.0-6.0"},{"rt":11646,"responses":"{\"Q0\":\"During this session\"}","trial_type":"survey-multi-choice","trial_index":112,"time_elapsed":1732201,"internal_node_id":"0.0-7.0-7.0"},{"rt":84319,"responses":"{\"Q0\":\"That it was a certain pattern.\"}","trial_type":"survey-text","trial_index":113,"time_elapsed":1817524,"internal_node_id":"0.0-7.0-8.0"},{"rt":3570,"responses":"{\"Q0\":\"1\"}","trial_type":"survey-likert","trial_index":114,"time_elapsed":1822099,"internal_node_id":"0.0-7.0-9.0"},{"rt":9154,"responses":"{\"Q0\":\"Different structure\"}","trial_type":"survey-multi-choice","trial_index":115,"time_elapsed":1832257,"internal_node_id":"0.0-7.0-10.0"},{"rt":19948,"responses":"{\"Q0\":\"left (white) door = ray, right (black) door = acid\",\"Q1\":\"Moderately confident\"}","trial_type":"survey-multi-choice","trial_index":116,"time_elapsed":1853218,"internal_node_id":"0.0-7.0-11.0"},{"rt":7713,"responses":"{\"Q0\":\"35-45\",\"Q1\":\"Bachelor's degree\",\"Q2\":\"Male\",\"Q3\":\"White\"}","trial_type":"survey-multi-choice","trial_index":117,"time_elapsed":1861949,"internal_node_id":"0.0-8.0"},{"rt":2601,"responses":"{\"Q0\":\"n/a\"}","trial_type":"survey-text","trial_index":118,"time_elapsed":1865554,"internal_node_id":"0.0-9.0"}]