[{"view_history":"[{\"page_index\":0,\"viewing_time\":3811},{\"page_index\":1,\"viewing_time\":11846}]","rt":15657,"trial_type":"instructions","trial_index":0,"time_elapsed":15659,"internal_node_id":"0.0-0.0"},{"view_history":"[{\"page_index\":0,\"viewing_time\":1876},{\"page_index\":1,\"viewing_time\":10296}]","rt":12173,"trial_type":"instructions","trial_index":1,"time_elapsed":28834,"internal_node_id":"0.0-1.0"},{"group":"hexagon_tri","room_assignment":["blue","red","purple","grey","green","yellow"],"door_color_assignment":["white","black"],"door_generator_assignment":[1,0],"goal":2,"start":1,"action_noise":0.15,"location_history":"[1,5,4,0,1,5,4,0,1,3,4,2]","action_history":"[1,0,1,1,1,0,0,1,0,1,1]","door_history":"[0,1,0,0,0,1,1,0,1,0,0]","location_rts":"[2445,1956,2610,1053,2120,4004,2509,1069,96619,219,124]","trial_type":"two-door-navigation","trial_index":2,"time_elapsed":158314,"internal_node_id":"0.0-2.0-0.0"},{"group":"hexagon_tri","room_assignment":["blue","red","purple","grey","green","yellow"],"door_color_assignment":["white","black"],"door_generator_assignment":[1,0],"goal":0,"start":2,"action_noise":0.15,"location_history":"[2,3,2,1,5,0]","action_history":"[1,1,0,1,1]","door_history":"[0,0,1,0,0]","location_rts":"[809,115,50,1,25]","trial_type":"two-door-navigation","trial_index":3,"time_elapsed":167962,"internal_node_id":"0.0-2.0-1.0"},{"group":"hexagon_tri","room_assignment":["blue","red","purple","grey","green","yellow"],"door_color_assignment":["white","black"],"door_generator_assignment":[1,0],"goal":5,"start":0,"action_noise":0.15,"location_history":"[0,5]","action_history":"[1]","door_history":"[0]","location_rts":"[206]","trial_type":"two-door-navigation","trial_index":4,"time_elapsed":172694,"internal_node_id":"0.0-2.0-2.0"},{"group":"hexagon_tri","room_assignment":["blue","red","purple","grey","green","yellow"],"door_color_assignment":["white","black"],"door_generator_assignment":[1,0],"goal":1,"start":5,"action_noise":0.15,"location_history":"[5,0,1]","action_history":"[0,1]","door_history":"[1,0]","location_rts":"[3236,463]","trial_type":"two-door-navigation","trial_index":5,"time_elapsed":181944,"internal_node_id":"0.0-2.0-3.0"},{"group":"hexagon_tri","room_assignment":["blue","red","purple","grey","green","yellow"],"door_color_assignment":["white","black"],"door_generator_assignment":[1,0],"goal":3,"start":1,"action_noise":0.15,"location_history":"[1,5,0,5,0,1,3]","action_history":"[1,1,0,1,1,0]","door_history":"[0,0,1,0,0,1]","location_rts":"[186,107,230,153,191,337]","trial_type":"two-door-navigation","trial_index":6,"time_elapsed":192791,"internal_node_id":"0.0-2.0-4.0"},{"group":"hexagon_tri","room_assignment":["blue","red","purple","grey","green","yellow"],"door_color_assignment":["white","black"],"door_generator_assignment":[1,0],"goal":5,"start":3,"action_noise":0.15,"location_history":"[3,4,2,3,4,2,1,5]","action_history":"[1,1,0,1,1,1,1]","door_history":"[0,0,1,0,0,0,0]","location_rts":"[388,389,271,24,100,21,74]","trial_type":"two-door-navigation","trial_index":7,"time_elapsed":204712,"internal_node_id":"0.0-2.0-5.0"},{"group":"hexagon_tri","room_assignment":["blue","red","purple","grey","green","yellow"],"door_color_assignment":["white","black"],"door_generator_assignment":[1,0],"goal":4,"start":5,"action_noise":0.15,"location_history":"[5,0,1,3,4]","action_history":"[1,1,0,1]","door_history":"[0,0,1,0]","location_rts":"[546,386,306,62]","trial_type":"two-door-navigation","trial_index":8,"time_elapsed":213594,"internal_node_id":"0.0-2.0-6.0"},{"group":"hexagon_tri","room_assignment":["blue","red","purple","grey","green","yellow"],"door_color_assignment":["white","black"],"door_generator_assignment":[1,0],"goal":0,"start":4,"action_noise":0.15,"location_history":"[4,2,3,2,3,2,1,3,2,1,5,0]","action_history":"[1,1,0,1,0,0,0,0,0,1,1]","door_history":"[0,0,1,0,1,1,1,1,1,0,0]","location_rts":"[660,444,144,206,109,219,339,773,452,42,15]","trial_type":"two-door-navigation","trial_index":9,"time_elapsed":231713,"internal_node_id":"0.0-2.0-7.0"},{"group":"hexagon_tri","room_assignment":["blue","red","purple","grey","green","yellow"],"door_color_assignment":["white","black"],"door_generator_assignment":[1,0],"goal":2,"start":0,"action_noise":0.15,"location_history":"[0,1,3,4,2]","action_history":"[1,1,1,1]","door_history":"[0,0,0,0]","location_rts":"[663,12,57,19]","trial_type":"two-door-navigation","trial_index":10,"time_elapsed":240056,"internal_node_id":"0.0-2.0-8.0"},{"group":"hexagon_tri","room_assignment":["blue","red","purple","grey","green","yellow"],"door_color_assignment":["white","black"],"door_generator_assignment":[1,0],"goal":4,"start":2,"action_noise":0.15,"location_history":"[2,1,5,4]","action_history":"[1,1,1]","door_history":"[0,0,0]","location_rts":"[817,1121,14]","trial_type":"two-door-navigation","trial_index":11,"time_elapsed":248587,"internal_node_id":"0.0-2.0-9.0"},{"group":"hexagon_tri","room_assignment":["blue","red","purple","grey","green","yellow"],"door_color_assignment":["white","black"],"door_generator_assignment":[1,0],"goal":2,"start":4,"action_noise":0.15,"location_history":"[4,2]","action_history":"[1]","door_history":"[0]","location_rts":"[639]","trial_type":"two-door-navigation","trial_index":12,"time_elapsed":253755,"internal_node_id":"0.0-2.0-10.0"},{"group":"hexagon_tri","room_assignment":["blue","red","purple","grey","green","yellow"],"door_color_assignment":["white","black"],"door_generator_assignment":[1,0],"goal":3,"start":2,"action_noise":0.15,"location_history":"[2,3]","action_history":"[1]","door_history":"[0]","location_rts":"[2388]","trial_type":"two-door-navigation","trial_index":13,"time_elapsed":260668,"internal_node_id":"0.0-2.0-11.0"},{"group":"hexagon_tri","room_assignment":["blue","red","purple","grey","green","yellow"],"door_color_assignment":["white","black"],"door_generator_assignment":[1,0],"goal":0,"start":3,"action_noise":0.15,"location_history":"[3,4,0]","action_history":"[1,1]","door_history":"[0,0]","location_rts":"[239,305]","trial_type":"two-door-navigation","trial_index":14,"time_elapsed":266767,"internal_node_id":"0.0-2.0-12.0"},{"group":"hexagon_tri","room_assignment":["blue","red","purple","grey","green","yellow"],"door_color_assignment":["white","black"],"door_generator_assignment":[1,0],"goal":5,"start":0,"action_noise":0.15,"location_history":"[0,1,3,2,3,2,1,5]","action_history":"[1,1,0,1,0,0,0]","door_history":"[0,0,1,0,1,1,1]","location_rts":"[553,725,345,113,105,154,294]","trial_type":"two-door-navigation","trial_index":15,"time_elapsed":279726,"internal_node_id":"0.0-2.0-13.0"},{"group":"hexagon_tri","room_assignment":["blue","red","purple","grey","green","yellow"],"door_color_assignment":["white","black"],"door_generator_assignment":[1,0],"goal":1,"start":5,"action_noise":0.15,"location_history":"[5,0,5,4,2,3,4,2,1]","action_history":"[1,1,0,1,1,0,0,1]","door_history":"[0,0,1,0,0,1,1,0]","location_rts":"[415,149,423,162,380,142,283,309]","trial_type":"two-door-navigation","trial_index":16,"time_elapsed":293669,"internal_node_id":"0.0-2.0-14.0"},{"group":"hexagon_tri","room_assignment":["blue","red","purple","grey","green","yellow"],"door_color_assignment":["white","black"],"door_generator_assignment":[1,0],"goal":5,"start":1,"action_noise":0.15,"location_history":"[1,5]","action_history":"[1]","door_history":"[0]","location_rts":"[623]","trial_type":"two-door-navigation","trial_index":17,"time_elapsed":298818,"internal_node_id":"0.0-2.0-15.0"},{"group":"hexagon_tri","room_assignment":["blue","red","purple","grey","green","yellow"],"door_color_assignment":["white","black"],"door_generator_assignment":[1,0],"goal":3,"start":5,"action_noise":0.15,"location_history":"[5,0,1,5,0,1,3]","action_history":"[1,1,1,0,1,1]","door_history":"[0,0,0,1,0,0]","location_rts":"[838,505,458,781,1304,121]","trial_type":"two-door-navigation","trial_index":18,"time_elapsed":312461,"internal_node_id":"0.0-2.0-16.0"},{"group":"hexagon_tri","room_assignment":["blue","red","purple","grey","green","yellow"],"door_color_assignment":["white","black"],"door_generator_assignment":[1,0],"goal":2,"start":3,"action_noise":0.15,"location_history":"[3,4,2]","action_history":"[1,1]","door_history":"[0,0]","location_rts":"[610,11]","trial_type":"two-door-navigation","trial_index":19,"time_elapsed":318627,"internal_node_id":"0.0-2.0-17.0"},{"group":"hexagon_tri","room_assignment":["blue","red","purple","grey","green","yellow"],"door_color_assignment":["white","black"],"door_generator_assignment":[1,0],"goal":1,"start":2,"action_noise":0.15,"location_history":"[2,1]","action_history":"[1]","door_history":"[0]","location_rts":"[867]","trial_type":"two-door-navigation","trial_index":20,"time_elapsed":324024,"internal_node_id":"0.0-2.0-18.0"},{"group":"hexagon_tri","room_assignment":["blue","red","purple","grey","green","yellow"],"door_color_assignment":["white","black"],"door_generator_assignment":[1,0],"goal":4,"start":1,"action_noise":0.15,"location_history":"[1,5,0,5,0,1,3,4]","action_history":"[1,1,1,1,1,1,1]","door_history":"[0,0,0,0,0,0,0]","location_rts":"[824,283,52,99,450,14,405]","trial_type":"two-door-navigation","trial_index":21,"time_elapsed":336793,"internal_node_id":"0.0-2.0-19.0"},{"group":"hexagon_tri","room_assignment":["blue","red","purple","grey","green","yellow"],"door_color_assignment":["white","black"],"door_generator_assignment":[1,0],"goal":0,"start":4,"action_noise":0.15,"location_history":"[4,2,3,4,2,1,3,4,2,1,3,2,1,5,0]","action_history":"[1,1,1,1,0,1,0,1,0,0,0,0,0,1]","door_history":"[0,0,0,0,1,0,1,0,1,1,1,1,1,0]","location_rts":"[631,436,372,844,402,1400,670,942,21,427,503,512,526,385]","trial_type":"two-door-navigation","trial_index":22,"time_elapsed":362659,"internal_node_id":"0.0-2.0-20.0"},{"group":"hexagon_tri","room_assignment":["blue","red","purple","grey","green","yellow"],"door_color_assignment":["white","black"],"door_generator_assignment":[1,0],"goal":3,"start":0,"action_noise":0.15,"location_history":"[0,1,3]","action_history":"[1,1]","door_history":"[0,0]","location_rts":"[429,65]","trial_type":"two-door-navigation","trial_index":23,"time_elapsed":368700,"internal_node_id":"0.0-2.0-21.0"},{"group":"hexagon_tri","room_assignment":["blue","red","purple","grey","green","yellow"],"door_color_assignment":["white","black"],"door_generator_assignment":[1,0],"goal":1,"start":3,"action_noise":0.15,"location_history":"[3,4,2,3,4,0,1]","action_history":"[1,1,1,1,0,1]","door_history":"[0,0,0,0,1,0]","location_rts":"[334,61,110,310,88,170]","trial_type":"two-door-navigation","trial_index":24,"time_elapsed":379417,"internal_node_id":"0.0-2.0-22.0"},{"group":"hexagon_tri","room_assignment":["blue","red","purple","grey","green","yellow"],"door_color_assignment":["white","black"],"door_generator_assignment":[1,0],"goal":0,"start":1,"action_noise":0.15,"location_history":"[1,5,0]","action_history":"[1,1]","door_history":"[0,0]","location_rts":"[674,165]","trial_type":"two-door-navigation","trial_index":25,"time_elapsed":385801,"internal_node_id":"0.0-2.0-23.0"},{"group":"hexagon_tri","room_assignment":["blue","red","purple","grey","green","yellow"],"door_color_assignment":["white","black"],"door_generator_assignment":[1,0],"goal":2,"start":0,"action_noise":0.15,"location_history":"[0,5,0,1,5,4,2]","action_history":"[1,1,1,1,0,1]","door_history":"[0,0,0,0,1,0]","location_rts":"[464,526,362,234,33,83]","trial_type":"two-door-navigation","trial_index":26,"time_elapsed":397149,"internal_node_id":"0.0-2.0-24.0"},{"group":"hexagon_tri","room_assignment":["blue","red","purple","grey","green","yellow"],"door_color_assignment":["white","black"],"door_generator_assignment":[1,0],"goal":4,"start":2,"action_noise":0.15,"location_history":"[2,3,4]","action_history":"[1,1]","door_history":"[0,0]","location_rts":"[284,342]","trial_type":"two-door-navigation","trial_index":27,"time_elapsed":403327,"internal_node_id":"0.0-2.0-25.0"},{"group":"hexagon_tri","room_assignment":["blue","red","purple","grey","green","yellow"],"door_color_assignment":["white","black"],"door_generator_assignment":[1,0],"goal":5,"start":4,"action_noise":0.15,"location_history":"[4,2,3,4,2,1,5]","action_history":"[1,1,1,1,0,1]","door_history":"[0,0,0,0,1,0]","location_rts":"[18,12,352,2124,396,177]","trial_type":"two-door-navigation","trial_index":28,"time_elapsed":416036,"internal_node_id":"0.0-2.0-26.0"},{"group":"hexagon_tri","room_assignment":["blue","red","purple","grey","green","yellow"],"door_color_assignment":["white","black"],"door_generator_assignment":[1,0],"goal":2,"start":5,"action_noise":0.15,"location_history":"[5,0,5,4,2]","action_history":"[1,1,0,1]","door_history":"[0,0,1,0]","location_rts":"[334,46,731,138]","trial_type":"two-door-navigation","trial_index":29,"time_elapsed":424879,"internal_node_id":"0.0-2.0-27.0"},{"group":"hexagon_tri","room_assignment":["blue","red","purple","grey","green","yellow"],"door_color_assignment":["white","black"],"door_generator_assignment":[1,0],"goal":3,"start":2,"action_noise":0.15,"location_history":"[2,3]","action_history":"[1]","door_history":"[0]","location_rts":"[337]","trial_type":"two-door-navigation","trial_index":30,"time_elapsed":429741,"internal_node_id":"0.0-2.0-28.0"},{"group":"hexagon_tri","room_assignment":["blue","red","purple","grey","green","yellow"],"door_color_assignment":["white","black"],"door_generator_assignment":[1,0],"goal":1,"start":3,"action_noise":0.15,"location_history":"[3,4,2,3,2,3,4,2,3,4,2,3,4,0,1]","action_history":"[1,1,1,1,1,1,1,0,1,1,1,1,0,0]","door_history":"[0,0,0,0,0,0,0,1,0,0,0,0,1,1]","location_rts":"[403,48,121,610,261,355,102,441,355,841,151,40,210,355]","trial_type":"two-door-navigation","trial_index":31,"time_elapsed":451845,"internal_node_id":"0.0-2.0-29.0"},{"group":"hexagon_tri","room_assignment":["blue","red","purple","grey","green","yellow"],"door_color_assignment":["white","black"],"door_generator_assignment":[1,0],"goal":4,"start":1,"action_noise":0.15,"location_history":"[1,3,4]","action_history":"[1,1]","door_history":"[0,0]","location_rts":"[314,361]","trial_type":"two-door-navigation","trial_index":32,"time_elapsed":458067,"internal_node_id":"0.0-2.0-30.0"},{"group":"hexagon_tri","room_assignment":["blue","red","purple","grey","green","yellow"],"door_color_assignment":["white","black"],"door_generator_assignment":[1,0],"goal":5,"start":4,"action_noise":0.15,"location_history":"[4,2,3,2,3,4,2,1,3,4,2,1,5]","action_history":"[1,1,1,0,1,1,1,0,1,1,1,1]","door_history":"[0,0,0,1,0,0,0,1,0,0,0,0]","location_rts":"[230,291,518,391,70,187,12,356,43,448,204,36]","trial_type":"two-door-navigation","trial_index":33,"time_elapsed":476600,"internal_node_id":"0.0-2.0-31.0"},{"group":"hexagon_tri","room_assignment":["blue","red","purple","grey","green","yellow"],"door_color_assignment":["white","black"],"door_generator_assignment":[1,0],"goal":0,"start":5,"action_noise":0.15,"location_history":"[5,0]","action_history":"[1]","door_history":"[0]","location_rts":"[455]","trial_type":"two-door-navigation","trial_index":34,"time_elapsed":481586,"internal_node_id":"0.0-2.0-32.0"},{"group":"hexagon_tri","room_assignment":["blue","red","purple","grey","green","yellow"],"door_color_assignment":["white","black"],"door_generator_assignment":[1,0],"goal":2,"start":0,"action_noise":0.15,"location_history":"[0,5,0,1,3,4,2]","action_history":"[1,1,1,0,1,1]","door_history":"[0,0,0,1,0,0]","location_rts":"[368,353,842,298,106,151]","trial_type":"two-door-navigation","trial_index":35,"time_elapsed":493331,"internal_node_id":"0.0-2.0-33.0"},{"group":"hexagon_tri","room_assignment":["blue","red","purple","grey","green","yellow"],"door_color_assignment":["white","black"],"door_generator_assignment":[1,0],"goal":0,"start":2,"action_noise":0.15,"location_history":"[2,1,5,0]","action_history":"[1,1,1]","door_history":"[0,0,0]","location_rts":"[515,148,15]","trial_type":"two-door-navigation","trial_index":36,"time_elapsed":500585,"internal_node_id":"0.0-2.0-34.0"},{"group":"hexagon_tri","room_assignment":["blue","red","purple","grey","green","yellow"],"door_color_assignment":["white","black"],"door_generator_assignment":[1,0],"goal":5,"start":0,"action_noise":0.15,"location_history":"[0,1,5]","action_history":"[1,1]","door_history":"[0,0]","location_rts":"[1126,326]","trial_type":"two-door-navigation","trial_index":37,"time_elapsed":507578,"internal_node_id":"0.0-2.0-35.0"},{"group":"hexagon_tri","room_assignment":["blue","red","purple","grey","green","yellow"],"door_color_assignment":["white","black"],"door_generator_assignment":[1,0],"goal":1,"start":5,"action_noise":0.15,"location_history":"[5,0,1]","action_history":"[1,1]","door_history":"[0,0]","location_rts":"[1190,584]","trial_type":"two-door-navigation","trial_index":38,"time_elapsed":514891,"internal_node_id":"0.0-2.0-36.0"},{"group":"hexagon_tri","room_assignment":["blue","red","purple","grey","green","yellow"],"door_color_assignment":["white","black"],"door_generator_assignment":[1,0],"goal":4,"start":1,"action_noise":0.15,"location_history":"[1,5,0,1,5,0,1,5,4]","action_history":"[1,1,1,1,0,1,1,1]","door_history":"[0,0,0,0,1,0,0,0]","location_rts":"[604,149,77,416,160,220,411,69]","trial_type":"two-door-navigation","trial_index":39,"time_elapsed":528670,"internal_node_id":"0.0-2.0-37.0"},{"group":"hexagon_tri","room_assignment":["blue","red","purple","grey","green","yellow"],"door_color_assignment":["white","black"],"door_generator_assignment":[1,0],"goal":3,"start":4,"action_noise":0.15,"location_history":"[4,2,3]","action_history":"[1,1]","door_history":"[0,0]","location_rts":"[314,318]","trial_type":"two-door-navigation","trial_index":40,"time_elapsed":534848,"internal_node_id":"0.0-2.0-38.0"},{"group":"hexagon_tri","room_assignment":["blue","red","purple","grey","green","yellow"],"door_color_assignment":["white","black"],"door_generator_assignment":[1,0],"goal":5,"start":3,"action_noise":0.15,"location_history":"[3,4,2,3,4,0,5]","action_history":"[1,1,1,1,0,1]","door_history":"[0,0,0,0,1,0]","location_rts":"[615,115,362,79,834,221]","trial_type":"two-door-navigation","trial_index":41,"time_elapsed":546688,"internal_node_id":"0.0-2.0-39.0"},{"group":"hexagon_tri","room_assignment":["blue","red","purple","grey","green","yellow"],"door_color_assignment":["white","black"],"door_generator_assignment":[1,0],"goal":1,"start":5,"action_noise":0.15,"location_history":"[5,0,5,4,0,1]","action_history":"[1,1,1,0,1]","door_history":"[0,0,0,1,0]","location_rts":"[200,37,39,286,164]","trial_type":"two-door-navigation","trial_index":42,"time_elapsed":556025,"internal_node_id":"0.0-2.0-40.0"},{"group":"hexagon_tri","room_assignment":["blue","red","purple","grey","green","yellow"],"door_color_assignment":["white","black"],"door_generator_assignment":[1,0],"goal":2,"start":1,"action_noise":0.15,"location_history":"[1,5,0,1,5,4,2]","action_history":"[1,1,1,1,0,1]","door_history":"[0,0,0,0,1,0]","location_rts":"[199,27,267,330,341,291]","trial_type":"two-door-navigation","trial_index":43,"time_elapsed":567107,"internal_node_id":"0.0-2.0-41.0"},{"group":"hexagon_tri","room_assignment":["blue","red","purple","grey","green","yellow"],"door_color_assignment":["white","black"],"door_generator_assignment":[1,0],"goal":4,"start":2,"action_noise":0.15,"location_history":"[2,3,4]","action_history":"[1,1]","door_history":"[0,0]","location_rts":"[286,164]","trial_type":"two-door-navigation","trial_index":44,"time_elapsed":573099,"internal_node_id":"0.0-2.0-42.0"},{"group":"hexagon_tri","room_assignment":["blue","red","purple","grey","green","yellow"],"door_color_assignment":["white","black"],"door_generator_assignment":[1,0],"goal":0,"start":4,"action_noise":0.15,"location_history":"[4,2,3,2,3,4,0]","action_history":"[1,1,1,1,1,0]","door_history":"[0,0,0,0,0,1]","location_rts":"[461,438,132,257,401,235]","trial_type":"two-door-navigation","trial_index":45,"time_elapsed":584649,"internal_node_id":"0.0-2.0-43.0"},{"group":"hexagon_tri","room_assignment":["blue","red","purple","grey","green","yellow"],"door_color_assignment":["white","black"],"door_generator_assignment":[1,0],"goal":3,"start":0,"action_noise":0.15,"location_history":"[0,1,3]","action_history":"[1,1]","door_history":"[0,0]","location_rts":"[528,227]","trial_type":"two-door-navigation","trial_index":46,"time_elapsed":590950,"internal_node_id":"0.0-2.0-44.0"},{"group":"hexagon_tri","room_assignment":["blue","red","purple","grey","green","yellow"],"door_color_assignment":["white","black"],"door_generator_assignment":[1,0],"goal":0,"start":3,"action_noise":0.15,"location_history":"[3,4,2,3,4,2,3,4,2,1,5,0]","action_history":"[1,1,1,1,1,1,1,1,0,1,1]","door_history":"[0,0,0,0,0,0,0,0,1,0,0]","location_rts":"[395,141,349,131051,281,72,173,173,258,85,90]","trial_type":"two-door-navigation","trial_index":47,"time_elapsed":738751,"internal_node_id":"0.0-2.0-45.0"},{"group":"hexagon_tri","room_assignment":["blue","red","purple","grey","green","yellow"],"door_color_assignment":["white","black"],"door_generator_assignment":[1,0],"goal":4,"start":0,"action_noise":0.15,"location_history":"[0,1,5,0,1,3,4]","action_history":"[1,1,1,1,0,1]","door_history":"[0,0,0,0,1,0]","location_rts":"[305,251,75,54,157,269]","trial_type":"two-door-navigation","trial_index":48,"time_elapsed":749498,"internal_node_id":"0.0-2.0-46.0"},{"group":"hexagon_tri","room_assignment":["blue","red","purple","grey","green","yellow"],"door_color_assignment":["white","black"],"door_generator_assignment":[1,0],"goal":5,"start":4,"action_noise":0.15,"location_history":"[4,2,3,4,0,1,5]","action_history":"[1,1,1,1,1,1]","door_history":"[0,0,0,0,0,0]","location_rts":"[735,129,354,249,361,996]","trial_type":"two-door-navigation","trial_index":49,"time_elapsed":761963,"internal_node_id":"0.0-2.0-47.0"},{"group":"hexagon_tri","room_assignment":["blue","red","purple","grey","green","yellow"],"door_color_assignment":["white","black"],"door_generator_assignment":[1,0],"goal":2,"start":5,"action_noise":0.15,"location_history":"[5,4,2]","action_history":"[1,1]","door_history":"[0,0]","location_rts":"[15485,179]","trial_type":"two-door-navigation","trial_index":50,"time_elapsed":783175,"internal_node_id":"0.0-2.0-48.0"},{"group":"hexagon_tri","room_assignment":["blue","red","purple","grey","green","yellow"],"door_color_assignment":["white","black"],"door_generator_assignment":[1,0],"goal":1,"start":2,"action_noise":0.15,"location_history":"[2,3,4,2,3,4,0,5,0,5,4,2,3,2,1]","action_history":"[1,1,1,1,1,0,1,1,1,0,1,1,0,0]","door_history":"[0,0,0,0,0,1,0,0,0,1,0,0,1,1]","location_rts":"[754,67,1180,35,264,1264,22,58,400,136,30,98,242,177]","trial_type":"two-door-navigation","trial_index":51,"time_elapsed":805963,"internal_node_id":"0.0-2.0-49.0"},{"view_history":"[{\"page_index\":0,\"viewing_time\":8213}]","rt":8213,"trial_type":"instructions","trial_index":52,"time_elapsed":815176,"internal_node_id":"0.0-3.0"},{"view_history":"[{\"page_index\":0,\"viewing_time\":807},{\"page_index\":1,\"viewing_time\":8961}]","rt":9768,"trial_type":"instructions","trial_index":53,"time_elapsed":825945,"internal_node_id":"0.0-4.0"},{"group":"hexagon_tri","fractal_assignment":["../images/org_blu.png","../images/gry_blk.png","../images/ylw_slt.png","../images/cyn_red.png","../images/pnk_blu.png","../images/blu_wht.png"],"mutagen_generator_assignment":[1,0],"goal":2,"start":1,"action_noise":0.15,"location_history":"[1,5,0,5,0,5,4,0,5,0,5,4,2]","action_history":"[1,0,0,1,0,0,0,1,1,0,0,1]","mutagen_history":"[0,1,1,0,1,1,1,0,0,1,1,0]","location_rts":"[17315,193,102,66,173,62,49,127,176,13,31,152]","trial_type":"fractal-mutation","trial_index":54,"time_elapsed":860360,"internal_node_id":"0.0-5.0-0.0"},{"group":"hexagon_tri","fractal_assignment":["../images/org_blu.png","../images/gry_blk.png","../images/ylw_slt.png","../images/cyn_red.png","../images/pnk_blu.png","../images/blu_wht.png"],"mutagen_generator_assignment":[1,0],"goal":0,"start":2,"action_noise":0.15,"location_history":"[2,3,2,3,2,3,4,2,1,3,2,1,3,4,0]","action_history":"[1,0,0,0,1,0,1,0,0,0,0,0,1,0]","mutagen_history":"[0,1,1,1,0,1,0,1,1,1,1,1,0,1]","location_rts":"[939,173,28,142,21,28,537,199,144,73,157,173,183,57]","trial_type":"fractal-mutation","trial_index":55,"time_elapsed":881263,"internal_node_id":"0.0-5.0-1.0"},{"group":"hexagon_tri","fractal_assignment":["../images/org_blu.png","../images/gry_blk.png","../images/ylw_slt.png","../images/cyn_red.png","../images/pnk_blu.png","../images/blu_wht.png"],"mutagen_generator_assignment":[1,0],"goal":5,"start":0,"action_noise":0.15,"location_history":"[0,1,3,4,0,5]","action_history":"[1,0,0,0,1]","mutagen_history":"[0,1,1,1,0]","location_rts":"[2212,202,266,486,1316]","trial_type":"fractal-mutation","trial_index":56,"time_elapsed":894436,"internal_node_id":"0.0-5.0-2.0"},{"group":"hexagon_tri","fractal_assignment":["../images/org_blu.png","../images/gry_blk.png","../images/ylw_slt.png","../images/cyn_red.png","../images/pnk_blu.png","../images/blu_wht.png"],"mutagen_generator_assignment":[1,0],"goal":1,"start":5,"action_noise":0.15,"location_history":"[5,0,5,4,2,1]","action_history":"[1,0,0,1,0]","mutagen_history":"[0,1,1,0,1]","location_rts":"[1230,145,232,497,53]","trial_type":"fractal-mutation","trial_index":57,"time_elapsed":905278,"internal_node_id":"0.0-5.0-3.0"},{"group":"hexagon_tri","fractal_assignment":["../images/org_blu.png","../images/gry_blk.png","../images/ylw_slt.png","../images/cyn_red.png","../images/pnk_blu.png","../images/blu_wht.png"],"mutagen_generator_assignment":[1,0],"goal":3,"start":1,"action_noise":0.15,"location_history":"[1,3]","action_history":"[0]","mutagen_history":"[1]","location_rts":"[828]","trial_type":"fractal-mutation","trial_index":58,"time_elapsed":910653,"internal_node_id":"0.0-5.0-4.0"},{"group":"hexagon_tri","fractal_assignment":["../images/org_blu.png","../images/gry_blk.png","../images/ylw_slt.png","../images/cyn_red.png","../images/pnk_blu.png","../images/blu_wht.png"],"mutagen_generator_assignment":[1,0],"goal":5,"start":3,"action_noise":0.15,"location_history":"[3,2,1,5]","action_history":"[0,0,1]","mutagen_history":"[1,1,0]","location_rts":"[626,450,1226]","trial_type":"fractal-mutation","trial_index":59,"time_elapsed":919584,"internal_node_id":"0.0-5.0-5.0"},{"group":"hexagon_tri","fractal_assignment":["../images/org_blu.png","../images/gry_blk.png","../images/ylw_slt.png","../images/cyn_red.png","../images/pnk_blu.png","../images/blu_wht.png"],"mutagen_generator_assignment":[1,0],"goal":4,"start":5,"action_noise":0.15,"location_history":"[5,4]","action_history":"[0]","mutagen_history":"[1]","location_rts":"[7174]","trial_type":"fractal-mutation","trial_index":60,"time_elapsed":931300,"internal_node_id":"0.0-5.0-6.0"},{"group":"hexagon_tri","fractal_assignment":["../images/org_blu.png","../images/gry_blk.png","../images/ylw_slt.png","../images/cyn_red.png","../images/pnk_blu.png","../images/blu_wht.png"],"mutagen_generator_assignment":[1,0],"goal":0,"start":4,"action_noise":0.15,"location_history":"[4,0]","action_history":"[0]","mutagen_history":"[1]","location_rts":"[1419]","trial_type":"fractal-mutation","trial_index":61,"time_elapsed":937239,"internal_node_id":"0.0-5.0-7.0"},{"group":"hexagon_tri","fractal_assignment":["../images/org_blu.png","../images/gry_blk.png","../images/ylw_slt.png","../images/cyn_red.png","../images/pnk_blu.png","../images/blu_wht.png"],"mutagen_generator_assignment":[1,0],"goal":2,"start":0,"action_noise":0.15,"location_history":"[0,5,4,0,5,0,5,4,2]","action_history":"[1,0,0,0,1,0,0,1]","mutagen_history":"[0,1,1,1,0,1,1,0]","location_rts":"[5242,534,704,595,788,627,8143,3382]","trial_type":"fractal-mutation","trial_index":62,"time_elapsed":969047,"internal_node_id":"0.0-5.0-8.0"},{"group":"hexagon_tri","fractal_assignment":["../images/org_blu.png","../images/gry_blk.png","../images/ylw_slt.png","../images/cyn_red.png","../images/pnk_blu.png","../images/blu_wht.png"],"mutagen_generator_assignment":[1,0],"goal":4,"start":2,"action_noise":0.15,"location_history":"[2,1,3,4]","action_history":"[0,0,0]","mutagen_history":"[1,1,1]","location_rts":"[755,201,124]","trial_type":"fractal-mutation","trial_index":63,"time_elapsed":976761,"internal_node_id":"0.0-5.0-9.0"},{"group":"hexagon_tri","fractal_assignment":["../images/org_blu.png","../images/gry_blk.png","../images/ylw_slt.png","../images/cyn_red.png","../images/pnk_blu.png","../images/blu_wht.png"],"mutagen_generator_assignment":[1,0],"goal":2,"start":4,"action_noise":0.15,"location_history":"[4,0,1,3,4,0,1,5,4,0,1,3,2]","action_history":"[0,1,0,0,0,0,1,0,0,1,0,0]","mutagen_history":"[1,0,1,1,1,1,0,1,1,0,1,1]","location_rts":"[703,119,80,66,113,108,338,63,85,111,167,242]","trial_type":"fractal-mutation","trial_index":64,"time_elapsed":994936,"internal_node_id":"0.0-5.0-10.0"},{"group":"hexagon_tri","fractal_assignment":["../images/org_blu.png","../images/gry_blk.png","../images/ylw_slt.png","../images/cyn_red.png","../images/pnk_blu.png","../images/blu_wht.png"],"mutagen_generator_assignment":[1,0],"goal":3,"start":2,"action_noise":0.15,"location_history":"[2,1,5,4,0,5,0,1,3]","action_history":"[0,1,1,0,0,0,1,0]","mutagen_history":"[1,0,0,1,1,1,0,1]","location_rts":"[470,226,218,200,218,36,183,303]","trial_type":"fractal-mutation","trial_index":65,"time_elapsed":1008612,"internal_node_id":"0.0-5.0-11.0"},{"group":"hexagon_tri","fractal_assignment":["../images/org_blu.png","../images/gry_blk.png","../images/ylw_slt.png","../images/cyn_red.png","../images/pnk_blu.png","../images/blu_wht.png"],"mutagen_generator_assignment":[1,0],"goal":0,"start":3,"action_noise":0.15,"location_history":"[3,2,1,3,2,3,2,3,2,1,3,2,3,4,2,3,4,0]","action_history":"[0,0,0,0,1,0,0,0,0,1,0,1,1,1,0,1,0]","mutagen_history":"[1,1,1,1,0,1,1,1,1,0,1,0,0,0,1,0,1]","location_rts":"[1818,2685,1943,921,150,838,164,1114,2314,2276,10349,255,1963,3186,379,3614,4216]","trial_type":"fractal-mutation","trial_index":66,"time_elapsed":1067909,"internal_node_id":"0.0-5.0-12.0"},{"group":"hexagon_tri","fractal_assignment":["../images/org_blu.png","../images/gry_blk.png","../images/ylw_slt.png","../images/cyn_red.png","../images/pnk_blu.png","../images/blu_wht.png"],"mutagen_generator_assignment":[1,0],"goal":5,"start":0,"action_noise":0.15,"location_history":"[0,5]","action_history":"[1]","mutagen_history":"[0]","location_rts":"[921]","trial_type":"fractal-mutation","trial_index":67,"time_elapsed":1073365,"internal_node_id":"0.0-5.0-13.0"},{"group":"hexagon_tri","fractal_assignment":["../images/org_blu.png","../images/gry_blk.png","../images/ylw_slt.png","../images/cyn_red.png","../images/pnk_blu.png","../images/blu_wht.png"],"mutagen_generator_assignment":[1,0],"goal":1,"start":5,"action_noise":0.15,"location_history":"[5,4,0,5,4,0,5,4,0,5,4,2,3,2,1]","action_history":"[0,0,1,0,0,0,0,0,0,0,1,0,0,0]","mutagen_history":"[1,1,0,1,1,1,1,1,1,1,0,1,1,1]","location_rts":"[714,267,240,413,334,2090,3366,1751,507,726,2273,266,106,216]","trial_type":"fractal-mutation","trial_index":68,"time_elapsed":1104696,"internal_node_id":"0.0-5.0-14.0"},{"group":"hexagon_tri","fractal_assignment":["../images/org_blu.png","../images/gry_blk.png","../images/ylw_slt.png","../images/cyn_red.png","../images/pnk_blu.png","../images/blu_wht.png"],"mutagen_generator_assignment":[1,0],"goal":5,"start":1,"action_noise":0.15,"location_history":"[1,3,2,1,3,2,1,3,2,3,2,3,2,3,4,2,1,5]","action_history":"[0,0,0,0,0,1,0,0,0,0,1,0,0,1,0,0,0]","mutagen_history":"[1,1,1,1,1,0,1,1,1,1,0,1,1,0,1,1,1]","location_rts":"[450,161,101,47,301,175,212,20,112,364,129,284,328,108,27,396,1332]","trial_type":"fractal-mutation","trial_index":69,"time_elapsed":1130382,"internal_node_id":"0.0-5.0-15.0"},{"group":"hexagon_tri","fractal_assignment":["../images/org_blu.png","../images/gry_blk.png","../images/ylw_slt.png","../images/cyn_red.png","../images/pnk_blu.png","../images/blu_wht.png"],"mutagen_generator_assignment":[1,0],"goal":3,"start":5,"action_noise":0.15,"location_history":"[5,4,2,1,3]","action_history":"[1,1,0,1]","mutagen_history":"[0,0,1,0]","location_rts":"[1206,430,2487,818]","trial_type":"fractal-mutation","trial_index":70,"time_elapsed":1142975,"internal_node_id":"0.0-5.0-16.0"},{"group":"hexagon_tri","fractal_assignment":["../images/org_blu.png","../images/gry_blk.png","../images/ylw_slt.png","../images/cyn_red.png","../images/pnk_blu.png","../images/blu_wht.png"],"mutagen_generator_assignment":[1,0],"goal":2,"start":3,"action_noise":0.15,"location_history":"[3,4,0,1,3,2]","action_history":"[1,1,1,0,0]","mutagen_history":"[0,0,0,1,1]","location_rts":"[4543,6868,1072,133,71]","trial_type":"fractal-mutation","trial_index":71,"time_elapsed":1164352,"internal_node_id":"0.0-5.0-17.0"},{"group":"hexagon_tri","fractal_assignment":["../images/org_blu.png","../images/gry_blk.png","../images/ylw_slt.png","../images/cyn_red.png","../images/pnk_blu.png","../images/blu_wht.png"],"mutagen_generator_assignment":[1,0],"goal":1,"start":2,"action_noise":0.15,"location_history":"[2,1]","action_history":"[1]","mutagen_history":"[0]","location_rts":"[3860]","trial_type":"fractal-mutation","trial_index":72,"time_elapsed":1172732,"internal_node_id":"0.0-5.0-18.0"},{"group":"hexagon_tri","fractal_assignment":["../images/org_blu.png","../images/gry_blk.png","../images/ylw_slt.png","../images/cyn_red.png","../images/pnk_blu.png","../images/blu_wht.png"],"mutagen_generator_assignment":[1,0],"goal":4,"start":1,"action_noise":0.15,"location_history":"[1,3,2,1,3,2,1,3,2,1,3,4]","action_history":"[0,0,0,0,0,0,1,0,0,0,1]","mutagen_history":"[1,1,1,1,1,1,0,1,1,1,0]","location_rts":"[817,367,485,530,435,478,402,238,505,577,619]","trial_type":"fractal-mutation","trial_index":73,"time_elapsed":1192964,"internal_node_id":"0.0-5.0-19.0"},{"group":"hexagon_tri","fractal_assignment":["../images/org_blu.png","../images/gry_blk.png","../images/ylw_slt.png","../images/cyn_red.png","../images/pnk_blu.png","../images/blu_wht.png"],"mutagen_generator_assignment":[1,0],"goal":0,"start":4,"action_noise":0.15,"location_history":"[4,0]","action_history":"[0]","mutagen_history":"[1]","location_rts":"[3826]","trial_type":"fractal-mutation","trial_index":74,"time_elapsed":1201335,"internal_node_id":"0.0-5.0-20.0"},{"group":"hexagon_tri","fractal_assignment":["../images/org_blu.png","../images/gry_blk.png","../images/ylw_slt.png","../images/cyn_red.png","../images/pnk_blu.png","../images/blu_wht.png"],"mutagen_generator_assignment":[1,0],"goal":3,"start":0,"action_noise":0.15,"location_history":"[0,5,4,0,1,3]","action_history":"[0,0,0,1,0]","mutagen_history":"[1,1,1,0,1]","location_rts":"[6417,1751,3091,2446,731]","trial_type":"fractal-mutation","trial_index":75,"time_elapsed":1224459,"internal_node_id":"0.0-5.0-21.0"},{"group":"hexagon_tri","fractal_assignment":["../images/org_blu.png","../images/gry_blk.png","../images/ylw_slt.png","../images/cyn_red.png","../images/pnk_blu.png","../images/blu_wht.png"],"mutagen_generator_assignment":[1,0],"goal":1,"start":3,"action_noise":0.15,"location_history":"[3,2,1]","action_history":"[0,0]","mutagen_history":"[1,1]","location_rts":"[1160,587]","trial_type":"fractal-mutation","trial_index":76,"time_elapsed":1231763,"internal_node_id":"0.0-5.0-22.0"},{"group":"hexagon_tri","fractal_assignment":["../images/org_blu.png","../images/gry_blk.png","../images/ylw_slt.png","../images/cyn_red.png","../images/pnk_blu.png","../images/blu_wht.png"],"mutagen_generator_assignment":[1,0],"goal":0,"start":1,"action_noise":0.15,"location_history":"[1,5,4,0]","action_history":"[1,0,0]","mutagen_history":"[0,1,1]","location_rts":"[464,789,449]","trial_type":"fractal-mutation","trial_index":77,"time_elapsed":1240090,"internal_node_id":"0.0-5.0-23.0"},{"group":"hexagon_tri","fractal_assignment":["../images/org_blu.png","../images/gry_blk.png","../images/ylw_slt.png","../images/cyn_red.png","../images/pnk_blu.png","../images/blu_wht.png"],"mutagen_generator_assignment":[1,0],"goal":2,"start":0,"action_noise":0.15,"location_history":"[0,5,4,2]","action_history":"[0,0,0]","mutagen_history":"[1,1,1]","location_rts":"[748,2158,3390]","trial_type":"fractal-mutation","trial_index":78,"time_elapsed":1252994,"internal_node_id":"0.0-5.0-24.0"},{"group":"hexagon_tri","fractal_assignment":["../images/org_blu.png","../images/gry_blk.png","../images/ylw_slt.png","../images/cyn_red.png","../images/pnk_blu.png","../images/blu_wht.png"],"mutagen_generator_assignment":[1,0],"goal":4,"start":2,"action_noise":0.15,"location_history":"[2,1,3,4]","action_history":"[0,0,1]","mutagen_history":"[1,1,0]","location_rts":"[924,1077,393]","trial_type":"fractal-mutation","trial_index":79,"time_elapsed":1262020,"internal_node_id":"0.0-5.0-25.0"},{"group":"hexagon_tri","fractal_assignment":["../images/org_blu.png","../images/gry_blk.png","../images/ylw_slt.png","../images/cyn_red.png","../images/pnk_blu.png","../images/blu_wht.png"],"mutagen_generator_assignment":[1,0],"goal":5,"start":4,"action_noise":0.15,"location_history":"[4,0,5]","action_history":"[0,0]","mutagen_history":"[1,1]","location_rts":"[5592,1835]","trial_type":"fractal-mutation","trial_index":80,"time_elapsed":1275043,"internal_node_id":"0.0-5.0-26.0"},{"group":"hexagon_tri","fractal_assignment":["../images/org_blu.png","../images/gry_blk.png","../images/ylw_slt.png","../images/cyn_red.png","../images/pnk_blu.png","../images/blu_wht.png"],"mutagen_generator_assignment":[1,0],"goal":2,"start":5,"action_noise":0.15,"location_history":"[5,0,5,4,0,5,0,1,3,2]","action_history":"[1,0,0,0,0,0,1,0,0]","mutagen_history":"[0,1,1,1,1,1,0,1,1]","location_rts":"[1388,229,716,367,1290,2447,2073,8710,411]","trial_type":"fractal-mutation","trial_index":81,"time_elapsed":1305483,"internal_node_id":"0.0-5.0-27.0"},{"group":"hexagon_tri","fractal_assignment":["../images/org_blu.png","../images/gry_blk.png","../images/ylw_slt.png","../images/cyn_red.png","../images/pnk_blu.png","../images/blu_wht.png"],"mutagen_generator_assignment":[1,0],"goal":3,"start":2,"action_noise":0.15,"location_history":"[2,1,3]","action_history":"[0,0]","mutagen_history":"[1,1]","location_rts":"[1182,324]","trial_type":"fractal-mutation","trial_index":82,"time_elapsed":1312575,"internal_node_id":"0.0-5.0-28.0"},{"group":"hexagon_tri","fractal_assignment":["../images/org_blu.png","../images/gry_blk.png","../images/ylw_slt.png","../images/cyn_red.png","../images/pnk_blu.png","../images/blu_wht.png"],"mutagen_generator_assignment":[1,0],"goal":1,"start":3,"action_noise":0.15,"location_history":"[3,2,3,4,0,1]","action_history":"[0,1,1,0,1]","mutagen_history":"[1,0,0,1,0]","location_rts":"[533,1131,391,382,25824]","trial_type":"fractal-mutation","trial_index":83,"time_elapsed":1349504,"internal_node_id":"0.0-5.0-29.0"},{"group":"hexagon_tri","fractal_assignment":["../images/org_blu.png","../images/gry_blk.png","../images/ylw_slt.png","../images/cyn_red.png","../images/pnk_blu.png","../images/blu_wht.png"],"mutagen_generator_assignment":[1,0],"goal":4,"start":1,"action_noise":0.15,"location_history":"[1,5,4]","action_history":"[1,0]","mutagen_history":"[0,1]","location_rts":"[5320,1356]","trial_type":"fractal-mutation","trial_index":84,"time_elapsed":1361767,"internal_node_id":"0.0-5.0-30.0"},{"group":"hexagon_tri","fractal_assignment":["../images/org_blu.png","../images/gry_blk.png","../images/ylw_slt.png","../images/cyn_red.png","../images/pnk_blu.png","../images/blu_wht.png"],"mutagen_generator_assignment":[1,0],"goal":5,"start":4,"action_noise":0.15,"location_history":"[4,0,5]","action_history":"[0,0]","mutagen_history":"[1,1]","location_rts":"[988,2492]","trial_type":"fractal-mutation","trial_index":85,"time_elapsed":1370821,"internal_node_id":"0.0-5.0-31.0"},{"group":"hexagon_tri","fractal_assignment":["../images/org_blu.png","../images/gry_blk.png","../images/ylw_slt.png","../images/cyn_red.png","../images/pnk_blu.png","../images/blu_wht.png"],"mutagen_generator_assignment":[1,0],"goal":0,"start":5,"action_noise":0.15,"location_history":"[5,4,0]","action_history":"[0,0]","mutagen_history":"[1,1]","location_rts":"[3090,334]","trial_type":"fractal-mutation","trial_index":86,"time_elapsed":1379848,"internal_node_id":"0.0-5.0-32.0"},{"group":"hexagon_tri","fractal_assignment":["../images/org_blu.png","../images/gry_blk.png","../images/ylw_slt.png","../images/cyn_red.png","../images/pnk_blu.png","../images/blu_wht.png"],"mutagen_generator_assignment":[1,0],"goal":2,"start":0,"action_noise":0.15,"location_history":"[0,5,4,2]","action_history":"[0,0,1]","mutagen_history":"[1,1,0]","location_rts":"[2445,318,87]","trial_type":"fractal-mutation","trial_index":87,"time_elapsed":1389308,"internal_node_id":"0.0-5.0-33.0"},{"group":"hexagon_tri","fractal_assignment":["../images/org_blu.png","../images/gry_blk.png","../images/ylw_slt.png","../images/cyn_red.png","../images/pnk_blu.png","../images/blu_wht.png"],"mutagen_generator_assignment":[1,0],"goal":0,"start":2,"action_noise":0.15,"location_history":"[2,3,2,1,3,4,0]","action_history":"[1,0,0,0,0,1]","mutagen_history":"[0,1,1,1,1,0]","location_rts":"[229,491,11642,1704,6318,2241]","trial_type":"fractal-mutation","trial_index":88,"time_elapsed":1421616,"internal_node_id":"0.0-5.0-34.0"},{"group":"hexagon_tri","fractal_assignment":["../images/org_blu.png","../images/gry_blk.png","../images/ylw_slt.png","../images/cyn_red.png","../images/pnk_blu.png","../images/blu_wht.png"],"mutagen_generator_assignment":[1,0],"goal":5,"start":0,"action_noise":0.15,"location_history":"[0,1,3,2,1,5]","action_history":"[1,0,0,0,1]","mutagen_history":"[0,1,1,1,0]","location_rts":"[772,451,855,5353,5383]","trial_type":"fractal-mutation","trial_index":89,"time_elapsed":1443089,"internal_node_id":"0.0-5.0-35.0"},{"group":"hexagon_tri","fractal_assignment":["../images/org_blu.png","../images/gry_blk.png","../images/ylw_slt.png","../images/cyn_red.png","../images/pnk_blu.png","../images/blu_wht.png"],"mutagen_generator_assignment":[1,0],"goal":1,"start":5,"action_noise":0.15,"location_history":"[5,0,5,0,1]","action_history":"[1,0,1,0]","mutagen_history":"[0,1,0,1]","location_rts":"[9478,8067,7512,3125]","trial_type":"fractal-mutation","trial_index":90,"time_elapsed":1478939,"internal_node_id":"0.0-5.0-36.0"},{"group":"hexagon_tri","fractal_assignment":["../images/org_blu.png","../images/gry_blk.png","../images/ylw_slt.png","../images/cyn_red.png","../images/pnk_blu.png","../images/blu_wht.png"],"mutagen_generator_assignment":[1,0],"goal":4,"start":1,"action_noise":0.15,"location_history":"[1,5,4]","action_history":"[1,0]","mutagen_history":"[0,1]","location_rts":"[17033,1261]","trial_type":"fractal-mutation","trial_index":91,"time_elapsed":1502815,"internal_node_id":"0.0-5.0-37.0"},{"group":"hexagon_tri","fractal_assignment":["../images/org_blu.png","../images/gry_blk.png","../images/ylw_slt.png","../images/cyn_red.png","../images/pnk_blu.png","../images/blu_wht.png"],"mutagen_generator_assignment":[1,0],"goal":3,"start":4,"action_noise":0.15,"location_history":"[4,0,1,5,4,0,5,4,2,1,3]","action_history":"[0,1,1,0,0,0,0,1,0,0]","mutagen_history":"[1,0,0,1,1,1,1,0,1,1]","location_rts":"[10235,494,2679,462,5213,1244,304,330,163,113]","trial_type":"fractal-mutation","trial_index":92,"time_elapsed":1537841,"internal_node_id":"0.0-5.0-38.0"},{"group":"hexagon_tri","fractal_assignment":["../images/org_blu.png","../images/gry_blk.png","../images/ylw_slt.png","../images/cyn_red.png","../images/pnk_blu.png","../images/blu_wht.png"],"mutagen_generator_assignment":[1,0],"goal":5,"start":3,"action_noise":0.15,"location_history":"[3,4,0,1,5]","action_history":"[0,0,1,0]","mutagen_history":"[1,1,0,1]","location_rts":"[1395,8789,2636,5804]","trial_type":"fractal-mutation","trial_index":93,"time_elapsed":1564118,"internal_node_id":"0.0-5.0-39.0"},{"group":"hexagon_tri","fractal_assignment":["../images/org_blu.png","../images/gry_blk.png","../images/ylw_slt.png","../images/cyn_red.png","../images/pnk_blu.png","../images/blu_wht.png"],"mutagen_generator_assignment":[1,0],"goal":1,"start":5,"action_noise":0.15,"location_history":"[5,0,5,4,0,5,0,5,4,0,1]","action_history":"[0,0,0,1,0,0,0,0,1,1]","mutagen_history":"[1,1,1,0,1,1,1,1,0,0]","location_rts":"[1495,2420,2977,656,2876,3868,904,2122,2065,7425]","trial_type":"fractal-mutation","trial_index":94,"time_elapsed":1604795,"internal_node_id":"0.0-5.0-40.0"},{"group":"hexagon_tri","fractal_assignment":["../images/org_blu.png","../images/gry_blk.png","../images/ylw_slt.png","../images/cyn_red.png","../images/pnk_blu.png","../images/blu_wht.png"],"mutagen_generator_assignment":[1,0],"goal":2,"start":1,"action_noise":0.15,"location_history":"[1,3,2]","action_history":"[0,0]","mutagen_history":"[1,1]","location_rts":"[14955,663]","trial_type":"fractal-mutation","trial_index":95,"time_elapsed":1625995,"internal_node_id":"0.0-5.0-41.0"},{"group":"hexagon_tri","fractal_assignment":["../images/org_blu.png","../images/gry_blk.png","../images/ylw_slt.png","../images/cyn_red.png","../images/pnk_blu.png","../images/blu_wht.png"],"mutagen_generator_assignment":[1,0],"goal":4,"start":2,"action_noise":0.15,"location_history":"[2,1,3,2,3,2,3,4]","action_history":"[0,0,0,1,0,1,0]","mutagen_history":"[1,1,1,0,1,0,1]","location_rts":"[3016,1004,908,1401,313,2153,345]","trial_type":"fractal-mutation","trial_index":96,"time_elapsed":1645903,"internal_node_id":"0.0-5.0-42.0"},{"group":"hexagon_tri","fractal_assignment":["../images/org_blu.png","../images/gry_blk.png","../images/ylw_slt.png","../images/cyn_red.png","../images/pnk_blu.png","../images/blu_wht.png"],"mutagen_generator_assignment":[1,0],"goal":0,"start":4,"action_noise":0.15,"location_history":"[4,2,3,2,1,5,4,0]","action_history":"[0,1,0,0,1,0,0]","mutagen_history":"[1,0,1,1,0,1,1]","location_rts":"[477,467,1075,1160,804,399,1728]","trial_type":"fractal-mutation","trial_index":97,"time_elapsed":1662671,"internal_node_id":"0.0-5.0-43.0"},{"group":"hexagon_tri","fractal_assignment":["../images/org_blu.png","../images/gry_blk.png","../images/ylw_slt.png","../images/cyn_red.png","../images/pnk_blu.png","../images/blu_wht.png"],"mutagen_generator_assignment":[1,0],"goal":3,"start":0,"action_noise":0.15,"location_history":"[0,1,3]","action_history":"[1,0]","mutagen_history":"[0,1]","location_rts":"[517,785]","trial_type":"fractal-mutation","trial_index":98,"time_elapsed":1669543,"internal_node_id":"0.0-5.0-44.0"},{"group":"hexagon_tri","fractal_assignment":["../images/org_blu.png","../images/gry_blk.png","../images/ylw_slt.png","../images/cyn_red.png","../images/pnk_blu.png","../images/blu_wht.png"],"mutagen_generator_assignment":[1,0],"goal":0,"start":3,"action_noise":0.15,"location_history":"[3,4,0]","action_history":"[1,0]","mutagen_history":"[0,1]","location_rts":"[1790,889]","trial_type":"fractal-mutation","trial_index":99,"time_elapsed":1677793,"internal_node_id":"0.0-5.0-45.0"},{"group":"hexagon_tri","fractal_assignment":["../images/org_blu.png","../images/gry_blk.png","../images/ylw_slt.png","../images/cyn_red.png","../images/pnk_blu.png","../images/blu_wht.png"],"mutagen_generator_assignment":[1,0],"goal":4,"start":0,"action_noise":0.15,"location_history":"[0,5,4]","action_history":"[0,0]","mutagen_history":"[1,1]","location_rts":"[934,2232]","trial_type":"fractal-mutation","trial_index":100,"time_elapsed":1686562,"internal_node_id":"0.0-5.0-46.0"},{"group":"hexagon_tri","fractal_assignment":["../images/org_blu.png","../images/gry_blk.png","../images/ylw_slt.png","../images/cyn_red.png","../images/pnk_blu.png","../images/blu_wht.png"],"mutagen_generator_assignment":[1,0],"goal":5,"start":4,"action_noise":0.15,"location_history":"[4,2,3,2,1,3,2,1,3,2,3,2,3,2,1,5]","action_history":"[1,0,0,0,1,0,0,0,0,1,0,0,0,0,1]","mutagen_history":"[0,1,1,1,0,1,1,1,1,0,1,1,1,1,0]","location_rts":"[583,268,727,832,3119,179,1376,4395,808,1890,264,742,841,490,558]","trial_type":"fractal-mutation","trial_index":101,"time_elapsed":1722694,"internal_node_id":"0.0-5.0-47.0"},{"group":"hexagon_tri","fractal_assignment":["../images/org_blu.png","../images/gry_blk.png","../images/ylw_slt.png","../images/cyn_red.png","../images/pnk_blu.png","../images/blu_wht.png"],"mutagen_generator_assignment":[1,0],"goal":2,"start":5,"action_noise":0.15,"location_history":"[5,4,0,1,5,4,0,5,0,5,4,0,1,3,2]","action_history":"[0,0,1,0,0,0,0,1,0,0,0,1,0,0]","mutagen_history":"[1,1,0,1,1,1,1,0,1,1,1,0,1,1]","location_rts":"[389,700,2014,262,652,885,482,253,728,382,400,1159,514,998]","trial_type":"fractal-mutation","trial_index":102,"time_elapsed":1750576,"internal_node_id":"0.0-5.0-48.0"},{"group":"hexagon_tri","fractal_assignment":["../images/org_blu.png","../images/gry_blk.png","../images/ylw_slt.png","../images/cyn_red.png","../images/pnk_blu.png","../images/blu_wht.png"],"mutagen_generator_assignment":[1,0],"goal":1,"start":2,"action_noise":0.15,"location_history":"[2,3,2,1]","action_history":"[1,0,0]","mutagen_history":"[0,1,1]","location_rts":"[1546,469,1326]","trial_type":"fractal-mutation","trial_index":103,"time_elapsed":1760536,"internal_node_id":"0.0-5.0-49.0"},{"view_history":"[{\"page_index\":0,\"viewing_time\":2575}]","rt":2575,"trial_type":"instructions","trial_index":104,"time_elapsed":1764112,"internal_node_id":"0.0-6.0"},{"rt":44995,"responses":"{\"Q0\":\"If i can remember how to get to the colored room as fast as possible\"}","trial_type":"survey-text","trial_index":105,"time_elapsed":1810114,"internal_node_id":"0.0-7.0-0.0"},{"rt":19414,"responses":"{\"Q0\":\"How we can create the thing mixing and matching a and g\"}","trial_type":"survey-text","trial_index":106,"time_elapsed":1830528,"internal_node_id":"0.0-7.0-1.0"},{"rt":18869,"responses":"{\"Q0\":\"<img src='../images/diagrams/hexagon_tri.png'>\"}","trial_type":"survey-multi-choice","trial_index":107,"time_elapsed":1850401,"internal_node_id":"0.0-7.0-2.0"},{"rt":33691,"assignments":["../images/org_blu.png","../images/ylw_slt.png","../images/blu_wht.png","../images/pnk_blu.png","../images/gry_blk.png","../images/cyn_red.png"],"trial_type":"drag-drop-on-image","trial_index":108,"time_elapsed":1885096,"internal_node_id":"0.0-7.0-3.0"},{"rt":4637,"responses":"{\"Q0\":\"2\"}","trial_type":"survey-likert","trial_index":109,"time_elapsed":1890736,"internal_node_id":"0.0-7.0-4.0"},{"rt":13638,"responses":"{\"Q0\":\"It's both knowing how to get a result through memory i guess.\"}","trial_type":"survey-text","trial_index":110,"time_elapsed":1905375,"internal_node_id":"0.0-7.0-5.0"},{"rt":4564,"responses":"{\"Q0\":\"No\"}","trial_type":"survey-multi-choice","trial_index":111,"time_elapsed":1910944,"internal_node_id":"0.0-7.0-6.0"},{"rt":9367,"responses":"{\"Q0\":\"During these questions/I wasn't aware until you pointed it out\"}","trial_type":"survey-multi-choice","trial_index":112,"time_elapsed":1921320,"internal_node_id":"0.0-7.0-7.0"},{"rt":3726,"responses":"{\"Q0\":\"\"}","trial_type":"survey-text","trial_index":113,"time_elapsed":1926048,"internal_node_id":"0.0-7.0-8.0"},{"rt":7995,"responses":"{\"Q0\":\"2\"}","trial_type":"survey-likert","trial_index":114,"time_elapsed":1935048,"internal_node_id":"0.0-7.0-9.0"},{"rt":8730,"responses":"{\"Q0\":\"Same structure\"}","trial_type":"survey-multi-choice","trial_index":115,"time_elapsed":1944784,"internal_node_id":"0.0-7.0-10.0"},{"rt":18902,"responses":"{\"Q0\":\"left (white) door = acid, right (black) door = ray\",\"Q1\":\"Moderately confident\"}","trial_type":"survey-multi-choice","trial_index":116,"time_elapsed":1964696,"internal_node_id":"0.0-7.0-11.0"},{"rt":7267,"responses":"{\"Q0\":\"<25\",\"Q2\":\"Male\",\"Q3\":\"White\"}","trial_type":"survey-multi-choice","trial_index":117,"time_elapsed":1972985,"internal_node_id":"0.0-8.0"},{"rt":6836,"responses":"{\"Q0\":\"Thank you for the interesting hits!\"}","trial_type":"survey-text","trial_index":118,"time_elapsed":1980824,"internal_node_id":"0.0-9.0"}]