[{"view_history":"[{\"page_index\":0,\"viewing_time\":19007},{\"page_index\":1,\"viewing_time\":1191}]","rt":20200,"trial_type":"instructions","trial_index":0,"time_elapsed":20201,"internal_node_id":"0.0-0.0"},{"view_history":"[{\"page_index\":0,\"viewing_time\":5495},{\"page_index\":1,\"viewing_time\":1104}]","rt":6600,"trial_type":"instructions","trial_index":1,"time_elapsed":28868,"internal_node_id":"0.0-1.0"},{"group":"hexagon_bi","room_assignment":["red","yellow","green","purple","grey","blue"],"door_color_assignment":["black","white"],"door_generator_assignment":[1,0],"goal":2,"start":1,"action_noise":0.15,"location_history":"[1,0,1,2]","action_history":"[1,1,0]","door_history":"[0,0,1]","location_rts":"[9180,1517,587]","trial_type":"two-door-navigation","trial_index":2,"time_elapsed":46820,"internal_node_id":"0.0-2.0-0.0"},{"group":"hexagon_bi","room_assignment":["red","yellow","green","purple","grey","blue"],"door_color_assignment":["black","white"],"door_generator_assignment":[1,0],"goal":0,"start":2,"action_noise":0.15,"location_history":"[2,3,4,3,4,3,4,5,4,3,4,5,0]","action_history":"[1,1,1,0,0,0,1,1,0,0,1,0]","door_history":"[0,0,0,1,1,1,0,0,1,1,0,1]","location_rts":"[13712,9464,8916,1265,4606,662,745,1643,1447,597,669,1115]","trial_type":"two-door-navigation","trial_index":3,"time_elapsed":107232,"internal_node_id":"0.0-2.0-1.0"},{"group":"hexagon_bi","room_assignment":["red","yellow","green","purple","grey","blue"],"door_color_assignment":["black","white"],"door_generator_assignment":[1,0],"goal":5,"start":0,"action_noise":0.15,"location_history":"[0,5]","action_history":"[0]","door_history":"[1]","location_rts":"[6898]","trial_type":"two-door-navigation","trial_index":4,"time_elapsed":118633,"internal_node_id":"0.0-2.0-2.0"},{"group":"hexagon_bi","room_assignment":["red","yellow","green","purple","grey","blue"],"door_color_assignment":["black","white"],"door_generator_assignment":[1,0],"goal":1,"start":5,"action_noise":0.15,"location_history":"[5,4,3,2,1]","action_history":"[1,0,1,0]","door_history":"[0,1,0,1]","location_rts":"[6853,9320,12697,2157]","trial_type":"two-door-navigation","trial_index":5,"time_elapsed":157180,"internal_node_id":"0.0-2.0-3.0"},{"group":"hexagon_bi","room_assignment":["red","yellow","green","purple","grey","blue"],"door_color_assignment":["black","white"],"door_generator_assignment":[1,0],"goal":3,"start":1,"action_noise":0.15,"location_history":"[1,2,1,0,1,0,5,0,1,2,1,2,3]","action_history":"[0,0,1,1,1,0,1,1,0,0,0,1]","door_history":"[1,1,0,0,0,1,0,0,1,1,1,0]","location_rts":"[9028,3287,231,8462,228,4748,4103,550,577,582,711,536]","trial_type":"two-door-navigation","trial_index":6,"time_elapsed":205768,"internal_node_id":"0.0-2.0-4.0"},{"group":"hexagon_bi","room_assignment":["red","yellow","green","purple","grey","blue"],"door_color_assignment":["black","white"],"door_generator_assignment":[1,0],"goal":5,"start":3,"action_noise":0.15,"location_history":"[3,2,3,2,3,4,5]","action_history":"[0,1,1,1,0,1]","door_history":"[1,0,0,0,1,0]","location_rts":"[1540,686,659,589,140,5056]","trial_type":"two-door-navigation","trial_index":7,"time_elapsed":223968,"internal_node_id":"0.0-2.0-5.0"},{"group":"hexagon_bi","room_assignment":["red","yellow","green","purple","grey","blue"],"door_color_assignment":["black","white"],"door_generator_assignment":[1,0],"goal":4,"start":5,"action_noise":0.15,"location_history":"[5,0,1,0,5,0,5,4]","action_history":"[1,1,1,0,0,0,1]","door_history":"[0,0,0,1,1,1,0]","location_rts":"[9139,892,1168,714,487,364,227]","trial_type":"two-door-navigation","trial_index":8,"time_elapsed":247511,"internal_node_id":"0.0-2.0-6.0"},{"group":"hexagon_bi","room_assignment":["red","yellow","green","purple","grey","blue"],"door_color_assignment":["black","white"],"door_generator_assignment":[1,0],"goal":0,"start":4,"action_noise":0.15,"location_history":"[4,3,2,1,2,3,2,1,2,1,0]","action_history":"[0,1,0,0,1,1,0,0,0,1]","door_history":"[1,0,1,1,0,0,1,1,1,0]","location_rts":"[1309,2247,5148,2785,380,997,540,409,551,722]","trial_type":"two-door-navigation","trial_index":9,"time_elapsed":276168,"internal_node_id":"0.0-2.0-7.0"},{"group":"hexagon_bi","room_assignment":["red","yellow","green","purple","grey","blue"],"door_color_assignment":["black","white"],"door_generator_assignment":[1,0],"goal":2,"start":0,"action_noise":0.15,"location_history":"[0,1,2]","action_history":"[1,0]","door_history":"[0,1]","location_rts":"[11844,4185]","trial_type":"two-door-navigation","trial_index":10,"time_elapsed":297716,"internal_node_id":"0.0-2.0-8.0"},{"group":"hexagon_bi","room_assignment":["red","yellow","green","purple","grey","blue"],"door_color_assignment":["black","white"],"door_generator_assignment":[1,0],"goal":4,"start":2,"action_noise":0.15,"location_history":"[2,1,2,3,2,1,2,1,0,1,2,1,2,3,2,3,4]","action_history":"[0,0,1,1,0,1,0,1,0,1,0,0,1,1,1,0]","door_history":"[1,1,0,0,1,0,1,0,1,0,1,1,0,0,0,1]","location_rts":"[3343,403,278,495,538,876,1714,1582,960,1359,1464,617,3617,3301,730,5614]","trial_type":"two-door-navigation","trial_index":11,"time_elapsed":344286,"internal_node_id":"0.0-2.0-9.0"},{"group":"hexagon_bi","room_assignment":["red","yellow","green","purple","grey","blue"],"door_color_assignment":["black","white"],"door_generator_assignment":[1,0],"goal":2,"start":4,"action_noise":0.15,"location_history":"[4,5,4,3,4,3,4,3,4,3,2]","action_history":"[0,1,0,0,1,1,0,0,0,1]","door_history":"[1,0,1,1,0,0,1,1,1,0]","location_rts":"[7252,984,447,321,341,344,470,600,130,589]","trial_type":"two-door-navigation","trial_index":12,"time_elapsed":369331,"internal_node_id":"0.0-2.0-10.0"},{"group":"hexagon_bi","room_assignment":["red","yellow","green","purple","grey","blue"],"door_color_assignment":["black","white"],"door_generator_assignment":[1,0],"goal":3,"start":2,"action_noise":0.15,"location_history":"[2,3]","action_history":"[1]","door_history":"[0]","location_rts":"[3426]","trial_type":"two-door-navigation","trial_index":13,"time_elapsed":377266,"internal_node_id":"0.0-2.0-11.0"},{"group":"hexagon_bi","room_assignment":["red","yellow","green","purple","grey","blue"],"door_color_assignment":["black","white"],"door_generator_assignment":[1,0],"goal":0,"start":3,"action_noise":0.15,"location_history":"[3,4,3,4,3,4,5,0]","action_history":"[0,1,0,0,0,1,0]","door_history":"[1,0,1,1,1,0,1]","location_rts":"[1104,3903,1082,309,493,797,1390]","trial_type":"two-door-navigation","trial_index":14,"time_elapsed":396874,"internal_node_id":"0.0-2.0-12.0"},{"group":"hexagon_bi","room_assignment":["red","yellow","green","purple","grey","blue"],"door_color_assignment":["black","white"],"door_generator_assignment":[1,0],"goal":5,"start":0,"action_noise":0.15,"location_history":"[0,5]","action_history":"[1]","door_history":"[0]","location_rts":"[1641]","trial_type":"two-door-navigation","trial_index":15,"time_elapsed":403022,"internal_node_id":"0.0-2.0-13.0"},{"group":"hexagon_bi","room_assignment":["red","yellow","green","purple","grey","blue"],"door_color_assignment":["black","white"],"door_generator_assignment":[1,0],"goal":1,"start":5,"action_noise":0.15,"location_history":"[5,4,5,4,3,2,3,2,3,4,5,0,5,0,5,4,5,4,3,4,5,4,5,0,1]","action_history":"[0,1,1,0,1,1,1,0,0,1,1,1,0,0,1,1,1,0,0,1,1,1,0,1]","door_history":"[1,0,0,1,0,0,0,1,1,0,0,0,1,1,0,0,0,1,1,0,0,0,1,0]","location_rts":"[1786,1277,1527,78,852,460,413,417,380,540,369,446,661,879,361,765,3966,3667,480,446,1425,285,223,982]","trial_type":"two-door-navigation","trial_index":16,"time_elapsed":453316,"internal_node_id":"0.0-2.0-14.0"},{"group":"hexagon_bi","room_assignment":["red","yellow","green","purple","grey","blue"],"door_color_assignment":["black","white"],"door_generator_assignment":[1,0],"goal":5,"start":1,"action_noise":0.15,"location_history":"[1,0,1,2,3,2,1,0,1,0,5]","action_history":"[1,0,0,1,1,0,0,1,1,0]","door_history":"[0,1,1,0,0,1,1,0,0,1]","location_rts":"[1655,1163,722,288,384,761,301,1460,1004,835]","trial_type":"two-door-navigation","trial_index":17,"time_elapsed":475466,"internal_node_id":"0.0-2.0-15.0"},{"group":"hexagon_bi","room_assignment":["red","yellow","green","purple","grey","blue"],"door_color_assignment":["black","white"],"door_generator_assignment":[1,0],"goal":3,"start":5,"action_noise":0.15,"location_history":"[5,4,3]","action_history":"[1,0]","door_history":"[0,1]","location_rts":"[1313,1022]","trial_type":"two-door-navigation","trial_index":18,"time_elapsed":483315,"internal_node_id":"0.0-2.0-16.0"},{"group":"hexagon_bi","room_assignment":["red","yellow","green","purple","grey","blue"],"door_color_assignment":["black","white"],"door_generator_assignment":[1,0],"goal":2,"start":3,"action_noise":0.15,"location_history":"[3,2]","action_history":"[1]","door_history":"[0]","location_rts":"[1095]","trial_type":"two-door-navigation","trial_index":19,"time_elapsed":488914,"internal_node_id":"0.0-2.0-17.0"},{"group":"hexagon_bi","room_assignment":["red","yellow","green","purple","grey","blue"],"door_color_assignment":["black","white"],"door_generator_assignment":[1,0],"goal":1,"start":2,"action_noise":0.15,"location_history":"[2,1]","action_history":"[0]","door_history":"[1]","location_rts":"[592]","trial_type":"two-door-navigation","trial_index":20,"time_elapsed":494009,"internal_node_id":"0.0-2.0-18.0"},{"group":"hexagon_bi","room_assignment":["red","yellow","green","purple","grey","blue"],"door_color_assignment":["black","white"],"door_generator_assignment":[1,0],"goal":4,"start":1,"action_noise":0.15,"location_history":"[1,0,5,0,1,0,1,2,1,0,1,0,5,0,1,0,1,0,5,4]","action_history":"[1,0,0,1,1,1,0,0,1,1,0,0,0,1,1,1,1,0,1]","door_history":"[0,1,1,0,0,0,1,1,0,0,1,1,1,0,0,0,0,1,0]","location_rts":"[978,2015,352,891,353,382,455,398,391,599,314,591,896,1135,3450,841,982,176,5061]","trial_type":"two-door-navigation","trial_index":21,"time_elapsed":536829,"internal_node_id":"0.0-2.0-19.0"},{"group":"hexagon_bi","room_assignment":["red","yellow","green","purple","grey","blue"],"door_color_assignment":["black","white"],"door_generator_assignment":[1,0],"goal":0,"start":4,"action_noise":0.15,"location_history":"[4,3,2,3,2,1,0]","action_history":"[0,1,1,1,0,1]","door_history":"[1,0,0,0,1,0]","location_rts":"[6573,1601,382,946,420,749]","trial_type":"two-door-navigation","trial_index":22,"time_elapsed":557033,"internal_node_id":"0.0-2.0-20.0"},{"group":"hexagon_bi","room_assignment":["red","yellow","green","purple","grey","blue"],"door_color_assignment":["black","white"],"door_generator_assignment":[1,0],"goal":3,"start":0,"action_noise":0.15,"location_history":"[0,5,4,5,4,3]","action_history":"[0,1,1,1,0]","door_history":"[1,0,0,0,1]","location_rts":"[1153,709,787,395,217]","trial_type":"two-door-navigation","trial_index":23,"time_elapsed":568825,"internal_node_id":"0.0-2.0-21.0"},{"group":"hexagon_bi","room_assignment":["red","yellow","green","purple","grey","blue"],"door_color_assignment":["black","white"],"door_generator_assignment":[1,0],"goal":1,"start":3,"action_noise":0.15,"location_history":"[3,2,1]","action_history":"[1,0]","door_history":"[0,1]","location_rts":"[1602,1147]","trial_type":"two-door-navigation","trial_index":24,"time_elapsed":577097,"internal_node_id":"0.0-2.0-22.0"},{"group":"hexagon_bi","room_assignment":["red","yellow","green","purple","grey","blue"],"door_color_assignment":["black","white"],"door_generator_assignment":[1,0],"goal":0,"start":1,"action_noise":0.15,"location_history":"[1,0]","action_history":"[1]","door_history":"[0]","location_rts":"[440]","trial_type":"two-door-navigation","trial_index":25,"time_elapsed":582038,"internal_node_id":"0.0-2.0-23.0"},{"group":"hexagon_bi","room_assignment":["red","yellow","green","purple","grey","blue"],"door_color_assignment":["black","white"],"door_generator_assignment":[1,0],"goal":2,"start":0,"action_noise":0.15,"location_history":"[0,5,4,3,4,5,0,5,4,3,2]","action_history":"[0,1,0,0,1,0,1,1,0,0]","door_history":"[1,0,1,1,0,1,0,0,1,1]","location_rts":"[8134,1030,722,416,742,990,646,510,524,1083]","trial_type":"two-door-navigation","trial_index":26,"time_elapsed":610420,"internal_node_id":"0.0-2.0-24.0"},{"group":"hexagon_bi","room_assignment":["red","yellow","green","purple","grey","blue"],"door_color_assignment":["black","white"],"door_generator_assignment":[1,0],"goal":4,"start":2,"action_noise":0.15,"location_history":"[2,3,4]","action_history":"[1,0]","door_history":"[0,1]","location_rts":"[2126,1336]","trial_type":"two-door-navigation","trial_index":27,"time_elapsed":619387,"internal_node_id":"0.0-2.0-25.0"},{"group":"hexagon_bi","room_assignment":["red","yellow","green","purple","grey","blue"],"door_color_assignment":["black","white"],"door_generator_assignment":[1,0],"goal":5,"start":4,"action_noise":0.15,"location_history":"[4,5]","action_history":"[1]","door_history":"[0]","location_rts":"[753]","trial_type":"two-door-navigation","trial_index":28,"time_elapsed":624643,"internal_node_id":"0.0-2.0-26.0"},{"group":"hexagon_bi","room_assignment":["red","yellow","green","purple","grey","blue"],"door_color_assignment":["black","white"],"door_generator_assignment":[1,0],"goal":2,"start":5,"action_noise":0.15,"location_history":"[5,4,5,4,3,4,3,2]","action_history":"[0,1,1,0,0,0,1]","door_history":"[1,0,0,1,1,1,0]","location_rts":"[1503,836,584,1200,366,818,228]","trial_type":"two-door-navigation","trial_index":29,"time_elapsed":640739,"internal_node_id":"0.0-2.0-27.0"},{"group":"hexagon_bi","room_assignment":["red","yellow","green","purple","grey","blue"],"door_color_assignment":["black","white"],"door_generator_assignment":[1,0],"goal":3,"start":2,"action_noise":0.15,"location_history":"[2,1,0,5,0,5,4,5,4,5,4,3]","action_history":"[0,1,0,0,0,1,0,1,1,1,0]","door_history":"[1,0,1,1,1,0,1,0,0,0,1]","location_rts":"[1336,756,1205,335,822,153,1271,856,510,782,238]","trial_type":"two-door-navigation","trial_index":30,"time_elapsed":663532,"internal_node_id":"0.0-2.0-28.0"},{"group":"hexagon_bi","room_assignment":["red","yellow","green","purple","grey","blue"],"door_color_assignment":["black","white"],"door_generator_assignment":[1,0],"goal":1,"start":3,"action_noise":0.15,"location_history":"[3,2,1]","action_history":"[1,0]","door_history":"[0,1]","location_rts":"[1157,1529]","trial_type":"two-door-navigation","trial_index":31,"time_elapsed":671730,"internal_node_id":"0.0-2.0-29.0"},{"group":"hexagon_bi","room_assignment":["red","yellow","green","purple","grey","blue"],"door_color_assignment":["black","white"],"door_generator_assignment":[1,0],"goal":4,"start":1,"action_noise":0.15,"location_history":"[1,0,1,0,5,4]","action_history":"[0,1,1,0,1]","door_history":"[1,0,0,1,0]","location_rts":"[650,485,927,623,220]","trial_type":"two-door-navigation","trial_index":32,"time_elapsed":683144,"internal_node_id":"0.0-2.0-30.0"},{"group":"hexagon_bi","room_assignment":["red","yellow","green","purple","grey","blue"],"door_color_assignment":["black","white"],"door_generator_assignment":[1,0],"goal":5,"start":4,"action_noise":0.15,"location_history":"[4,3,2,1,2,3,2,1,0,5]","action_history":"[0,1,0,0,1,1,0,1,0]","door_history":"[1,0,1,1,0,0,1,0,1]","location_rts":"[955,1056,1070,623,605,414,28,1153,432]","trial_type":"two-door-navigation","trial_index":33,"time_elapsed":702014,"internal_node_id":"0.0-2.0-31.0"},{"group":"hexagon_bi","room_assignment":["red","yellow","green","purple","grey","blue"],"door_color_assignment":["black","white"],"door_generator_assignment":[1,0],"goal":0,"start":5,"action_noise":0.15,"location_history":"[5,0]","action_history":"[0]","door_history":"[1]","location_rts":"[2348]","trial_type":"two-door-navigation","trial_index":34,"time_elapsed":708865,"internal_node_id":"0.0-2.0-32.0"},{"group":"hexagon_bi","room_assignment":["red","yellow","green","purple","grey","blue"],"door_color_assignment":["black","white"],"door_generator_assignment":[1,0],"goal":2,"start":0,"action_noise":0.15,"location_history":"[0,1,2]","action_history":"[1,0]","door_history":"[0,1]","location_rts":"[961,732]","trial_type":"two-door-navigation","trial_index":35,"time_elapsed":716063,"internal_node_id":"0.0-2.0-33.0"},{"group":"hexagon_bi","room_assignment":["red","yellow","green","purple","grey","blue"],"door_color_assignment":["black","white"],"door_generator_assignment":[1,0],"goal":0,"start":2,"action_noise":0.15,"location_history":"[2,3,4,5,0]","action_history":"[1,0,1,0]","door_history":"[0,1,0,1]","location_rts":"[834,440,602,1824]","trial_type":"two-door-navigation","trial_index":36,"time_elapsed":727280,"internal_node_id":"0.0-2.0-34.0"},{"group":"hexagon_bi","room_assignment":["red","yellow","green","purple","grey","blue"],"door_color_assignment":["black","white"],"door_generator_assignment":[1,0],"goal":5,"start":0,"action_noise":0.15,"location_history":"[0,1,2,3,2,3,4,5]","action_history":"[0,0,1,1,1,0,1]","door_history":"[1,1,0,0,0,1,0]","location_rts":"[2035,573,639,408,528,531,223]","trial_type":"two-door-navigation","trial_index":37,"time_elapsed":742752,"internal_node_id":"0.0-2.0-35.0"},{"group":"hexagon_bi","room_assignment":["red","yellow","green","purple","grey","blue"],"door_color_assignment":["black","white"],"door_generator_assignment":[1,0],"goal":1,"start":5,"action_noise":0.15,"location_history":"[5,4,3,2,1]","action_history":"[1,0,0,1]","door_history":"[0,1,1,0]","location_rts":"[6170,731,2855,1137]","trial_type":"two-door-navigation","trial_index":38,"time_elapsed":761152,"internal_node_id":"0.0-2.0-36.0"},{"group":"hexagon_bi","room_assignment":["red","yellow","green","purple","grey","blue"],"door_color_assignment":["black","white"],"door_generator_assignment":[1,0],"goal":4,"start":1,"action_noise":0.15,"location_history":"[1,2,3,4]","action_history":"[0,1,0]","door_history":"[1,0,1]","location_rts":"[1259,762,484]","trial_type":"two-door-navigation","trial_index":39,"time_elapsed":770170,"internal_node_id":"0.0-2.0-37.0"},{"group":"hexagon_bi","room_assignment":["red","yellow","green","purple","grey","blue"],"door_color_assignment":["black","white"],"door_generator_assignment":[1,0],"goal":3,"start":4,"action_noise":0.15,"location_history":"[4,5,0,1,2,1,0,5,4,3]","action_history":"[1,0,1,0,0,1,0,1,0]","door_history":"[0,1,0,1,1,0,1,0,1]","location_rts":"[983,908,670,495,388,831,1143,286,1093]","trial_type":"two-door-navigation","trial_index":40,"time_elapsed":789548,"internal_node_id":"0.0-2.0-38.0"},{"group":"hexagon_bi","room_assignment":["red","yellow","green","purple","grey","blue"],"door_color_assignment":["black","white"],"door_generator_assignment":[1,0],"goal":5,"start":3,"action_noise":0.15,"location_history":"[3,2,3,2,1,0,5]","action_history":"[1,0,1,0,1,0]","door_history":"[0,1,0,1,0,1]","location_rts":"[830,28,210,603,3207,3044]","trial_type":"two-door-navigation","trial_index":41,"time_elapsed":807005,"internal_node_id":"0.0-2.0-39.0"},{"group":"hexagon_bi","room_assignment":["red","yellow","green","purple","grey","blue"],"door_color_assignment":["black","white"],"door_generator_assignment":[1,0],"goal":1,"start":5,"action_noise":0.15,"location_history":"[5,4,3,2,3,4,5,0,1]","action_history":"[1,0,1,1,0,1,0,1]","door_history":"[0,1,0,0,1,0,1,0]","location_rts":"[5287,1293,1112,512,278,825,326,1016]","trial_type":"two-door-navigation","trial_index":42,"time_elapsed":829164,"internal_node_id":"0.0-2.0-40.0"},{"group":"hexagon_bi","room_assignment":["red","yellow","green","purple","grey","blue"],"door_color_assignment":["black","white"],"door_generator_assignment":[1,0],"goal":2,"start":1,"action_noise":0.15,"location_history":"[1,2]","action_history":"[0]","door_history":"[1]","location_rts":"[2293]","trial_type":"two-door-navigation","trial_index":43,"time_elapsed":835960,"internal_node_id":"0.0-2.0-41.0"},{"group":"hexagon_bi","room_assignment":["red","yellow","green","purple","grey","blue"],"door_color_assignment":["black","white"],"door_generator_assignment":[1,0],"goal":4,"start":2,"action_noise":0.15,"location_history":"[2,1,0,1,2,1,2,3,4]","action_history":"[0,1,1,0,1,0,1,0]","door_history":"[1,0,0,1,0,1,0,1]","location_rts":"[1101,788,417,305,67,184,181,368]","trial_type":"two-door-navigation","trial_index":44,"time_elapsed":850920,"internal_node_id":"0.0-2.0-42.0"},{"group":"hexagon_bi","room_assignment":["red","yellow","green","purple","grey","blue"],"door_color_assignment":["black","white"],"door_generator_assignment":[1,0],"goal":0,"start":4,"action_noise":0.15,"location_history":"[4,5,0]","action_history":"[1,0]","door_history":"[0,1]","location_rts":"[793,229]","trial_type":"two-door-navigation","trial_index":45,"time_elapsed":857466,"internal_node_id":"0.0-2.0-43.0"},{"group":"hexagon_bi","room_assignment":["red","yellow","green","purple","grey","blue"],"door_color_assignment":["black","white"],"door_generator_assignment":[1,0],"goal":3,"start":0,"action_noise":0.15,"location_history":"[0,1,2,1,2,3]","action_history":"[1,0,1,0,1]","door_history":"[0,1,0,1,0]","location_rts":"[1122,276,291,277,396]","trial_type":"two-door-navigation","trial_index":46,"time_elapsed":868353,"internal_node_id":"0.0-2.0-44.0"},{"group":"hexagon_bi","room_assignment":["red","yellow","green","purple","grey","blue"],"door_color_assignment":["black","white"],"door_generator_assignment":[1,0],"goal":0,"start":3,"action_noise":0.15,"location_history":"[3,2,3,2,1,2,1,0]","action_history":"[1,0,1,0,1,0,1]","door_history":"[0,1,0,1,0,1,0]","location_rts":"[879,32,349,224,315,114,952]","trial_type":"two-door-navigation","trial_index":47,"time_elapsed":881754,"internal_node_id":"0.0-2.0-45.0"},{"group":"hexagon_bi","room_assignment":["red","yellow","green","purple","grey","blue"],"door_color_assignment":["black","white"],"door_generator_assignment":[1,0],"goal":4,"start":0,"action_noise":0.15,"location_history":"[0,5,4]","action_history":"[0,1]","door_history":"[1,0]","location_rts":"[1272,355]","trial_type":"two-door-navigation","trial_index":48,"time_elapsed":888892,"internal_node_id":"0.0-2.0-46.0"},{"group":"hexagon_bi","room_assignment":["red","yellow","green","purple","grey","blue"],"door_color_assignment":["black","white"],"door_generator_assignment":[1,0],"goal":5,"start":4,"action_noise":0.15,"location_history":"[4,3,2,1,0,5]","action_history":"[0,1,0,1,0]","door_history":"[1,0,1,0,1]","location_rts":"[822,408,194,170,274]","trial_type":"two-door-navigation","trial_index":49,"time_elapsed":899281,"internal_node_id":"0.0-2.0-47.0"},{"group":"hexagon_bi","room_assignment":["red","yellow","green","purple","grey","blue"],"door_color_assignment":["black","white"],"door_generator_assignment":[1,0],"goal":2,"start":5,"action_noise":0.15,"location_history":"[5,4,3,2]","action_history":"[1,0,1]","door_history":"[0,1,0]","location_rts":"[546,106,341]","trial_type":"two-door-navigation","trial_index":50,"time_elapsed":906786,"internal_node_id":"0.0-2.0-48.0"},{"group":"hexagon_bi","room_assignment":["red","yellow","green","purple","grey","blue"],"door_color_assignment":["black","white"],"door_generator_assignment":[1,0],"goal":1,"start":2,"action_noise":0.15,"location_history":"[2,1]","action_history":"[0]","door_history":"[1]","location_rts":"[377]","trial_type":"two-door-navigation","trial_index":51,"time_elapsed":911664,"internal_node_id":"0.0-2.0-49.0"},{"view_history":"[{\"page_index\":0,\"viewing_time\":1428}]","rt":1429,"trial_type":"instructions","trial_index":52,"time_elapsed":914094,"internal_node_id":"0.0-3.0"},{"view_history":"[{\"page_index\":0,\"viewing_time\":5310},{\"page_index\":1,\"viewing_time\":3207}]","rt":8519,"trial_type":"instructions","trial_index":53,"time_elapsed":923613,"internal_node_id":"0.0-4.0"},{"group":"hexagon_bi","fractal_assignment":["../images/ylw_slt.png","../images/pnk_blu.png","../images/cyn_red.png","../images/blu_wht.png","../images/org_blu.png","../images/gry_blk.png"],"mutagen_generator_assignment":[1,0],"goal":2,"start":1,"action_noise":0.15,"location_history":"[1,0,5,4,5,0,5,4,5,0,5,4,3,2]","action_history":"[1,0,1,1,0,0,1,1,0,0,1,0,1]","mutagen_history":"[0,1,0,0,1,1,0,0,1,1,0,1,0]","location_rts":"[6882,632,360,940,327,414,154,505,781,399,564,485,483]","trial_type":"fractal-mutation","trial_index":54,"time_elapsed":953455,"internal_node_id":"0.0-5.0-0.0"},{"group":"hexagon_bi","fractal_assignment":["../images/ylw_slt.png","../images/pnk_blu.png","../images/cyn_red.png","../images/blu_wht.png","../images/org_blu.png","../images/gry_blk.png"],"mutagen_generator_assignment":[1,0],"goal":0,"start":2,"action_noise":0.15,"location_history":"[2,1,0]","action_history":"[0,1]","mutagen_history":"[1,0]","location_rts":"[936,171]","trial_type":"fractal-mutation","trial_index":55,"time_elapsed":960136,"internal_node_id":"0.0-5.0-1.0"},{"group":"hexagon_bi","fractal_assignment":["../images/ylw_slt.png","../images/pnk_blu.png","../images/cyn_red.png","../images/blu_wht.png","../images/org_blu.png","../images/gry_blk.png"],"mutagen_generator_assignment":[1,0],"goal":5,"start":0,"action_noise":0.15,"location_history":"[0,5]","action_history":"[0]","mutagen_history":"[1]","location_rts":"[1391]","trial_type":"fractal-mutation","trial_index":56,"time_elapsed":966064,"internal_node_id":"0.0-5.0-2.0"},{"group":"hexagon_bi","fractal_assignment":["../images/ylw_slt.png","../images/pnk_blu.png","../images/cyn_red.png","../images/blu_wht.png","../images/org_blu.png","../images/gry_blk.png"],"mutagen_generator_assignment":[1,0],"goal":1,"start":5,"action_noise":0.15,"location_history":"[5,4,3,4,3,2,1]","action_history":"[1,0,0,1,1,0]","mutagen_history":"[0,1,1,0,0,1]","location_rts":"[817,887,1090,528,536,435]","trial_type":"fractal-mutation","trial_index":57,"time_elapsed":980095,"internal_node_id":"0.0-5.0-3.0"},{"group":"hexagon_bi","fractal_assignment":["../images/ylw_slt.png","../images/pnk_blu.png","../images/cyn_red.png","../images/blu_wht.png","../images/org_blu.png","../images/gry_blk.png"],"mutagen_generator_assignment":[1,0],"goal":3,"start":1,"action_noise":0.15,"location_history":"[1,0,5,0,1,2,3]","action_history":"[1,0,0,1,1,0]","mutagen_history":"[0,1,1,0,0,1]","location_rts":"[486,589,859,327,584,441]","trial_type":"fractal-mutation","trial_index":58,"time_elapsed":993098,"internal_node_id":"0.0-5.0-4.0"},{"group":"hexagon_bi","fractal_assignment":["../images/ylw_slt.png","../images/pnk_blu.png","../images/cyn_red.png","../images/blu_wht.png","../images/org_blu.png","../images/gry_blk.png"],"mutagen_generator_assignment":[1,0],"goal":5,"start":3,"action_noise":0.15,"location_history":"[3,4,5]","action_history":"[0,1]","mutagen_history":"[1,0]","location_rts":"[1056,316]","trial_type":"fractal-mutation","trial_index":59,"time_elapsed":1000048,"internal_node_id":"0.0-5.0-5.0"},{"group":"hexagon_bi","fractal_assignment":["../images/ylw_slt.png","../images/pnk_blu.png","../images/cyn_red.png","../images/blu_wht.png","../images/org_blu.png","../images/gry_blk.png"],"mutagen_generator_assignment":[1,0],"goal":4,"start":5,"action_noise":0.15,"location_history":"[5,0,1,2,3,2,1,0,1,2,3,4]","action_history":"[0,1,0,1,1,1,0,0,0,1,0]","mutagen_history":"[1,0,1,0,0,0,1,1,1,0,1]","location_rts":"[770,332,492,480,524,474,134,391,754,167,364]","trial_type":"fractal-mutation","trial_index":60,"time_elapsed":1019751,"internal_node_id":"0.0-5.0-6.0"},{"group":"hexagon_bi","fractal_assignment":["../images/ylw_slt.png","../images/pnk_blu.png","../images/cyn_red.png","../images/blu_wht.png","../images/org_blu.png","../images/gry_blk.png"],"mutagen_generator_assignment":[1,0],"goal":0,"start":4,"action_noise":0.15,"location_history":"[4,5,4,5,0]","action_history":"[0,1,1,0]","mutagen_history":"[1,0,0,1]","location_rts":"[674,295,498,582]","trial_type":"fractal-mutation","trial_index":61,"time_elapsed":1029397,"internal_node_id":"0.0-5.0-7.0"},{"group":"hexagon_bi","fractal_assignment":["../images/ylw_slt.png","../images/pnk_blu.png","../images/cyn_red.png","../images/blu_wht.png","../images/org_blu.png","../images/gry_blk.png"],"mutagen_generator_assignment":[1,0],"goal":2,"start":0,"action_noise":0.15,"location_history":"[0,5,0,5,4,5,0,1,0,5,4,3,2]","action_history":"[0,1,0,1,1,0,1,1,0,0,0,1]","mutagen_history":"[1,0,1,0,0,1,0,0,1,1,1,0]","location_rts":"[1264,386,373,158,229,222,174,398,477,271,742,462]","trial_type":"fractal-mutation","trial_index":62,"time_elapsed":1050421,"internal_node_id":"0.0-5.0-8.0"},{"group":"hexagon_bi","fractal_assignment":["../images/ylw_slt.png","../images/pnk_blu.png","../images/cyn_red.png","../images/blu_wht.png","../images/org_blu.png","../images/gry_blk.png"],"mutagen_generator_assignment":[1,0],"goal":4,"start":2,"action_noise":0.15,"location_history":"[2,1,0,1,0,5,0,5,0,5,4]","action_history":"[0,1,0,1,0,0,1,0,0,1]","mutagen_history":"[1,0,1,0,1,1,0,1,1,0]","location_rts":"[334,262,398,708,366,560,811,278,362,437]","trial_type":"fractal-mutation","trial_index":63,"time_elapsed":1068692,"internal_node_id":"0.0-5.0-9.0"},{"group":"hexagon_bi","fractal_assignment":["../images/ylw_slt.png","../images/pnk_blu.png","../images/cyn_red.png","../images/blu_wht.png","../images/org_blu.png","../images/gry_blk.png"],"mutagen_generator_assignment":[1,0],"goal":2,"start":4,"action_noise":0.15,"location_history":"[4,3,2]","action_history":"[0,1]","mutagen_history":"[1,0]","location_rts":"[2029,336]","trial_type":"fractal-mutation","trial_index":64,"time_elapsed":1076617,"internal_node_id":"0.0-5.0-10.0"},{"group":"hexagon_bi","fractal_assignment":["../images/ylw_slt.png","../images/pnk_blu.png","../images/cyn_red.png","../images/blu_wht.png","../images/org_blu.png","../images/gry_blk.png"],"mutagen_generator_assignment":[1,0],"goal":3,"start":2,"action_noise":0.15,"location_history":"[2,3]","action_history":"[1]","mutagen_history":"[0]","location_rts":"[1129]","trial_type":"fractal-mutation","trial_index":65,"time_elapsed":1082258,"internal_node_id":"0.0-5.0-11.0"},{"group":"hexagon_bi","fractal_assignment":["../images/ylw_slt.png","../images/pnk_blu.png","../images/cyn_red.png","../images/blu_wht.png","../images/org_blu.png","../images/gry_blk.png"],"mutagen_generator_assignment":[1,0],"goal":0,"start":3,"action_noise":0.15,"location_history":"[3,4,5,0]","action_history":"[1,0,0]","mutagen_history":"[0,1,1]","location_rts":"[2088,330,349]","trial_type":"fractal-mutation","trial_index":66,"time_elapsed":1091612,"internal_node_id":"0.0-5.0-12.0"},{"group":"hexagon_bi","fractal_assignment":["../images/ylw_slt.png","../images/pnk_blu.png","../images/cyn_red.png","../images/blu_wht.png","../images/org_blu.png","../images/gry_blk.png"],"mutagen_generator_assignment":[1,0],"goal":5,"start":0,"action_noise":0.15,"location_history":"[0,1,2,1,0,1,2,1,0,5]","action_history":"[1,0,0,1,1,0,0,1,1]","mutagen_history":"[0,1,1,0,0,1,1,0,0]","location_rts":"[953,411,377,426,531,1332,375,452,277]","trial_type":"fractal-mutation","trial_index":67,"time_elapsed":1109480,"internal_node_id":"0.0-5.0-13.0"},{"group":"hexagon_bi","fractal_assignment":["../images/ylw_slt.png","../images/pnk_blu.png","../images/cyn_red.png","../images/blu_wht.png","../images/org_blu.png","../images/gry_blk.png"],"mutagen_generator_assignment":[1,0],"goal":1,"start":5,"action_noise":0.15,"location_history":"[5,4,3,2,1]","action_history":"[1,0,1,0]","mutagen_history":"[0,1,0,1]","location_rts":"[873,405,533,150]","trial_type":"fractal-mutation","trial_index":68,"time_elapsed":1119082,"internal_node_id":"0.0-5.0-14.0"},{"group":"hexagon_bi","fractal_assignment":["../images/ylw_slt.png","../images/pnk_blu.png","../images/cyn_red.png","../images/blu_wht.png","../images/org_blu.png","../images/gry_blk.png"],"mutagen_generator_assignment":[1,0],"goal":5,"start":1,"action_noise":0.15,"location_history":"[1,0,5]","action_history":"[0,1]","mutagen_history":"[1,0]","location_rts":"[836,381]","trial_type":"fractal-mutation","trial_index":69,"time_elapsed":1125859,"internal_node_id":"0.0-5.0-15.0"},{"group":"hexagon_bi","fractal_assignment":["../images/ylw_slt.png","../images/pnk_blu.png","../images/cyn_red.png","../images/blu_wht.png","../images/org_blu.png","../images/gry_blk.png"],"mutagen_generator_assignment":[1,0],"goal":3,"start":5,"action_noise":0.15,"location_history":"[5,0,5,0,5,0,1,2,3]","action_history":"[0,1,1,0,0,1,0,1]","mutagen_history":"[1,0,0,1,1,0,1,0]","location_rts":"[1287,299,512,205,503,325,185,201]","trial_type":"fractal-mutation","trial_index":70,"time_elapsed":1141097,"internal_node_id":"0.0-5.0-16.0"},{"group":"hexagon_bi","fractal_assignment":["../images/ylw_slt.png","../images/pnk_blu.png","../images/cyn_red.png","../images/blu_wht.png","../images/org_blu.png","../images/gry_blk.png"],"mutagen_generator_assignment":[1,0],"goal":2,"start":3,"action_noise":0.15,"location_history":"[3,2]","action_history":"[0]","mutagen_history":"[1]","location_rts":"[345]","trial_type":"fractal-mutation","trial_index":71,"time_elapsed":1145983,"internal_node_id":"0.0-5.0-17.0"},{"group":"hexagon_bi","fractal_assignment":["../images/ylw_slt.png","../images/pnk_blu.png","../images/cyn_red.png","../images/blu_wht.png","../images/org_blu.png","../images/gry_blk.png"],"mutagen_generator_assignment":[1,0],"goal":1,"start":2,"action_noise":0.15,"location_history":"[2,3,2,1]","action_history":"[1,1,0]","mutagen_history":"[0,0,1]","location_rts":"[755,510,45]","trial_type":"fractal-mutation","trial_index":72,"time_elapsed":1153871,"internal_node_id":"0.0-5.0-18.0"},{"group":"hexagon_bi","fractal_assignment":["../images/ylw_slt.png","../images/pnk_blu.png","../images/cyn_red.png","../images/blu_wht.png","../images/org_blu.png","../images/gry_blk.png"],"mutagen_generator_assignment":[1,0],"goal":4,"start":1,"action_noise":0.15,"location_history":"[1,0,5,0,1,2,3,4]","action_history":"[0,1,0,1,0,1,0]","mutagen_history":"[1,0,1,0,1,0,1]","location_rts":"[175,222,199,143,446,217,317]","trial_type":"fractal-mutation","trial_index":73,"time_elapsed":1166286,"internal_node_id":"0.0-5.0-19.0"},{"group":"hexagon_bi","fractal_assignment":["../images/ylw_slt.png","../images/pnk_blu.png","../images/cyn_red.png","../images/blu_wht.png","../images/org_blu.png","../images/gry_blk.png"],"mutagen_generator_assignment":[1,0],"goal":0,"start":4,"action_noise":0.15,"location_history":"[4,5,4,5,4,3,2,1,2,1,2,3,2,1,2,1,2,3,4,5,0]","action_history":"[0,1,1,0,0,1,0,1,0,0,1,1,0,0,0,1,1,0,1,0]","mutagen_history":"[1,0,0,1,1,0,1,0,1,1,0,0,1,1,1,0,0,1,0,1]","location_rts":"[1237,180,409,110,278,301,149,389,370,539,434,530,308,1044,840,1146,840,1024,943,688]","trial_type":"fractal-mutation","trial_index":74,"time_elapsed":1202192,"internal_node_id":"0.0-5.0-20.0"},{"group":"hexagon_bi","fractal_assignment":["../images/ylw_slt.png","../images/pnk_blu.png","../images/cyn_red.png","../images/blu_wht.png","../images/org_blu.png","../images/gry_blk.png"],"mutagen_generator_assignment":[1,0],"goal":3,"start":0,"action_noise":0.15,"location_history":"[0,5,4,3]","action_history":"[0,1,0]","mutagen_history":"[1,0,1]","location_rts":"[549,454,312]","trial_type":"fractal-mutation","trial_index":75,"time_elapsed":1210123,"internal_node_id":"0.0-5.0-21.0"},{"group":"hexagon_bi","fractal_assignment":["../images/ylw_slt.png","../images/pnk_blu.png","../images/cyn_red.png","../images/blu_wht.png","../images/org_blu.png","../images/gry_blk.png"],"mutagen_generator_assignment":[1,0],"goal":1,"start":3,"action_noise":0.15,"location_history":"[3,4,5,4,5,0,1]","action_history":"[0,1,0,0,1,1]","mutagen_history":"[1,0,1,1,0,0]","location_rts":"[9,233,180,300,374,456]","trial_type":"fractal-mutation","trial_index":76,"time_elapsed":1221423,"internal_node_id":"0.0-5.0-22.0"},{"group":"hexagon_bi","fractal_assignment":["../images/ylw_slt.png","../images/pnk_blu.png","../images/cyn_red.png","../images/blu_wht.png","../images/org_blu.png","../images/gry_blk.png"],"mutagen_generator_assignment":[1,0],"goal":0,"start":1,"action_noise":0.15,"location_history":"[1,0]","action_history":"[1]","mutagen_history":"[0]","location_rts":"[997]","trial_type":"fractal-mutation","trial_index":77,"time_elapsed":1227005,"internal_node_id":"0.0-5.0-23.0"},{"group":"hexagon_bi","fractal_assignment":["../images/ylw_slt.png","../images/pnk_blu.png","../images/cyn_red.png","../images/blu_wht.png","../images/org_blu.png","../images/gry_blk.png"],"mutagen_generator_assignment":[1,0],"goal":2,"start":0,"action_noise":0.15,"location_history":"[0,5,0,5,4,3,2]","action_history":"[0,1,0,1,0,1]","mutagen_history":"[1,0,1,0,1,0]","location_rts":"[711,150,345,350,791,455]","trial_type":"fractal-mutation","trial_index":78,"time_elapsed":1239547,"internal_node_id":"0.0-5.0-24.0"},{"group":"hexagon_bi","fractal_assignment":["../images/ylw_slt.png","../images/pnk_blu.png","../images/cyn_red.png","../images/blu_wht.png","../images/org_blu.png","../images/gry_blk.png"],"mutagen_generator_assignment":[1,0],"goal":4,"start":2,"action_noise":0.15,"location_history":"[2,1,0,5,4]","action_history":"[0,1,0,1]","mutagen_history":"[1,0,1,0]","location_rts":"[1974,543,377,459]","trial_type":"fractal-mutation","trial_index":79,"time_elapsed":1250566,"internal_node_id":"0.0-5.0-25.0"},{"group":"hexagon_bi","fractal_assignment":["../images/ylw_slt.png","../images/pnk_blu.png","../images/cyn_red.png","../images/blu_wht.png","../images/org_blu.png","../images/gry_blk.png"],"mutagen_generator_assignment":[1,0],"goal":5,"start":4,"action_noise":0.15,"location_history":"[4,3,2,1,2,1,0,5]","action_history":"[0,1,0,0,1,0,0]","mutagen_history":"[1,0,1,1,0,1,1]","location_rts":"[581,607,706,552,516,547,930]","trial_type":"fractal-mutation","trial_index":80,"time_elapsed":1265753,"internal_node_id":"0.0-5.0-26.0"},{"group":"hexagon_bi","fractal_assignment":["../images/ylw_slt.png","../images/pnk_blu.png","../images/cyn_red.png","../images/blu_wht.png","../images/org_blu.png","../images/gry_blk.png"],"mutagen_generator_assignment":[1,0],"goal":2,"start":5,"action_noise":0.15,"location_history":"[5,4,5,0,5,0,5,4,5,4,3,2]","action_history":"[1,0,1,0,0,1,0,1,0,0,1]","mutagen_history":"[0,1,0,1,1,0,1,0,1,1,0]","location_rts":"[956,660,443,413,455,609,1971,908,1697,1123,567]","trial_type":"fractal-mutation","trial_index":81,"time_elapsed":1290318,"internal_node_id":"0.0-5.0-27.0"},{"group":"hexagon_bi","fractal_assignment":["../images/ylw_slt.png","../images/pnk_blu.png","../images/cyn_red.png","../images/blu_wht.png","../images/org_blu.png","../images/gry_blk.png"],"mutagen_generator_assignment":[1,0],"goal":3,"start":2,"action_noise":0.15,"location_history":"[2,1,2,3]","action_history":"[0,1,1]","mutagen_history":"[1,0,0]","location_rts":"[753,596,301]","trial_type":"fractal-mutation","trial_index":82,"time_elapsed":1298530,"internal_node_id":"0.0-5.0-28.0"},{"group":"hexagon_bi","fractal_assignment":["../images/ylw_slt.png","../images/pnk_blu.png","../images/cyn_red.png","../images/blu_wht.png","../images/org_blu.png","../images/gry_blk.png"],"mutagen_generator_assignment":[1,0],"goal":1,"start":3,"action_noise":0.15,"location_history":"[3,2,1]","action_history":"[1,0]","mutagen_history":"[0,1]","location_rts":"[1048,664]","trial_type":"fractal-mutation","trial_index":83,"time_elapsed":1305792,"internal_node_id":"0.0-5.0-29.0"},{"group":"hexagon_bi","fractal_assignment":["../images/ylw_slt.png","../images/pnk_blu.png","../images/cyn_red.png","../images/blu_wht.png","../images/org_blu.png","../images/gry_blk.png"],"mutagen_generator_assignment":[1,0],"goal":4,"start":1,"action_noise":0.15,"location_history":"[1,0,1,2,1,2,1,0,5,0,1,2,1,2,3,4]","action_history":"[1,1,0,0,1,0,1,1,0,0,0,1,0,1,1]","mutagen_history":"[0,0,1,1,0,1,0,0,1,1,1,0,1,0,0]","location_rts":"[1263,481,337,207,308,1256,379,154,267,359,402,524,210,252,199]","trial_type":"fractal-mutation","trial_index":84,"time_elapsed":1331269,"internal_node_id":"0.0-5.0-30.0"},{"group":"hexagon_bi","fractal_assignment":["../images/ylw_slt.png","../images/pnk_blu.png","../images/cyn_red.png","../images/blu_wht.png","../images/org_blu.png","../images/gry_blk.png"],"mutagen_generator_assignment":[1,0],"goal":5,"start":4,"action_noise":0.15,"location_history":"[4,5]","action_history":"[1]","mutagen_history":"[0]","location_rts":"[209]","trial_type":"fractal-mutation","trial_index":85,"time_elapsed":1336011,"internal_node_id":"0.0-5.0-31.0"},{"group":"hexagon_bi","fractal_assignment":["../images/ylw_slt.png","../images/pnk_blu.png","../images/cyn_red.png","../images/blu_wht.png","../images/org_blu.png","../images/gry_blk.png"],"mutagen_generator_assignment":[1,0],"goal":0,"start":5,"action_noise":0.15,"location_history":"[5,4,3,4,3,2,1,2,1,0]","action_history":"[1,0,0,0,1,0,0,1,1]","mutagen_history":"[0,1,1,1,0,1,1,0,0]","location_rts":"[918,269,724,495,796,348,187,399,502]","trial_type":"fractal-mutation","trial_index":86,"time_elapsed":1353373,"internal_node_id":"0.0-5.0-32.0"},{"group":"hexagon_bi","fractal_assignment":["../images/ylw_slt.png","../images/pnk_blu.png","../images/cyn_red.png","../images/blu_wht.png","../images/org_blu.png","../images/gry_blk.png"],"mutagen_generator_assignment":[1,0],"goal":2,"start":0,"action_noise":0.15,"location_history":"[0,1,0,5,4,3,4,3,2]","action_history":"[1,0,1,1,0,1,0,1]","mutagen_history":"[0,1,0,0,1,0,1,0]","location_rts":"[872,270,211,203,201,211,2134,520]","trial_type":"fractal-mutation","trial_index":87,"time_elapsed":1369930,"internal_node_id":"0.0-5.0-33.0"},{"group":"hexagon_bi","fractal_assignment":["../images/ylw_slt.png","../images/pnk_blu.png","../images/cyn_red.png","../images/blu_wht.png","../images/org_blu.png","../images/gry_blk.png"],"mutagen_generator_assignment":[1,0],"goal":0,"start":2,"action_noise":0.15,"location_history":"[2,1,2,1,2,3,2,3,4,3,2,3,4,5,0]","action_history":"[0,1,0,0,1,1,1,0,0,1,1,0,1,0]","mutagen_history":"[1,0,1,1,0,0,0,1,1,0,0,1,0,1]","location_rts":"[705,274,289,194,176,505,370,75,385,13,354,678,1368,878]","trial_type":"fractal-mutation","trial_index":88,"time_elapsed":1394093,"internal_node_id":"0.0-5.0-34.0"},{"group":"hexagon_bi","fractal_assignment":["../images/ylw_slt.png","../images/pnk_blu.png","../images/cyn_red.png","../images/blu_wht.png","../images/org_blu.png","../images/gry_blk.png"],"mutagen_generator_assignment":[1,0],"goal":5,"start":0,"action_noise":0.15,"location_history":"[0,1,2,3,4,5]","action_history":"[1,0,1,0,1]","mutagen_history":"[0,1,0,1,0]","location_rts":"[482,123,541,1458,812]","trial_type":"fractal-mutation","trial_index":89,"time_elapsed":1406136,"internal_node_id":"0.0-5.0-35.0"},{"group":"hexagon_bi","fractal_assignment":["../images/ylw_slt.png","../images/pnk_blu.png","../images/cyn_red.png","../images/blu_wht.png","../images/org_blu.png","../images/gry_blk.png"],"mutagen_generator_assignment":[1,0],"goal":1,"start":5,"action_noise":0.15,"location_history":"[5,4,3,4,5,4,3,4,5,4,5,0,5,4,3,2,1]","action_history":"[1,0,0,1,1,0,0,1,1,1,0,0,0,1,1,0]","mutagen_history":"[0,1,1,0,0,1,1,0,0,0,1,1,1,0,0,1]","location_rts":"[1084,457,920,393,486,454,600,359,325,555,171,210,440,370,446,273]","trial_type":"fractal-mutation","trial_index":90,"time_elapsed":1433626,"internal_node_id":"0.0-5.0-36.0"},{"group":"hexagon_bi","fractal_assignment":["../images/ylw_slt.png","../images/pnk_blu.png","../images/cyn_red.png","../images/blu_wht.png","../images/org_blu.png","../images/gry_blk.png"],"mutagen_generator_assignment":[1,0],"goal":4,"start":1,"action_noise":0.15,"location_history":"[1,2,3,4]","action_history":"[0,1,0]","mutagen_history":"[1,0,1]","location_rts":"[608,504,308]","trial_type":"fractal-mutation","trial_index":91,"time_elapsed":1441648,"internal_node_id":"0.0-5.0-37.0"},{"group":"hexagon_bi","fractal_assignment":["../images/ylw_slt.png","../images/pnk_blu.png","../images/cyn_red.png","../images/blu_wht.png","../images/org_blu.png","../images/gry_blk.png"],"mutagen_generator_assignment":[1,0],"goal":3,"start":4,"action_noise":0.15,"location_history":"[4,5,0,1,2,1,0,5,0,1,0,5,4,5,0,1,0,1,2,3]","action_history":"[1,0,1,0,0,1,0,0,1,1,0,1,0,0,1,1,1,0,0]","mutagen_history":"[0,1,0,1,1,0,1,1,0,0,1,0,1,1,0,0,0,1,1]","location_rts":"[513,675,210,50,246,669,316,463,597,460,273,240,181,507,91,139,487,583,211]","trial_type":"fractal-mutation","trial_index":92,"time_elapsed":1471751,"internal_node_id":"0.0-5.0-38.0"},{"group":"hexagon_bi","fractal_assignment":["../images/ylw_slt.png","../images/pnk_blu.png","../images/cyn_red.png","../images/blu_wht.png","../images/org_blu.png","../images/gry_blk.png"],"mutagen_generator_assignment":[1,0],"goal":5,"start":3,"action_noise":0.15,"location_history":"[3,2,1,2,1,0,1,0,5]","action_history":"[1,0,0,1,0,1,1,0]","mutagen_history":"[0,1,1,0,1,0,0,1]","location_rts":"[799,3654,345,169,411,296,83,460]","trial_type":"fractal-mutation","trial_index":93,"time_elapsed":1489692,"internal_node_id":"0.0-5.0-39.0"},{"group":"hexagon_bi","fractal_assignment":["../images/ylw_slt.png","../images/pnk_blu.png","../images/cyn_red.png","../images/blu_wht.png","../images/org_blu.png","../images/gry_blk.png"],"mutagen_generator_assignment":[1,0],"goal":1,"start":5,"action_noise":0.15,"location_history":"[5,4,3,2,3,2,1]","action_history":"[1,0,1,0,1,0]","mutagen_history":"[0,1,0,1,0,1]","location_rts":"[651,209,609,108,235,101]","trial_type":"fractal-mutation","trial_index":94,"time_elapsed":1501258,"internal_node_id":"0.0-5.0-40.0"},{"group":"hexagon_bi","fractal_assignment":["../images/ylw_slt.png","../images/pnk_blu.png","../images/cyn_red.png","../images/blu_wht.png","../images/org_blu.png","../images/gry_blk.png"],"mutagen_generator_assignment":[1,0],"goal":2,"start":1,"action_noise":0.15,"location_history":"[1,0,1,2]","action_history":"[0,1,0]","mutagen_history":"[1,0,1]","location_rts":"[880,641,277]","trial_type":"fractal-mutation","trial_index":95,"time_elapsed":1509717,"internal_node_id":"0.0-5.0-41.0"},{"group":"hexagon_bi","fractal_assignment":["../images/ylw_slt.png","../images/pnk_blu.png","../images/cyn_red.png","../images/blu_wht.png","../images/org_blu.png","../images/gry_blk.png"],"mutagen_generator_assignment":[1,0],"goal":4,"start":2,"action_noise":0.15,"location_history":"[2,3,2,3,4]","action_history":"[1,0,1,0]","mutagen_history":"[0,1,0,1]","location_rts":"[2991,434,582,423]","trial_type":"fractal-mutation","trial_index":96,"time_elapsed":1521786,"internal_node_id":"0.0-5.0-42.0"},{"group":"hexagon_bi","fractal_assignment":["../images/ylw_slt.png","../images/pnk_blu.png","../images/cyn_red.png","../images/blu_wht.png","../images/org_blu.png","../images/gry_blk.png"],"mutagen_generator_assignment":[1,0],"goal":0,"start":4,"action_noise":0.15,"location_history":"[4,5,4,3,4,3,2,3,4,3,4,3,2,1,2,1,2,1,0]","action_history":"[1,1,1,0,0,1,1,0,1,0,1,1,0,1,0,0,0,1]","mutagen_history":"[0,0,0,1,1,0,0,1,0,1,0,0,1,0,1,1,1,0]","location_rts":"[1022,503,1086,785,471,573,495,1468,1060,941,132,391,148,618,322,184,643,110]","trial_type":"fractal-mutation","trial_index":97,"time_elapsed":1554718,"internal_node_id":"0.0-5.0-43.0"},{"group":"hexagon_bi","fractal_assignment":["../images/ylw_slt.png","../images/pnk_blu.png","../images/cyn_red.png","../images/blu_wht.png","../images/org_blu.png","../images/gry_blk.png"],"mutagen_generator_assignment":[1,0],"goal":3,"start":0,"action_noise":0.15,"location_history":"[0,1,0,1,0,1,2,1,0,1,2,1,2,3]","action_history":"[1,0,0,1,1,1,0,1,1,0,0,1,1]","mutagen_history":"[0,1,1,0,0,0,1,0,0,1,1,0,0]","location_rts":"[1268,503,371,130,280,476,334,597,231,97,338,633,724]","trial_type":"fractal-mutation","trial_index":98,"time_elapsed":1577547,"internal_node_id":"0.0-5.0-44.0"},{"group":"hexagon_bi","fractal_assignment":["../images/ylw_slt.png","../images/pnk_blu.png","../images/cyn_red.png","../images/blu_wht.png","../images/org_blu.png","../images/gry_blk.png"],"mutagen_generator_assignment":[1,0],"goal":0,"start":3,"action_noise":0.15,"location_history":"[3,2,3,2,3,4,3,4,5,0]","action_history":"[1,0,1,1,0,0,0,1,1]","mutagen_history":"[0,1,0,0,1,1,1,0,0]","location_rts":"[1016,181,267,199,172,114,471,46,424]","trial_type":"fractal-mutation","trial_index":99,"time_elapsed":1593261,"internal_node_id":"0.0-5.0-45.0"},{"group":"hexagon_bi","fractal_assignment":["../images/ylw_slt.png","../images/pnk_blu.png","../images/cyn_red.png","../images/blu_wht.png","../images/org_blu.png","../images/gry_blk.png"],"mutagen_generator_assignment":[1,0],"goal":4,"start":0,"action_noise":0.15,"location_history":"[0,1,2,1,0,5,0,1,2,3,4]","action_history":"[1,0,0,1,0,0,1,0,1,0]","mutagen_history":"[0,1,1,0,1,1,0,1,0,1]","location_rts":"[857,842,476,604,472,602,567,265,527,180]","trial_type":"fractal-mutation","trial_index":100,"time_elapsed":1612444,"internal_node_id":"0.0-5.0-46.0"},{"group":"hexagon_bi","fractal_assignment":["../images/ylw_slt.png","../images/pnk_blu.png","../images/cyn_red.png","../images/blu_wht.png","../images/org_blu.png","../images/gry_blk.png"],"mutagen_generator_assignment":[1,0],"goal":5,"start":4,"action_noise":0.15,"location_history":"[4,5]","action_history":"[1]","mutagen_history":"[0]","location_rts":"[464]","trial_type":"fractal-mutation","trial_index":101,"time_elapsed":1617440,"internal_node_id":"0.0-5.0-47.0"},{"group":"hexagon_bi","fractal_assignment":["../images/ylw_slt.png","../images/pnk_blu.png","../images/cyn_red.png","../images/blu_wht.png","../images/org_blu.png","../images/gry_blk.png"],"mutagen_generator_assignment":[1,0],"goal":2,"start":5,"action_noise":0.15,"location_history":"[5,0,1,2]","action_history":"[0,1,0]","mutagen_history":"[1,0,1]","location_rts":"[810,265,160]","trial_type":"fractal-mutation","trial_index":102,"time_elapsed":1625261,"internal_node_id":"0.0-5.0-48.0"},{"group":"hexagon_bi","fractal_assignment":["../images/ylw_slt.png","../images/pnk_blu.png","../images/cyn_red.png","../images/blu_wht.png","../images/org_blu.png","../images/gry_blk.png"],"mutagen_generator_assignment":[1,0],"goal":1,"start":2,"action_noise":0.15,"location_history":"[2,1]","action_history":"[0]","mutagen_history":"[1]","location_rts":"[729]","trial_type":"fractal-mutation","trial_index":103,"time_elapsed":1630528,"internal_node_id":"0.0-5.0-49.0"},{"view_history":"[{\"page_index\":0,\"viewing_time\":2637}]","rt":2638,"trial_type":"instructions","trial_index":104,"time_elapsed":1634166,"internal_node_id":"0.0-6.0"},{"rt":29361,"responses":"{\"Q0\":\"procedural memory\"}","trial_type":"survey-text","trial_index":105,"time_elapsed":1664538,"internal_node_id":"0.0-7.0-0.0"},{"rt":7063,"responses":"{\"Q0\":\"procedural memory\"}","trial_type":"survey-text","trial_index":106,"time_elapsed":1672604,"internal_node_id":"0.0-7.0-1.0"},{"rt":53535,"responses":"{\"Q0\":\"<img src='../images/diagrams/hexagon_tri.png'>\"}","trial_type":"survey-multi-choice","trial_index":107,"time_elapsed":1727153,"internal_node_id":"0.0-7.0-2.0"},{"rt":35951,"assignments":["../images/ylw_slt.png","../images/pnk_blu.png","../images/gry_blk.png","../images/blu_wht.png","../images/cyn_red.png","../images/org_blu.png"],"trial_type":"drag-drop-on-image","trial_index":108,"time_elapsed":1764109,"internal_node_id":"0.0-7.0-3.0"},{"rt":7348,"responses":"{\"Q0\":\"3\"}","trial_type":"survey-likert","trial_index":109,"time_elapsed":1772462,"internal_node_id":"0.0-7.0-4.0"},{"rt":118114,"responses":"{\"Q0\":\"I believe that in both studies there were always two choices and therefore two different directions to choose from\"}","trial_type":"survey-text","trial_index":110,"time_elapsed":1891580,"internal_node_id":"0.0-7.0-5.0"},{"rt":17722,"responses":"{\"Q0\":\"No\"}","trial_type":"survey-multi-choice","trial_index":111,"time_elapsed":1910309,"internal_node_id":"0.0-7.0-6.0"},{"rt":8830,"responses":"{\"Q0\":\"Between sessions 1 and 2\"}","trial_type":"survey-multi-choice","trial_index":112,"time_elapsed":1920150,"internal_node_id":"0.0-7.0-7.0"},{"rt":7621,"responses":"{\"Q0\":\"\"}","trial_type":"survey-text","trial_index":113,"time_elapsed":1928772,"internal_node_id":"0.0-7.0-8.0"},{"rt":9868,"responses":"{\"Q0\":\"0\"}","trial_type":"survey-likert","trial_index":114,"time_elapsed":1939644,"internal_node_id":"0.0-7.0-9.0"},{"rt":12764,"responses":"{\"Q0\":\"Different structure\"}","trial_type":"survey-multi-choice","trial_index":115,"time_elapsed":1953413,"internal_node_id":"0.0-7.0-10.0"},{"rt":15548,"responses":"{\"Q0\":\"left (black) door = acid, right (white) door = ray\",\"Q1\":\"Slightly confident\"}","trial_type":"survey-multi-choice","trial_index":116,"time_elapsed":1969974,"internal_node_id":"0.0-7.0-11.0"},{"rt":15707,"responses":"{\"Q0\":\"25-35\",\"Q1\":\"Bachelor's degree\",\"Q2\":\"Female\",\"Q3\":\"White\"}","trial_type":"survey-multi-choice","trial_index":117,"time_elapsed":1986714,"internal_node_id":"0.0-8.0"},{"rt":6103,"responses":"{\"Q0\":\"no\"}","trial_type":"survey-text","trial_index":118,"time_elapsed":1993819,"internal_node_id":"0.0-9.0"}]