[{"view_history":"[{\"page_index\":0,\"viewing_time\":5939},{\"page_index\":1,\"viewing_time\":1275}]","rt":7215,"trial_type":"instructions","trial_index":0,"time_elapsed":7220,"internal_node_id":"0.0-0.0"},{"view_history":"[{\"page_index\":0,\"viewing_time\":1084},{\"page_index\":1,\"viewing_time\":1466}]","rt":2550,"trial_type":"instructions","trial_index":1,"time_elapsed":10773,"internal_node_id":"0.0-1.0"},{"group":"hexagon_tri","room_assignment":["blue","purple","red","green","grey","yellow"],"door_color_assignment":["white","black"],"door_generator_assignment":[1,0],"goal":2,"start":1,"action_noise":0.15,"location_history":"[1,3,2]","action_history":"[0,0]","door_history":"[1,1]","location_rts":"[1321,552]","trial_type":"two-door-navigation","trial_index":2,"time_elapsed":18212,"internal_node_id":"0.0-2.0-0.0"},{"group":"hexagon_tri","room_assignment":["blue","purple","red","green","grey","yellow"],"door_color_assignment":["white","black"],"door_generator_assignment":[1,0],"goal":0,"start":2,"action_noise":0.15,"location_history":"[2,1,3,2,1,3,2,3,4,2,3,4,0]","action_history":"[0,0,0,0,0,0,1,1,1,1,1,0]","door_history":"[1,1,1,1,1,1,0,0,0,0,0,1]","location_rts":"[938,442,1484,54036,9321,7700,10473,9191,6982,10279,9316,1212]","trial_type":"two-door-navigation","trial_index":3,"time_elapsed":155401,"internal_node_id":"0.0-2.0-1.0"},{"group":"hexagon_tri","room_assignment":["blue","purple","red","green","grey","yellow"],"door_color_assignment":["white","black"],"door_generator_assignment":[1,0],"goal":5,"start":0,"action_noise":0.15,"location_history":"[0,1,3,2,3,4,0,1,5]","action_history":"[0,1,0,0,0,0,1,1]","door_history":"[1,0,1,1,1,1,0,0]","location_rts":"[9433,7795,7361,4508,10018,5773,2865,9036]","trial_type":"two-door-navigation","trial_index":4,"time_elapsed":223903,"internal_node_id":"0.0-2.0-2.0"},{"group":"hexagon_tri","room_assignment":["blue","purple","red","green","grey","yellow"],"door_color_assignment":["white","black"],"door_generator_assignment":[1,0],"goal":1,"start":5,"action_noise":0.15,"location_history":"[5,4,0,5,0,5,0,5,4,0,1]","action_history":"[0,1,0,1,0,1,0,0,0,1]","door_history":"[1,0,1,0,1,0,1,1,1,0]","location_rts":"[7755,8719,11744,5711,8227,985,354,337,2584,3823]","trial_type":"two-door-navigation","trial_index":5,"time_elapsed":287899,"internal_node_id":"0.0-2.0-3.0"},{"group":"hexagon_tri","room_assignment":["blue","purple","red","green","grey","yellow"],"door_color_assignment":["white","black"],"door_generator_assignment":[1,0],"goal":3,"start":1,"action_noise":0.15,"location_history":"[1,3]","action_history":"[0]","door_history":"[1]","location_rts":"[5816]","trial_type":"two-door-navigation","trial_index":6,"time_elapsed":298243,"internal_node_id":"0.0-2.0-4.0"},{"group":"hexagon_tri","room_assignment":["blue","purple","red","green","grey","yellow"],"door_color_assignment":["white","black"],"door_generator_assignment":[1,0],"goal":5,"start":3,"action_noise":0.15,"location_history":"[3,2,3,4,2,3,2,1,5]","action_history":"[0,0,1,1,0,0,0,1]","door_history":"[1,1,0,0,1,1,1,0]","location_rts":"[8815,2389,2823,4444,2774,2946,1551,3229]","trial_type":"two-door-navigation","trial_index":7,"time_elapsed":338912,"internal_node_id":"0.0-2.0-5.0"},{"group":"hexagon_tri","room_assignment":["blue","purple","red","green","grey","yellow"],"door_color_assignment":["white","black"],"door_generator_assignment":[1,0],"goal":4,"start":5,"action_noise":0.15,"location_history":"[5,4]","action_history":"[0]","door_history":"[1]","location_rts":"[6366]","trial_type":"two-door-navigation","trial_index":8,"time_elapsed":349810,"internal_node_id":"0.0-2.0-6.0"},{"group":"hexagon_tri","room_assignment":["blue","purple","red","green","grey","yellow"],"door_color_assignment":["white","black"],"door_generator_assignment":[1,0],"goal":0,"start":4,"action_noise":0.15,"location_history":"[4,2,3,2,3,2,1,3,4,0]","action_history":"[0,1,1,1,1,0,0,1,0]","door_history":"[1,0,0,0,0,1,1,0,1]","location_rts":"[3277,4779,4240,1276,335,3469,6743,2137,2415]","trial_type":"two-door-navigation","trial_index":9,"time_elapsed":391213,"internal_node_id":"0.0-2.0-7.0"},{"group":"hexagon_tri","room_assignment":["blue","purple","red","green","grey","yellow"],"door_color_assignment":["white","black"],"door_generator_assignment":[1,0],"goal":2,"start":0,"action_noise":0.15,"location_history":"[0,5,0,1,3,2]","action_history":"[0,1,1,0,0]","door_history":"[1,0,0,1,1]","location_rts":"[4680,12907,5547,2566,1459]","trial_type":"two-door-navigation","trial_index":10,"time_elapsed":427014,"internal_node_id":"0.0-2.0-8.0"},{"group":"hexagon_tri","room_assignment":["blue","purple","red","green","grey","yellow"],"door_color_assignment":["white","black"],"door_generator_assignment":[1,0],"goal":4,"start":2,"action_noise":0.15,"location_history":"[2,3,4]","action_history":"[1,1]","door_history":"[0,0]","location_rts":"[12522,2532]","trial_type":"two-door-navigation","trial_index":11,"time_elapsed":447624,"internal_node_id":"0.0-2.0-9.0"},{"group":"hexagon_tri","room_assignment":["blue","purple","red","green","grey","yellow"],"door_color_assignment":["white","black"],"door_generator_assignment":[1,0],"goal":2,"start":4,"action_noise":0.15,"location_history":"[4,2]","action_history":"[1]","door_history":"[0]","location_rts":"[5085]","trial_type":"two-door-navigation","trial_index":12,"time_elapsed":457240,"internal_node_id":"0.0-2.0-10.0"},{"group":"hexagon_tri","room_assignment":["blue","purple","red","green","grey","yellow"],"door_color_assignment":["white","black"],"door_generator_assignment":[1,0],"goal":3,"start":2,"action_noise":0.15,"location_history":"[2,1,3]","action_history":"[0,0]","door_history":"[1,1]","location_rts":"[6638,750]","trial_type":"two-door-navigation","trial_index":13,"time_elapsed":470178,"internal_node_id":"0.0-2.0-11.0"},{"group":"hexagon_tri","room_assignment":["blue","purple","red","green","grey","yellow"],"door_color_assignment":["white","black"],"door_generator_assignment":[1,0],"goal":0,"start":3,"action_noise":0.15,"location_history":"[3,4,2,1,5,0]","action_history":"[1,1,0,1,0]","door_history":"[0,0,1,0,1]","location_rts":"[4875,567,423,343,234]","trial_type":"two-door-navigation","trial_index":14,"time_elapsed":485245,"internal_node_id":"0.0-2.0-12.0"},{"group":"hexagon_tri","room_assignment":["blue","purple","red","green","grey","yellow"],"door_color_assignment":["white","black"],"door_generator_assignment":[1,0],"goal":5,"start":0,"action_noise":0.15,"location_history":"[0,1,3,4,0,5]","action_history":"[1,0,1,0,0]","door_history":"[0,1,0,1,1]","location_rts":"[2732,952,193,269,2027]","trial_type":"two-door-navigation","trial_index":15,"time_elapsed":500039,"internal_node_id":"0.0-2.0-13.0"},{"group":"hexagon_tri","room_assignment":["blue","purple","red","green","grey","yellow"],"door_color_assignment":["white","black"],"door_generator_assignment":[1,0],"goal":1,"start":5,"action_noise":0.15,"location_history":"[5,4,0,1]","action_history":"[0,1,1]","door_history":"[1,0,0]","location_rts":"[10537,3781,3420]","trial_type":"two-door-navigation","trial_index":16,"time_elapsed":524359,"internal_node_id":"0.0-2.0-14.0"},{"group":"hexagon_tri","room_assignment":["blue","purple","red","green","grey","yellow"],"door_color_assignment":["white","black"],"door_generator_assignment":[1,0],"goal":5,"start":1,"action_noise":0.15,"location_history":"[1,5]","action_history":"[1]","door_history":"[0]","location_rts":"[6046]","trial_type":"two-door-navigation","trial_index":17,"time_elapsed":534934,"internal_node_id":"0.0-2.0-15.0"},{"group":"hexagon_tri","room_assignment":["blue","purple","red","green","grey","yellow"],"door_color_assignment":["white","black"],"door_generator_assignment":[1,0],"goal":3,"start":5,"action_noise":0.15,"location_history":"[5,0,5,4,2,1,3]","action_history":"[1,0,0,1,0,0]","door_history":"[0,1,1,0,1,1]","location_rts":"[11675,3699,2578,3408,1813,1527]","trial_type":"two-door-navigation","trial_index":18,"time_elapsed":569293,"internal_node_id":"0.0-2.0-16.0"},{"group":"hexagon_tri","room_assignment":["blue","purple","red","green","grey","yellow"],"door_color_assignment":["white","black"],"door_generator_assignment":[1,0],"goal":2,"start":3,"action_noise":0.15,"location_history":"[3,2]","action_history":"[0]","door_history":"[1]","location_rts":"[8157]","trial_type":"two-door-navigation","trial_index":19,"time_elapsed":581978,"internal_node_id":"0.0-2.0-17.0"},{"group":"hexagon_tri","room_assignment":["blue","purple","red","green","grey","yellow"],"door_color_assignment":["white","black"],"door_generator_assignment":[1,0],"goal":1,"start":2,"action_noise":0.15,"location_history":"[2,1]","action_history":"[0]","door_history":"[1]","location_rts":"[2787]","trial_type":"two-door-navigation","trial_index":20,"time_elapsed":589295,"internal_node_id":"0.0-2.0-18.0"},{"group":"hexagon_tri","room_assignment":["blue","purple","red","green","grey","yellow"],"door_color_assignment":["white","black"],"door_generator_assignment":[1,0],"goal":4,"start":1,"action_noise":0.15,"location_history":"[1,3,4]","action_history":"[0,1]","door_history":"[1,0]","location_rts":"[5295,717]","trial_type":"two-door-navigation","trial_index":21,"time_elapsed":600859,"internal_node_id":"0.0-2.0-19.0"},{"group":"hexagon_tri","room_assignment":["blue","purple","red","green","grey","yellow"],"door_color_assignment":["white","black"],"door_generator_assignment":[1,0],"goal":0,"start":4,"action_noise":0.15,"location_history":"[4,0]","action_history":"[0]","door_history":"[1]","location_rts":"[4512]","trial_type":"two-door-navigation","trial_index":22,"time_elapsed":609903,"internal_node_id":"0.0-2.0-20.0"},{"group":"hexagon_tri","room_assignment":["blue","purple","red","green","grey","yellow"],"door_color_assignment":["white","black"],"door_generator_assignment":[1,0],"goal":3,"start":0,"action_noise":0.15,"location_history":"[0,1,3]","action_history":"[1,0]","door_history":"[0,1]","location_rts":"[8505,368]","trial_type":"two-door-navigation","trial_index":23,"time_elapsed":624330,"internal_node_id":"0.0-2.0-21.0"},{"group":"hexagon_tri","room_assignment":["blue","purple","red","green","grey","yellow"],"door_color_assignment":["white","black"],"door_generator_assignment":[1,0],"goal":1,"start":3,"action_noise":0.15,"location_history":"[3,4,0,1]","action_history":"[1,0,1]","door_history":"[0,1,0]","location_rts":"[5992,1322,915]","trial_type":"two-door-navigation","trial_index":24,"time_elapsed":639144,"internal_node_id":"0.0-2.0-22.0"},{"group":"hexagon_tri","room_assignment":["blue","purple","red","green","grey","yellow"],"door_color_assignment":["white","black"],"door_generator_assignment":[1,0],"goal":0,"start":1,"action_noise":0.15,"location_history":"[1,5,0]","action_history":"[1,1]","door_history":"[0,0]","location_rts":"[7941,2894]","trial_type":"two-door-navigation","trial_index":25,"time_elapsed":655534,"internal_node_id":"0.0-2.0-23.0"},{"group":"hexagon_tri","room_assignment":["blue","purple","red","green","grey","yellow"],"door_color_assignment":["white","black"],"door_generator_assignment":[1,0],"goal":2,"start":0,"action_noise":0.15,"location_history":"[0,1,3,4,2]","action_history":"[1,0,0,1]","door_history":"[0,1,1,0]","location_rts":"[5782,5958,924,3457]","trial_type":"two-door-navigation","trial_index":26,"time_elapsed":679257,"internal_node_id":"0.0-2.0-24.0"},{"group":"hexagon_tri","room_assignment":["blue","purple","red","green","grey","yellow"],"door_color_assignment":["white","black"],"door_generator_assignment":[1,0],"goal":4,"start":2,"action_noise":0.15,"location_history":"[2,3,4]","action_history":"[1,1]","door_history":"[0,0]","location_rts":"[7867,2177]","trial_type":"two-door-navigation","trial_index":27,"time_elapsed":694860,"internal_node_id":"0.0-2.0-25.0"},{"group":"hexagon_tri","room_assignment":["blue","purple","red","green","grey","yellow"],"door_color_assignment":["white","black"],"door_generator_assignment":[1,0],"goal":5,"start":4,"action_noise":0.15,"location_history":"[4,0,1,5]","action_history":"[0,0,1]","door_history":"[1,1,0]","location_rts":"[8604,1144,3089]","trial_type":"two-door-navigation","trial_index":28,"time_elapsed":714290,"internal_node_id":"0.0-2.0-26.0"},{"group":"hexagon_tri","room_assignment":["blue","purple","red","green","grey","yellow"],"door_color_assignment":["white","black"],"door_generator_assignment":[1,0],"goal":2,"start":5,"action_noise":0.15,"location_history":"[5,0,5,0,1,3,2]","action_history":"[1,0,0,1,1,0]","door_history":"[0,1,1,0,0,1]","location_rts":"[14159,5594,1500,2657,1475,490]","trial_type":"two-door-navigation","trial_index":29,"time_elapsed":749816,"internal_node_id":"0.0-2.0-27.0"},{"group":"hexagon_tri","room_assignment":["blue","purple","red","green","grey","yellow"],"door_color_assignment":["white","black"],"door_generator_assignment":[1,0],"goal":3,"start":2,"action_noise":0.15,"location_history":"[2,3]","action_history":"[1]","door_history":"[0]","location_rts":"[559]","trial_type":"two-door-navigation","trial_index":30,"time_elapsed":754906,"internal_node_id":"0.0-2.0-28.0"},{"group":"hexagon_tri","room_assignment":["blue","purple","red","green","grey","yellow"],"door_color_assignment":["white","black"],"door_generator_assignment":[1,0],"goal":1,"start":3,"action_noise":0.15,"location_history":"[3,4,0,1]","action_history":"[1,0,1]","door_history":"[0,1,0]","location_rts":"[6436,4037,1557]","trial_type":"two-door-navigation","trial_index":31,"time_elapsed":773517,"internal_node_id":"0.0-2.0-29.0"},{"group":"hexagon_tri","room_assignment":["blue","purple","red","green","grey","yellow"],"door_color_assignment":["white","black"],"door_generator_assignment":[1,0],"goal":4,"start":1,"action_noise":0.15,"location_history":"[1,3,4]","action_history":"[0,1]","door_history":"[1,0]","location_rts":"[13131,1035]","trial_type":"two-door-navigation","trial_index":32,"time_elapsed":793242,"internal_node_id":"0.0-2.0-30.0"},{"group":"hexagon_tri","room_assignment":["blue","purple","red","green","grey","yellow"],"door_color_assignment":["white","black"],"door_generator_assignment":[1,0],"goal":5,"start":4,"action_noise":0.15,"location_history":"[4,0,5]","action_history":"[0,0]","door_history":"[1,1]","location_rts":"[14150,5708]","trial_type":"two-door-navigation","trial_index":33,"time_elapsed":818654,"internal_node_id":"0.0-2.0-31.0"},{"group":"hexagon_tri","room_assignment":["blue","purple","red","green","grey","yellow"],"door_color_assignment":["white","black"],"door_generator_assignment":[1,0],"goal":0,"start":5,"action_noise":0.15,"location_history":"[5,0]","action_history":"[1]","door_history":"[0]","location_rts":"[7255]","trial_type":"two-door-navigation","trial_index":34,"time_elapsed":830438,"internal_node_id":"0.0-2.0-32.0"},{"group":"hexagon_tri","room_assignment":["blue","purple","red","green","grey","yellow"],"door_color_assignment":["white","black"],"door_generator_assignment":[1,0],"goal":2,"start":0,"action_noise":0.15,"location_history":"[0,5,4,0,1,3,2]","action_history":"[0,0,1,1,0,0]","door_history":"[1,1,0,0,1,1]","location_rts":"[12127,11600,5012,8306,5878,524]","trial_type":"two-door-navigation","trial_index":35,"time_elapsed":883544,"internal_node_id":"0.0-2.0-33.0"},{"group":"hexagon_tri","room_assignment":["blue","purple","red","green","grey","yellow"],"door_color_assignment":["white","black"],"door_generator_assignment":[1,0],"goal":0,"start":2,"action_noise":0.15,"location_history":"[2,1,5,4,0]","action_history":"[0,1,0,0]","door_history":"[1,0,1,1]","location_rts":"[19601,1407,675,5352]","trial_type":"two-door-navigation","trial_index":36,"time_elapsed":918192,"internal_node_id":"0.0-2.0-34.0"},{"group":"hexagon_tri","room_assignment":["blue","purple","red","green","grey","yellow"],"door_color_assignment":["white","black"],"door_generator_assignment":[1,0],"goal":5,"start":0,"action_noise":0.15,"location_history":"[0,1,5]","action_history":"[0,1]","door_history":"[1,0]","location_rts":"[6036,2113]","trial_type":"two-door-navigation","trial_index":37,"time_elapsed":931898,"internal_node_id":"0.0-2.0-35.0"},{"group":"hexagon_tri","room_assignment":["blue","purple","red","green","grey","yellow"],"door_color_assignment":["white","black"],"door_generator_assignment":[1,0],"goal":1,"start":5,"action_noise":0.15,"location_history":"[5,4,2,3,2,1]","action_history":"[0,1,0,0,0]","door_history":"[1,0,1,1,1]","location_rts":"[18536,4199,1756,14586,1754]","trial_type":"two-door-navigation","trial_index":38,"time_elapsed":981368,"internal_node_id":"0.0-2.0-36.0"},{"group":"hexagon_tri","room_assignment":["blue","purple","red","green","grey","yellow"],"door_color_assignment":["white","black"],"door_generator_assignment":[1,0],"goal":4,"start":1,"action_noise":0.15,"location_history":"[1,5,4]","action_history":"[1,0]","door_history":"[0,1]","location_rts":"[11881,2758]","trial_type":"two-door-navigation","trial_index":39,"time_elapsed":1001561,"internal_node_id":"0.0-2.0-37.0"},{"group":"hexagon_tri","room_assignment":["blue","purple","red","green","grey","yellow"],"door_color_assignment":["white","black"],"door_generator_assignment":[1,0],"goal":3,"start":4,"action_noise":0.15,"location_history":"[4,2,1,3]","action_history":"[1,0,0]","door_history":"[0,1,1]","location_rts":"[9745,1776,2184]","trial_type":"two-door-navigation","trial_index":40,"time_elapsed":1021848,"internal_node_id":"0.0-2.0-38.0"},{"group":"hexagon_tri","room_assignment":["blue","purple","red","green","grey","yellow"],"door_color_assignment":["white","black"],"door_generator_assignment":[1,0],"goal":5,"start":3,"action_noise":0.15,"location_history":"[3,4,0,5]","action_history":"[0,0,0]","door_history":"[1,1,1]","location_rts":"[9065,8229,619]","trial_type":"two-door-navigation","trial_index":41,"time_elapsed":1046358,"internal_node_id":"0.0-2.0-39.0"},{"group":"hexagon_tri","room_assignment":["blue","purple","red","green","grey","yellow"],"door_color_assignment":["white","black"],"door_generator_assignment":[1,0],"goal":1,"start":5,"action_noise":0.15,"location_history":"[5,0,5,0,1]","action_history":"[1,1,1,1]","door_history":"[0,0,0,0]","location_rts":"[6116,3233,1141,264]","trial_type":"two-door-navigation","trial_index":42,"time_elapsed":1064727,"internal_node_id":"0.0-2.0-40.0"},{"group":"hexagon_tri","room_assignment":["blue","purple","red","green","grey","yellow"],"door_color_assignment":["white","black"],"door_generator_assignment":[1,0],"goal":2,"start":1,"action_noise":0.15,"location_history":"[1,3,4,2]","action_history":"[0,0,1]","door_history":"[1,1,0]","location_rts":"[8137,1689,2968]","trial_type":"two-door-navigation","trial_index":43,"time_elapsed":1084116,"internal_node_id":"0.0-2.0-41.0"},{"group":"hexagon_tri","room_assignment":["blue","purple","red","green","grey","yellow"],"door_color_assignment":["white","black"],"door_generator_assignment":[1,0],"goal":4,"start":2,"action_noise":0.15,"location_history":"[2,3,4]","action_history":"[1,1]","door_history":"[0,0]","location_rts":"[8216,16328]","trial_type":"two-door-navigation","trial_index":44,"time_elapsed":1114214,"internal_node_id":"0.0-2.0-42.0"},{"group":"hexagon_tri","room_assignment":["blue","purple","red","green","grey","yellow"],"door_color_assignment":["white","black"],"door_generator_assignment":[1,0],"goal":0,"start":4,"action_noise":0.15,"location_history":"[4,0]","action_history":"[0]","door_history":"[1]","location_rts":"[6708]","trial_type":"two-door-navigation","trial_index":45,"time_elapsed":1125457,"internal_node_id":"0.0-2.0-43.0"},{"group":"hexagon_tri","room_assignment":["blue","purple","red","green","grey","yellow"],"door_color_assignment":["white","black"],"door_generator_assignment":[1,0],"goal":3,"start":0,"action_noise":0.15,"location_history":"[0,1,3]","action_history":"[1,0]","door_history":"[0,1]","location_rts":"[13815,1556]","trial_type":"two-door-navigation","trial_index":46,"time_elapsed":1146387,"internal_node_id":"0.0-2.0-44.0"},{"group":"hexagon_tri","room_assignment":["blue","purple","red","green","grey","yellow"],"door_color_assignment":["white","black"],"door_generator_assignment":[1,0],"goal":0,"start":3,"action_noise":0.15,"location_history":"[3,2,3,4,0]","action_history":"[0,1,1,0]","door_history":"[1,0,0,1]","location_rts":"[6442,6734,3583,2289]","trial_type":"two-door-navigation","trial_index":47,"time_elapsed":1173040,"internal_node_id":"0.0-2.0-45.0"},{"group":"hexagon_tri","room_assignment":["blue","purple","red","green","grey","yellow"],"door_color_assignment":["white","black"],"door_generator_assignment":[1,0],"goal":4,"start":0,"action_noise":0.15,"location_history":"[0,5,4]","action_history":"[0,0]","door_history":"[1,1]","location_rts":"[12557,1854]","trial_type":"two-door-navigation","trial_index":48,"time_elapsed":1193012,"internal_node_id":"0.0-2.0-46.0"},{"group":"hexagon_tri","room_assignment":["blue","purple","red","green","grey","yellow"],"door_color_assignment":["white","black"],"door_generator_assignment":[1,0],"goal":5,"start":4,"action_noise":0.15,"location_history":"[4,0,5]","action_history":"[0,0]","door_history":"[1,1]","location_rts":"[4822,1810]","trial_type":"two-door-navigation","trial_index":49,"time_elapsed":1205202,"internal_node_id":"0.0-2.0-47.0"},{"group":"hexagon_tri","room_assignment":["blue","purple","red","green","grey","yellow"],"door_color_assignment":["white","black"],"door_generator_assignment":[1,0],"goal":2,"start":5,"action_noise":0.15,"location_history":"[5,0,1,3,2]","action_history":"[1,1,0,0]","door_history":"[0,0,1,1]","location_rts":"[16836,2535,594,6170]","trial_type":"two-door-navigation","trial_index":50,"time_elapsed":1238942,"internal_node_id":"0.0-2.0-48.0"},{"group":"hexagon_tri","room_assignment":["blue","purple","red","green","grey","yellow"],"door_color_assignment":["white","black"],"door_generator_assignment":[1,0],"goal":1,"start":2,"action_noise":0.15,"location_history":"[2,1]","action_history":"[0]","door_history":"[1]","location_rts":"[5483]","trial_type":"two-door-navigation","trial_index":51,"time_elapsed":1248956,"internal_node_id":"0.0-2.0-49.0"},{"view_history":"[{\"page_index\":0,\"viewing_time\":8670}]","rt":8670,"trial_type":"instructions","trial_index":52,"time_elapsed":1258628,"internal_node_id":"0.0-3.0"},{"view_history":"[{\"page_index\":0,\"viewing_time\":1369},{\"page_index\":1,\"viewing_time\":4360}]","rt":5730,"trial_type":"instructions","trial_index":53,"time_elapsed":1265359,"internal_node_id":"0.0-4.0"},{"group":"hexagon_bi","fractal_assignment":["../images/blu_wht.png","../images/cyn_red.png","../images/pnk_blu.png","../images/ylw_slt.png","../images/org_blu.png","../images/gry_blk.png"],"mutagen_generator_assignment":[1,0],"goal":2,"start":1,"action_noise":0.15,"location_history":"[1,0,5,4,5,0,1,2]","action_history":"[1,1,1,1,0,0,0]","mutagen_history":"[0,0,0,0,1,1,1]","location_rts":"[10131,12623,12985,10412,9941,10622,11421]","trial_type":"fractal-mutation","trial_index":54,"time_elapsed":1354631,"internal_node_id":"0.0-5.0-0.0"},{"group":"hexagon_bi","fractal_assignment":["../images/blu_wht.png","../images/cyn_red.png","../images/pnk_blu.png","../images/ylw_slt.png","../images/org_blu.png","../images/gry_blk.png"],"mutagen_generator_assignment":[1,0],"goal":0,"start":2,"action_noise":0.15,"location_history":"[2,1,2,3,2,3,4,5,0]","action_history":"[0,0,1,1,1,0,1,0]","mutagen_history":"[1,1,0,0,0,1,0,1]","location_rts":"[11118,8777,2840,8680,10441,1069,21636,518]","trial_type":"fractal-mutation","trial_index":55,"time_elapsed":1431906,"internal_node_id":"0.0-5.0-1.0"},{"group":"hexagon_bi","fractal_assignment":["../images/blu_wht.png","../images/cyn_red.png","../images/pnk_blu.png","../images/ylw_slt.png","../images/org_blu.png","../images/gry_blk.png"],"mutagen_generator_assignment":[1,0],"goal":5,"start":0,"action_noise":0.15,"location_history":"[0,5]","action_history":"[0]","mutagen_history":"[1]","location_rts":"[514]","trial_type":"fractal-mutation","trial_index":56,"time_elapsed":1437034,"internal_node_id":"0.0-5.0-2.0"},{"group":"hexagon_bi","fractal_assignment":["../images/blu_wht.png","../images/cyn_red.png","../images/pnk_blu.png","../images/ylw_slt.png","../images/org_blu.png","../images/gry_blk.png"],"mutagen_generator_assignment":[1,0],"goal":1,"start":5,"action_noise":0.15,"location_history":"[5,0,1]","action_history":"[0,1]","mutagen_history":"[1,0]","location_rts":"[8203,1282]","trial_type":"fractal-mutation","trial_index":57,"time_elapsed":1452167,"internal_node_id":"0.0-5.0-3.0"},{"group":"hexagon_bi","fractal_assignment":["../images/blu_wht.png","../images/cyn_red.png","../images/pnk_blu.png","../images/ylw_slt.png","../images/org_blu.png","../images/gry_blk.png"],"mutagen_generator_assignment":[1,0],"goal":3,"start":1,"action_noise":0.15,"location_history":"[1,0,1,0,5,4,3]","action_history":"[1,1,1,0,1,0]","mutagen_history":"[0,0,0,1,0,1]","location_rts":"[12935,2089,497,513,201,156]","trial_type":"fractal-mutation","trial_index":58,"time_elapsed":1478459,"internal_node_id":"0.0-5.0-4.0"},{"group":"hexagon_bi","fractal_assignment":["../images/blu_wht.png","../images/cyn_red.png","../images/pnk_blu.png","../images/ylw_slt.png","../images/org_blu.png","../images/gry_blk.png"],"mutagen_generator_assignment":[1,0],"goal":5,"start":3,"action_noise":0.15,"location_history":"[3,2,1,2,3,2,3,4,5]","action_history":"[1,0,0,0,1,1,1,1]","mutagen_history":"[0,1,1,1,0,0,0,0]","location_rts":"[4945,4694,968,1054,23,708,3065,1527]","trial_type":"fractal-mutation","trial_index":59,"time_elapsed":1507500,"internal_node_id":"0.0-5.0-5.0"},{"group":"hexagon_bi","fractal_assignment":["../images/blu_wht.png","../images/cyn_red.png","../images/pnk_blu.png","../images/ylw_slt.png","../images/org_blu.png","../images/gry_blk.png"],"mutagen_generator_assignment":[1,0],"goal":4,"start":5,"action_noise":0.15,"location_history":"[5,0,5,4]","action_history":"[0,0,1]","mutagen_history":"[1,1,0]","location_rts":"[1714,450,3959]","trial_type":"fractal-mutation","trial_index":60,"time_elapsed":1520347,"internal_node_id":"0.0-5.0-6.0"},{"group":"hexagon_bi","fractal_assignment":["../images/blu_wht.png","../images/cyn_red.png","../images/pnk_blu.png","../images/ylw_slt.png","../images/org_blu.png","../images/gry_blk.png"],"mutagen_generator_assignment":[1,0],"goal":0,"start":4,"action_noise":0.15,"location_history":"[4,3,4,5,4,3,2,3,4,3,4,3,2,1,0]","action_history":"[0,0,1,1,0,1,1,0,0,0,0,1,0,1]","mutagen_history":"[1,1,0,0,1,0,0,1,1,1,1,0,1,0]","location_rts":"[390,376,137,224,44,56,70,424,87,24,128,165,0,43]","trial_type":"fractal-mutation","trial_index":61,"time_elapsed":1541026,"internal_node_id":"0.0-5.0-7.0"},{"group":"hexagon_bi","fractal_assignment":["../images/blu_wht.png","../images/cyn_red.png","../images/pnk_blu.png","../images/ylw_slt.png","../images/org_blu.png","../images/gry_blk.png"],"mutagen_generator_assignment":[1,0],"goal":2,"start":0,"action_noise":0.15,"location_history":"[0,5,0,5,4,3,4,5,4,5,0,5,0,1,0,5,4,3,2]","action_history":"[0,0,1,1,0,0,1,1,1,0,0,0,1,1,0,1,1,1]","mutagen_history":"[1,1,0,0,1,1,0,0,0,1,1,1,0,0,1,0,0,0]","location_rts":"[461,240,13,63,223,576,142,343,88,130,27,1564,15982,8049,15219,7252,5840,8135]","trial_type":"fractal-mutation","trial_index":62,"time_elapsed":1628089,"internal_node_id":"0.0-5.0-8.0"},{"group":"hexagon_bi","fractal_assignment":["../images/blu_wht.png","../images/cyn_red.png","../images/pnk_blu.png","../images/ylw_slt.png","../images/org_blu.png","../images/gry_blk.png"],"mutagen_generator_assignment":[1,0],"goal":4,"start":2,"action_noise":0.15,"location_history":"[2,1,2,3,4]","action_history":"[1,0,1,0]","mutagen_history":"[0,1,0,1]","location_rts":"[15517,482,1026,5264]","trial_type":"fractal-mutation","trial_index":63,"time_elapsed":1658171,"internal_node_id":"0.0-5.0-9.0"},{"group":"hexagon_bi","fractal_assignment":["../images/blu_wht.png","../images/cyn_red.png","../images/pnk_blu.png","../images/ylw_slt.png","../images/org_blu.png","../images/gry_blk.png"],"mutagen_generator_assignment":[1,0],"goal":2,"start":4,"action_noise":0.15,"location_history":"[4,3,2]","action_history":"[0,1]","mutagen_history":"[1,0]","location_rts":"[3000,2577]","trial_type":"fractal-mutation","trial_index":64,"time_elapsed":1669395,"internal_node_id":"0.0-5.0-10.0"},{"group":"hexagon_bi","fractal_assignment":["../images/blu_wht.png","../images/cyn_red.png","../images/pnk_blu.png","../images/ylw_slt.png","../images/org_blu.png","../images/gry_blk.png"],"mutagen_generator_assignment":[1,0],"goal":3,"start":2,"action_noise":0.15,"location_history":"[2,1,2,1,0,1,2,3]","action_history":"[0,0,0,1,0,0,0]","mutagen_history":"[1,1,1,0,1,1,1]","location_rts":"[7364,13090,9781,2056,2867,2726,1645]","trial_type":"fractal-mutation","trial_index":65,"time_elapsed":1719987,"internal_node_id":"0.0-5.0-11.0"},{"group":"hexagon_bi","fractal_assignment":["../images/blu_wht.png","../images/cyn_red.png","../images/pnk_blu.png","../images/ylw_slt.png","../images/org_blu.png","../images/gry_blk.png"],"mutagen_generator_assignment":[1,0],"goal":0,"start":3,"action_noise":0.15,"location_history":"[3,2,1,2,3,2,3,4,3,2,3,2,1,2,1,0]","action_history":"[1,0,0,1,1,1,0,0,1,1,0,0,0,0,1]","mutagen_history":"[0,1,1,0,0,0,1,1,0,0,1,1,1,1,0]","location_rts":"[5965,444,732,1500,601,102596,398,561,264,281,324,277,288,257,91]","trial_type":"fractal-mutation","trial_index":66,"time_elapsed":1854300,"internal_node_id":"0.0-5.0-12.0"},{"group":"hexagon_bi","fractal_assignment":["../images/blu_wht.png","../images/cyn_red.png","../images/pnk_blu.png","../images/ylw_slt.png","../images/org_blu.png","../images/gry_blk.png"],"mutagen_generator_assignment":[1,0],"goal":5,"start":0,"action_noise":0.15,"location_history":"[0,5]","action_history":"[0]","mutagen_history":"[1]","location_rts":"[1555]","trial_type":"fractal-mutation","trial_index":67,"time_elapsed":1860446,"internal_node_id":"0.0-5.0-13.0"},{"group":"hexagon_bi","fractal_assignment":["../images/blu_wht.png","../images/cyn_red.png","../images/pnk_blu.png","../images/ylw_slt.png","../images/org_blu.png","../images/gry_blk.png"],"mutagen_generator_assignment":[1,0],"goal":1,"start":5,"action_noise":0.15,"location_history":"[5,0,1]","action_history":"[0,1]","mutagen_history":"[1,0]","location_rts":"[399,259]","trial_type":"fractal-mutation","trial_index":68,"time_elapsed":1866759,"internal_node_id":"0.0-5.0-14.0"},{"group":"hexagon_bi","fractal_assignment":["../images/blu_wht.png","../images/cyn_red.png","../images/pnk_blu.png","../images/ylw_slt.png","../images/org_blu.png","../images/gry_blk.png"],"mutagen_generator_assignment":[1,0],"goal":5,"start":1,"action_noise":0.15,"location_history":"[1,0,1,0,5]","action_history":"[0,1,1,0]","mutagen_history":"[1,0,0,1]","location_rts":"[431,103,168,1045]","trial_type":"fractal-mutation","trial_index":69,"time_elapsed":1876301,"internal_node_id":"0.0-5.0-15.0"},{"group":"hexagon_bi","fractal_assignment":["../images/blu_wht.png","../images/cyn_red.png","../images/pnk_blu.png","../images/ylw_slt.png","../images/org_blu.png","../images/gry_blk.png"],"mutagen_generator_assignment":[1,0],"goal":3,"start":5,"action_noise":0.15,"location_history":"[5,0,1,2,1,2,1,2,3]","action_history":"[0,0,1,1,0,0,0,1]","mutagen_history":"[1,1,0,0,1,1,1,0]","location_rts":"[490,253,575,120,378,311,170,333]","trial_type":"fractal-mutation","trial_index":70,"time_elapsed":1891025,"internal_node_id":"0.0-5.0-16.0"},{"group":"hexagon_bi","fractal_assignment":["../images/blu_wht.png","../images/cyn_red.png","../images/pnk_blu.png","../images/ylw_slt.png","../images/org_blu.png","../images/gry_blk.png"],"mutagen_generator_assignment":[1,0],"goal":2,"start":3,"action_noise":0.15,"location_history":"[3,4,5,0,5,0,5,4,5,4,5,0,1,0,5,0,5,4,5,0,5,0,1,2]","action_history":"[0,1,0,0,0,0,1,1,1,1,1,0,1,0,0,0,1,1,0,0,0,1,0]","mutagen_history":"[1,0,1,1,1,1,0,0,0,0,0,1,0,1,1,1,0,0,1,1,1,0,1]","location_rts":"[395,81,314,308,117,195,53,92,68,131,118,660,375,180,332,123,27,290,149,101,307,71,48]","trial_type":"fractal-mutation","trial_index":71,"time_elapsed":1923676,"internal_node_id":"0.0-5.0-17.0"},{"group":"hexagon_bi","fractal_assignment":["../images/blu_wht.png","../images/cyn_red.png","../images/pnk_blu.png","../images/ylw_slt.png","../images/org_blu.png","../images/gry_blk.png"],"mutagen_generator_assignment":[1,0],"goal":1,"start":2,"action_noise":0.15,"location_history":"[2,1]","action_history":"[0]","mutagen_history":"[1]","location_rts":"[1704]","trial_type":"fractal-mutation","trial_index":72,"time_elapsed":1929971,"internal_node_id":"0.0-5.0-18.0"},{"group":"hexagon_bi","fractal_assignment":["../images/blu_wht.png","../images/cyn_red.png","../images/pnk_blu.png","../images/ylw_slt.png","../images/org_blu.png","../images/gry_blk.png"],"mutagen_generator_assignment":[1,0],"goal":4,"start":1,"action_noise":0.15,"location_history":"[1,2,3,4]","action_history":"[1,1,0]","mutagen_history":"[0,0,1]","location_rts":"[555,247,591]","trial_type":"fractal-mutation","trial_index":73,"time_elapsed":1938058,"internal_node_id":"0.0-5.0-19.0"},{"group":"hexagon_bi","fractal_assignment":["../images/blu_wht.png","../images/cyn_red.png","../images/pnk_blu.png","../images/ylw_slt.png","../images/org_blu.png","../images/gry_blk.png"],"mutagen_generator_assignment":[1,0],"goal":0,"start":4,"action_noise":0.15,"location_history":"[4,3,2,3,2,1,2,3,2,3,4,5,0]","action_history":"[0,1,1,0,0,0,1,1,1,0,1,0]","mutagen_history":"[1,0,0,1,1,1,0,0,0,1,0,1]","location_rts":"[523,70,269,65,147,95,582,595,450,374,335,468]","trial_type":"fractal-mutation","trial_index":74,"time_elapsed":1958350,"internal_node_id":"0.0-5.0-20.0"},{"group":"hexagon_bi","fractal_assignment":["../images/blu_wht.png","../images/cyn_red.png","../images/pnk_blu.png","../images/ylw_slt.png","../images/org_blu.png","../images/gry_blk.png"],"mutagen_generator_assignment":[1,0],"goal":3,"start":0,"action_noise":0.15,"location_history":"[0,1,0,5,0,1,0,1,2,1,2,3]","action_history":"[0,1,0,0,1,1,1,0,0,0,1]","mutagen_history":"[1,0,1,1,0,0,0,1,1,1,0]","location_rts":"[543,174,236,88,97,88,136,10,292,1302,523]","trial_type":"fractal-mutation","trial_index":75,"time_elapsed":1977105,"internal_node_id":"0.0-5.0-21.0"},{"group":"hexagon_bi","fractal_assignment":["../images/blu_wht.png","../images/cyn_red.png","../images/pnk_blu.png","../images/ylw_slt.png","../images/org_blu.png","../images/gry_blk.png"],"mutagen_generator_assignment":[1,0],"goal":1,"start":3,"action_noise":0.15,"location_history":"[3,2,1]","action_history":"[1,1]","mutagen_history":"[0,0]","location_rts":"[91,333]","trial_type":"fractal-mutation","trial_index":76,"time_elapsed":1983139,"internal_node_id":"0.0-5.0-22.0"},{"group":"hexagon_bi","fractal_assignment":["../images/blu_wht.png","../images/cyn_red.png","../images/pnk_blu.png","../images/ylw_slt.png","../images/org_blu.png","../images/gry_blk.png"],"mutagen_generator_assignment":[1,0],"goal":0,"start":1,"action_noise":0.15,"location_history":"[1,2,1,0]","action_history":"[0,0,1]","mutagen_history":"[1,1,0]","location_rts":"[146,132,121]","trial_type":"fractal-mutation","trial_index":77,"time_elapsed":1990259,"internal_node_id":"0.0-5.0-23.0"},{"group":"hexagon_bi","fractal_assignment":["../images/blu_wht.png","../images/cyn_red.png","../images/pnk_blu.png","../images/ylw_slt.png","../images/org_blu.png","../images/gry_blk.png"],"mutagen_generator_assignment":[1,0],"goal":2,"start":0,"action_noise":0.15,"location_history":"[0,1,0,1,2]","action_history":"[1,1,1,0]","mutagen_history":"[0,0,0,1]","location_rts":"[144,521,547,267]","trial_type":"fractal-mutation","trial_index":78,"time_elapsed":1999498,"internal_node_id":"0.0-5.0-24.0"},{"group":"hexagon_bi","fractal_assignment":["../images/blu_wht.png","../images/cyn_red.png","../images/pnk_blu.png","../images/ylw_slt.png","../images/org_blu.png","../images/gry_blk.png"],"mutagen_generator_assignment":[1,0],"goal":4,"start":2,"action_noise":0.15,"location_history":"[2,3,4]","action_history":"[1,1]","mutagen_history":"[0,0]","location_rts":"[515,158]","trial_type":"fractal-mutation","trial_index":79,"time_elapsed":2005781,"internal_node_id":"0.0-5.0-25.0"},{"group":"hexagon_bi","fractal_assignment":["../images/blu_wht.png","../images/cyn_red.png","../images/pnk_blu.png","../images/ylw_slt.png","../images/org_blu.png","../images/gry_blk.png"],"mutagen_generator_assignment":[1,0],"goal":5,"start":4,"action_noise":0.15,"location_history":"[4,3,2,1,2,1,2,3,4,3,2,1,2,1,0,1,2,1,2,1,2,3,4,5]","action_history":"[1,1,0,0,1,0,1,0,0,1,0,1,0,0,1,0,0,0,0,0,1,0,1]","mutagen_history":"[0,0,1,1,0,1,0,1,1,0,1,0,1,1,0,1,1,1,1,1,0,1,0]","location_rts":"[857,942,343,86,34,118,183,164,104,369,132,11,146,217,228,119,59,223,285,181,186,76,398]","trial_type":"fractal-mutation","trial_index":80,"time_elapsed":2039352,"internal_node_id":"0.0-5.0-26.0"},{"group":"hexagon_bi","fractal_assignment":["../images/blu_wht.png","../images/cyn_red.png","../images/pnk_blu.png","../images/ylw_slt.png","../images/org_blu.png","../images/gry_blk.png"],"mutagen_generator_assignment":[1,0],"goal":2,"start":5,"action_noise":0.15,"location_history":"[5,0,1,2]","action_history":"[0,0,1]","mutagen_history":"[1,1,0]","location_rts":"[94,178,14]","trial_type":"fractal-mutation","trial_index":81,"time_elapsed":2046366,"internal_node_id":"0.0-5.0-27.0"},{"group":"hexagon_bi","fractal_assignment":["../images/blu_wht.png","../images/cyn_red.png","../images/pnk_blu.png","../images/ylw_slt.png","../images/org_blu.png","../images/gry_blk.png"],"mutagen_generator_assignment":[1,0],"goal":3,"start":2,"action_noise":0.15,"location_history":"[2,1,0,5,4,5,4,5,0,5,0,1,0,1,0,1,2,1,2,3]","action_history":"[1,0,0,1,1,0,1,0,0,0,1,1,1,1,1,0,0,0,1]","mutagen_history":"[0,1,1,0,0,1,0,1,1,1,0,0,0,0,0,1,1,1,0]","location_rts":"[70,442,224,489,358,13,116,25,40,55,255,65,94,138,85,101,183,385,345]","trial_type":"fractal-mutation","trial_index":82,"time_elapsed":2073616,"internal_node_id":"0.0-5.0-28.0"},{"group":"hexagon_bi","fractal_assignment":["../images/blu_wht.png","../images/cyn_red.png","../images/pnk_blu.png","../images/ylw_slt.png","../images/org_blu.png","../images/gry_blk.png"],"mutagen_generator_assignment":[1,0],"goal":1,"start":3,"action_noise":0.15,"location_history":"[3,4,3,4,5,0,5,4,5,4,3,2,3,4,3,4,3,4,5,0,5,0,1]","action_history":"[0,1,0,1,0,0,1,1,1,0,1,0,1,1,0,0,0,1,0,0,0,1]","mutagen_history":"[1,0,1,0,1,1,0,0,0,1,0,1,0,0,1,1,1,0,1,1,1,0]","location_rts":"[580,307,115,182,477,495,555,349,446,173,354,283,256,205,174,499,307,416,49,199,385,149]","trial_type":"fractal-mutation","trial_index":83,"time_elapsed":2107610,"internal_node_id":"0.0-5.0-29.0"},{"group":"hexagon_bi","fractal_assignment":["../images/blu_wht.png","../images/cyn_red.png","../images/pnk_blu.png","../images/ylw_slt.png","../images/org_blu.png","../images/gry_blk.png"],"mutagen_generator_assignment":[1,0],"goal":4,"start":1,"action_noise":0.15,"location_history":"[1,0,1,2,3,4]","action_history":"[0,1,0,1,0]","mutagen_history":"[1,0,1,0,1]","location_rts":"[514,146,164,47,127]","trial_type":"fractal-mutation","trial_index":84,"time_elapsed":2117465,"internal_node_id":"0.0-5.0-30.0"},{"group":"hexagon_bi","fractal_assignment":["../images/blu_wht.png","../images/cyn_red.png","../images/pnk_blu.png","../images/ylw_slt.png","../images/org_blu.png","../images/gry_blk.png"],"mutagen_generator_assignment":[1,0],"goal":5,"start":4,"action_noise":0.15,"location_history":"[4,3,2,1,0,1,2,3,2,1,2,3,2,1,0,5]","action_history":"[0,1,0,1,1,1,0,1,0,0,1,1,0,1,0]","mutagen_history":"[1,0,1,0,0,0,1,0,1,1,0,0,1,0,1]","location_rts":"[508,67,20,30,250,498,49,386,290,101,120,295,1115,190,749]","trial_type":"fractal-mutation","trial_index":85,"time_elapsed":2141631,"internal_node_id":"0.0-5.0-31.0"},{"group":"hexagon_bi","fractal_assignment":["../images/blu_wht.png","../images/cyn_red.png","../images/pnk_blu.png","../images/ylw_slt.png","../images/org_blu.png","../images/gry_blk.png"],"mutagen_generator_assignment":[1,0],"goal":0,"start":5,"action_noise":0.15,"location_history":"[5,0]","action_history":"[0]","mutagen_history":"[1]","location_rts":"[133]","trial_type":"fractal-mutation","trial_index":86,"time_elapsed":2146350,"internal_node_id":"0.0-5.0-32.0"},{"group":"hexagon_bi","fractal_assignment":["../images/blu_wht.png","../images/cyn_red.png","../images/pnk_blu.png","../images/ylw_slt.png","../images/org_blu.png","../images/gry_blk.png"],"mutagen_generator_assignment":[1,0],"goal":2,"start":0,"action_noise":0.15,"location_history":"[0,5,0,5,0,1,0,5,4,3,4,3,4,5,4,5,0,1,0,5,0,1,2]","action_history":"[0,0,1,0,1,1,0,0,0,1,0,0,1,1,1,0,1,1,1,0,1,0]","mutagen_history":"[1,1,0,1,0,0,1,1,1,0,1,1,0,0,0,1,0,0,0,1,0,1]","location_rts":"[92,99,94,62,533,47,147,125,85,347,37,342,206,210,30,93,86,53,213,315,59,694]","trial_type":"fractal-mutation","trial_index":87,"time_elapsed":2177288,"internal_node_id":"0.0-5.0-33.0"},{"group":"hexagon_bi","fractal_assignment":["../images/blu_wht.png","../images/cyn_red.png","../images/pnk_blu.png","../images/ylw_slt.png","../images/org_blu.png","../images/gry_blk.png"],"mutagen_generator_assignment":[1,0],"goal":0,"start":2,"action_noise":0.15,"location_history":"[2,1,0]","action_history":"[0,1]","mutagen_history":"[1,0]","location_rts":"[500,86]","trial_type":"fractal-mutation","trial_index":88,"time_elapsed":2183514,"internal_node_id":"0.0-5.0-34.0"},{"group":"hexagon_bi","fractal_assignment":["../images/blu_wht.png","../images/cyn_red.png","../images/pnk_blu.png","../images/ylw_slt.png","../images/org_blu.png","../images/gry_blk.png"],"mutagen_generator_assignment":[1,0],"goal":5,"start":0,"action_noise":0.15,"location_history":"[0,5]","action_history":"[0]","mutagen_history":"[1]","location_rts":"[409]","trial_type":"fractal-mutation","trial_index":89,"time_elapsed":2188514,"internal_node_id":"0.0-5.0-35.0"},{"group":"hexagon_bi","fractal_assignment":["../images/blu_wht.png","../images/cyn_red.png","../images/pnk_blu.png","../images/ylw_slt.png","../images/org_blu.png","../images/gry_blk.png"],"mutagen_generator_assignment":[1,0],"goal":1,"start":5,"action_noise":0.15,"location_history":"[5,0,1]","action_history":"[0,1]","mutagen_history":"[1,0]","location_rts":"[442,826]","trial_type":"fractal-mutation","trial_index":90,"time_elapsed":2195417,"internal_node_id":"0.0-5.0-36.0"},{"group":"hexagon_bi","fractal_assignment":["../images/blu_wht.png","../images/cyn_red.png","../images/pnk_blu.png","../images/ylw_slt.png","../images/org_blu.png","../images/gry_blk.png"],"mutagen_generator_assignment":[1,0],"goal":4,"start":1,"action_noise":0.15,"location_history":"[1,0,5,0,5,4]","action_history":"[1,0,0,0,1]","mutagen_history":"[0,1,1,1,0]","location_rts":"[420,195,17,361,547]","trial_type":"fractal-mutation","trial_index":91,"time_elapsed":2205835,"internal_node_id":"0.0-5.0-37.0"},{"group":"hexagon_bi","fractal_assignment":["../images/blu_wht.png","../images/cyn_red.png","../images/pnk_blu.png","../images/ylw_slt.png","../images/org_blu.png","../images/gry_blk.png"],"mutagen_generator_assignment":[1,0],"goal":3,"start":4,"action_noise":0.15,"location_history":"[4,5,4,3]","action_history":"[1,0,0]","mutagen_history":"[0,1,1]","location_rts":"[474,218,9]","trial_type":"fractal-mutation","trial_index":92,"time_elapsed":2213287,"internal_node_id":"0.0-5.0-38.0"},{"group":"hexagon_bi","fractal_assignment":["../images/blu_wht.png","../images/cyn_red.png","../images/pnk_blu.png","../images/ylw_slt.png","../images/org_blu.png","../images/gry_blk.png"],"mutagen_generator_assignment":[1,0],"goal":5,"start":3,"action_noise":0.15,"location_history":"[3,4,5]","action_history":"[0,1]","mutagen_history":"[1,0]","location_rts":"[613,153]","trial_type":"fractal-mutation","trial_index":93,"time_elapsed":2219706,"internal_node_id":"0.0-5.0-39.0"},{"group":"hexagon_bi","fractal_assignment":["../images/blu_wht.png","../images/cyn_red.png","../images/pnk_blu.png","../images/ylw_slt.png","../images/org_blu.png","../images/gry_blk.png"],"mutagen_generator_assignment":[1,0],"goal":1,"start":5,"action_noise":0.15,"location_history":"[5,0,1]","action_history":"[0,1]","mutagen_history":"[1,0]","location_rts":"[498,21]","trial_type":"fractal-mutation","trial_index":94,"time_elapsed":2225876,"internal_node_id":"0.0-5.0-40.0"},{"group":"hexagon_bi","fractal_assignment":["../images/blu_wht.png","../images/cyn_red.png","../images/pnk_blu.png","../images/ylw_slt.png","../images/org_blu.png","../images/gry_blk.png"],"mutagen_generator_assignment":[1,0],"goal":2,"start":1,"action_noise":0.15,"location_history":"[1,2]","action_history":"[0]","mutagen_history":"[1]","location_rts":"[614]","trial_type":"fractal-mutation","trial_index":95,"time_elapsed":2231083,"internal_node_id":"0.0-5.0-41.0"},{"group":"hexagon_bi","fractal_assignment":["../images/blu_wht.png","../images/cyn_red.png","../images/pnk_blu.png","../images/ylw_slt.png","../images/org_blu.png","../images/gry_blk.png"],"mutagen_generator_assignment":[1,0],"goal":4,"start":2,"action_noise":0.15,"location_history":"[2,3,4]","action_history":"[1,1]","mutagen_history":"[0,0]","location_rts":"[721,827]","trial_type":"fractal-mutation","trial_index":96,"time_elapsed":2238261,"internal_node_id":"0.0-5.0-42.0"},{"group":"hexagon_bi","fractal_assignment":["../images/blu_wht.png","../images/cyn_red.png","../images/pnk_blu.png","../images/ylw_slt.png","../images/org_blu.png","../images/gry_blk.png"],"mutagen_generator_assignment":[1,0],"goal":0,"start":4,"action_noise":0.15,"location_history":"[4,3,2,3,2,3,4,3,2,3,2,1,2,3,2,1,0]","action_history":"[0,1,1,1,1,0,0,0,1,1,0,0,1,1,0,1]","mutagen_history":"[1,0,0,0,0,1,1,1,0,0,1,1,0,0,1,0]","location_rts":"[420,140,745,117,110,77,282,141,289,529,66,558,323,0,36,183]","trial_type":"fractal-mutation","trial_index":97,"time_elapsed":2262844,"internal_node_id":"0.0-5.0-43.0"},{"group":"hexagon_bi","fractal_assignment":["../images/blu_wht.png","../images/cyn_red.png","../images/pnk_blu.png","../images/ylw_slt.png","../images/org_blu.png","../images/gry_blk.png"],"mutagen_generator_assignment":[1,0],"goal":3,"start":0,"action_noise":0.15,"location_history":"[0,5,4,5,4,3]","action_history":"[0,1,1,1,0]","mutagen_history":"[1,0,0,0,1]","location_rts":"[257,160,371,53,85]","trial_type":"fractal-mutation","trial_index":98,"time_elapsed":2272603,"internal_node_id":"0.0-5.0-44.0"},{"group":"hexagon_bi","fractal_assignment":["../images/blu_wht.png","../images/cyn_red.png","../images/pnk_blu.png","../images/ylw_slt.png","../images/org_blu.png","../images/gry_blk.png"],"mutagen_generator_assignment":[1,0],"goal":0,"start":3,"action_noise":0.15,"location_history":"[3,2,3,2,1,2,3,2,1,0]","action_history":"[1,1,0,0,0,0,1,1,1]","mutagen_history":"[0,0,1,1,1,1,0,0,0]","location_rts":"[545,89,369,109,152,29,146,185,210]","trial_type":"fractal-mutation","trial_index":99,"time_elapsed":2287556,"internal_node_id":"0.0-5.0-45.0"},{"group":"hexagon_bi","fractal_assignment":["../images/blu_wht.png","../images/cyn_red.png","../images/pnk_blu.png","../images/ylw_slt.png","../images/org_blu.png","../images/gry_blk.png"],"mutagen_generator_assignment":[1,0],"goal":4,"start":0,"action_noise":0.15,"location_history":"[0,1,0,5,4]","action_history":"[0,1,0,1]","mutagen_history":"[1,0,1,0]","location_rts":"[498,243,82,141]","trial_type":"fractal-mutation","trial_index":100,"time_elapsed":2296295,"internal_node_id":"0.0-5.0-46.0"},{"group":"hexagon_bi","fractal_assignment":["../images/blu_wht.png","../images/cyn_red.png","../images/pnk_blu.png","../images/ylw_slt.png","../images/org_blu.png","../images/gry_blk.png"],"mutagen_generator_assignment":[1,0],"goal":5,"start":4,"action_noise":0.15,"location_history":"[4,3,2,3,4,3,2,1,0,1,2,3,2,3,2,1,0,5]","action_history":"[0,1,1,0,1,0,0,0,1,0,1,1,1,1,0,1,0]","mutagen_history":"[1,0,0,1,0,1,1,1,0,1,0,0,0,0,1,0,1]","location_rts":"[372,328,147,20,281,286,211,72,237,375,411,69,198,10,318,33,187]","trial_type":"fractal-mutation","trial_index":101,"time_elapsed":2321471,"internal_node_id":"0.0-5.0-47.0"},{"group":"hexagon_bi","fractal_assignment":["../images/blu_wht.png","../images/cyn_red.png","../images/pnk_blu.png","../images/ylw_slt.png","../images/org_blu.png","../images/gry_blk.png"],"mutagen_generator_assignment":[1,0],"goal":2,"start":5,"action_noise":0.15,"location_history":"[5,4,5,4,3,4,5,4,5,0,1,2]","action_history":"[0,1,1,0,0,1,1,1,0,1,0]","mutagen_history":"[1,0,0,1,1,0,0,0,1,0,1]","location_rts":"[559,132,576,245,61,115,26,129,102,116,16]","trial_type":"fractal-mutation","trial_index":102,"time_elapsed":2338762,"internal_node_id":"0.0-5.0-48.0"},{"group":"hexagon_bi","fractal_assignment":["../images/blu_wht.png","../images/cyn_red.png","../images/pnk_blu.png","../images/ylw_slt.png","../images/org_blu.png","../images/gry_blk.png"],"mutagen_generator_assignment":[1,0],"goal":1,"start":2,"action_noise":0.15,"location_history":"[2,3,2,3,4,3,2,1]","action_history":"[1,1,1,0,0,1,0]","mutagen_history":"[0,0,0,1,1,0,1]","location_rts":"[538,194,176,48,163,607,259]","trial_type":"fractal-mutation","trial_index":103,"time_elapsed":2351707,"internal_node_id":"0.0-5.0-49.0"},{"view_history":"[{\"page_index\":0,\"viewing_time\":3917}]","rt":3918,"trial_type":"instructions","trial_index":104,"time_elapsed":2356626,"internal_node_id":"0.0-6.0"},{"rt":28524,"responses":"{\"Q0\":\"guessing patterns ( which door would be picked more often)\"}","trial_type":"survey-text","trial_index":105,"time_elapsed":2386170,"internal_node_id":"0.0-7.0-0.0"},{"rt":43555,"responses":"{\"Q0\":\"if pattern's could be easier to learn than solid colors?\"}","trial_type":"survey-text","trial_index":106,"time_elapsed":2430735,"internal_node_id":"0.0-7.0-1.0"},{"rt":45161,"responses":"{\"Q0\":\"<img src='../images/diagrams/hexagon_tri.png'>\"}","trial_type":"survey-multi-choice","trial_index":107,"time_elapsed":2476915,"internal_node_id":"0.0-7.0-2.0"},{"rt":63893,"assignments":["../images/blu_wht.png","../images/gry_blk.png","../images/org_blu.png","../images/ylw_slt.png","../images/pnk_blu.png","../images/cyn_red.png"],"trial_type":"drag-drop-on-image","trial_index":108,"time_elapsed":2541819,"internal_node_id":"0.0-7.0-3.0"},{"rt":14589,"responses":"{\"Q0\":\"0\"}","trial_type":"survey-likert","trial_index":109,"time_elapsed":2557429,"internal_node_id":"0.0-7.0-4.0"},{"rt":59321,"responses":"{\"Q0\":\"occasionally got very frustrated thinking I knew the correct pattern, then when wrong.  random clicks upon random clicks to find the right color/mutation\"}","trial_type":"survey-text","trial_index":110,"time_elapsed":2617755,"internal_node_id":"0.0-7.0-5.0"},{"rt":8298,"responses":"{\"Q0\":\"Yes\"}","trial_type":"survey-multi-choice","trial_index":111,"time_elapsed":2627063,"internal_node_id":"0.0-7.0-6.0"},{"rt":9763,"responses":"{\"Q0\":\"During these questions/I wasn't aware until you pointed it out\"}","trial_type":"survey-multi-choice","trial_index":112,"time_elapsed":2637847,"internal_node_id":"0.0-7.0-7.0"},{"rt":8148,"responses":"{\"Q0\":\"\"}","trial_type":"survey-text","trial_index":113,"time_elapsed":2647000,"internal_node_id":"0.0-7.0-8.0"},{"rt":7207,"responses":"{\"Q0\":\"1\"}","trial_type":"survey-likert","trial_index":114,"time_elapsed":2655214,"internal_node_id":"0.0-7.0-9.0"},{"rt":13574,"responses":"{\"Q0\":\"Different structure\"}","trial_type":"survey-multi-choice","trial_index":115,"time_elapsed":2669802,"internal_node_id":"0.0-7.0-10.0"},{"rt":93676,"responses":"{\"Q0\":\"left (white) door = acid, right (black) door = ray\",\"Q1\":\"Completely confident\"}","trial_type":"survey-multi-choice","trial_index":116,"time_elapsed":2764505,"internal_node_id":"0.0-7.0-11.0"},{"rt":12654,"responses":"{\"Q0\":\"25-35\",\"Q1\":\"Some college\",\"Q2\":\"Male\",\"Q3\":\"White\"}","trial_type":"survey-multi-choice","trial_index":117,"time_elapsed":2778215,"internal_node_id":"0.0-8.0"},{"rt":165885,"responses":"{\"Q0\":\"on this 3rd round. at about 40mins of already working this H.I.T. and I was almost about to complete the second part.  The HIT restarted and I had to complete 50+ correct routes to specific color before it would go to the second part again and am unsuire if it had me do more than normal on the second retry.\"}","trial_type":"survey-text","trial_index":118,"time_elapsed":2945105,"internal_node_id":"0.0-9.0"}]