[{"view_history":"[{\"page_index\":0,\"viewing_time\":120722},{\"page_index\":1,\"viewing_time\":2390}]","rt":123116,"trial_type":"instructions","trial_index":0,"time_elapsed":123120,"internal_node_id":"0.0-0.0"},{"view_history":"[{\"page_index\":0,\"viewing_time\":1568},{\"page_index\":1,\"viewing_time\":1980}]","rt":3554,"trial_type":"instructions","trial_index":1,"time_elapsed":127679,"internal_node_id":"0.0-1.0"},{"group":"hexagon_tri","room_assignment":["blue","green","purple","yellow","grey","red"],"door_color_assignment":["white","black"],"door_generator_assignment":[1,0],"goal":2,"start":1,"action_noise":0.15,"location_history":"[1,3,2]","action_history":"[0,1]","door_history":"[1,0]","location_rts":"[2276,1367]","trial_type":"two-door-navigation","trial_index":2,"time_elapsed":137086,"internal_node_id":"0.0-2.0-0.0"},{"group":"hexagon_tri","room_assignment":["blue","green","purple","yellow","grey","red"],"door_color_assignment":["white","black"],"door_generator_assignment":[1,0],"goal":0,"start":2,"action_noise":0.15,"location_history":"[2,3,4,2,1,5,4,0]","action_history":"[1,1,1,0,0,0,0]","door_history":"[0,0,0,1,1,1,1]","location_rts":"[2291,8477,2901,1514,9666,598,282]","trial_type":"two-door-navigation","trial_index":3,"time_elapsed":173978,"internal_node_id":"0.0-2.0-1.0"},{"group":"hexagon_tri","room_assignment":["blue","green","purple","yellow","grey","red"],"door_color_assignment":["white","black"],"door_generator_assignment":[1,0],"goal":5,"start":0,"action_noise":0.15,"location_history":"[0,1,3,2,3,2,1,3,4,0,1,3,2,3,4,0,1,5]","action_history":"[0,0,0,0,0,1,1,1,0,0,0,0,0,1,0,1,1]","door_history":"[1,1,1,1,1,0,0,0,1,1,1,1,1,0,1,0,0]","location_rts":"[683,262,197,1164,7521,1285,633,182,7507,3862,5209,536,567,293,50,42,323]","trial_type":"two-door-navigation","trial_index":4,"time_elapsed":226728,"internal_node_id":"0.0-2.0-2.0"},{"group":"hexagon_tri","room_assignment":["blue","green","purple","yellow","grey","red"],"door_color_assignment":["white","black"],"door_generator_assignment":[1,0],"goal":1,"start":5,"action_noise":0.15,"location_history":"[5,4,2,1]","action_history":"[0,1,0]","door_history":"[1,0,1]","location_rts":"[34562,4453,1148]","trial_type":"two-door-navigation","trial_index":5,"time_elapsed":273644,"internal_node_id":"0.0-2.0-3.0"},{"group":"hexagon_tri","room_assignment":["blue","green","purple","yellow","grey","red"],"door_color_assignment":["white","black"],"door_generator_assignment":[1,0],"goal":3,"start":1,"action_noise":0.15,"location_history":"[1,3]","action_history":"[0]","door_history":"[1]","location_rts":"[1054]","trial_type":"two-door-navigation","trial_index":6,"time_elapsed":279286,"internal_node_id":"0.0-2.0-4.0"},{"group":"hexagon_tri","room_assignment":["blue","green","purple","yellow","grey","red"],"door_color_assignment":["white","black"],"door_generator_assignment":[1,0],"goal":5,"start":3,"action_noise":0.15,"location_history":"[3,2,1,3,4,0,5]","action_history":"[0,0,1,1,0,0]","door_history":"[1,1,0,0,1,1]","location_rts":"[5454,971,1551,1569,2448,2284]","trial_type":"two-door-navigation","trial_index":7,"time_elapsed":303665,"internal_node_id":"0.0-2.0-5.0"},{"group":"hexagon_tri","room_assignment":["blue","green","purple","yellow","grey","red"],"door_color_assignment":["white","black"],"door_generator_assignment":[1,0],"goal":4,"start":5,"action_noise":0.15,"location_history":"[5,4]","action_history":"[0]","door_history":"[1]","location_rts":"[1255]","trial_type":"two-door-navigation","trial_index":8,"time_elapsed":309539,"internal_node_id":"0.0-2.0-6.0"},{"group":"hexagon_tri","room_assignment":["blue","green","purple","yellow","grey","red"],"door_color_assignment":["white","black"],"door_generator_assignment":[1,0],"goal":0,"start":4,"action_noise":0.15,"location_history":"[4,2,3,4,2,1,5,0]","action_history":"[1,1,1,1,0,0,0]","door_history":"[0,0,0,0,1,1,1]","location_rts":"[7356,882,932,998,2331,283,743]","trial_type":"two-door-navigation","trial_index":9,"time_elapsed":334143,"internal_node_id":"0.0-2.0-7.0"},{"group":"hexagon_tri","room_assignment":["blue","green","purple","yellow","grey","red"],"door_color_assignment":["white","black"],"door_generator_assignment":[1,0],"goal":2,"start":0,"action_noise":0.15,"location_history":"[0,5,0,5,4,0,5,4,0,5,0,1,5,4,2]","action_history":"[0,0,0,0,0,0,0,0,0,1,1,1,1,1]","door_history":"[1,1,1,1,1,1,1,1,1,0,0,0,0,0]","location_rts":"[1055,3551,1790,1046,1131,830,256,447,108,566,780,2018,1825,1597]","trial_type":"two-door-navigation","trial_index":10,"time_elapsed":370075,"internal_node_id":"0.0-2.0-8.0"},{"group":"hexagon_tri","room_assignment":["blue","green","purple","yellow","grey","red"],"door_color_assignment":["white","black"],"door_generator_assignment":[1,0],"goal":4,"start":2,"action_noise":0.15,"location_history":"[2,3,4]","action_history":"[1,1]","door_history":"[0,0]","location_rts":"[745,169]","trial_type":"two-door-navigation","trial_index":11,"time_elapsed":376716,"internal_node_id":"0.0-2.0-9.0"},{"group":"hexagon_tri","room_assignment":["blue","green","purple","yellow","grey","red"],"door_color_assignment":["white","black"],"door_generator_assignment":[1,0],"goal":2,"start":4,"action_noise":0.15,"location_history":"[4,2]","action_history":"[1]","door_history":"[0]","location_rts":"[1034]","trial_type":"two-door-navigation","trial_index":12,"time_elapsed":382397,"internal_node_id":"0.0-2.0-10.0"},{"group":"hexagon_tri","room_assignment":["blue","green","purple","yellow","grey","red"],"door_color_assignment":["white","black"],"door_generator_assignment":[1,0],"goal":3,"start":2,"action_noise":0.15,"location_history":"[2,3]","action_history":"[1]","door_history":"[0]","location_rts":"[679]","trial_type":"two-door-navigation","trial_index":13,"time_elapsed":387661,"internal_node_id":"0.0-2.0-11.0"},{"group":"hexagon_tri","room_assignment":["blue","green","purple","yellow","grey","red"],"door_color_assignment":["white","black"],"door_generator_assignment":[1,0],"goal":0,"start":3,"action_noise":0.15,"location_history":"[3,2,1,3,2,1,3,4,2,3,4,2,1,3,4,0]","action_history":"[0,0,0,0,0,0,1,1,1,1,0,0,0,0,0]","door_history":"[1,1,1,1,1,1,0,0,0,0,1,1,1,1,1]","location_rts":"[3602,7409,415,659,62,403,28,356,396,409,121,403,467,419,464]","trial_type":"two-door-navigation","trial_index":14,"time_elapsed":423118,"internal_node_id":"0.0-2.0-12.0"},{"group":"hexagon_tri","room_assignment":["blue","green","purple","yellow","grey","red"],"door_color_assignment":["white","black"],"door_generator_assignment":[1,0],"goal":5,"start":0,"action_noise":0.15,"location_history":"[0,5]","action_history":"[0]","door_history":"[1]","location_rts":"[2395]","trial_type":"two-door-navigation","trial_index":15,"time_elapsed":430104,"internal_node_id":"0.0-2.0-13.0"},{"group":"hexagon_tri","room_assignment":["blue","green","purple","yellow","grey","red"],"door_color_assignment":["white","black"],"door_generator_assignment":[1,0],"goal":1,"start":5,"action_noise":0.15,"location_history":"[5,4,0,5,4,0,5,4,0,5,4,0,5,0,1]","action_history":"[0,0,0,0,0,0,0,0,0,0,0,1,1,1]","door_history":"[1,1,1,1,1,1,1,1,1,1,1,0,0,0]","location_rts":"[4712,1254,189,286,426,420,12188,239,15972,468,476,1286,168,1814]","trial_type":"two-door-navigation","trial_index":16,"time_elapsed":488818,"internal_node_id":"0.0-2.0-14.0"},{"group":"hexagon_tri","room_assignment":["blue","green","purple","yellow","grey","red"],"door_color_assignment":["white","black"],"door_generator_assignment":[1,0],"goal":5,"start":1,"action_noise":0.15,"location_history":"[1,5]","action_history":"[1]","door_history":"[0]","location_rts":"[4488]","trial_type":"two-door-navigation","trial_index":17,"time_elapsed":497884,"internal_node_id":"0.0-2.0-15.0"},{"group":"hexagon_tri","room_assignment":["blue","green","purple","yellow","grey","red"],"door_color_assignment":["white","black"],"door_generator_assignment":[1,0],"goal":3,"start":5,"action_noise":0.15,"location_history":"[5,4,0,5,0,1,5,4,0,5,4,0,1,5,0,5,4,0,5,0,1,5,0,5,4,2,3]","action_history":"[0,0,0,1,1,1,0,0,0,0,0,1,1,1,0,0,0,0,0,1,1,1,0,0,1,1]","door_history":"[1,1,1,0,0,0,1,1,1,1,1,0,0,0,1,1,1,1,1,0,0,0,1,1,0,0]","location_rts":"[3128,2106,6797,1204,361,1262,5750,1465,21922,4904,1290,4190,801,5227,5872,1988,2066,481,1382,409,651,486,469,404,1650,671]","trial_type":"two-door-navigation","trial_index":18,"time_elapsed":606659,"internal_node_id":"0.0-2.0-16.0"},{"group":"hexagon_tri","room_assignment":["blue","green","purple","yellow","grey","red"],"door_color_assignment":["white","black"],"door_generator_assignment":[1,0],"goal":2,"start":3,"action_noise":0.15,"location_history":"[3,2]","action_history":"[0]","door_history":"[1]","location_rts":"[684]","trial_type":"two-door-navigation","trial_index":19,"time_elapsed":611941,"internal_node_id":"0.0-2.0-17.0"},{"group":"hexagon_tri","room_assignment":["blue","green","purple","yellow","grey","red"],"door_color_assignment":["white","black"],"door_generator_assignment":[1,0],"goal":1,"start":2,"action_noise":0.15,"location_history":"[2,1]","action_history":"[0]","door_history":"[1]","location_rts":"[1153]","trial_type":"two-door-navigation","trial_index":20,"time_elapsed":617708,"internal_node_id":"0.0-2.0-18.0"},{"group":"hexagon_tri","room_assignment":["blue","green","purple","yellow","grey","red"],"door_color_assignment":["white","black"],"door_generator_assignment":[1,0],"goal":4,"start":1,"action_noise":0.15,"location_history":"[1,5,0,1,5,4]","action_history":"[1,1,1,1,1]","door_history":"[0,0,0,0,0]","location_rts":"[5021,267,1460,175,608]","trial_type":"two-door-navigation","trial_index":21,"time_elapsed":634159,"internal_node_id":"0.0-2.0-19.0"},{"group":"hexagon_tri","room_assignment":["blue","green","purple","yellow","grey","red"],"door_color_assignment":["white","black"],"door_generator_assignment":[1,0],"goal":0,"start":4,"action_noise":0.15,"location_history":"[4,0]","action_history":"[1]","door_history":"[0]","location_rts":"[60]","trial_type":"two-door-navigation","trial_index":22,"time_elapsed":638825,"internal_node_id":"0.0-2.0-20.0"},{"group":"hexagon_tri","room_assignment":["blue","green","purple","yellow","grey","red"],"door_color_assignment":["white","black"],"door_generator_assignment":[1,0],"goal":3,"start":0,"action_noise":0.15,"location_history":"[0,5,4,0,5,0,5,4,2,3]","action_history":"[0,0,0,0,1,1,1,0,0]","door_history":"[1,1,1,1,0,0,0,1,1]","location_rts":"[403,2224,460,33,463,542,1191,6686,1717]","trial_type":"two-door-navigation","trial_index":23,"time_elapsed":665985,"internal_node_id":"0.0-2.0-21.0"},{"group":"hexagon_tri","room_assignment":["blue","green","purple","yellow","grey","red"],"door_color_assignment":["white","black"],"door_generator_assignment":[1,0],"goal":1,"start":3,"action_noise":0.15,"location_history":"[3,2,3,4,2,3,2,1]","action_history":"[1,1,1,1,1,0,0]","door_history":"[0,0,0,0,0,1,1]","location_rts":"[508,1498,2968,4978,1846,2591,1931]","trial_type":"two-door-navigation","trial_index":24,"time_elapsed":693413,"internal_node_id":"0.0-2.0-22.0"},{"group":"hexagon_tri","room_assignment":["blue","green","purple","yellow","grey","red"],"door_color_assignment":["white","black"],"door_generator_assignment":[1,0],"goal":0,"start":1,"action_noise":0.15,"location_history":"[1,3,2,1,3,4,2,3,4,2,3,2,1,3,2,1,3,4,2,1,3,2,1,5,0]","action_history":"[0,0,0,0,1,1,1,1,1,1,0,0,0,0,1,1,1,1,1,0,0,0,0,1]","door_history":"[1,1,1,1,0,0,0,0,0,0,1,1,1,1,0,0,0,0,0,1,1,1,1,0]","location_rts":"[941,547,969,1356,1377,1923,496,530,1237,899,1760,575,1619,856,474,428,710,575,1135,446,802,1168,495,715]","trial_type":"two-door-navigation","trial_index":25,"time_elapsed":745481,"internal_node_id":"0.0-2.0-23.0"},{"group":"hexagon_tri","room_assignment":["blue","green","purple","yellow","grey","red"],"door_color_assignment":["white","black"],"door_generator_assignment":[1,0],"goal":2,"start":0,"action_noise":0.15,"location_history":"[0,1,3,2]","action_history":"[0,0,0]","door_history":"[1,1,1]","location_rts":"[885,900,839]","trial_type":"two-door-navigation","trial_index":26,"time_elapsed":754920,"internal_node_id":"0.0-2.0-24.0"},{"group":"hexagon_tri","room_assignment":["blue","green","purple","yellow","grey","red"],"door_color_assignment":["white","black"],"door_generator_assignment":[1,0],"goal":4,"start":2,"action_noise":0.15,"location_history":"[2,3,4]","action_history":"[1,1]","door_history":"[0,0]","location_rts":"[1594,258]","trial_type":"two-door-navigation","trial_index":27,"time_elapsed":762544,"internal_node_id":"0.0-2.0-25.0"},{"group":"hexagon_tri","room_assignment":["blue","green","purple","yellow","grey","red"],"door_color_assignment":["white","black"],"door_generator_assignment":[1,0],"goal":5,"start":4,"action_noise":0.15,"location_history":"[4,2,3,2,3,2,1,3,4,0,5]","action_history":"[1,1,1,1,0,0,0,0,0,0]","door_history":"[0,0,0,0,1,1,1,1,1,1]","location_rts":"[826,2164,1759,849,1178,566,815,1110,987,2021]","trial_type":"two-door-navigation","trial_index":28,"time_elapsed":789178,"internal_node_id":"0.0-2.0-26.0"},{"group":"hexagon_tri","room_assignment":["blue","green","purple","yellow","grey","red"],"door_color_assignment":["white","black"],"door_generator_assignment":[1,0],"goal":2,"start":5,"action_noise":0.15,"location_history":"[5,4,2]","action_history":"[0,1]","door_history":"[1,0]","location_rts":"[853,1405]","trial_type":"two-door-navigation","trial_index":29,"time_elapsed":797193,"internal_node_id":"0.0-2.0-27.0"},{"group":"hexagon_tri","room_assignment":["blue","green","purple","yellow","grey","red"],"door_color_assignment":["white","black"],"door_generator_assignment":[1,0],"goal":3,"start":2,"action_noise":0.15,"location_history":"[2,3]","action_history":"[1]","door_history":"[0]","location_rts":"[758]","trial_type":"two-door-navigation","trial_index":30,"time_elapsed":802575,"internal_node_id":"0.0-2.0-28.0"},{"group":"hexagon_tri","room_assignment":["blue","green","purple","yellow","grey","red"],"door_color_assignment":["white","black"],"door_generator_assignment":[1,0],"goal":1,"start":3,"action_noise":0.15,"location_history":"[3,4,0,5,4,2,1]","action_history":"[1,0,0,0,0,0]","door_history":"[0,1,1,1,1,1]","location_rts":"[1319,875,489,647,477,452]","trial_type":"two-door-navigation","trial_index":31,"time_elapsed":816890,"internal_node_id":"0.0-2.0-29.0"},{"group":"hexagon_tri","room_assignment":["blue","green","purple","yellow","grey","red"],"door_color_assignment":["white","black"],"door_generator_assignment":[1,0],"goal":4,"start":1,"action_noise":0.15,"location_history":"[1,5,4]","action_history":"[0,0]","door_history":"[1,1]","location_rts":"[2076,546]","trial_type":"two-door-navigation","trial_index":32,"time_elapsed":825209,"internal_node_id":"0.0-2.0-30.0"},{"group":"hexagon_tri","room_assignment":["blue","green","purple","yellow","grey","red"],"door_color_assignment":["white","black"],"door_generator_assignment":[1,0],"goal":5,"start":4,"action_noise":0.15,"location_history":"[4,0,1,3,2,1,3,2,3,4,0,1,5]","action_history":"[0,1,0,0,0,0,0,1,1,1,1,1]","door_history":"[1,0,1,1,1,1,1,0,0,0,0,0]","location_rts":"[1583,1647,1112,553,469,695,568,772,645,2338,1336,778]","trial_type":"two-door-navigation","trial_index":33,"time_elapsed":854429,"internal_node_id":"0.0-2.0-31.0"},{"group":"hexagon_tri","room_assignment":["blue","green","purple","yellow","grey","red"],"door_color_assignment":["white","black"],"door_generator_assignment":[1,0],"goal":0,"start":5,"action_noise":0.15,"location_history":"[5,0]","action_history":"[1]","door_history":"[0]","location_rts":"[1884]","trial_type":"two-door-navigation","trial_index":34,"time_elapsed":860912,"internal_node_id":"0.0-2.0-32.0"},{"group":"hexagon_tri","room_assignment":["blue","green","purple","yellow","grey","red"],"door_color_assignment":["white","black"],"door_generator_assignment":[1,0],"goal":2,"start":0,"action_noise":0.15,"location_history":"[0,5,4,0,1,5,4,0,5,4,0,5,4,0,1,5,4,0,1,3,2]","action_history":"[0,0,0,0,0,0,0,0,0,0,0,0,1,1,1,1,0,0,0,0]","door_history":"[1,1,1,1,1,1,1,1,1,1,1,1,0,0,0,0,1,1,1,1]","location_rts":"[1617,822,615,903,370,450,497,148,167,109,246,236,870,1762,664,434,758,779,607,191]","trial_type":"two-door-navigation","trial_index":35,"time_elapsed":898655,"internal_node_id":"0.0-2.0-33.0"},{"group":"hexagon_tri","room_assignment":["blue","green","purple","yellow","grey","red"],"door_color_assignment":["white","black"],"door_generator_assignment":[1,0],"goal":0,"start":2,"action_noise":0.15,"location_history":"[2,1,3,2,3,4,2,1,5,0]","action_history":"[0,0,0,1,1,1,1,1,1]","door_history":"[1,1,1,0,0,0,0,0,0]","location_rts":"[589,462,252,452,254,550,832,668,2022]","trial_type":"two-door-navigation","trial_index":36,"time_elapsed":918278,"internal_node_id":"0.0-2.0-34.0"},{"group":"hexagon_tri","room_assignment":["blue","green","purple","yellow","grey","red"],"door_color_assignment":["white","black"],"door_generator_assignment":[1,0],"goal":5,"start":0,"action_noise":0.15,"location_history":"[0,5]","action_history":"[0]","door_history":"[1]","location_rts":"[25648]","trial_type":"two-door-navigation","trial_index":37,"time_elapsed":948582,"internal_node_id":"0.0-2.0-35.0"},{"group":"hexagon_tri","room_assignment":["blue","green","purple","yellow","grey","red"],"door_color_assignment":["white","black"],"door_generator_assignment":[1,0],"goal":1,"start":5,"action_noise":0.15,"location_history":"[5,0,1]","action_history":"[1,1]","door_history":"[0,0]","location_rts":"[8508,889]","trial_type":"two-door-navigation","trial_index":38,"time_elapsed":963642,"internal_node_id":"0.0-2.0-36.0"},{"group":"hexagon_tri","room_assignment":["blue","green","purple","yellow","grey","red"],"door_color_assignment":["white","black"],"door_generator_assignment":[1,0],"goal":4,"start":1,"action_noise":0.15,"location_history":"[1,3,2,1,3,4]","action_history":"[0,0,0,0,1]","door_history":"[1,1,1,1,0]","location_rts":"[1076,650,845,5224,1483]","trial_type":"two-door-navigation","trial_index":39,"time_elapsed":981888,"internal_node_id":"0.0-2.0-37.0"},{"group":"hexagon_tri","room_assignment":["blue","green","purple","yellow","grey","red"],"door_color_assignment":["white","black"],"door_generator_assignment":[1,0],"goal":3,"start":4,"action_noise":0.15,"location_history":"[4,2,3]","action_history":"[1,1]","door_history":"[0,0]","location_rts":"[5779,2130]","trial_type":"two-door-navigation","trial_index":40,"time_elapsed":995467,"internal_node_id":"0.0-2.0-38.0"},{"group":"hexagon_tri","room_assignment":["blue","green","purple","yellow","grey","red"],"door_color_assignment":["white","black"],"door_generator_assignment":[1,0],"goal":5,"start":3,"action_noise":0.15,"location_history":"[3,2,1,3,2,3,4,2,1,3,2,1,3,4,0,5]","action_history":"[0,0,0,0,1,1,1,1,1,0,0,0,0,0,0]","door_history":"[1,1,1,1,0,0,0,0,0,1,1,1,1,1,1]","location_rts":"[949,2485,1864,2304,2027,374,746,1467,1476,2136,432,268,93,447,1337]","trial_type":"two-door-navigation","trial_index":41,"time_elapsed":1033860,"internal_node_id":"0.0-2.0-39.0"},{"group":"hexagon_tri","room_assignment":["blue","green","purple","yellow","grey","red"],"door_color_assignment":["white","black"],"door_generator_assignment":[1,0],"goal":1,"start":5,"action_noise":0.15,"location_history":"[5,4,0,5,0,1]","action_history":"[0,0,0,1,1]","door_history":"[1,1,1,0,0]","location_rts":"[1097,324,981,1425,2618]","trial_type":"two-door-navigation","trial_index":42,"time_elapsed":1049310,"internal_node_id":"0.0-2.0-40.0"},{"group":"hexagon_tri","room_assignment":["blue","green","purple","yellow","grey","red"],"door_color_assignment":["white","black"],"door_generator_assignment":[1,0],"goal":2,"start":1,"action_noise":0.15,"location_history":"[1,5,4,0,1,5,4,0,5,4,0,5,4,0,1,5,4,2]","action_history":"[1,0,0,1,1,0,0,0,0,0,0,0,0,1,1,1,1]","door_history":"[0,1,1,0,0,1,1,1,1,1,1,1,1,0,0,0,0]","location_rts":"[6120,345,472,1870,815,89,200,779,734,902,779,395,964,1256,936,1594,61]","trial_type":"two-door-navigation","trial_index":43,"time_elapsed":1089720,"internal_node_id":"0.0-2.0-41.0"},{"group":"hexagon_tri","room_assignment":["blue","green","purple","yellow","grey","red"],"door_color_assignment":["white","black"],"door_generator_assignment":[1,0],"goal":4,"start":2,"action_noise":0.15,"location_history":"[2,3,4]","action_history":"[1,1]","door_history":"[0,0]","location_rts":"[2520,830]","trial_type":"two-door-navigation","trial_index":44,"time_elapsed":1098805,"internal_node_id":"0.0-2.0-42.0"},{"group":"hexagon_tri","room_assignment":["blue","green","purple","yellow","grey","red"],"door_color_assignment":["white","black"],"door_generator_assignment":[1,0],"goal":0,"start":4,"action_noise":0.15,"location_history":"[4,2,3,2,1,5,0]","action_history":"[1,1,0,0,0,0]","door_history":"[0,0,1,1,1,1]","location_rts":"[1413,402,1139,654,449,319]","trial_type":"two-door-navigation","trial_index":45,"time_elapsed":1113358,"internal_node_id":"0.0-2.0-43.0"},{"group":"hexagon_tri","room_assignment":["blue","green","purple","yellow","grey","red"],"door_color_assignment":["white","black"],"door_generator_assignment":[1,0],"goal":3,"start":0,"action_noise":0.15,"location_history":"[0,5,4,0,1,5,0,1,3]","action_history":"[0,0,1,1,1,1,1,0]","door_history":"[1,1,0,0,0,0,0,1]","location_rts":"[587,543,1150,409,492,543,600,419]","trial_type":"two-door-navigation","trial_index":46,"time_elapsed":1130682,"internal_node_id":"0.0-2.0-44.0"},{"group":"hexagon_tri","room_assignment":["blue","green","purple","yellow","grey","red"],"door_color_assignment":["white","black"],"door_generator_assignment":[1,0],"goal":0,"start":3,"action_noise":0.15,"location_history":"[3,2,1,3,4,0]","action_history":"[0,0,0,1,1]","door_history":"[1,1,1,0,0]","location_rts":"[778,535,277,460,521]","trial_type":"two-door-navigation","trial_index":47,"time_elapsed":1142207,"internal_node_id":"0.0-2.0-45.0"},{"group":"hexagon_tri","room_assignment":["blue","green","purple","yellow","grey","red"],"door_color_assignment":["white","black"],"door_generator_assignment":[1,0],"goal":4,"start":0,"action_noise":0.15,"location_history":"[0,1,5,0,5,4]","action_history":"[1,1,1,0,0]","door_history":"[0,0,0,1,1]","location_rts":"[819,707,752,1697,1554]","trial_type":"two-door-navigation","trial_index":48,"time_elapsed":1156719,"internal_node_id":"0.0-2.0-46.0"},{"group":"hexagon_tri","room_assignment":["blue","green","purple","yellow","grey","red"],"door_color_assignment":["white","black"],"door_generator_assignment":[1,0],"goal":5,"start":4,"action_noise":0.15,"location_history":"[4,0,5]","action_history":"[0,0]","door_history":"[1,1]","location_rts":"[881,695]","trial_type":"two-door-navigation","trial_index":49,"time_elapsed":1164001,"internal_node_id":"0.0-2.0-47.0"},{"group":"hexagon_tri","room_assignment":["blue","green","purple","yellow","grey","red"],"door_color_assignment":["white","black"],"door_generator_assignment":[1,0],"goal":2,"start":5,"action_noise":0.15,"location_history":"[5,0,5,4,0,1,3,4,2]","action_history":"[0,0,0,0,1,1,1,1]","door_history":"[1,1,1,1,0,0,0,0]","location_rts":"[1024,814,1525,226,503,780,674,652]","trial_type":"two-door-navigation","trial_index":50,"time_elapsed":1182550,"internal_node_id":"0.0-2.0-48.0"},{"group":"hexagon_tri","room_assignment":["blue","green","purple","yellow","grey","red"],"door_color_assignment":["white","black"],"door_generator_assignment":[1,0],"goal":1,"start":2,"action_noise":0.15,"location_history":"[2,3,4,2,3,2,1]","action_history":"[1,1,1,1,0,0]","door_history":"[0,0,0,0,1,1]","location_rts":"[1230,714,467,2580,944,866]","trial_type":"two-door-navigation","trial_index":51,"time_elapsed":1199435,"internal_node_id":"0.0-2.0-49.0"},{"view_history":"[{\"page_index\":0,\"viewing_time\":2929}]","rt":2930,"trial_type":"instructions","trial_index":52,"time_elapsed":1203370,"internal_node_id":"0.0-3.0"},{"view_history":"[{\"page_index\":0,\"viewing_time\":4100},{\"page_index\":1,\"viewing_time\":1584}]","rt":5687,"trial_type":"instructions","trial_index":53,"time_elapsed":1210060,"internal_node_id":"0.0-4.0"},{"group":"hexagon_bi","fractal_assignment":["../images/ylw_slt.png","../images/org_blu.png","../images/cyn_red.png","../images/pnk_blu.png","../images/gry_blk.png","../images/blu_wht.png"],"mutagen_generator_assignment":[0,1],"goal":2,"start":1,"action_noise":0.15,"location_history":"[1,2]","action_history":"[0]","mutagen_history":"[0]","location_rts":"[2123]","trial_type":"fractal-mutation","trial_index":54,"time_elapsed":1216998,"internal_node_id":"0.0-5.0-0.0"},{"group":"hexagon_bi","fractal_assignment":["../images/ylw_slt.png","../images/org_blu.png","../images/cyn_red.png","../images/pnk_blu.png","../images/gry_blk.png","../images/blu_wht.png"],"mutagen_generator_assignment":[0,1],"goal":0,"start":2,"action_noise":0.15,"location_history":"[2,3,2,3,4,3,4,5,0]","action_history":"[1,1,1,0,0,0,1,1]","mutagen_history":"[1,1,1,0,0,0,1,1]","location_rts":"[1132,521,429,75,600,503,223,451]","trial_type":"fractal-mutation","trial_index":55,"time_elapsed":1234321,"internal_node_id":"0.0-5.0-1.0"},{"group":"hexagon_bi","fractal_assignment":["../images/ylw_slt.png","../images/org_blu.png","../images/cyn_red.png","../images/pnk_blu.png","../images/gry_blk.png","../images/blu_wht.png"],"mutagen_generator_assignment":[0,1],"goal":5,"start":0,"action_noise":0.15,"location_history":"[0,1,2,3,2,3,2,3,4,3,2,3,4,3,2,3,2,1,2,3,2,1,0,1,2,3,4,3,2,3,2,3,4,5]","action_history":"[1,1,1,1,1,1,1,0,1,1,1,0,0,1,1,1,0,0,1,1,0,1,1,1,1,0,0,1,1,1,1,0,1]","mutagen_history":"[1,1,1,1,1,1,1,0,1,1,1,0,0,1,1,1,0,0,1,1,0,1,1,1,1,0,0,1,1,1,1,0,1]","location_rts":"[1997,569,662,1627,643,168,427,360,461,644,593,688,648,731,405,398,353,500,275,3801,986,1384,408,569,629,420,1651,337,435,287,682,342,176]","trial_type":"fractal-mutation","trial_index":56,"time_elapsed":1303807,"internal_node_id":"0.0-5.0-2.0"},{"group":"hexagon_bi","fractal_assignment":["../images/ylw_slt.png","../images/org_blu.png","../images/cyn_red.png","../images/pnk_blu.png","../images/gry_blk.png","../images/blu_wht.png"],"mutagen_generator_assignment":[0,1],"goal":1,"start":5,"action_noise":0.15,"location_history":"[5,4,3,2,1]","action_history":"[0,0,1,0]","mutagen_history":"[0,0,1,0]","location_rts":"[1036,773,649,617]","trial_type":"fractal-mutation","trial_index":57,"time_elapsed":1315385,"internal_node_id":"0.0-5.0-3.0"},{"group":"hexagon_bi","fractal_assignment":["../images/ylw_slt.png","../images/org_blu.png","../images/cyn_red.png","../images/pnk_blu.png","../images/gry_blk.png","../images/blu_wht.png"],"mutagen_generator_assignment":[0,1],"goal":3,"start":1,"action_noise":0.15,"location_history":"[1,0,5,4,3]","action_history":"[1,1,1,0]","mutagen_history":"[1,1,1,0]","location_rts":"[1177,913,1075,338]","trial_type":"fractal-mutation","trial_index":58,"time_elapsed":1327482,"internal_node_id":"0.0-5.0-4.0"},{"group":"hexagon_bi","fractal_assignment":["../images/ylw_slt.png","../images/org_blu.png","../images/cyn_red.png","../images/pnk_blu.png","../images/gry_blk.png","../images/blu_wht.png"],"mutagen_generator_assignment":[0,1],"goal":5,"start":3,"action_noise":0.15,"location_history":"[3,2,3,2,1,0,1,2,3,4,5]","action_history":"[1,1,1,0,1,1,0,1,1,1]","mutagen_history":"[1,1,1,0,1,1,0,1,1,1]","location_rts":"[1171,548,358,253,316,454,610,331,1169,1186]","trial_type":"fractal-mutation","trial_index":59,"time_elapsed":1350391,"internal_node_id":"0.0-5.0-5.0"},{"group":"hexagon_bi","fractal_assignment":["../images/ylw_slt.png","../images/org_blu.png","../images/cyn_red.png","../images/pnk_blu.png","../images/gry_blk.png","../images/blu_wht.png"],"mutagen_generator_assignment":[0,1],"goal":4,"start":5,"action_noise":0.15,"location_history":"[5,0,1,0,1,0,1,0,5,4]","action_history":"[1,1,0,1,1,1,0,1,1]","mutagen_history":"[1,1,0,1,1,1,0,1,1]","location_rts":"[1571,1005,427,327,386,401,341,279,300]","trial_type":"fractal-mutation","trial_index":60,"time_elapsed":1370439,"internal_node_id":"0.0-5.0-6.0"},{"group":"hexagon_bi","fractal_assignment":["../images/ylw_slt.png","../images/org_blu.png","../images/cyn_red.png","../images/pnk_blu.png","../images/gry_blk.png","../images/blu_wht.png"],"mutagen_generator_assignment":[0,1],"goal":0,"start":4,"action_noise":0.15,"location_history":"[4,5,0]","action_history":"[1,1]","mutagen_history":"[1,1]","location_rts":"[1745,680]","trial_type":"fractal-mutation","trial_index":61,"time_elapsed":1378851,"internal_node_id":"0.0-5.0-7.0"},{"group":"hexagon_bi","fractal_assignment":["../images/ylw_slt.png","../images/org_blu.png","../images/cyn_red.png","../images/pnk_blu.png","../images/gry_blk.png","../images/blu_wht.png"],"mutagen_generator_assignment":[0,1],"goal":2,"start":0,"action_noise":0.15,"location_history":"[0,5,4,3,4,3,2]","action_history":"[0,0,0,0,0,1]","mutagen_history":"[0,0,0,0,0,1]","location_rts":"[1093,207,713,828,2737,392]","trial_type":"fractal-mutation","trial_index":62,"time_elapsed":1395587,"internal_node_id":"0.0-5.0-8.0"},{"group":"hexagon_bi","fractal_assignment":["../images/ylw_slt.png","../images/org_blu.png","../images/cyn_red.png","../images/pnk_blu.png","../images/gry_blk.png","../images/blu_wht.png"],"mutagen_generator_assignment":[0,1],"goal":4,"start":2,"action_noise":0.15,"location_history":"[2,3,2,1,0,1,0,5,4]","action_history":"[1,1,0,1,1,1,0,1]","mutagen_history":"[1,1,0,1,1,1,0,1]","location_rts":"[920,128,729,23,522,712,128,334]","trial_type":"fractal-mutation","trial_index":63,"time_elapsed":1412401,"internal_node_id":"0.0-5.0-9.0"},{"group":"hexagon_bi","fractal_assignment":["../images/ylw_slt.png","../images/org_blu.png","../images/cyn_red.png","../images/pnk_blu.png","../images/gry_blk.png","../images/blu_wht.png"],"mutagen_generator_assignment":[0,1],"goal":2,"start":4,"action_noise":0.15,"location_history":"[4,3,4,5,0,5,0,1,2]","action_history":"[0,0,1,0,0,0,1,0]","mutagen_history":"[0,0,1,0,0,0,1,0]","location_rts":"[1498,559,674,516,373,277,347,475]","trial_type":"fractal-mutation","trial_index":64,"time_elapsed":1430222,"internal_node_id":"0.0-5.0-10.0"},{"group":"hexagon_bi","fractal_assignment":["../images/ylw_slt.png","../images/org_blu.png","../images/cyn_red.png","../images/pnk_blu.png","../images/gry_blk.png","../images/blu_wht.png"],"mutagen_generator_assignment":[0,1],"goal":3,"start":2,"action_noise":0.15,"location_history":"[2,3]","action_history":"[1]","mutagen_history":"[1]","location_rts":"[966]","trial_type":"fractal-mutation","trial_index":65,"time_elapsed":1435886,"internal_node_id":"0.0-5.0-11.0"},{"group":"hexagon_bi","fractal_assignment":["../images/ylw_slt.png","../images/org_blu.png","../images/cyn_red.png","../images/pnk_blu.png","../images/gry_blk.png","../images/blu_wht.png"],"mutagen_generator_assignment":[0,1],"goal":0,"start":3,"action_noise":0.15,"location_history":"[3,2,3,4,5,4,3,2,3,4,5,4,3,4,5,4,3,4,3,4,5,4,3,2,3,2,1,2,3,2,1,0]","action_history":"[1,1,0,1,1,0,1,1,0,1,1,0,0,1,1,0,1,0,0,1,1,0,1,1,0,0,1,1,1,0,1]","mutagen_history":"[1,1,0,1,1,0,1,1,0,1,1,0,0,1,1,0,1,0,0,1,1,0,1,1,0,0,1,1,1,0,1]","location_rts":"[1068,650,557,674,496,784,348,350,351,1,447,327,1055,192,413,554,35,752,1719,536,476,838,383,704,98,792,168,447,614,347,679]","trial_type":"fractal-mutation","trial_index":66,"time_elapsed":1494221,"internal_node_id":"0.0-5.0-12.0"},{"group":"hexagon_bi","fractal_assignment":["../images/ylw_slt.png","../images/org_blu.png","../images/cyn_red.png","../images/pnk_blu.png","../images/gry_blk.png","../images/blu_wht.png"],"mutagen_generator_assignment":[0,1],"goal":5,"start":0,"action_noise":0.15,"location_history":"[0,1,0,5]","action_history":"[1,1,0]","mutagen_history":"[1,1,0]","location_rts":"[1251,456,583]","trial_type":"fractal-mutation","trial_index":67,"time_elapsed":1503553,"internal_node_id":"0.0-5.0-13.0"},{"group":"hexagon_bi","fractal_assignment":["../images/ylw_slt.png","../images/org_blu.png","../images/cyn_red.png","../images/pnk_blu.png","../images/gry_blk.png","../images/blu_wht.png"],"mutagen_generator_assignment":[0,1],"goal":1,"start":5,"action_noise":0.15,"location_history":"[5,0,1]","action_history":"[0,0]","mutagen_history":"[0,0]","location_rts":"[939,480]","trial_type":"fractal-mutation","trial_index":68,"time_elapsed":1510889,"internal_node_id":"0.0-5.0-14.0"},{"group":"hexagon_bi","fractal_assignment":["../images/ylw_slt.png","../images/org_blu.png","../images/cyn_red.png","../images/pnk_blu.png","../images/gry_blk.png","../images/blu_wht.png"],"mutagen_generator_assignment":[0,1],"goal":5,"start":1,"action_noise":0.15,"location_history":"[1,0,1,0,5]","action_history":"[1,1,1,0]","mutagen_history":"[1,1,1,0]","location_rts":"[1113,1130,1512,827]","trial_type":"fractal-mutation","trial_index":69,"time_elapsed":1524000,"internal_node_id":"0.0-5.0-15.0"},{"group":"hexagon_bi","fractal_assignment":["../images/ylw_slt.png","../images/org_blu.png","../images/cyn_red.png","../images/pnk_blu.png","../images/gry_blk.png","../images/blu_wht.png"],"mutagen_generator_assignment":[0,1],"goal":3,"start":5,"action_noise":0.15,"location_history":"[5,4,5,0,1,0,5,4,3]","action_history":"[1,1,0,1,1,0,1,1]","mutagen_history":"[1,1,0,1,1,0,1,1]","location_rts":"[1305,526,468,364,371,225,400,177]","trial_type":"fractal-mutation","trial_index":70,"time_elapsed":1540996,"internal_node_id":"0.0-5.0-16.0"},{"group":"hexagon_bi","fractal_assignment":["../images/ylw_slt.png","../images/org_blu.png","../images/cyn_red.png","../images/pnk_blu.png","../images/gry_blk.png","../images/blu_wht.png"],"mutagen_generator_assignment":[0,1],"goal":2,"start":3,"action_noise":0.15,"location_history":"[3,4,3,2]","action_history":"[0,0,1]","mutagen_history":"[0,0,1]","location_rts":"[1081,910,368]","trial_type":"fractal-mutation","trial_index":71,"time_elapsed":1550553,"internal_node_id":"0.0-5.0-17.0"},{"group":"hexagon_bi","fractal_assignment":["../images/ylw_slt.png","../images/org_blu.png","../images/cyn_red.png","../images/pnk_blu.png","../images/gry_blk.png","../images/blu_wht.png"],"mutagen_generator_assignment":[0,1],"goal":1,"start":2,"action_noise":0.15,"location_history":"[2,1]","action_history":"[0]","mutagen_history":"[0]","location_rts":"[1068]","trial_type":"fractal-mutation","trial_index":72,"time_elapsed":1556428,"internal_node_id":"0.0-5.0-18.0"},{"group":"hexagon_bi","fractal_assignment":["../images/ylw_slt.png","../images/org_blu.png","../images/cyn_red.png","../images/pnk_blu.png","../images/gry_blk.png","../images/blu_wht.png"],"mutagen_generator_assignment":[0,1],"goal":4,"start":1,"action_noise":0.15,"location_history":"[1,0,5,4]","action_history":"[1,0,1]","mutagen_history":"[1,0,1]","location_rts":"[11536,502,533]","trial_type":"fractal-mutation","trial_index":73,"time_elapsed":1576509,"internal_node_id":"0.0-5.0-19.0"},{"group":"hexagon_bi","fractal_assignment":["../images/ylw_slt.png","../images/org_blu.png","../images/cyn_red.png","../images/pnk_blu.png","../images/gry_blk.png","../images/blu_wht.png"],"mutagen_generator_assignment":[0,1],"goal":0,"start":4,"action_noise":0.15,"location_history":"[4,3,2,1,2,3,2,1,2,3,2,3,2,3,2,3,4,5,4,3,2,3,4,3,4,3,2,3,2,1,0]","action_history":"[1,1,0,0,1,1,0,0,1,1,0,1,1,1,1,0,1,1,0,1,1,0,0,1,0,1,1,1,0,1]","mutagen_history":"[1,1,0,0,1,1,0,0,1,1,0,1,1,1,1,0,1,1,0,1,1,0,0,1,0,1,1,1,0,1]","location_rts":"[565,372,195,199,301,250,308,339,466,117,449,10,60,236,34,131,1036,325,351,288,344,436,995,294,3929,319,187,247,167,387]","trial_type":"fractal-mutation","trial_index":74,"time_elapsed":1631344,"internal_node_id":"0.0-5.0-20.0"},{"group":"hexagon_bi","fractal_assignment":["../images/ylw_slt.png","../images/org_blu.png","../images/cyn_red.png","../images/pnk_blu.png","../images/gry_blk.png","../images/blu_wht.png"],"mutagen_generator_assignment":[0,1],"goal":3,"start":0,"action_noise":0.15,"location_history":"[0,1,0,1,0,1,2,1,2,1,0,5,4,5,4,3]","action_history":"[1,0,1,1,1,0,0,0,1,1,1,1,1,1,0]","mutagen_history":"[1,0,1,1,1,0,0,0,1,1,1,1,1,1,0]","location_rts":"[1557,462,167,304,383,377,309,369,362,493,344,332,397,348,351]","trial_type":"fractal-mutation","trial_index":75,"time_elapsed":1659627,"internal_node_id":"0.0-5.0-21.0"},{"group":"hexagon_bi","fractal_assignment":["../images/ylw_slt.png","../images/org_blu.png","../images/cyn_red.png","../images/pnk_blu.png","../images/gry_blk.png","../images/blu_wht.png"],"mutagen_generator_assignment":[0,1],"goal":1,"start":3,"action_noise":0.15,"location_history":"[3,2,1]","action_history":"[0,0]","mutagen_history":"[0,0]","location_rts":"[792,800]","trial_type":"fractal-mutation","trial_index":76,"time_elapsed":1666928,"internal_node_id":"0.0-5.0-22.0"},{"group":"hexagon_bi","fractal_assignment":["../images/ylw_slt.png","../images/org_blu.png","../images/cyn_red.png","../images/pnk_blu.png","../images/gry_blk.png","../images/blu_wht.png"],"mutagen_generator_assignment":[0,1],"goal":0,"start":1,"action_noise":0.15,"location_history":"[1,2,3,4,5,4,5,0]","action_history":"[0,1,0,1,1,1,0]","mutagen_history":"[0,1,0,1,1,1,0]","location_rts":"[446,169,278,268,275,396,342]","trial_type":"fractal-mutation","trial_index":77,"time_elapsed":1680993,"internal_node_id":"0.0-5.0-23.0"},{"group":"hexagon_bi","fractal_assignment":["../images/ylw_slt.png","../images/org_blu.png","../images/cyn_red.png","../images/pnk_blu.png","../images/gry_blk.png","../images/blu_wht.png"],"mutagen_generator_assignment":[0,1],"goal":2,"start":0,"action_noise":0.15,"location_history":"[0,5,0,5,4,3,4,3,2]","action_history":"[0,0,0,1,0,0,0,1]","mutagen_history":"[0,0,0,1,0,0,0,1]","location_rts":"[846,406,381,317,268,440,505,387]","trial_type":"fractal-mutation","trial_index":78,"time_elapsed":1697964,"internal_node_id":"0.0-5.0-24.0"},{"group":"hexagon_bi","fractal_assignment":["../images/ylw_slt.png","../images/org_blu.png","../images/cyn_red.png","../images/pnk_blu.png","../images/gry_blk.png","../images/blu_wht.png"],"mutagen_generator_assignment":[0,1],"goal":4,"start":2,"action_noise":0.15,"location_history":"[2,3,2,3,4]","action_history":"[1,1,1,0]","mutagen_history":"[1,1,1,0]","location_rts":"[1148,2947,1127,655]","trial_type":"fractal-mutation","trial_index":79,"time_elapsed":1712414,"internal_node_id":"0.0-5.0-25.0"},{"group":"hexagon_bi","fractal_assignment":["../images/ylw_slt.png","../images/org_blu.png","../images/cyn_red.png","../images/pnk_blu.png","../images/gry_blk.png","../images/blu_wht.png"],"mutagen_generator_assignment":[0,1],"goal":5,"start":4,"action_noise":0.15,"location_history":"[4,3,2,3,2,1,2,1,0,5]","action_history":"[0,1,1,1,0,0,0,1,1]","mutagen_history":"[0,1,1,1,0,0,0,1,1]","location_rts":"[604,553,704,728,353,677,1132,103,68]","trial_type":"fractal-mutation","trial_index":80,"time_elapsed":1731986,"internal_node_id":"0.0-5.0-26.0"},{"group":"hexagon_bi","fractal_assignment":["../images/ylw_slt.png","../images/org_blu.png","../images/cyn_red.png","../images/pnk_blu.png","../images/gry_blk.png","../images/blu_wht.png"],"mutagen_generator_assignment":[0,1],"goal":2,"start":5,"action_noise":0.15,"location_history":"[5,4,3,2]","action_history":"[1,0,1]","mutagen_history":"[1,0,1]","location_rts":"[587,475,2057]","trial_type":"fractal-mutation","trial_index":81,"time_elapsed":1742256,"internal_node_id":"0.0-5.0-27.0"},{"group":"hexagon_bi","fractal_assignment":["../images/ylw_slt.png","../images/org_blu.png","../images/cyn_red.png","../images/pnk_blu.png","../images/gry_blk.png","../images/blu_wht.png"],"mutagen_generator_assignment":[0,1],"goal":3,"start":2,"action_noise":0.15,"location_history":"[2,3]","action_history":"[1]","mutagen_history":"[1]","location_rts":"[4253]","trial_type":"fractal-mutation","trial_index":82,"time_elapsed":1751425,"internal_node_id":"0.0-5.0-28.0"},{"group":"hexagon_bi","fractal_assignment":["../images/ylw_slt.png","../images/org_blu.png","../images/cyn_red.png","../images/pnk_blu.png","../images/gry_blk.png","../images/blu_wht.png"],"mutagen_generator_assignment":[0,1],"goal":1,"start":3,"action_noise":0.15,"location_history":"[3,2,3,4,3,4,5,0,5,4,3,2,3,4,3,2,3,4,3,4,5,0,5,0,1]","action_history":"[1,1,0,0,0,0,0,0,1,0,0,1,0,0,0,1,0,0,0,1,0,0,0,1]","mutagen_history":"[1,1,0,0,0,0,0,0,1,0,0,1,0,0,0,1,0,0,0,1,0,0,0,1]","location_rts":"[222,1594,441,150,1478,4090,1159,49,762,500,1047,1298,280,6290,1057,44,479,322,905,93,153,928,159,90]","trial_type":"fractal-mutation","trial_index":83,"time_elapsed":1807567,"internal_node_id":"0.0-5.0-29.0"},{"group":"hexagon_bi","fractal_assignment":["../images/ylw_slt.png","../images/org_blu.png","../images/cyn_red.png","../images/pnk_blu.png","../images/gry_blk.png","../images/blu_wht.png"],"mutagen_generator_assignment":[0,1],"goal":4,"start":1,"action_noise":0.15,"location_history":"[1,2,1,2,3,4]","action_history":"[0,0,0,1,0]","mutagen_history":"[0,0,0,1,0]","location_rts":"[569,282,364,145,280]","trial_type":"fractal-mutation","trial_index":84,"time_elapsed":1818690,"internal_node_id":"0.0-5.0-30.0"},{"group":"hexagon_bi","fractal_assignment":["../images/ylw_slt.png","../images/org_blu.png","../images/cyn_red.png","../images/pnk_blu.png","../images/gry_blk.png","../images/blu_wht.png"],"mutagen_generator_assignment":[0,1],"goal":5,"start":4,"action_noise":0.15,"location_history":"[4,3,2,3,4,5]","action_history":"[0,0,1,0,1]","mutagen_history":"[0,0,1,0,1]","location_rts":"[1076,1699,30,502,500]","trial_type":"fractal-mutation","trial_index":85,"time_elapsed":1832021,"internal_node_id":"0.0-5.0-31.0"},{"group":"hexagon_bi","fractal_assignment":["../images/ylw_slt.png","../images/org_blu.png","../images/cyn_red.png","../images/pnk_blu.png","../images/gry_blk.png","../images/blu_wht.png"],"mutagen_generator_assignment":[0,1],"goal":0,"start":5,"action_noise":0.15,"location_history":"[5,0]","action_history":"[0]","mutagen_history":"[0]","location_rts":"[685]","trial_type":"fractal-mutation","trial_index":86,"time_elapsed":1837335,"internal_node_id":"0.0-5.0-32.0"},{"group":"hexagon_bi","fractal_assignment":["../images/ylw_slt.png","../images/org_blu.png","../images/cyn_red.png","../images/pnk_blu.png","../images/gry_blk.png","../images/blu_wht.png"],"mutagen_generator_assignment":[0,1],"goal":2,"start":0,"action_noise":0.15,"location_history":"[0,1,0,5,4,3,2]","action_history":"[1,1,1,1,0,1]","mutagen_history":"[1,1,1,1,0,1]","location_rts":"[700,287,1370,364,2034,11]","trial_type":"fractal-mutation","trial_index":87,"time_elapsed":1853159,"internal_node_id":"0.0-5.0-33.0"},{"group":"hexagon_bi","fractal_assignment":["../images/ylw_slt.png","../images/org_blu.png","../images/cyn_red.png","../images/pnk_blu.png","../images/gry_blk.png","../images/blu_wht.png"],"mutagen_generator_assignment":[0,1],"goal":0,"start":2,"action_noise":0.15,"location_history":"[2,3,2,3,2,3,4,5,0]","action_history":"[1,1,1,1,1,0,1,0]","mutagen_history":"[1,1,1,1,1,0,1,0]","location_rts":"[1777,1194,506,922,584,2141,265,553]","trial_type":"fractal-mutation","trial_index":88,"time_elapsed":1874995,"internal_node_id":"0.0-5.0-34.0"},{"group":"hexagon_bi","fractal_assignment":["../images/ylw_slt.png","../images/org_blu.png","../images/cyn_red.png","../images/pnk_blu.png","../images/gry_blk.png","../images/blu_wht.png"],"mutagen_generator_assignment":[0,1],"goal":5,"start":0,"action_noise":0.15,"location_history":"[0,1,2,3,4,3,2,1,0,5]","action_history":"[1,0,1,0,1,1,0,1,0]","mutagen_history":"[1,0,1,0,1,1,0,1,0]","location_rts":"[2205,1471,37,307,364,237,71,233,192]","trial_type":"fractal-mutation","trial_index":89,"time_elapsed":1894473,"internal_node_id":"0.0-5.0-35.0"},{"group":"hexagon_bi","fractal_assignment":["../images/ylw_slt.png","../images/org_blu.png","../images/cyn_red.png","../images/pnk_blu.png","../images/gry_blk.png","../images/blu_wht.png"],"mutagen_generator_assignment":[0,1],"goal":1,"start":5,"action_noise":0.15,"location_history":"[5,0,5,0,5,0,5,0,5,0,5,0,5,4,3,4,3,2,3,4,5,0,1]","action_history":"[1,0,0,0,0,0,0,0,0,1,0,0,1,0,0,0,0,1,0,1,0,0]","mutagen_history":"[1,0,0,0,0,0,0,0,0,1,0,0,1,0,0,0,0,1,0,1,0,0]","location_rts":"[64,492,49,541,20,86,428,218,299,550,500,532,81,66,666,51,544,225,335,191,434,353]","trial_type":"fractal-mutation","trial_index":90,"time_elapsed":1932462,"internal_node_id":"0.0-5.0-36.0"},{"group":"hexagon_bi","fractal_assignment":["../images/ylw_slt.png","../images/org_blu.png","../images/cyn_red.png","../images/pnk_blu.png","../images/gry_blk.png","../images/blu_wht.png"],"mutagen_generator_assignment":[0,1],"goal":4,"start":1,"action_noise":0.15,"location_history":"[1,0,5,4]","action_history":"[1,0,1]","mutagen_history":"[1,0,1]","location_rts":"[47,575,135]","trial_type":"fractal-mutation","trial_index":91,"time_elapsed":1940261,"internal_node_id":"0.0-5.0-37.0"},{"group":"hexagon_bi","fractal_assignment":["../images/ylw_slt.png","../images/org_blu.png","../images/cyn_red.png","../images/pnk_blu.png","../images/gry_blk.png","../images/blu_wht.png"],"mutagen_generator_assignment":[0,1],"goal":3,"start":4,"action_noise":0.15,"location_history":"[4,3]","action_history":"[1]","mutagen_history":"[1]","location_rts":"[98]","trial_type":"fractal-mutation","trial_index":92,"time_elapsed":1945036,"internal_node_id":"0.0-5.0-38.0"},{"group":"hexagon_bi","fractal_assignment":["../images/ylw_slt.png","../images/org_blu.png","../images/cyn_red.png","../images/pnk_blu.png","../images/gry_blk.png","../images/blu_wht.png"],"mutagen_generator_assignment":[0,1],"goal":5,"start":3,"action_noise":0.15,"location_history":"[3,4,5]","action_history":"[1,1]","mutagen_history":"[1,1]","location_rts":"[713,936]","trial_type":"fractal-mutation","trial_index":93,"time_elapsed":1952774,"internal_node_id":"0.0-5.0-39.0"},{"group":"hexagon_bi","fractal_assignment":["../images/ylw_slt.png","../images/org_blu.png","../images/cyn_red.png","../images/pnk_blu.png","../images/gry_blk.png","../images/blu_wht.png"],"mutagen_generator_assignment":[0,1],"goal":1,"start":5,"action_noise":0.15,"location_history":"[5,4,3,2,1]","action_history":"[1,0,0,0]","mutagen_history":"[1,0,0,0]","location_rts":"[126,210,55,98]","trial_type":"fractal-mutation","trial_index":94,"time_elapsed":1961933,"internal_node_id":"0.0-5.0-40.0"},{"group":"hexagon_bi","fractal_assignment":["../images/ylw_slt.png","../images/org_blu.png","../images/cyn_red.png","../images/pnk_blu.png","../images/gry_blk.png","../images/blu_wht.png"],"mutagen_generator_assignment":[0,1],"goal":2,"start":1,"action_noise":0.15,"location_history":"[1,0,1,2]","action_history":"[1,0,0]","mutagen_history":"[1,0,0]","location_rts":"[359,505,354]","trial_type":"fractal-mutation","trial_index":95,"time_elapsed":1970232,"internal_node_id":"0.0-5.0-41.0"},{"group":"hexagon_bi","fractal_assignment":["../images/ylw_slt.png","../images/org_blu.png","../images/cyn_red.png","../images/pnk_blu.png","../images/gry_blk.png","../images/blu_wht.png"],"mutagen_generator_assignment":[0,1],"goal":4,"start":2,"action_noise":0.15,"location_history":"[2,3,2,3,2,1,2,3,4]","action_history":"[1,1,1,1,1,0,0,0]","mutagen_history":"[1,1,1,1,1,0,0,0]","location_rts":"[576,116,656,230,97,238,66,61]","trial_type":"fractal-mutation","trial_index":96,"time_elapsed":1985801,"internal_node_id":"0.0-5.0-42.0"},{"group":"hexagon_bi","fractal_assignment":["../images/ylw_slt.png","../images/org_blu.png","../images/cyn_red.png","../images/pnk_blu.png","../images/gry_blk.png","../images/blu_wht.png"],"mutagen_generator_assignment":[0,1],"goal":0,"start":4,"action_noise":0.15,"location_history":"[4,5,4,3,2,3,4,3,2,1,0]","action_history":"[1,1,0,1,1,1,0,1,0,1]","mutagen_history":"[1,1,0,1,1,1,0,1,0,1]","location_rts":"[88,362,897,561,488,58,293,174,250,28]","trial_type":"fractal-mutation","trial_index":97,"time_elapsed":2005291,"internal_node_id":"0.0-5.0-43.0"},{"group":"hexagon_bi","fractal_assignment":["../images/ylw_slt.png","../images/org_blu.png","../images/cyn_red.png","../images/pnk_blu.png","../images/gry_blk.png","../images/blu_wht.png"],"mutagen_generator_assignment":[0,1],"goal":3,"start":0,"action_noise":0.15,"location_history":"[0,1,0,5,4,5,4,3]","action_history":"[1,1,0,1,1,1,0]","mutagen_history":"[1,1,0,1,1,1,0]","location_rts":"[1213,214,978,134,448,1398,229]","trial_type":"fractal-mutation","trial_index":98,"time_elapsed":2021595,"internal_node_id":"0.0-5.0-44.0"},{"group":"hexagon_bi","fractal_assignment":["../images/ylw_slt.png","../images/org_blu.png","../images/cyn_red.png","../images/pnk_blu.png","../images/gry_blk.png","../images/blu_wht.png"],"mutagen_generator_assignment":[0,1],"goal":0,"start":3,"action_noise":0.15,"location_history":"[3,4,3,4,5,0]","action_history":"[1,0,1,1,1]","mutagen_history":"[1,0,1,1,1]","location_rts":"[1232,344,53,1064,6258]","trial_type":"fractal-mutation","trial_index":99,"time_elapsed":2040309,"internal_node_id":"0.0-5.0-45.0"},{"group":"hexagon_bi","fractal_assignment":["../images/ylw_slt.png","../images/org_blu.png","../images/cyn_red.png","../images/pnk_blu.png","../images/gry_blk.png","../images/blu_wht.png"],"mutagen_generator_assignment":[0,1],"goal":4,"start":0,"action_noise":0.15,"location_history":"[0,5,0,1,2,3,2,3,2,1,2,3,2,3,2,3,2,3,4]","action_history":"[0,0,0,0,1,1,0,1,0,1,1,1,1,0,0,1,1,0]","mutagen_history":"[0,0,0,0,1,1,0,1,0,1,1,1,1,0,0,1,1,0]","location_rts":"[116,178,269,301,133,81,466,174,553,2,50,2,34,292,716,682,366,381]","trial_type":"fractal-mutation","trial_index":100,"time_elapsed":2071037,"internal_node_id":"0.0-5.0-46.0"},{"group":"hexagon_bi","fractal_assignment":["../images/ylw_slt.png","../images/org_blu.png","../images/cyn_red.png","../images/pnk_blu.png","../images/gry_blk.png","../images/blu_wht.png"],"mutagen_generator_assignment":[0,1],"goal":5,"start":4,"action_noise":0.15,"location_history":"[4,5]","action_history":"[1]","mutagen_history":"[1]","location_rts":"[219]","trial_type":"fractal-mutation","trial_index":101,"time_elapsed":2076095,"internal_node_id":"0.0-5.0-47.0"},{"group":"hexagon_bi","fractal_assignment":["../images/ylw_slt.png","../images/org_blu.png","../images/cyn_red.png","../images/pnk_blu.png","../images/gry_blk.png","../images/blu_wht.png"],"mutagen_generator_assignment":[0,1],"goal":2,"start":5,"action_noise":0.15,"location_history":"[5,0,5,0,1,2]","action_history":"[1,0,0,1,0]","mutagen_history":"[1,0,0,1,0]","location_rts":"[569,618,2,114,201]","trial_type":"fractal-mutation","trial_index":102,"time_elapsed":2087376,"internal_node_id":"0.0-5.0-48.0"},{"group":"hexagon_bi","fractal_assignment":["../images/ylw_slt.png","../images/org_blu.png","../images/cyn_red.png","../images/pnk_blu.png","../images/gry_blk.png","../images/blu_wht.png"],"mutagen_generator_assignment":[0,1],"goal":1,"start":2,"action_noise":0.15,"location_history":"[2,1]","action_history":"[1]","mutagen_history":"[1]","location_rts":"[151]","trial_type":"fractal-mutation","trial_index":103,"time_elapsed":2092215,"internal_node_id":"0.0-5.0-49.0"},{"view_history":"[{\"page_index\":0,\"viewing_time\":11558}]","rt":11559,"trial_type":"instructions","trial_index":104,"time_elapsed":2104778,"internal_node_id":"0.0-6.0"},{"rt":6359,"responses":"{\"Q0\":\"memory\"}","trial_type":"survey-text","trial_index":105,"time_elapsed":2112179,"internal_node_id":"0.0-7.0-0.0"},{"rt":11886,"responses":"{\"Q0\":\"memory\"}","trial_type":"survey-text","trial_index":106,"time_elapsed":2125108,"internal_node_id":"0.0-7.0-1.0"},{"rt":28633,"responses":"{\"Q0\":\"<img src='../images/diagrams/hexagon_bi.png'>\"}","trial_type":"survey-multi-choice","trial_index":107,"time_elapsed":2154804,"internal_node_id":"0.0-7.0-2.0"},{"rt":30527,"assignments":["../images/ylw_slt.png","../images/gry_blk.png","../images/blu_wht.png","../images/cyn_red.png","../images/org_blu.png","../images/pnk_blu.png"],"trial_type":"drag-drop-on-image","trial_index":108,"time_elapsed":2186367,"internal_node_id":"0.0-7.0-3.0"},{"rt":6806,"responses":"{\"Q0\":\"1\"}","trial_type":"survey-likert","trial_index":109,"time_elapsed":2194197,"internal_node_id":"0.0-7.0-4.0"},{"rt":22022,"responses":"{\"Q0\":\"the same pattern or similar \"}","trial_type":"survey-text","trial_index":110,"time_elapsed":2217238,"internal_node_id":"0.0-7.0-5.0"},{"rt":6523,"responses":"{\"Q0\":\"No\"}","trial_type":"survey-multi-choice","trial_index":111,"time_elapsed":2224792,"internal_node_id":"0.0-7.0-6.0"},{"rt":8916,"responses":"{\"Q0\":\"Did not notice\"}","trial_type":"survey-multi-choice","trial_index":112,"time_elapsed":2234801,"internal_node_id":"0.0-7.0-7.0"},{"rt":5235,"responses":"{\"Q0\":\"\"}","trial_type":"survey-text","trial_index":113,"time_elapsed":2241047,"internal_node_id":"0.0-7.0-8.0"},{"rt":6019,"responses":"{\"Q0\":\"1\"}","trial_type":"survey-likert","trial_index":114,"time_elapsed":2248082,"internal_node_id":"0.0-7.0-9.0"},{"rt":5700,"responses":"{\"Q0\":\"Same structure\"}","trial_type":"survey-multi-choice","trial_index":115,"time_elapsed":2254807,"internal_node_id":"0.0-7.0-10.0"},{"rt":41410,"responses":"{\"Q0\":\"left (white) door = acid, right (black) door = ray\",\"Q1\":\"Not at all confident\"}","trial_type":"survey-multi-choice","trial_index":116,"time_elapsed":2297293,"internal_node_id":"0.0-7.0-11.0"},{"rt":12066,"responses":"{\"Q0\":\"25-35\",\"Q1\":\"Bachelor's degree\",\"Q2\":\"Female\",\"Q3\":\"White\"}","trial_type":"survey-multi-choice","trial_index":117,"time_elapsed":2310536,"internal_node_id":"0.0-8.0"},{"rt":6349,"responses":"{\"Q0\":\"Thanks!\"}","trial_type":"survey-text","trial_index":118,"time_elapsed":2317904,"internal_node_id":"0.0-9.0"}]