[{"view_history":"[{\"page_index\":0,\"viewing_time\":3002},{\"page_index\":1,\"viewing_time\":26068}]","rt":29071,"trial_type":"instructions","trial_index":0,"time_elapsed":29074,"internal_node_id":"0.0-0.0"},{"view_history":"[{\"page_index\":0,\"viewing_time\":2124},{\"page_index\":1,\"viewing_time\":1874}]","rt":3999,"trial_type":"instructions","trial_index":1,"time_elapsed":34074,"internal_node_id":"0.0-1.0"},{"group":"hexagon_tri","room_assignment":["green","purple","yellow","red","blue","grey"],"door_color_assignment":["white","black"],"door_generator_assignment":[1,0],"goal":2,"start":1,"action_noise":0.15,"location_history":"[1,5,0,5,4,2]","action_history":"[1,1,0,0,1]","door_history":"[0,0,1,1,0]","location_rts":"[1838,993,1645,922,688]","trial_type":"two-door-navigation","trial_index":2,"time_elapsed":48736,"internal_node_id":"0.0-2.0-0.0"},{"group":"hexagon_tri","room_assignment":["green","purple","yellow","red","blue","grey"],"door_color_assignment":["white","black"],"door_generator_assignment":[1,0],"goal":0,"start":2,"action_noise":0.15,"location_history":"[2,1,5,0]","action_history":"[0,1,1]","door_history":"[1,0,0]","location_rts":"[1447,449,384]","trial_type":"two-door-navigation","trial_index":3,"time_elapsed":57562,"internal_node_id":"0.0-2.0-1.0"},{"group":"hexagon_tri","room_assignment":["green","purple","yellow","red","blue","grey"],"door_color_assignment":["white","black"],"door_generator_assignment":[1,0],"goal":5,"start":0,"action_noise":0.15,"location_history":"[0,1,5]","action_history":"[1,1]","door_history":"[0,0]","location_rts":"[1412,331]","trial_type":"two-door-navigation","trial_index":4,"time_elapsed":64880,"internal_node_id":"0.0-2.0-2.0"},{"group":"hexagon_tri","room_assignment":["green","purple","yellow","red","blue","grey"],"door_color_assignment":["white","black"],"door_generator_assignment":[1,0],"goal":1,"start":5,"action_noise":0.15,"location_history":"[5,0,1]","action_history":"[1,1]","door_history":"[0,0]","location_rts":"[1146,382]","trial_type":"two-door-navigation","trial_index":5,"time_elapsed":71938,"internal_node_id":"0.0-2.0-3.0"},{"group":"hexagon_tri","room_assignment":["green","purple","yellow","red","blue","grey"],"door_color_assignment":["white","black"],"door_generator_assignment":[1,0],"goal":3,"start":1,"action_noise":0.15,"location_history":"[1,5,0,5,4,2,3]","action_history":"[1,0,0,0,1,1]","door_history":"[0,1,1,1,0,0]","location_rts":"[1601,1474,754,551,966,359]","trial_type":"two-door-navigation","trial_index":6,"time_elapsed":87216,"internal_node_id":"0.0-2.0-4.0"},{"group":"hexagon_tri","room_assignment":["green","purple","yellow","red","blue","grey"],"door_color_assignment":["white","black"],"door_generator_assignment":[1,0],"goal":5,"start":3,"action_noise":0.15,"location_history":"[3,2,3,4,0,5]","action_history":"[0,1,1,0,1]","door_history":"[1,0,0,1,0]","location_rts":"[1956,1400,306,923,905]","trial_type":"two-door-navigation","trial_index":7,"time_elapsed":101242,"internal_node_id":"0.0-2.0-5.0"},{"group":"hexagon_tri","room_assignment":["green","purple","yellow","red","blue","grey"],"door_color_assignment":["white","black"],"door_generator_assignment":[1,0],"goal":4,"start":5,"action_noise":0.15,"location_history":"[5,4]","action_history":"[0]","door_history":"[1]","location_rts":"[12758]","trial_type":"two-door-navigation","trial_index":8,"time_elapsed":118525,"internal_node_id":"0.0-2.0-6.0"},{"group":"hexagon_tri","room_assignment":["green","purple","yellow","red","blue","grey"],"door_color_assignment":["white","black"],"door_generator_assignment":[1,0],"goal":0,"start":4,"action_noise":0.15,"location_history":"[4,2,3,2,3,4,2,3,2,3,4,2,1,3,2,3,4,0]","action_history":"[0,1,1,0,1,1,0,0,0,1,0,1,1,1,1,1,0]","door_history":"[1,0,0,1,0,0,1,1,1,0,1,0,0,0,0,0,1]","location_rts":"[1945,301,421,1033,543,418,927,593,579,789,545,2915,1118,1766,23185,927,1148]","trial_type":"two-door-navigation","trial_index":9,"time_elapsed":178341,"internal_node_id":"0.0-2.0-7.0"},{"group":"hexagon_tri","room_assignment":["green","purple","yellow","red","blue","grey"],"door_color_assignment":["white","black"],"door_generator_assignment":[1,0],"goal":2,"start":0,"action_noise":0.15,"location_history":"[0,5,4,2]","action_history":"[0,0,1]","door_history":"[1,1,0]","location_rts":"[1198,904,1410]","trial_type":"two-door-navigation","trial_index":10,"time_elapsed":188406,"internal_node_id":"0.0-2.0-8.0"},{"group":"hexagon_tri","room_assignment":["green","purple","yellow","red","blue","grey"],"door_color_assignment":["white","black"],"door_generator_assignment":[1,0],"goal":4,"start":2,"action_noise":0.15,"location_history":"[2,1,3,2,3,4]","action_history":"[0,0,0,1,1]","door_history":"[1,1,1,0,0]","location_rts":"[1753,1589,893,922,530]","trial_type":"two-door-navigation","trial_index":11,"time_elapsed":202630,"internal_node_id":"0.0-2.0-9.0"},{"group":"hexagon_tri","room_assignment":["green","purple","yellow","red","blue","grey"],"door_color_assignment":["white","black"],"door_generator_assignment":[1,0],"goal":2,"start":4,"action_noise":0.15,"location_history":"[4,2]","action_history":"[1]","door_history":"[0]","location_rts":"[799]","trial_type":"two-door-navigation","trial_index":12,"time_elapsed":207978,"internal_node_id":"0.0-2.0-10.0"},{"group":"hexagon_tri","room_assignment":["green","purple","yellow","red","blue","grey"],"door_color_assignment":["white","black"],"door_generator_assignment":[1,0],"goal":3,"start":2,"action_noise":0.15,"location_history":"[2,3]","action_history":"[1]","door_history":"[0]","location_rts":"[958]","trial_type":"two-door-navigation","trial_index":13,"time_elapsed":213452,"internal_node_id":"0.0-2.0-11.0"},{"group":"hexagon_tri","room_assignment":["green","purple","yellow","red","blue","grey"],"door_color_assignment":["white","black"],"door_generator_assignment":[1,0],"goal":0,"start":3,"action_noise":0.15,"location_history":"[3,2,3,4,0]","action_history":"[0,1,1,1]","door_history":"[1,0,0,0]","location_rts":"[1438,956,426,557]","trial_type":"two-door-navigation","trial_index":14,"time_elapsed":224380,"internal_node_id":"0.0-2.0-12.0"},{"group":"hexagon_tri","room_assignment":["green","purple","yellow","red","blue","grey"],"door_color_assignment":["white","black"],"door_generator_assignment":[1,0],"goal":5,"start":0,"action_noise":0.15,"location_history":"[0,5]","action_history":"[0]","door_history":"[1]","location_rts":"[1245]","trial_type":"two-door-navigation","trial_index":15,"time_elapsed":230128,"internal_node_id":"0.0-2.0-13.0"},{"group":"hexagon_tri","room_assignment":["green","purple","yellow","red","blue","grey"],"door_color_assignment":["white","black"],"door_generator_assignment":[1,0],"goal":1,"start":5,"action_noise":0.15,"location_history":"[5,4,0,5,0,1]","action_history":"[0,0,0,1,1]","door_history":"[1,1,1,0,0]","location_rts":"[446,494,454,713,341]","trial_type":"two-door-navigation","trial_index":16,"time_elapsed":241122,"internal_node_id":"0.0-2.0-14.0"},{"group":"hexagon_tri","room_assignment":["green","purple","yellow","red","blue","grey"],"door_color_assignment":["white","black"],"door_generator_assignment":[1,0],"goal":5,"start":1,"action_noise":0.15,"location_history":"[1,5]","action_history":"[1]","door_history":"[0]","location_rts":"[1925]","trial_type":"two-door-navigation","trial_index":17,"time_elapsed":247554,"internal_node_id":"0.0-2.0-15.0"},{"group":"hexagon_tri","room_assignment":["green","purple","yellow","red","blue","grey"],"door_color_assignment":["white","black"],"door_generator_assignment":[1,0],"goal":3,"start":5,"action_noise":0.15,"location_history":"[5,4,2,3]","action_history":"[0,1,1]","door_history":"[1,0,0]","location_rts":"[1577,372,382]","trial_type":"two-door-navigation","trial_index":18,"time_elapsed":256446,"internal_node_id":"0.0-2.0-16.0"},{"group":"hexagon_tri","room_assignment":["green","purple","yellow","red","blue","grey"],"door_color_assignment":["white","black"],"door_generator_assignment":[1,0],"goal":2,"start":3,"action_noise":0.15,"location_history":"[3,4,0,5,0,1,5,4,2]","action_history":"[1,1,1,0,1,1,0,1]","door_history":"[0,0,0,1,0,0,1,0]","location_rts":"[641,412,751,915,430,335,944,1564]","trial_type":"two-door-navigation","trial_index":19,"time_elapsed":274019,"internal_node_id":"0.0-2.0-17.0"},{"group":"hexagon_tri","room_assignment":["green","purple","yellow","red","blue","grey"],"door_color_assignment":["white","black"],"door_generator_assignment":[1,0],"goal":1,"start":2,"action_noise":0.15,"location_history":"[2,1]","action_history":"[0]","door_history":"[1]","location_rts":"[1472]","trial_type":"two-door-navigation","trial_index":20,"time_elapsed":279994,"internal_node_id":"0.0-2.0-18.0"},{"group":"hexagon_tri","room_assignment":["green","purple","yellow","red","blue","grey"],"door_color_assignment":["white","black"],"door_generator_assignment":[1,0],"goal":4,"start":1,"action_noise":0.15,"location_history":"[1,3,2,1,5,0,1,5,4]","action_history":"[0,0,0,1,1,1,1,0]","door_history":"[1,1,1,0,0,0,0,1]","location_rts":"[1782,382,390,705,997,821,558,416]","trial_type":"two-door-navigation","trial_index":21,"time_elapsed":297563,"internal_node_id":"0.0-2.0-19.0"},{"group":"hexagon_tri","room_assignment":["green","purple","yellow","red","blue","grey"],"door_color_assignment":["white","black"],"door_generator_assignment":[1,0],"goal":0,"start":4,"action_noise":0.15,"location_history":"[4,0]","action_history":"[0]","door_history":"[1]","location_rts":"[1239]","trial_type":"two-door-navigation","trial_index":22,"time_elapsed":303344,"internal_node_id":"0.0-2.0-20.0"},{"group":"hexagon_tri","room_assignment":["green","purple","yellow","red","blue","grey"],"door_color_assignment":["white","black"],"door_generator_assignment":[1,0],"goal":3,"start":0,"action_noise":0.15,"location_history":"[0,5,4,2,3]","action_history":"[0,0,1,1]","door_history":"[1,1,0,0]","location_rts":"[1911,448,337,336]","trial_type":"two-door-navigation","trial_index":23,"time_elapsed":313899,"internal_node_id":"0.0-2.0-21.0"},{"group":"hexagon_tri","room_assignment":["green","purple","yellow","red","blue","grey"],"door_color_assignment":["white","black"],"door_generator_assignment":[1,0],"goal":1,"start":3,"action_noise":0.15,"location_history":"[3,2,3,2,3,2,3,2,3,4,0,1]","action_history":"[0,1,1,1,0,1,1,1,1,0,1]","door_history":"[1,0,0,0,1,0,0,0,0,1,0]","location_rts":"[1750,355,325,421,326,1259,439,419,160,182,927]","trial_type":"two-door-navigation","trial_index":24,"time_elapsed":335082,"internal_node_id":"0.0-2.0-22.0"},{"group":"hexagon_tri","room_assignment":["green","purple","yellow","red","blue","grey"],"door_color_assignment":["white","black"],"door_generator_assignment":[1,0],"goal":0,"start":1,"action_noise":0.15,"location_history":"[1,5,0]","action_history":"[1,1]","door_history":"[0,0]","location_rts":"[625,411]","trial_type":"two-door-navigation","trial_index":25,"time_elapsed":341669,"internal_node_id":"0.0-2.0-23.0"},{"group":"hexagon_tri","room_assignment":["green","purple","yellow","red","blue","grey"],"door_color_assignment":["white","black"],"door_generator_assignment":[1,0],"goal":2,"start":0,"action_noise":0.15,"location_history":"[0,5,4,0,1,5,4,2]","action_history":"[0,0,1,1,1,0,1]","door_history":"[1,1,0,0,0,1,0]","location_rts":"[1525,1158,1026,417,418,1410,649]","trial_type":"two-door-navigation","trial_index":26,"time_elapsed":358802,"internal_node_id":"0.0-2.0-24.0"},{"group":"hexagon_tri","room_assignment":["green","purple","yellow","red","blue","grey"],"door_color_assignment":["white","black"],"door_generator_assignment":[1,0],"goal":4,"start":2,"action_noise":0.15,"location_history":"[2,3,4]","action_history":"[1,1]","door_history":"[0,0]","location_rts":"[993,338]","trial_type":"two-door-navigation","trial_index":27,"time_elapsed":365644,"internal_node_id":"0.0-2.0-25.0"},{"group":"hexagon_tri","room_assignment":["green","purple","yellow","red","blue","grey"],"door_color_assignment":["white","black"],"door_generator_assignment":[1,0],"goal":5,"start":4,"action_noise":0.15,"location_history":"[4,2,3,4,0,5]","action_history":"[1,1,1,0,1]","door_history":"[0,0,0,1,0]","location_rts":"[41,425,315,297,591]","trial_type":"two-door-navigation","trial_index":28,"time_elapsed":375863,"internal_node_id":"0.0-2.0-26.0"},{"group":"hexagon_tri","room_assignment":["green","purple","yellow","red","blue","grey"],"door_color_assignment":["white","black"],"door_generator_assignment":[1,0],"goal":2,"start":5,"action_noise":0.15,"location_history":"[5,4,0,1,5,0,1,3,4,0,1,3,4,2]","action_history":"[0,0,1,1,1,1,0,1,1,0,0,1,1]","door_history":"[1,1,0,0,0,0,1,0,0,1,1,0,0]","location_rts":"[1555,374,1010,1239,2695,573,520,393,402,1409,748,737,374]","trial_type":"two-door-navigation","trial_index":29,"time_elapsed":404525,"internal_node_id":"0.0-2.0-27.0"},{"group":"hexagon_tri","room_assignment":["green","purple","yellow","red","blue","grey"],"door_color_assignment":["white","black"],"door_generator_assignment":[1,0],"goal":3,"start":2,"action_noise":0.15,"location_history":"[2,3]","action_history":"[1]","door_history":"[0]","location_rts":"[954]","trial_type":"two-door-navigation","trial_index":30,"time_elapsed":409984,"internal_node_id":"0.0-2.0-28.0"},{"group":"hexagon_tri","room_assignment":["green","purple","yellow","red","blue","grey"],"door_color_assignment":["white","black"],"door_generator_assignment":[1,0],"goal":1,"start":3,"action_noise":0.15,"location_history":"[3,2,3,4,2,1]","action_history":"[0,1,1,1,0]","door_history":"[1,0,0,0,1]","location_rts":"[1402,752,443,610,1285]","trial_type":"two-door-navigation","trial_index":31,"time_elapsed":423046,"internal_node_id":"0.0-2.0-29.0"},{"group":"hexagon_tri","room_assignment":["green","purple","yellow","red","blue","grey"],"door_color_assignment":["white","black"],"door_generator_assignment":[1,0],"goal":4,"start":1,"action_noise":0.15,"location_history":"[1,3,4]","action_history":"[0,1]","door_history":"[1,0]","location_rts":"[865,942]","trial_type":"two-door-navigation","trial_index":32,"time_elapsed":430366,"internal_node_id":"0.0-2.0-30.0"},{"group":"hexagon_tri","room_assignment":["green","purple","yellow","red","blue","grey"],"door_color_assignment":["white","black"],"door_generator_assignment":[1,0],"goal":5,"start":4,"action_noise":0.15,"location_history":"[4,0,1,3,4,0,1,5]","action_history":"[0,1,1,1,0,1,1]","door_history":"[1,0,0,0,1,0,0]","location_rts":"[1384,698,398,391,658,465,426]","trial_type":"two-door-navigation","trial_index":33,"time_elapsed":445302,"internal_node_id":"0.0-2.0-31.0"},{"group":"hexagon_tri","room_assignment":["green","purple","yellow","red","blue","grey"],"door_color_assignment":["white","black"],"door_generator_assignment":[1,0],"goal":0,"start":5,"action_noise":0.15,"location_history":"[5,0]","action_history":"[1]","door_history":"[0]","location_rts":"[770]","trial_type":"two-door-navigation","trial_index":34,"time_elapsed":450586,"internal_node_id":"0.0-2.0-32.0"},{"group":"hexagon_tri","room_assignment":["green","purple","yellow","red","blue","grey"],"door_color_assignment":["white","black"],"door_generator_assignment":[1,0],"goal":2,"start":0,"action_noise":0.15,"location_history":"[0,1,3,4,2]","action_history":"[0,0,1,1]","door_history":"[1,1,0,0]","location_rts":"[1441,2889,953,391]","trial_type":"two-door-navigation","trial_index":35,"time_elapsed":463798,"internal_node_id":"0.0-2.0-33.0"},{"group":"hexagon_tri","room_assignment":["green","purple","yellow","red","blue","grey"],"door_color_assignment":["white","black"],"door_generator_assignment":[1,0],"goal":0,"start":2,"action_noise":0.15,"location_history":"[2,3,2,1,3,2,1,3,2,1,5,0]","action_history":"[0,0,1,0,0,0,1,1,0,1,1]","door_history":"[1,1,0,1,1,1,0,0,1,0,0]","location_rts":"[1793,1158,763,514,1103,479,306,414,1034,601,706]","trial_type":"two-door-navigation","trial_index":36,"time_elapsed":487364,"internal_node_id":"0.0-2.0-34.0"},{"group":"hexagon_tri","room_assignment":["green","purple","yellow","red","blue","grey"],"door_color_assignment":["white","black"],"door_generator_assignment":[1,0],"goal":5,"start":0,"action_noise":0.15,"location_history":"[0,5]","action_history":"[1]","door_history":"[0]","location_rts":"[1096]","trial_type":"two-door-navigation","trial_index":37,"time_elapsed":492966,"internal_node_id":"0.0-2.0-35.0"},{"group":"hexagon_tri","room_assignment":["green","purple","yellow","red","blue","grey"],"door_color_assignment":["white","black"],"door_generator_assignment":[1,0],"goal":1,"start":5,"action_noise":0.15,"location_history":"[5,0,1]","action_history":"[1,1]","door_history":"[0,0]","location_rts":"[609,338]","trial_type":"two-door-navigation","trial_index":38,"time_elapsed":499453,"internal_node_id":"0.0-2.0-36.0"},{"group":"hexagon_tri","room_assignment":["green","purple","yellow","red","blue","grey"],"door_color_assignment":["white","black"],"door_generator_assignment":[1,0],"goal":4,"start":1,"action_noise":0.15,"location_history":"[1,3,4]","action_history":"[0,1]","door_history":"[1,0]","location_rts":"[980,606]","trial_type":"two-door-navigation","trial_index":39,"time_elapsed":506575,"internal_node_id":"0.0-2.0-37.0"},{"group":"hexagon_tri","room_assignment":["green","purple","yellow","red","blue","grey"],"door_color_assignment":["white","black"],"door_generator_assignment":[1,0],"goal":3,"start":4,"action_noise":0.15,"location_history":"[4,2,3]","action_history":"[1,1]","door_history":"[0,0]","location_rts":"[906,347]","trial_type":"two-door-navigation","trial_index":40,"time_elapsed":513342,"internal_node_id":"0.0-2.0-38.0"},{"group":"hexagon_tri","room_assignment":["green","purple","yellow","red","blue","grey"],"door_color_assignment":["white","black"],"door_generator_assignment":[1,0],"goal":5,"start":3,"action_noise":0.15,"location_history":"[3,2,3,2,3,4,0,1,5]","action_history":"[0,1,0,1,1,0,1,1]","door_history":"[1,0,1,0,0,1,0,0]","location_rts":"[1233,1705,1642,575,975,497,545,353]","trial_type":"two-door-navigation","trial_index":41,"time_elapsed":532437,"internal_node_id":"0.0-2.0-39.0"},{"group":"hexagon_tri","room_assignment":["green","purple","yellow","red","blue","grey"],"door_color_assignment":["white","black"],"door_generator_assignment":[1,0],"goal":1,"start":5,"action_noise":0.15,"location_history":"[5,0,1]","action_history":"[1,1]","door_history":"[0,0]","location_rts":"[772,509]","trial_type":"two-door-navigation","trial_index":42,"time_elapsed":539274,"internal_node_id":"0.0-2.0-40.0"},{"group":"hexagon_tri","room_assignment":["green","purple","yellow","red","blue","grey"],"door_color_assignment":["white","black"],"door_generator_assignment":[1,0],"goal":2,"start":1,"action_noise":0.15,"location_history":"[1,5,4,2]","action_history":"[1,0,1]","door_history":"[0,1,0]","location_rts":"[1346,294,861]","trial_type":"two-door-navigation","trial_index":43,"time_elapsed":548286,"internal_node_id":"0.0-2.0-41.0"},{"group":"hexagon_tri","room_assignment":["green","purple","yellow","red","blue","grey"],"door_color_assignment":["white","black"],"door_generator_assignment":[1,0],"goal":4,"start":2,"action_noise":0.15,"location_history":"[2,3,4]","action_history":"[1,1]","door_history":"[0,0]","location_rts":"[906,294]","trial_type":"two-door-navigation","trial_index":44,"time_elapsed":554993,"internal_node_id":"0.0-2.0-42.0"},{"group":"hexagon_tri","room_assignment":["green","purple","yellow","red","blue","grey"],"door_color_assignment":["white","black"],"door_generator_assignment":[1,0],"goal":0,"start":4,"action_noise":0.15,"location_history":"[4,0]","action_history":"[0]","door_history":"[1]","location_rts":"[1280]","trial_type":"two-door-navigation","trial_index":45,"time_elapsed":560779,"internal_node_id":"0.0-2.0-43.0"},{"group":"hexagon_tri","room_assignment":["green","purple","yellow","red","blue","grey"],"door_color_assignment":["white","black"],"door_generator_assignment":[1,0],"goal":3,"start":0,"action_noise":0.15,"location_history":"[0,5,0,5,4,2,3]","action_history":"[0,0,0,1,1,1]","door_history":"[1,1,1,0,0,0]","location_rts":"[1438,1554,415,1572,673,652]","trial_type":"two-door-navigation","trial_index":46,"time_elapsed":576644,"internal_node_id":"0.0-2.0-44.0"},{"group":"hexagon_tri","room_assignment":["green","purple","yellow","red","blue","grey"],"door_color_assignment":["white","black"],"door_generator_assignment":[1,0],"goal":0,"start":3,"action_noise":0.15,"location_history":"[3,4,2,1,5,4,0]","action_history":"[1,0,0,1,1,1]","door_history":"[0,1,1,0,0,0]","location_rts":"[1201,992,942,1504,450,590]","trial_type":"two-door-navigation","trial_index":47,"time_elapsed":591899,"internal_node_id":"0.0-2.0-45.0"},{"group":"hexagon_tri","room_assignment":["green","purple","yellow","red","blue","grey"],"door_color_assignment":["white","black"],"door_generator_assignment":[1,0],"goal":4,"start":0,"action_noise":0.15,"location_history":"[0,1,3,4]","action_history":"[1,0,1]","door_history":"[0,1,0]","location_rts":"[2232,849,688]","trial_type":"two-door-navigation","trial_index":48,"time_elapsed":602195,"internal_node_id":"0.0-2.0-46.0"},{"group":"hexagon_tri","room_assignment":["green","purple","yellow","red","blue","grey"],"door_color_assignment":["white","black"],"door_generator_assignment":[1,0],"goal":5,"start":4,"action_noise":0.15,"location_history":"[4,0,1,5]","action_history":"[0,1,1]","door_history":"[1,0,0]","location_rts":"[1481,460,879]","trial_type":"two-door-navigation","trial_index":49,"time_elapsed":611580,"internal_node_id":"0.0-2.0-47.0"},{"group":"hexagon_tri","room_assignment":["green","purple","yellow","red","blue","grey"],"door_color_assignment":["white","black"],"door_generator_assignment":[1,0],"goal":2,"start":5,"action_noise":0.15,"location_history":"[5,0,5,4,0,1,5,0,1,3,2]","action_history":"[1,0,0,1,1,0,1,1,0,1]","door_history":"[0,1,1,0,0,1,0,0,1,0]","location_rts":"[1356,476,1243,256,437,755,435,427,346,1079]","trial_type":"two-door-navigation","trial_index":50,"time_elapsed":632031,"internal_node_id":"0.0-2.0-48.0"},{"group":"hexagon_tri","room_assignment":["green","purple","yellow","red","blue","grey"],"door_color_assignment":["white","black"],"door_generator_assignment":[1,0],"goal":1,"start":2,"action_noise":0.15,"location_history":"[2,3,2,3,2,3,4,0,1]","action_history":"[0,0,1,0,1,1,0,1]","door_history":"[1,1,0,1,0,0,1,0]","location_rts":"[1697,1169,598,370,538,419,1174,1037]","trial_type":"two-door-navigation","trial_index":51,"time_elapsed":650595,"internal_node_id":"0.0-2.0-49.0"},{"view_history":"[{\"page_index\":0,\"viewing_time\":2027}]","rt":2027,"trial_type":"instructions","trial_index":52,"time_elapsed":653623,"internal_node_id":"0.0-3.0"},{"view_history":"[{\"page_index\":0,\"viewing_time\":112928},{\"page_index\":1,\"viewing_time\":2065}]","rt":114994,"trial_type":"instructions","trial_index":53,"time_elapsed":769617,"internal_node_id":"0.0-4.0"},{"group":"hexagon_tri","fractal_assignment":["../images/blu_wht.png","../images/cyn_red.png","../images/ylw_slt.png","../images/gry_blk.png","../images/org_blu.png","../images/pnk_blu.png"],"mutagen_generator_assignment":[0,1],"goal":2,"start":1,"action_noise":0.15,"location_history":"[1,3,2]","action_history":"[0,0]","mutagen_history":"[0,0]","location_rts":"[1590,705]","trial_type":"fractal-mutation","trial_index":54,"time_elapsed":777681,"internal_node_id":"0.0-5.0-0.0"},{"group":"hexagon_tri","fractal_assignment":["../images/blu_wht.png","../images/cyn_red.png","../images/ylw_slt.png","../images/gry_blk.png","../images/org_blu.png","../images/pnk_blu.png"],"mutagen_generator_assignment":[0,1],"goal":0,"start":2,"action_noise":0.15,"location_history":"[2,1,5,4,0]","action_history":"[0,0,0,0]","mutagen_history":"[0,0,0,0]","location_rts":"[385,542,465,309]","trial_type":"fractal-mutation","trial_index":55,"time_elapsed":787389,"internal_node_id":"0.0-5.0-1.0"},{"group":"hexagon_tri","fractal_assignment":["../images/blu_wht.png","../images/cyn_red.png","../images/ylw_slt.png","../images/gry_blk.png","../images/org_blu.png","../images/pnk_blu.png"],"mutagen_generator_assignment":[0,1],"goal":5,"start":0,"action_noise":0.15,"location_history":"[0,1,5]","action_history":"[1,1]","mutagen_history":"[1,1]","location_rts":"[753,387]","trial_type":"fractal-mutation","trial_index":56,"time_elapsed":794477,"internal_node_id":"0.0-5.0-2.0"},{"group":"hexagon_tri","fractal_assignment":["../images/blu_wht.png","../images/cyn_red.png","../images/ylw_slt.png","../images/gry_blk.png","../images/org_blu.png","../images/pnk_blu.png"],"mutagen_generator_assignment":[0,1],"goal":1,"start":5,"action_noise":0.15,"location_history":"[5,0,5,0,5,0,1]","action_history":"[1,0,0,0,0,1]","mutagen_history":"[1,0,0,0,0,1]","location_rts":"[1054,310,609,631,269,344]","trial_type":"fractal-mutation","trial_index":57,"time_elapsed":808097,"internal_node_id":"0.0-5.0-3.0"},{"group":"hexagon_tri","fractal_assignment":["../images/blu_wht.png","../images/cyn_red.png","../images/ylw_slt.png","../images/gry_blk.png","../images/org_blu.png","../images/pnk_blu.png"],"mutagen_generator_assignment":[0,1],"goal":3,"start":1,"action_noise":0.15,"location_history":"[1,5,0,5,0,5,0,1,5,4,0,5,4,0,5,4,2,1,3]","action_history":"[0,1,1,1,0,1,1,1,0,0,0,0,0,0,0,1,0,0]","mutagen_history":"[0,1,1,1,0,1,1,1,0,0,0,0,0,0,0,1,0,0]","location_rts":"[845,975,1071,689,339,2723,710,758,145,1149,19,2196,951,2208,414,763,1011,664]","trial_type":"fractal-mutation","trial_index":58,"time_elapsed":850084,"internal_node_id":"0.0-5.0-4.0"},{"group":"hexagon_tri","fractal_assignment":["../images/blu_wht.png","../images/cyn_red.png","../images/ylw_slt.png","../images/gry_blk.png","../images/org_blu.png","../images/pnk_blu.png"],"mutagen_generator_assignment":[0,1],"goal":5,"start":3,"action_noise":0.15,"location_history":"[3,2,1,3,2,1,3,2,1,3,4,0,5]","action_history":"[0,0,0,0,0,0,0,0,1,1,1,1]","mutagen_history":"[0,0,0,0,0,0,0,0,1,1,1,1]","location_rts":"[1048,425,1056,577,118,503,655,1680,1673,756,758,1199]","trial_type":"fractal-mutation","trial_index":59,"time_elapsed":877883,"internal_node_id":"0.0-5.0-5.0"},{"group":"hexagon_tri","fractal_assignment":["../images/blu_wht.png","../images/cyn_red.png","../images/ylw_slt.png","../images/gry_blk.png","../images/org_blu.png","../images/pnk_blu.png"],"mutagen_generator_assignment":[0,1],"goal":4,"start":5,"action_noise":0.15,"location_history":"[5,4]","action_history":"[0]","mutagen_history":"[0]","location_rts":"[2322]","trial_type":"fractal-mutation","trial_index":60,"time_elapsed":884814,"internal_node_id":"0.0-5.0-6.0"},{"group":"hexagon_tri","fractal_assignment":["../images/blu_wht.png","../images/cyn_red.png","../images/ylw_slt.png","../images/gry_blk.png","../images/org_blu.png","../images/pnk_blu.png"],"mutagen_generator_assignment":[0,1],"goal":0,"start":4,"action_noise":0.15,"location_history":"[4,0]","action_history":"[0]","mutagen_history":"[0]","location_rts":"[1398]","trial_type":"fractal-mutation","trial_index":61,"time_elapsed":890865,"internal_node_id":"0.0-5.0-7.0"},{"group":"hexagon_tri","fractal_assignment":["../images/blu_wht.png","../images/cyn_red.png","../images/ylw_slt.png","../images/gry_blk.png","../images/org_blu.png","../images/pnk_blu.png"],"mutagen_generator_assignment":[0,1],"goal":2,"start":0,"action_noise":0.15,"location_history":"[0,1,3,2]","action_history":"[0,0,0]","mutagen_history":"[0,0,0]","location_rts":"[887,1767,686]","trial_type":"fractal-mutation","trial_index":62,"time_elapsed":901085,"internal_node_id":"0.0-5.0-8.0"},{"group":"hexagon_tri","fractal_assignment":["../images/blu_wht.png","../images/cyn_red.png","../images/ylw_slt.png","../images/gry_blk.png","../images/org_blu.png","../images/pnk_blu.png"],"mutagen_generator_assignment":[0,1],"goal":4,"start":2,"action_noise":0.15,"location_history":"[2,1,3,4]","action_history":"[0,0,0]","mutagen_history":"[0,0,0]","location_rts":"[501,484,647]","trial_type":"fractal-mutation","trial_index":63,"time_elapsed":909541,"internal_node_id":"0.0-5.0-9.0"},{"group":"hexagon_tri","fractal_assignment":["../images/blu_wht.png","../images/cyn_red.png","../images/ylw_slt.png","../images/gry_blk.png","../images/org_blu.png","../images/pnk_blu.png"],"mutagen_generator_assignment":[0,1],"goal":2,"start":4,"action_noise":0.15,"location_history":"[4,0,5,4,2]","action_history":"[0,0,0,0]","mutagen_history":"[0,0,0,0]","location_rts":"[533,2134,654,3125]","trial_type":"fractal-mutation","trial_index":64,"time_elapsed":923914,"internal_node_id":"0.0-5.0-10.0"},{"group":"hexagon_tri","fractal_assignment":["../images/blu_wht.png","../images/cyn_red.png","../images/ylw_slt.png","../images/gry_blk.png","../images/org_blu.png","../images/pnk_blu.png"],"mutagen_generator_assignment":[0,1],"goal":3,"start":2,"action_noise":0.15,"location_history":"[2,1,3]","action_history":"[0,0]","mutagen_history":"[0,0]","location_rts":"[1217,2285]","trial_type":"fractal-mutation","trial_index":65,"time_elapsed":933134,"internal_node_id":"0.0-5.0-11.0"},{"group":"hexagon_tri","fractal_assignment":["../images/blu_wht.png","../images/cyn_red.png","../images/ylw_slt.png","../images/gry_blk.png","../images/org_blu.png","../images/pnk_blu.png"],"mutagen_generator_assignment":[0,1],"goal":0,"start":3,"action_noise":0.15,"location_history":"[3,2,1,3,4,0]","action_history":"[0,0,0,0,0]","mutagen_history":"[0,0,0,0,0]","location_rts":"[2517,2848,12144,582,1080]","trial_type":"fractal-mutation","trial_index":66,"time_elapsed":961438,"internal_node_id":"0.0-5.0-12.0"},{"group":"hexagon_tri","fractal_assignment":["../images/blu_wht.png","../images/cyn_red.png","../images/ylw_slt.png","../images/gry_blk.png","../images/org_blu.png","../images/pnk_blu.png"],"mutagen_generator_assignment":[0,1],"goal":5,"start":0,"action_noise":0.15,"location_history":"[0,5]","action_history":"[0]","mutagen_history":"[0]","location_rts":"[3240]","trial_type":"fractal-mutation","trial_index":67,"time_elapsed":969306,"internal_node_id":"0.0-5.0-13.0"},{"group":"hexagon_tri","fractal_assignment":["../images/blu_wht.png","../images/cyn_red.png","../images/ylw_slt.png","../images/gry_blk.png","../images/org_blu.png","../images/pnk_blu.png"],"mutagen_generator_assignment":[0,1],"goal":1,"start":5,"action_noise":0.15,"location_history":"[5,4,0,5,4,0,5,4,0,5,0,5,4,0,5,4,0,1]","action_history":"[0,0,0,0,0,0,0,0,0,0,0,1,0,0,0,0,0]","mutagen_history":"[0,0,0,0,0,0,0,0,0,0,0,1,0,0,0,0,0]","location_rts":"[688,1548,3776,1173,5318,3435,2735,2479,629,2196,1105,4035,1406,2660,780,5212,3203]","trial_type":"fractal-mutation","trial_index":68,"time_elapsed":1034403,"internal_node_id":"0.0-5.0-14.0"},{"group":"hexagon_tri","fractal_assignment":["../images/blu_wht.png","../images/cyn_red.png","../images/ylw_slt.png","../images/gry_blk.png","../images/org_blu.png","../images/pnk_blu.png"],"mutagen_generator_assignment":[0,1],"goal":5,"start":1,"action_noise":0.15,"location_history":"[1,3,2,3,2,1,3,4,0,5]","action_history":"[0,0,1,0,0,0,1,0,0]","mutagen_history":"[0,0,1,0,0,0,1,0,0]","location_rts":"[2269,7455,2057,2036,2141,452,1942,3591,671]","trial_type":"fractal-mutation","trial_index":69,"time_elapsed":1070790,"internal_node_id":"0.0-5.0-15.0"},{"group":"hexagon_tri","fractal_assignment":["../images/blu_wht.png","../images/cyn_red.png","../images/ylw_slt.png","../images/gry_blk.png","../images/org_blu.png","../images/pnk_blu.png"],"mutagen_generator_assignment":[0,1],"goal":3,"start":5,"action_noise":0.15,"location_history":"[5,0,5,0,1,5,0,1,3]","action_history":"[1,1,1,1,1,1,1,0]","mutagen_history":"[1,1,1,1,1,1,1,0]","location_rts":"[1197,3718,3997,815,967,6592,2009,6591]","trial_type":"fractal-mutation","trial_index":70,"time_elapsed":1109833,"internal_node_id":"0.0-5.0-16.0"},{"group":"hexagon_tri","fractal_assignment":["../images/blu_wht.png","../images/cyn_red.png","../images/ylw_slt.png","../images/gry_blk.png","../images/org_blu.png","../images/pnk_blu.png"],"mutagen_generator_assignment":[0,1],"goal":2,"start":3,"action_noise":0.15,"location_history":"[3,2]","action_history":"[0]","mutagen_history":"[0]","location_rts":"[5087]","trial_type":"fractal-mutation","trial_index":71,"time_elapsed":1119532,"internal_node_id":"0.0-5.0-17.0"},{"group":"hexagon_tri","fractal_assignment":["../images/blu_wht.png","../images/cyn_red.png","../images/ylw_slt.png","../images/gry_blk.png","../images/org_blu.png","../images/pnk_blu.png"],"mutagen_generator_assignment":[0,1],"goal":1,"start":2,"action_noise":0.15,"location_history":"[2,1]","action_history":"[0]","mutagen_history":"[0]","location_rts":"[2734]","trial_type":"fractal-mutation","trial_index":72,"time_elapsed":1126866,"internal_node_id":"0.0-5.0-18.0"},{"group":"hexagon_tri","fractal_assignment":["../images/blu_wht.png","../images/cyn_red.png","../images/ylw_slt.png","../images/gry_blk.png","../images/org_blu.png","../images/pnk_blu.png"],"mutagen_generator_assignment":[0,1],"goal":4,"start":1,"action_noise":0.15,"location_history":"[1,3,2,1,5,4]","action_history":"[0,0,0,0,0]","mutagen_history":"[0,0,0,0,0]","location_rts":"[3092,11083,4406,776,1959]","trial_type":"fractal-mutation","trial_index":73,"time_elapsed":1157308,"internal_node_id":"0.0-5.0-19.0"},{"group":"hexagon_tri","fractal_assignment":["../images/blu_wht.png","../images/cyn_red.png","../images/ylw_slt.png","../images/gry_blk.png","../images/org_blu.png","../images/pnk_blu.png"],"mutagen_generator_assignment":[0,1],"goal":0,"start":4,"action_noise":0.15,"location_history":"[4,0]","action_history":"[0]","mutagen_history":"[0]","location_rts":"[1023]","trial_type":"fractal-mutation","trial_index":74,"time_elapsed":1162947,"internal_node_id":"0.0-5.0-20.0"},{"group":"hexagon_tri","fractal_assignment":["../images/blu_wht.png","../images/cyn_red.png","../images/ylw_slt.png","../images/gry_blk.png","../images/org_blu.png","../images/pnk_blu.png"],"mutagen_generator_assignment":[0,1],"goal":3,"start":0,"action_noise":0.15,"location_history":"[0,5,0,5,0,1,3]","action_history":"[0,0,0,0,0,0]","mutagen_history":"[0,0,0,0,0,0]","location_rts":"[3603,5116,69159,311,865,1831]","trial_type":"fractal-mutation","trial_index":75,"time_elapsed":1254087,"internal_node_id":"0.0-5.0-21.0"},{"group":"hexagon_tri","fractal_assignment":["../images/blu_wht.png","../images/cyn_red.png","../images/ylw_slt.png","../images/gry_blk.png","../images/org_blu.png","../images/pnk_blu.png"],"mutagen_generator_assignment":[0,1],"goal":1,"start":3,"action_noise":0.15,"location_history":"[3,2,1]","action_history":"[0,0]","mutagen_history":"[0,0]","location_rts":"[404,729]","trial_type":"fractal-mutation","trial_index":76,"time_elapsed":1260943,"internal_node_id":"0.0-5.0-22.0"},{"group":"hexagon_tri","fractal_assignment":["../images/blu_wht.png","../images/cyn_red.png","../images/ylw_slt.png","../images/gry_blk.png","../images/org_blu.png","../images/pnk_blu.png"],"mutagen_generator_assignment":[0,1],"goal":0,"start":1,"action_noise":0.15,"location_history":"[1,3,4,0]","action_history":"[0,0,0]","mutagen_history":"[0,0,0]","location_rts":"[4232,1695,3015]","trial_type":"fractal-mutation","trial_index":77,"time_elapsed":1276799,"internal_node_id":"0.0-5.0-23.0"},{"group":"hexagon_tri","fractal_assignment":["../images/blu_wht.png","../images/cyn_red.png","../images/ylw_slt.png","../images/gry_blk.png","../images/org_blu.png","../images/pnk_blu.png"],"mutagen_generator_assignment":[0,1],"goal":2,"start":0,"action_noise":0.15,"location_history":"[0,1,3,2]","action_history":"[0,0,0]","mutagen_history":"[0,0,0]","location_rts":"[955,3678,6434]","trial_type":"fractal-mutation","trial_index":78,"time_elapsed":1294733,"internal_node_id":"0.0-5.0-24.0"},{"group":"hexagon_tri","fractal_assignment":["../images/blu_wht.png","../images/cyn_red.png","../images/ylw_slt.png","../images/gry_blk.png","../images/org_blu.png","../images/pnk_blu.png"],"mutagen_generator_assignment":[0,1],"goal":4,"start":2,"action_noise":0.15,"location_history":"[2,1,3,2,1,3,2,1,5,4]","action_history":"[0,0,0,0,0,0,0,1,0]","mutagen_history":"[0,0,0,0,0,0,0,1,0]","location_rts":"[2237,440,2220,64658,306,335,423,373,830]","trial_type":"fractal-mutation","trial_index":79,"time_elapsed":1380190,"internal_node_id":"0.0-5.0-25.0"},{"group":"hexagon_tri","fractal_assignment":["../images/blu_wht.png","../images/cyn_red.png","../images/ylw_slt.png","../images/gry_blk.png","../images/org_blu.png","../images/pnk_blu.png"],"mutagen_generator_assignment":[0,1],"goal":5,"start":4,"action_noise":0.15,"location_history":"[4,0,1,3,2,3,2,3,2,3,2,1,3,4,0,5]","action_history":"[0,1,0,1,0,0,1,1,0,0,0,0,0,0,0]","mutagen_history":"[0,1,0,1,0,0,1,1,0,0,0,0,0,0,0]","location_rts":"[382,282,284,636,327,186,363,401,327,388,332,338,1018,2315,7362]","trial_type":"fractal-mutation","trial_index":80,"time_elapsed":1415800,"internal_node_id":"0.0-5.0-26.0"},{"group":"hexagon_tri","fractal_assignment":["../images/blu_wht.png","../images/cyn_red.png","../images/ylw_slt.png","../images/gry_blk.png","../images/org_blu.png","../images/pnk_blu.png"],"mutagen_generator_assignment":[0,1],"goal":2,"start":5,"action_noise":0.15,"location_history":"[5,4,2]","action_history":"[0,1]","mutagen_history":"[0,1]","location_rts":"[4270,1167]","trial_type":"fractal-mutation","trial_index":81,"time_elapsed":1427065,"internal_node_id":"0.0-5.0-27.0"},{"group":"hexagon_tri","fractal_assignment":["../images/blu_wht.png","../images/cyn_red.png","../images/ylw_slt.png","../images/gry_blk.png","../images/org_blu.png","../images/pnk_blu.png"],"mutagen_generator_assignment":[0,1],"goal":3,"start":2,"action_noise":0.15,"location_history":"[2,1,3]","action_history":"[0,0]","mutagen_history":"[0,0]","location_rts":"[601,329]","trial_type":"fractal-mutation","trial_index":82,"time_elapsed":1433769,"internal_node_id":"0.0-5.0-28.0"},{"group":"hexagon_tri","fractal_assignment":["../images/blu_wht.png","../images/cyn_red.png","../images/ylw_slt.png","../images/gry_blk.png","../images/org_blu.png","../images/pnk_blu.png"],"mutagen_generator_assignment":[0,1],"goal":1,"start":3,"action_noise":0.15,"location_history":"[3,4,0,5,0,5,0,1]","action_history":"[0,0,0,0,0,1,1]","mutagen_history":"[0,0,0,0,0,1,1]","location_rts":"[862,387,421,373,533,411,356]","trial_type":"fractal-mutation","trial_index":83,"time_elapsed":1448705,"internal_node_id":"0.0-5.0-29.0"},{"group":"hexagon_tri","fractal_assignment":["../images/blu_wht.png","../images/cyn_red.png","../images/ylw_slt.png","../images/gry_blk.png","../images/org_blu.png","../images/pnk_blu.png"],"mutagen_generator_assignment":[0,1],"goal":4,"start":1,"action_noise":0.15,"location_history":"[1,3,2,1,3,4]","action_history":"[0,0,0,0,0]","mutagen_history":"[0,0,0,0,0]","location_rts":"[916,689,404,420,349]","trial_type":"fractal-mutation","trial_index":84,"time_elapsed":1460589,"internal_node_id":"0.0-5.0-30.0"},{"group":"hexagon_tri","fractal_assignment":["../images/blu_wht.png","../images/cyn_red.png","../images/ylw_slt.png","../images/gry_blk.png","../images/org_blu.png","../images/pnk_blu.png"],"mutagen_generator_assignment":[0,1],"goal":5,"start":4,"action_noise":0.15,"location_history":"[4,2,1,5]","action_history":"[0,0,1]","mutagen_history":"[0,0,1]","location_rts":"[2106,2236,1049]","trial_type":"fractal-mutation","trial_index":85,"time_elapsed":1472903,"internal_node_id":"0.0-5.0-31.0"},{"group":"hexagon_tri","fractal_assignment":["../images/blu_wht.png","../images/cyn_red.png","../images/ylw_slt.png","../images/gry_blk.png","../images/org_blu.png","../images/pnk_blu.png"],"mutagen_generator_assignment":[0,1],"goal":0,"start":5,"action_noise":0.15,"location_history":"[5,4,0]","action_history":"[0,0]","mutagen_history":"[0,0]","location_rts":"[1136,317]","trial_type":"fractal-mutation","trial_index":86,"time_elapsed":1480113,"internal_node_id":"0.0-5.0-32.0"},{"group":"hexagon_tri","fractal_assignment":["../images/blu_wht.png","../images/cyn_red.png","../images/ylw_slt.png","../images/gry_blk.png","../images/org_blu.png","../images/pnk_blu.png"],"mutagen_generator_assignment":[0,1],"goal":2,"start":0,"action_noise":0.15,"location_history":"[0,5,4,0,1,3,4,0,5,4,2]","action_history":"[0,0,0,0,0,1,0,0,0,1]","mutagen_history":"[0,0,0,0,0,1,0,0,0,1]","location_rts":"[3049,695,1040,462,1457,420,574,1531,1524,610]","trial_type":"fractal-mutation","trial_index":87,"time_elapsed":1506306,"internal_node_id":"0.0-5.0-33.0"},{"group":"hexagon_tri","fractal_assignment":["../images/blu_wht.png","../images/cyn_red.png","../images/ylw_slt.png","../images/gry_blk.png","../images/org_blu.png","../images/pnk_blu.png"],"mutagen_generator_assignment":[0,1],"goal":0,"start":2,"action_noise":0.15,"location_history":"[2,1,3,2,3,4,0]","action_history":"[0,0,0,0,1,0]","mutagen_history":"[0,0,0,0,1,0]","location_rts":"[514,1116,949,1089,718,1242]","trial_type":"fractal-mutation","trial_index":88,"time_elapsed":1522269,"internal_node_id":"0.0-5.0-34.0"},{"group":"hexagon_tri","fractal_assignment":["../images/blu_wht.png","../images/cyn_red.png","../images/ylw_slt.png","../images/gry_blk.png","../images/org_blu.png","../images/pnk_blu.png"],"mutagen_generator_assignment":[0,1],"goal":5,"start":0,"action_noise":0.15,"location_history":"[0,5]","action_history":"[0]","mutagen_history":"[0]","location_rts":"[589]","trial_type":"fractal-mutation","trial_index":89,"time_elapsed":1527461,"internal_node_id":"0.0-5.0-35.0"},{"group":"hexagon_tri","fractal_assignment":["../images/blu_wht.png","../images/cyn_red.png","../images/ylw_slt.png","../images/gry_blk.png","../images/org_blu.png","../images/pnk_blu.png"],"mutagen_generator_assignment":[0,1],"goal":1,"start":5,"action_noise":0.15,"location_history":"[5,4,2,1]","action_history":"[0,0,0]","mutagen_history":"[0,0,0]","location_rts":"[554,463,272]","trial_type":"fractal-mutation","trial_index":90,"time_elapsed":1535643,"internal_node_id":"0.0-5.0-36.0"},{"group":"hexagon_tri","fractal_assignment":["../images/blu_wht.png","../images/cyn_red.png","../images/ylw_slt.png","../images/gry_blk.png","../images/org_blu.png","../images/pnk_blu.png"],"mutagen_generator_assignment":[0,1],"goal":4,"start":1,"action_noise":0.15,"location_history":"[1,5,0,5,4]","action_history":"[1,1,0,0]","mutagen_history":"[1,1,0,0]","location_rts":"[779,335,431,317]","trial_type":"fractal-mutation","trial_index":91,"time_elapsed":1545646,"internal_node_id":"0.0-5.0-37.0"},{"group":"hexagon_tri","fractal_assignment":["../images/blu_wht.png","../images/cyn_red.png","../images/ylw_slt.png","../images/gry_blk.png","../images/org_blu.png","../images/pnk_blu.png"],"mutagen_generator_assignment":[0,1],"goal":3,"start":4,"action_noise":0.15,"location_history":"[4,0,5,4,0,1,5,0,5,4,0,1,3]","action_history":"[0,0,0,0,1,1,1,0,0,0,1,0]","mutagen_history":"[0,0,0,0,1,1,1,0,0,0,1,0]","location_rts":"[520,648,448,534,405,331,315,654,361,455,437,2615]","trial_type":"fractal-mutation","trial_index":92,"time_elapsed":1570645,"internal_node_id":"0.0-5.0-38.0"},{"group":"hexagon_tri","fractal_assignment":["../images/blu_wht.png","../images/cyn_red.png","../images/ylw_slt.png","../images/gry_blk.png","../images/org_blu.png","../images/pnk_blu.png"],"mutagen_generator_assignment":[0,1],"goal":5,"start":3,"action_noise":0.15,"location_history":"[3,2,1,3,2,1,5]","action_history":"[0,0,0,0,0,1]","mutagen_history":"[0,0,0,0,0,1]","location_rts":"[638,795,569,435,471,660]","trial_type":"fractal-mutation","trial_index":93,"time_elapsed":1584496,"internal_node_id":"0.0-5.0-39.0"},{"group":"hexagon_tri","fractal_assignment":["../images/blu_wht.png","../images/cyn_red.png","../images/ylw_slt.png","../images/gry_blk.png","../images/org_blu.png","../images/pnk_blu.png"],"mutagen_generator_assignment":[0,1],"goal":1,"start":5,"action_noise":0.15,"location_history":"[5,4,0,5,4,2,3,2,3,2,1]","action_history":"[0,0,0,0,1,1,0,0,0,0]","mutagen_history":"[0,0,0,0,1,1,0,0,0,0]","location_rts":"[1055,696,603,1770,703,540,381,519,371,561]","trial_type":"fractal-mutation","trial_index":94,"time_elapsed":1606559,"internal_node_id":"0.0-5.0-40.0"},{"group":"hexagon_tri","fractal_assignment":["../images/blu_wht.png","../images/cyn_red.png","../images/ylw_slt.png","../images/gry_blk.png","../images/org_blu.png","../images/pnk_blu.png"],"mutagen_generator_assignment":[0,1],"goal":2,"start":1,"action_noise":0.15,"location_history":"[1,3,2]","action_history":"[0,0]","mutagen_history":"[0,0]","location_rts":"[1416,470]","trial_type":"fractal-mutation","trial_index":95,"time_elapsed":1614181,"internal_node_id":"0.0-5.0-41.0"},{"group":"hexagon_tri","fractal_assignment":["../images/blu_wht.png","../images/cyn_red.png","../images/ylw_slt.png","../images/gry_blk.png","../images/org_blu.png","../images/pnk_blu.png"],"mutagen_generator_assignment":[0,1],"goal":4,"start":2,"action_noise":0.15,"location_history":"[2,1,5,4]","action_history":"[0,0,0]","mutagen_history":"[0,0,0]","location_rts":"[373,661,329]","trial_type":"fractal-mutation","trial_index":96,"time_elapsed":1622372,"internal_node_id":"0.0-5.0-42.0"},{"group":"hexagon_tri","fractal_assignment":["../images/blu_wht.png","../images/cyn_red.png","../images/ylw_slt.png","../images/gry_blk.png","../images/org_blu.png","../images/pnk_blu.png"],"mutagen_generator_assignment":[0,1],"goal":0,"start":4,"action_noise":0.15,"location_history":"[4,0]","action_history":"[0]","mutagen_history":"[0]","location_rts":"[975]","trial_type":"fractal-mutation","trial_index":97,"time_elapsed":1627972,"internal_node_id":"0.0-5.0-43.0"},{"group":"hexagon_tri","fractal_assignment":["../images/blu_wht.png","../images/cyn_red.png","../images/ylw_slt.png","../images/gry_blk.png","../images/org_blu.png","../images/pnk_blu.png"],"mutagen_generator_assignment":[0,1],"goal":3,"start":0,"action_noise":0.15,"location_history":"[0,1,3]","action_history":"[0,0]","mutagen_history":"[0,0]","location_rts":"[809,1616]","trial_type":"fractal-mutation","trial_index":98,"time_elapsed":1636110,"internal_node_id":"0.0-5.0-44.0"},{"group":"hexagon_tri","fractal_assignment":["../images/blu_wht.png","../images/cyn_red.png","../images/ylw_slt.png","../images/gry_blk.png","../images/org_blu.png","../images/pnk_blu.png"],"mutagen_generator_assignment":[0,1],"goal":0,"start":3,"action_noise":0.15,"location_history":"[3,4,0]","action_history":"[0,0]","mutagen_history":"[0,0]","location_rts":"[846,23528]","trial_type":"fractal-mutation","trial_index":99,"time_elapsed":1666231,"internal_node_id":"0.0-5.0-45.0"},{"group":"hexagon_tri","fractal_assignment":["../images/blu_wht.png","../images/cyn_red.png","../images/ylw_slt.png","../images/gry_blk.png","../images/org_blu.png","../images/pnk_blu.png"],"mutagen_generator_assignment":[0,1],"goal":4,"start":0,"action_noise":0.15,"location_history":"[0,5,4]","action_history":"[0,0]","mutagen_history":"[0,0]","location_rts":"[1874,1264]","trial_type":"fractal-mutation","trial_index":100,"time_elapsed":1675107,"internal_node_id":"0.0-5.0-46.0"},{"group":"hexagon_tri","fractal_assignment":["../images/blu_wht.png","../images/cyn_red.png","../images/ylw_slt.png","../images/gry_blk.png","../images/org_blu.png","../images/pnk_blu.png"],"mutagen_generator_assignment":[0,1],"goal":5,"start":4,"action_noise":0.15,"location_history":"[4,2,3,4,0,5]","action_history":"[1,1,1,0,0]","mutagen_history":"[1,1,1,0,0]","location_rts":"[24698,631,683,808,477]","trial_type":"fractal-mutation","trial_index":101,"time_elapsed":1711784,"internal_node_id":"0.0-5.0-47.0"},{"group":"hexagon_tri","fractal_assignment":["../images/blu_wht.png","../images/cyn_red.png","../images/ylw_slt.png","../images/gry_blk.png","../images/org_blu.png","../images/pnk_blu.png"],"mutagen_generator_assignment":[0,1],"goal":2,"start":5,"action_noise":0.15,"location_history":"[5,0,5,0,5,4,0,1,5,4,0,5,0,5,4,0,5,4,2]","action_history":"[0,0,0,0,0,0,0,1,0,0,0,1,0,0,0,0,0,1]","mutagen_history":"[0,0,0,0,0,0,0,1,0,0,0,1,0,0,0,0,0,1]","location_rts":"[1347,934,332,330,375,489,400,479,1977,978,1669,654,659,2301,654,1698,1744,549]","trial_type":"fractal-mutation","trial_index":102,"time_elapsed":1753296,"internal_node_id":"0.0-5.0-48.0"},{"group":"hexagon_tri","fractal_assignment":["../images/blu_wht.png","../images/cyn_red.png","../images/ylw_slt.png","../images/gry_blk.png","../images/org_blu.png","../images/pnk_blu.png"],"mutagen_generator_assignment":[0,1],"goal":1,"start":2,"action_noise":0.15,"location_history":"[2,1]","action_history":"[0]","mutagen_history":"[0]","location_rts":"[730]","trial_type":"fractal-mutation","trial_index":103,"time_elapsed":1758648,"internal_node_id":"0.0-5.0-49.0"},{"view_history":"[{\"page_index\":0,\"viewing_time\":3720}]","rt":3721,"trial_type":"instructions","trial_index":104,"time_elapsed":1763370,"internal_node_id":"0.0-6.0"},{"rt":19852,"responses":"{\"Q0\":\"If we recognized patterns? And how the changing of a pattern would affect how we kept working\"}","trial_type":"survey-text","trial_index":105,"time_elapsed":1784230,"internal_node_id":"0.0-7.0-0.0"},{"rt":10378,"responses":"{\"Q0\":\"The same, how we pick up on patterns.\"}","trial_type":"survey-text","trial_index":106,"time_elapsed":1795613,"internal_node_id":"0.0-7.0-1.0"},{"rt":32467,"responses":"{\"Q0\":\"<img src='../images/diagrams/hexagon_tri.png'>\"}","trial_type":"survey-multi-choice","trial_index":107,"time_elapsed":1829093,"internal_node_id":"0.0-7.0-2.0"},{"rt":50060,"assignments":["../images/blu_wht.png","../images/org_blu.png","../images/ylw_slt.png","../images/gry_blk.png","../images/cyn_red.png","../images/pnk_blu.png"],"trial_type":"drag-drop-on-image","trial_index":108,"time_elapsed":1880158,"internal_node_id":"0.0-7.0-3.0"},{"rt":4103,"responses":"{\"Q0\":\"3\"}","trial_type":"survey-likert","trial_index":109,"time_elapsed":1885269,"internal_node_id":"0.0-7.0-4.0"},{"rt":14089,"responses":"{\"Q0\":\"When you made a certain choice, it always went to the same result\"}","trial_type":"survey-text","trial_index":110,"time_elapsed":1900362,"internal_node_id":"0.0-7.0-5.0"},{"rt":5272,"responses":"{\"Q0\":\"Yes\"}","trial_type":"survey-multi-choice","trial_index":111,"time_elapsed":1906640,"internal_node_id":"0.0-7.0-6.0"},{"rt":9515,"responses":"{\"Q0\":\"During session 2\"}","trial_type":"survey-multi-choice","trial_index":112,"time_elapsed":1917166,"internal_node_id":"0.0-7.0-7.0"},{"rt":21298,"responses":"{\"Q0\":\"I think the correspondence is just that when you make one choice, there is a certain response that happens\"}","trial_type":"survey-text","trial_index":113,"time_elapsed":1939468,"internal_node_id":"0.0-7.0-8.0"},{"rt":4276,"responses":"{\"Q0\":\"2\"}","trial_type":"survey-likert","trial_index":114,"time_elapsed":1944749,"internal_node_id":"0.0-7.0-9.0"},{"rt":6712,"responses":"{\"Q0\":\"Different structure\"}","trial_type":"survey-multi-choice","trial_index":115,"time_elapsed":1952468,"internal_node_id":"0.0-7.0-10.0"},{"rt":43917,"responses":"{\"Q0\":\"left (white) door = ray, right (black) door = acid\",\"Q1\":\"Slightly confident\"}","trial_type":"survey-multi-choice","trial_index":116,"time_elapsed":1997407,"internal_node_id":"0.0-7.0-11.0"},{"rt":7241,"responses":"{\"Q0\":\"25-35\",\"Q1\":\"Associates or other two-year degree\",\"Q2\":\"Female\",\"Q3\":\"White\"}","trial_type":"survey-multi-choice","trial_index":117,"time_elapsed":2005694,"internal_node_id":"0.0-8.0"},{"rt":3774,"responses":"{\"Q0\":\"\"}","trial_type":"survey-text","trial_index":118,"time_elapsed":2010473,"internal_node_id":"0.0-9.0"}]