[{"view_history":"[{\"page_index\":0,\"viewing_time\":5318},{\"page_index\":1,\"viewing_time\":6253}]","rt":11572,"trial_type":"instructions","trial_index":0,"time_elapsed":11572,"internal_node_id":"0.0-0.0"},{"view_history":"[{\"page_index\":0,\"viewing_time\":2827},{\"page_index\":1,\"viewing_time\":2207}]","rt":5034,"trial_type":"instructions","trial_index":1,"time_elapsed":17607,"internal_node_id":"0.0-1.0"},{"group":"hexagon_bi","room_assignment":["green","grey","purple","yellow","blue","red"],"door_color_assignment":["black","white"],"door_generator_assignment":[0,1],"goal":2,"start":1,"action_noise":0.15,"location_history":"[1,2]","action_history":"[1]","door_history":"[1]","location_rts":"[3694]","trial_type":"two-door-navigation","trial_index":2,"time_elapsed":25979,"internal_node_id":"0.0-2.0-0.0"},{"group":"hexagon_bi","room_assignment":["green","grey","purple","yellow","blue","red"],"door_color_assignment":["black","white"],"door_generator_assignment":[0,1],"goal":0,"start":2,"action_noise":0.15,"location_history":"[2,1,0]","action_history":"[0,1]","door_history":"[0,1]","location_rts":"[3002,1164]","trial_type":"two-door-navigation","trial_index":3,"time_elapsed":35677,"internal_node_id":"0.0-2.0-1.0"},{"group":"hexagon_bi","room_assignment":["green","grey","purple","yellow","blue","red"],"door_color_assignment":["black","white"],"door_generator_assignment":[0,1],"goal":5,"start":0,"action_noise":0.15,"location_history":"[0,1,2,1,0,5]","action_history":"[1,1,0,1,0]","door_history":"[1,1,0,1,0]","location_rts":"[3695,697,1953,597,1855]","trial_type":"two-door-navigation","trial_index":4,"time_elapsed":53195,"internal_node_id":"0.0-2.0-2.0"},{"group":"hexagon_bi","room_assignment":["green","grey","purple","yellow","blue","red"],"door_color_assignment":["black","white"],"door_generator_assignment":[0,1],"goal":1,"start":5,"action_noise":0.15,"location_history":"[5,0,5,0,1]","action_history":"[0,0,0,1]","door_history":"[0,0,0,1]","location_rts":"[2245,838,540,917]","trial_type":"two-door-navigation","trial_index":5,"time_elapsed":65330,"internal_node_id":"0.0-2.0-3.0"},{"group":"hexagon_bi","room_assignment":["green","grey","purple","yellow","blue","red"],"door_color_assignment":["black","white"],"door_generator_assignment":[0,1],"goal":3,"start":1,"action_noise":0.15,"location_history":"[1,0,1,2,1,0,1,2,1,0,5,0,5,0,5,4,3]","action_history":"[1,1,0,0,1,1,0,0,1,1,0,0,0,0,1,0]","door_history":"[1,1,0,0,1,1,0,0,1,1,0,0,0,0,1,0]","location_rts":"[3294,596,644,719,984,690,1166,4497,891,2408,875,678,2084,535,763,928]","trial_type":"two-door-navigation","trial_index":6,"time_elapsed":107184,"internal_node_id":"0.0-2.0-4.0"},{"group":"hexagon_bi","room_assignment":["green","grey","purple","yellow","blue","red"],"door_color_assignment":["black","white"],"door_generator_assignment":[0,1],"goal":5,"start":3,"action_noise":0.15,"location_history":"[3,2,3,2,3,4,3,4,5]","action_history":"[1,1,0,0,1,0,0,1]","door_history":"[1,1,0,0,1,0,0,1]","location_rts":"[2310,961,766,697,459,857,1020,434]","trial_type":"two-door-navigation","trial_index":7,"time_elapsed":126343,"internal_node_id":"0.0-2.0-5.0"},{"group":"hexagon_bi","room_assignment":["green","grey","purple","yellow","blue","red"],"door_color_assignment":["black","white"],"door_generator_assignment":[0,1],"goal":4,"start":5,"action_noise":0.15,"location_history":"[5,0,5,4]","action_history":"[0,0,1]","door_history":"[0,0,1]","location_rts":"[3696,792,424]","trial_type":"two-door-navigation","trial_index":8,"time_elapsed":137811,"internal_node_id":"0.0-2.0-6.0"},{"group":"hexagon_bi","room_assignment":["green","grey","purple","yellow","blue","red"],"door_color_assignment":["black","white"],"door_generator_assignment":[0,1],"goal":0,"start":4,"action_noise":0.15,"location_history":"[4,5,0]","action_history":"[1,0]","door_history":"[1,0]","location_rts":"[4663,1368]","trial_type":"two-door-navigation","trial_index":9,"time_elapsed":149464,"internal_node_id":"0.0-2.0-7.0"},{"group":"hexagon_bi","room_assignment":["green","grey","purple","yellow","blue","red"],"door_color_assignment":["black","white"],"door_generator_assignment":[0,1],"goal":2,"start":0,"action_noise":0.15,"location_history":"[0,5,0,1,2]","action_history":"[0,0,1,0]","door_history":"[0,0,1,0]","location_rts":"[4203,3209,1170,935]","trial_type":"two-door-navigation","trial_index":10,"time_elapsed":166551,"internal_node_id":"0.0-2.0-8.0"},{"group":"hexagon_bi","room_assignment":["green","grey","purple","yellow","blue","red"],"door_color_assignment":["black","white"],"door_generator_assignment":[0,1],"goal":4,"start":2,"action_noise":0.15,"location_history":"[2,1,2,3,2,1,0,5,4]","action_history":"[0,0,1,1,1,1,0,1]","door_history":"[0,0,1,1,1,1,0,1]","location_rts":"[3491,967,682,950,785,798,841,761]","trial_type":"two-door-navigation","trial_index":11,"time_elapsed":187560,"internal_node_id":"0.0-2.0-9.0"},{"group":"hexagon_bi","room_assignment":["green","grey","purple","yellow","blue","red"],"door_color_assignment":["black","white"],"door_generator_assignment":[0,1],"goal":2,"start":4,"action_noise":0.15,"location_history":"[4,5,0,5,0,1,0,1,0,1,2]","action_history":"[1,0,0,0,1,1,1,1,1,0]","door_history":"[1,0,0,0,1,1,1,1,1,0]","location_rts":"[4872,1123,1064,496,466,1178,3587,4487,12846,9603]","trial_type":"two-door-navigation","trial_index":12,"time_elapsed":241095,"internal_node_id":"0.0-2.0-10.0"},{"group":"hexagon_bi","room_assignment":["green","grey","purple","yellow","blue","red"],"door_color_assignment":["black","white"],"door_generator_assignment":[0,1],"goal":3,"start":2,"action_noise":0.15,"location_history":"[2,1,2,3]","action_history":"[0,1,1]","door_history":"[0,1,1]","location_rts":"[1190,746,2142]","trial_type":"two-door-navigation","trial_index":13,"time_elapsed":251737,"internal_node_id":"0.0-2.0-11.0"},{"group":"hexagon_bi","room_assignment":["green","grey","purple","yellow","blue","red"],"door_color_assignment":["black","white"],"door_generator_assignment":[0,1],"goal":0,"start":3,"action_noise":0.15,"location_history":"[3,4,3,2,1,2,1,2,3,4,3,2,1,0]","action_history":"[0,1,1,0,0,0,0,1,0,0,1,0,1]","door_history":"[0,1,1,0,0,0,0,1,0,0,1,0,1]","location_rts":"[1445,945,720,1942,929,904,3214,786,1496,830,558,1050,21776]","trial_type":"two-door-navigation","trial_index":14,"time_elapsed":305141,"internal_node_id":"0.0-2.0-12.0"},{"group":"hexagon_bi","room_assignment":["green","grey","purple","yellow","blue","red"],"door_color_assignment":["black","white"],"door_generator_assignment":[0,1],"goal":5,"start":0,"action_noise":0.15,"location_history":"[0,5]","action_history":"[0]","door_history":"[0]","location_rts":"[4985]","trial_type":"two-door-navigation","trial_index":15,"time_elapsed":314650,"internal_node_id":"0.0-2.0-13.0"},{"group":"hexagon_bi","room_assignment":["green","grey","purple","yellow","blue","red"],"door_color_assignment":["black","white"],"door_generator_assignment":[0,1],"goal":1,"start":5,"action_noise":0.15,"location_history":"[5,0,1]","action_history":"[0,1]","door_history":"[0,1]","location_rts":"[4696,1758]","trial_type":"two-door-navigation","trial_index":16,"time_elapsed":326650,"internal_node_id":"0.0-2.0-14.0"},{"group":"hexagon_bi","room_assignment":["green","grey","purple","yellow","blue","red"],"door_color_assignment":["black","white"],"door_generator_assignment":[0,1],"goal":5,"start":1,"action_noise":0.15,"location_history":"[1,0,1,0,5]","action_history":"[1,1,1,0]","door_history":"[1,1,1,0]","location_rts":"[1683,667,4516,12343]","trial_type":"two-door-navigation","trial_index":17,"time_elapsed":353507,"internal_node_id":"0.0-2.0-15.0"},{"group":"hexagon_bi","room_assignment":["green","grey","purple","yellow","blue","red"],"door_color_assignment":["black","white"],"door_generator_assignment":[0,1],"goal":3,"start":5,"action_noise":0.15,"location_history":"[5,4,5,0,1,2,1,2,3]","action_history":"[1,1,0,1,0,0,0,1]","door_history":"[1,1,0,1,0,0,0,1]","location_rts":"[6463,696,432,1112,223,462,495,391]","trial_type":"two-door-navigation","trial_index":18,"time_elapsed":375517,"internal_node_id":"0.0-2.0-16.0"},{"group":"hexagon_bi","room_assignment":["green","grey","purple","yellow","blue","red"],"door_color_assignment":["black","white"],"door_generator_assignment":[0,1],"goal":2,"start":3,"action_noise":0.15,"location_history":"[3,2]","action_history":"[1]","door_history":"[1]","location_rts":"[2267]","trial_type":"two-door-navigation","trial_index":19,"time_elapsed":382304,"internal_node_id":"0.0-2.0-17.0"},{"group":"hexagon_bi","room_assignment":["green","grey","purple","yellow","blue","red"],"door_color_assignment":["black","white"],"door_generator_assignment":[0,1],"goal":1,"start":2,"action_noise":0.15,"location_history":"[2,3,4,3,2,1]","action_history":"[0,0,0,1,0]","door_history":"[0,0,0,1,0]","location_rts":"[13865,898,631,414,645]","trial_type":"two-door-navigation","trial_index":20,"time_elapsed":407429,"internal_node_id":"0.0-2.0-18.0"},{"group":"hexagon_bi","room_assignment":["green","grey","purple","yellow","blue","red"],"door_color_assignment":["black","white"],"door_generator_assignment":[0,1],"goal":4,"start":1,"action_noise":0.15,"location_history":"[1,2,3,2,3,2,1,0,1,0,5,4]","action_history":"[0,1,1,1,0,0,0,1,1,0,1]","door_history":"[0,1,1,1,0,0,0,1,1,0,1]","location_rts":"[990,778,757,694,1186,5529,731,783,557,593,816]","trial_type":"two-door-navigation","trial_index":21,"time_elapsed":435538,"internal_node_id":"0.0-2.0-19.0"},{"group":"hexagon_bi","room_assignment":["green","grey","purple","yellow","blue","red"],"door_color_assignment":["black","white"],"door_generator_assignment":[0,1],"goal":0,"start":4,"action_noise":0.15,"location_history":"[4,3,2,3,4,3,2,1,0]","action_history":"[0,1,1,0,0,1,0,1]","door_history":"[0,1,1,0,0,1,0,1]","location_rts":"[1077,2394,758,776,5399,10166,3918,1815]","trial_type":"two-door-navigation","trial_index":22,"time_elapsed":473498,"internal_node_id":"0.0-2.0-20.0"},{"group":"hexagon_bi","room_assignment":["green","grey","purple","yellow","blue","red"],"door_color_assignment":["black","white"],"door_generator_assignment":[0,1],"goal":3,"start":0,"action_noise":0.15,"location_history":"[0,1,2,1,2,3]","action_history":"[1,0,0,0,1]","door_history":"[1,0,0,0,1]","location_rts":"[4352,971,591,1364,2390]","trial_type":"two-door-navigation","trial_index":23,"time_elapsed":491830,"internal_node_id":"0.0-2.0-21.0"},{"group":"hexagon_bi","room_assignment":["green","grey","purple","yellow","blue","red"],"door_color_assignment":["black","white"],"door_generator_assignment":[0,1],"goal":1,"start":3,"action_noise":0.15,"location_history":"[3,2,1]","action_history":"[1,1]","door_history":"[1,1]","location_rts":"[3811,528]","trial_type":"two-door-navigation","trial_index":24,"time_elapsed":501711,"internal_node_id":"0.0-2.0-22.0"},{"group":"hexagon_bi","room_assignment":["green","grey","purple","yellow","blue","red"],"door_color_assignment":["black","white"],"door_generator_assignment":[0,1],"goal":0,"start":1,"action_noise":0.15,"location_history":"[1,0]","action_history":"[1]","door_history":"[1]","location_rts":"[1278]","trial_type":"two-door-navigation","trial_index":25,"time_elapsed":507514,"internal_node_id":"0.0-2.0-23.0"},{"group":"hexagon_bi","room_assignment":["green","grey","purple","yellow","blue","red"],"door_color_assignment":["black","white"],"door_generator_assignment":[0,1],"goal":2,"start":0,"action_noise":0.15,"location_history":"[0,1,2]","action_history":"[0,0]","door_history":"[0,0]","location_rts":"[4726,1687]","trial_type":"two-door-navigation","trial_index":26,"time_elapsed":519529,"internal_node_id":"0.0-2.0-24.0"},{"group":"hexagon_bi","room_assignment":["green","grey","purple","yellow","blue","red"],"door_color_assignment":["black","white"],"door_generator_assignment":[0,1],"goal":4,"start":2,"action_noise":0.15,"location_history":"[2,1,0,5,4]","action_history":"[0,1,0,1]","door_history":"[0,1,0,1]","location_rts":"[5041,1888,3555,973]","trial_type":"two-door-navigation","trial_index":27,"time_elapsed":538622,"internal_node_id":"0.0-2.0-25.0"},{"group":"hexagon_bi","room_assignment":["green","grey","purple","yellow","blue","red"],"door_color_assignment":["black","white"],"door_generator_assignment":[0,1],"goal":5,"start":4,"action_noise":0.15,"location_history":"[4,3,4,5]","action_history":"[0,0,1]","door_history":"[0,0,1]","location_rts":"[1405,697,1281]","trial_type":"two-door-navigation","trial_index":28,"time_elapsed":548645,"internal_node_id":"0.0-2.0-26.0"},{"group":"hexagon_bi","room_assignment":["green","grey","purple","yellow","blue","red"],"door_color_assignment":["black","white"],"door_generator_assignment":[0,1],"goal":2,"start":5,"action_noise":0.15,"location_history":"[5,4,3,2]","action_history":"[0,0,1]","door_history":"[0,0,1]","location_rts":"[3730,1303,944]","trial_type":"two-door-navigation","trial_index":29,"time_elapsed":561183,"internal_node_id":"0.0-2.0-27.0"},{"group":"hexagon_bi","room_assignment":["green","grey","purple","yellow","blue","red"],"door_color_assignment":["black","white"],"door_generator_assignment":[0,1],"goal":3,"start":2,"action_noise":0.15,"location_history":"[2,1,0,5,4,5,0,1,0,5,4,3]","action_history":"[0,1,0,1,1,0,1,0,0,1,1]","door_history":"[0,1,0,1,1,0,1,0,0,1,1]","location_rts":"[2328,1381,834,846,402,563,693,453,513,322,411]","trial_type":"two-door-navigation","trial_index":30,"time_elapsed":584701,"internal_node_id":"0.0-2.0-28.0"},{"group":"hexagon_bi","room_assignment":["green","grey","purple","yellow","blue","red"],"door_color_assignment":["black","white"],"door_generator_assignment":[0,1],"goal":1,"start":3,"action_noise":0.15,"location_history":"[3,4,5,0,1]","action_history":"[1,1,0,1]","door_history":"[1,1,0,1]","location_rts":"[1459,541,861,656]","trial_type":"two-door-navigation","trial_index":31,"time_elapsed":595795,"internal_node_id":"0.0-2.0-29.0"},{"group":"hexagon_bi","room_assignment":["green","grey","purple","yellow","blue","red"],"door_color_assignment":["black","white"],"door_generator_assignment":[0,1],"goal":4,"start":1,"action_noise":0.15,"location_history":"[1,2,1,2,3,2,3,4]","action_history":"[0,1,0,0,1,1,0]","door_history":"[0,1,0,0,1,1,0]","location_rts":"[1335,1042,804,571,652,542,469]","trial_type":"two-door-navigation","trial_index":32,"time_elapsed":611855,"internal_node_id":"0.0-2.0-30.0"},{"group":"hexagon_bi","room_assignment":["green","grey","purple","yellow","blue","red"],"door_color_assignment":["black","white"],"door_generator_assignment":[0,1],"goal":5,"start":4,"action_noise":0.15,"location_history":"[4,5]","action_history":"[1]","door_history":"[1]","location_rts":"[1578]","trial_type":"two-door-navigation","trial_index":33,"time_elapsed":617956,"internal_node_id":"0.0-2.0-31.0"},{"group":"hexagon_bi","room_assignment":["green","grey","purple","yellow","blue","red"],"door_color_assignment":["black","white"],"door_generator_assignment":[0,1],"goal":0,"start":5,"action_noise":0.15,"location_history":"[5,0]","action_history":"[0]","door_history":"[0]","location_rts":"[2619]","trial_type":"two-door-navigation","trial_index":34,"time_elapsed":625092,"internal_node_id":"0.0-2.0-32.0"},{"group":"hexagon_bi","room_assignment":["green","grey","purple","yellow","blue","red"],"door_color_assignment":["black","white"],"door_generator_assignment":[0,1],"goal":2,"start":0,"action_noise":0.15,"location_history":"[0,1,2]","action_history":"[1,1]","door_history":"[1,1]","location_rts":"[1873,537]","trial_type":"two-door-navigation","trial_index":35,"time_elapsed":633038,"internal_node_id":"0.0-2.0-33.0"},{"group":"hexagon_bi","room_assignment":["green","grey","purple","yellow","blue","red"],"door_color_assignment":["black","white"],"door_generator_assignment":[0,1],"goal":0,"start":2,"action_noise":0.15,"location_history":"[2,3,2,3,2,1,0]","action_history":"[1,1,1,0,0,1]","door_history":"[1,1,1,0,0,1]","location_rts":"[1511,504,711,398,566,2325]","trial_type":"two-door-navigation","trial_index":36,"time_elapsed":648751,"internal_node_id":"0.0-2.0-34.0"},{"group":"hexagon_bi","room_assignment":["green","grey","purple","yellow","blue","red"],"door_color_assignment":["black","white"],"door_generator_assignment":[0,1],"goal":5,"start":0,"action_noise":0.15,"location_history":"[0,1,0,1,0,5]","action_history":"[1,1,1,0,0]","door_history":"[1,1,1,0,0]","location_rts":"[49488,554,394,225,567]","trial_type":"two-door-navigation","trial_index":37,"time_elapsed":708687,"internal_node_id":"0.0-2.0-35.0"},{"group":"hexagon_bi","room_assignment":["green","grey","purple","yellow","blue","red"],"door_color_assignment":["black","white"],"door_generator_assignment":[0,1],"goal":1,"start":5,"action_noise":0.15,"location_history":"[5,0,5,4,5,4,5,0,5,0,5,0,1]","action_history":"[0,1,1,1,1,1,1,0,0,0,0,1]","door_history":"[0,1,1,1,1,1,1,0,0,0,0,1]","location_rts":"[2162,831,738,1070,1159,1276,297,652,1793,806,1612,787]","trial_type":"two-door-navigation","trial_index":38,"time_elapsed":737719,"internal_node_id":"0.0-2.0-36.0"},{"group":"hexagon_bi","room_assignment":["green","grey","purple","yellow","blue","red"],"door_color_assignment":["black","white"],"door_generator_assignment":[0,1],"goal":4,"start":1,"action_noise":0.15,"location_history":"[1,0,1,0,1,2,3,2,1,2,3,4]","action_history":"[1,1,1,1,0,1,0,0,0,1,0]","door_history":"[1,1,1,1,0,1,0,0,0,1,0]","location_rts":"[1545,3996,1470,481,275,2119,1550,1235,4665,479,1056]","trial_type":"two-door-navigation","trial_index":39,"time_elapsed":771420,"internal_node_id":"0.0-2.0-37.0"},{"group":"hexagon_bi","room_assignment":["green","grey","purple","yellow","blue","red"],"door_color_assignment":["black","white"],"door_generator_assignment":[0,1],"goal":3,"start":4,"action_noise":0.15,"location_history":"[4,3]","action_history":"[0]","door_history":"[0]","location_rts":"[2119]","trial_type":"two-door-navigation","trial_index":40,"time_elapsed":778064,"internal_node_id":"0.0-2.0-38.0"},{"group":"hexagon_bi","room_assignment":["green","grey","purple","yellow","blue","red"],"door_color_assignment":["black","white"],"door_generator_assignment":[0,1],"goal":5,"start":3,"action_noise":0.15,"location_history":"[3,4,5]","action_history":"[0,1]","door_history":"[0,1]","location_rts":"[1706,413]","trial_type":"two-door-navigation","trial_index":41,"time_elapsed":785767,"internal_node_id":"0.0-2.0-39.0"},{"group":"hexagon_bi","room_assignment":["green","grey","purple","yellow","blue","red"],"door_color_assignment":["black","white"],"door_generator_assignment":[0,1],"goal":1,"start":5,"action_noise":0.15,"location_history":"[5,4,3,4,3,4,3,2,1]","action_history":"[1,1,0,0,0,1,1,0]","door_history":"[1,1,0,0,0,1,1,0]","location_rts":"[3172,2506,385,629,491,512,400,265]","trial_type":"two-door-navigation","trial_index":42,"time_elapsed":805888,"internal_node_id":"0.0-2.0-40.0"},{"group":"hexagon_bi","room_assignment":["green","grey","purple","yellow","blue","red"],"door_color_assignment":["black","white"],"door_generator_assignment":[0,1],"goal":2,"start":1,"action_noise":0.15,"location_history":"[1,2]","action_history":"[0]","door_history":"[0]","location_rts":"[1970]","trial_type":"two-door-navigation","trial_index":43,"time_elapsed":812377,"internal_node_id":"0.0-2.0-41.0"},{"group":"hexagon_bi","room_assignment":["green","grey","purple","yellow","blue","red"],"door_color_assignment":["black","white"],"door_generator_assignment":[0,1],"goal":4,"start":2,"action_noise":0.15,"location_history":"[2,3,2,1,0,1,0,5,0,5,4]","action_history":"[0,0,0,1,1,1,1,0,0,1]","door_history":"[0,0,0,1,1,1,1,0,0,1]","location_rts":"[2133,2908,1388,1381,1094,1210,1338,1457,809,475]","trial_type":"two-door-navigation","trial_index":44,"time_elapsed":840400,"internal_node_id":"0.0-2.0-42.0"},{"group":"hexagon_bi","room_assignment":["green","grey","purple","yellow","blue","red"],"door_color_assignment":["black","white"],"door_generator_assignment":[0,1],"goal":0,"start":4,"action_noise":0.15,"location_history":"[4,5,4,5,4,5,0]","action_history":"[1,1,1,1,1,0]","door_history":"[1,1,1,1,1,0]","location_rts":"[1823,710,2102,1209,1130,3333]","trial_type":"two-door-navigation","trial_index":45,"time_elapsed":860373,"internal_node_id":"0.0-2.0-43.0"},{"group":"hexagon_bi","room_assignment":["green","grey","purple","yellow","blue","red"],"door_color_assignment":["black","white"],"door_generator_assignment":[0,1],"goal":3,"start":0,"action_noise":0.15,"location_history":"[0,5,4,3]","action_history":"[0,1,1]","door_history":"[0,1,1]","location_rts":"[1725,1805,953]","trial_type":"two-door-navigation","trial_index":46,"time_elapsed":871513,"internal_node_id":"0.0-2.0-44.0"},{"group":"hexagon_bi","room_assignment":["green","grey","purple","yellow","blue","red"],"door_color_assignment":["black","white"],"door_generator_assignment":[0,1],"goal":0,"start":3,"action_noise":0.15,"location_history":"[3,4,3,2,3,4,5,4,5,4,5,4,5,0]","action_history":"[0,0,1,1,1,1,1,1,1,1,1,1,1]","door_history":"[0,0,1,1,1,1,1,1,1,1,1,1,1]","location_rts":"[24135,7054,5416,690,1040,1003,917,1222,1317,738,1698,1132,908]","trial_type":"two-door-navigation","trial_index":47,"time_elapsed":935623,"internal_node_id":"0.0-2.0-45.0"},{"group":"hexagon_bi","room_assignment":["green","grey","purple","yellow","blue","red"],"door_color_assignment":["black","white"],"door_generator_assignment":[0,1],"goal":4,"start":0,"action_noise":0.15,"location_history":"[0,1,0,1,2,1,2,1,2,3,4]","action_history":"[1,1,1,1,0,0,0,0,1,0]","door_history":"[1,1,1,1,0,0,0,0,1,0]","location_rts":"[2322,1436,492,1701,1127,962,1383,1915,906,1083]","trial_type":"two-door-navigation","trial_index":48,"time_elapsed":962629,"internal_node_id":"0.0-2.0-46.0"},{"group":"hexagon_bi","room_assignment":["green","grey","purple","yellow","blue","red"],"door_color_assignment":["black","white"],"door_generator_assignment":[0,1],"goal":5,"start":4,"action_noise":0.15,"location_history":"[4,5]","action_history":"[1]","door_history":"[1]","location_rts":"[1232]","trial_type":"two-door-navigation","trial_index":49,"time_elapsed":968382,"internal_node_id":"0.0-2.0-47.0"},{"group":"hexagon_bi","room_assignment":["green","grey","purple","yellow","blue","red"],"door_color_assignment":["black","white"],"door_generator_assignment":[0,1],"goal":2,"start":5,"action_noise":0.15,"location_history":"[5,4,5,0,1,2]","action_history":"[1,1,0,1,0]","door_history":"[1,1,0,1,0]","location_rts":"[2676,599,517,864,437]","trial_type":"two-door-navigation","trial_index":50,"time_elapsed":982123,"internal_node_id":"0.0-2.0-48.0"},{"group":"hexagon_bi","room_assignment":["green","grey","purple","yellow","blue","red"],"door_color_assignment":["black","white"],"door_generator_assignment":[0,1],"goal":1,"start":2,"action_noise":0.15,"location_history":"[2,1]","action_history":"[0]","door_history":"[0]","location_rts":"[2346]","trial_type":"two-door-navigation","trial_index":51,"time_elapsed":988991,"internal_node_id":"0.0-2.0-49.0"},{"view_history":"[{\"page_index\":0,\"viewing_time\":39587}]","rt":39587,"trial_type":"instructions","trial_index":52,"time_elapsed":1029580,"internal_node_id":"0.0-3.0"},{"view_history":"[{\"page_index\":0,\"viewing_time\":6654},{\"page_index\":1,\"viewing_time\":4154}]","rt":10808,"trial_type":"instructions","trial_index":53,"time_elapsed":1041399,"internal_node_id":"0.0-4.0"},{"group":"hexagon_tri","fractal_assignment":["../images/blu_wht.png","../images/ylw_slt.png","../images/pnk_blu.png","../images/org_blu.png","../images/cyn_red.png","../images/gry_blk.png"],"mutagen_generator_assignment":[1,0],"goal":2,"start":1,"action_noise":0.15,"location_history":"[1,5,4,0,5,4,0,5,0,5,4,2]","action_history":"[0,0,0,0,0,0,0,0,0,0,1]","mutagen_history":"[1,1,1,1,1,1,1,1,1,1,0]","location_rts":"[7014,595,2366,552,911,2849,1265,473,4109,398,414]","trial_type":"fractal-mutation","trial_index":54,"time_elapsed":1077555,"internal_node_id":"0.0-5.0-0.0"},{"group":"hexagon_tri","fractal_assignment":["../images/blu_wht.png","../images/ylw_slt.png","../images/pnk_blu.png","../images/org_blu.png","../images/cyn_red.png","../images/gry_blk.png"],"mutagen_generator_assignment":[1,0],"goal":0,"start":2,"action_noise":0.15,"location_history":"[2,3,4,2,3,4,0]","action_history":"[1,1,1,0,0,0]","mutagen_history":"[0,0,0,1,1,1]","location_rts":"[1005,398,422,1483,381,360]","trial_type":"fractal-mutation","trial_index":55,"time_elapsed":1091486,"internal_node_id":"0.0-5.0-1.0"},{"group":"hexagon_tri","fractal_assignment":["../images/blu_wht.png","../images/ylw_slt.png","../images/pnk_blu.png","../images/org_blu.png","../images/cyn_red.png","../images/gry_blk.png"],"mutagen_generator_assignment":[1,0],"goal":5,"start":0,"action_noise":0.15,"location_history":"[0,1,5]","action_history":"[1,1]","mutagen_history":"[0,0]","location_rts":"[925,422]","trial_type":"fractal-mutation","trial_index":56,"time_elapsed":1098433,"internal_node_id":"0.0-5.0-2.0"},{"group":"hexagon_tri","fractal_assignment":["../images/blu_wht.png","../images/ylw_slt.png","../images/pnk_blu.png","../images/org_blu.png","../images/cyn_red.png","../images/gry_blk.png"],"mutagen_generator_assignment":[1,0],"goal":1,"start":5,"action_noise":0.15,"location_history":"[5,4,0,1]","action_history":"[0,0,0]","mutagen_history":"[1,1,1]","location_rts":"[1500,785,491]","trial_type":"fractal-mutation","trial_index":57,"time_elapsed":1107970,"internal_node_id":"0.0-5.0-3.0"},{"group":"hexagon_tri","fractal_assignment":["../images/blu_wht.png","../images/ylw_slt.png","../images/pnk_blu.png","../images/org_blu.png","../images/cyn_red.png","../images/gry_blk.png"],"mutagen_generator_assignment":[1,0],"goal":3,"start":1,"action_noise":0.15,"location_history":"[1,3]","action_history":"[0]","mutagen_history":"[1]","location_rts":"[109398]","trial_type":"fractal-mutation","trial_index":58,"time_elapsed":1221930,"internal_node_id":"0.0-5.0-4.0"},{"group":"hexagon_tri","fractal_assignment":["../images/blu_wht.png","../images/ylw_slt.png","../images/pnk_blu.png","../images/org_blu.png","../images/cyn_red.png","../images/gry_blk.png"],"mutagen_generator_assignment":[1,0],"goal":5,"start":3,"action_noise":0.15,"location_history":"[3,2,1,3,2,1,5]","action_history":"[0,0,0,0,1,1]","mutagen_history":"[1,1,1,1,0,0]","location_rts":"[2748,505,528,462,554,460]","trial_type":"fractal-mutation","trial_index":59,"time_elapsed":1237043,"internal_node_id":"0.0-5.0-5.0"},{"group":"hexagon_tri","fractal_assignment":["../images/blu_wht.png","../images/ylw_slt.png","../images/pnk_blu.png","../images/org_blu.png","../images/cyn_red.png","../images/gry_blk.png"],"mutagen_generator_assignment":[1,0],"goal":4,"start":5,"action_noise":0.15,"location_history":"[5,0,1,3,2,1,3,4]","action_history":"[1,1,0,0,0,0,0]","mutagen_history":"[0,0,1,1,1,1,1]","location_rts":"[15361,27824,1199,1140,698,9337,690]","trial_type":"fractal-mutation","trial_index":60,"time_elapsed":1304416,"internal_node_id":"0.0-5.0-6.0"},{"group":"hexagon_tri","fractal_assignment":["../images/blu_wht.png","../images/ylw_slt.png","../images/pnk_blu.png","../images/org_blu.png","../images/cyn_red.png","../images/gry_blk.png"],"mutagen_generator_assignment":[1,0],"goal":0,"start":4,"action_noise":0.15,"location_history":"[4,0]","action_history":"[0]","mutagen_history":"[1]","location_rts":"[1203]","trial_type":"fractal-mutation","trial_index":61,"time_elapsed":1310180,"internal_node_id":"0.0-5.0-7.0"},{"group":"hexagon_tri","fractal_assignment":["../images/blu_wht.png","../images/ylw_slt.png","../images/pnk_blu.png","../images/org_blu.png","../images/cyn_red.png","../images/gry_blk.png"],"mutagen_generator_assignment":[1,0],"goal":2,"start":0,"action_noise":0.15,"location_history":"[0,1,5,4,0,1,5,0,1,5,0,5,4,0,1,5,0,1,3,4,2]","action_history":"[1,1,1,1,1,1,1,1,1,1,0,0,0,0,1,1,1,1,1,1]","mutagen_history":"[0,0,0,0,0,0,0,0,0,0,1,1,1,1,0,0,0,0,0,0]","location_rts":"[1317,594,674,768,2768,801,999,889,2053,723,906,971,473,618,700,431,503,569,612,596]","trial_type":"fractal-mutation","trial_index":62,"time_elapsed":1353068,"internal_node_id":"0.0-5.0-8.0"},{"group":"hexagon_tri","fractal_assignment":["../images/blu_wht.png","../images/ylw_slt.png","../images/pnk_blu.png","../images/org_blu.png","../images/cyn_red.png","../images/gry_blk.png"],"mutagen_generator_assignment":[1,0],"goal":4,"start":2,"action_noise":0.15,"location_history":"[2,3,4]","action_history":"[1,1]","mutagen_history":"[0,0]","location_rts":"[64952,868]","trial_type":"fractal-mutation","trial_index":63,"time_elapsed":1424472,"internal_node_id":"0.0-5.0-9.0"},{"group":"hexagon_tri","fractal_assignment":["../images/blu_wht.png","../images/ylw_slt.png","../images/pnk_blu.png","../images/org_blu.png","../images/cyn_red.png","../images/gry_blk.png"],"mutagen_generator_assignment":[1,0],"goal":2,"start":4,"action_noise":0.15,"location_history":"[4,2]","action_history":"[1]","mutagen_history":"[0]","location_rts":"[1050]","trial_type":"fractal-mutation","trial_index":64,"time_elapsed":1430077,"internal_node_id":"0.0-5.0-10.0"},{"group":"hexagon_tri","fractal_assignment":["../images/blu_wht.png","../images/ylw_slt.png","../images/pnk_blu.png","../images/org_blu.png","../images/cyn_red.png","../images/gry_blk.png"],"mutagen_generator_assignment":[1,0],"goal":3,"start":2,"action_noise":0.15,"location_history":"[2,1,3]","action_history":"[0,0]","mutagen_history":"[1,1]","location_rts":"[1751,600]","trial_type":"fractal-mutation","trial_index":65,"time_elapsed":1438071,"internal_node_id":"0.0-5.0-11.0"},{"group":"hexagon_tri","fractal_assignment":["../images/blu_wht.png","../images/ylw_slt.png","../images/pnk_blu.png","../images/org_blu.png","../images/cyn_red.png","../images/gry_blk.png"],"mutagen_generator_assignment":[1,0],"goal":0,"start":3,"action_noise":0.15,"location_history":"[3,2,1,3,2,1,3,2,1,3,2,1,3,2,3,4,0]","action_history":"[0,0,0,0,0,0,0,0,0,0,0,0,0,0,0,0]","mutagen_history":"[1,1,1,1,1,1,1,1,1,1,1,1,1,1,1,1]","location_rts":"[1398,597,538,423,465,437,361,458,443,374,477,496,365,567,1038,479]","trial_type":"fractal-mutation","trial_index":66,"time_elapsed":1467800,"internal_node_id":"0.0-5.0-12.0"},{"group":"hexagon_tri","fractal_assignment":["../images/blu_wht.png","../images/ylw_slt.png","../images/pnk_blu.png","../images/org_blu.png","../images/cyn_red.png","../images/gry_blk.png"],"mutagen_generator_assignment":[1,0],"goal":5,"start":0,"action_noise":0.15,"location_history":"[0,5]","action_history":"[0]","mutagen_history":"[1]","location_rts":"[1315]","trial_type":"fractal-mutation","trial_index":67,"time_elapsed":1473679,"internal_node_id":"0.0-5.0-13.0"},{"group":"hexagon_tri","fractal_assignment":["../images/blu_wht.png","../images/ylw_slt.png","../images/pnk_blu.png","../images/org_blu.png","../images/cyn_red.png","../images/gry_blk.png"],"mutagen_generator_assignment":[1,0],"goal":1,"start":5,"action_noise":0.15,"location_history":"[5,0,5,0,5,4,0,5,4,0,5,4,0,5,4,0,5,4,0,1]","action_history":"[1,0,0,0,0,0,0,0,0,0,0,0,0,0,0,0,0,0,1]","mutagen_history":"[0,1,1,1,1,1,1,1,1,1,1,1,1,1,1,1,1,1,0]","location_rts":"[5080,1232,478,562,520,1790,915,2666,887,1839,7323,400,1475,6484,525,479,472,610,773]","trial_type":"fractal-mutation","trial_index":68,"time_elapsed":1532062,"internal_node_id":"0.0-5.0-14.0"},{"group":"hexagon_tri","fractal_assignment":["../images/blu_wht.png","../images/ylw_slt.png","../images/pnk_blu.png","../images/org_blu.png","../images/cyn_red.png","../images/gry_blk.png"],"mutagen_generator_assignment":[1,0],"goal":5,"start":1,"action_noise":0.15,"location_history":"[1,5]","action_history":"[1]","mutagen_history":"[0]","location_rts":"[2021]","trial_type":"fractal-mutation","trial_index":69,"time_elapsed":1538725,"internal_node_id":"0.0-5.0-15.0"},{"group":"hexagon_tri","fractal_assignment":["../images/blu_wht.png","../images/ylw_slt.png","../images/pnk_blu.png","../images/org_blu.png","../images/cyn_red.png","../images/gry_blk.png"],"mutagen_generator_assignment":[1,0],"goal":3,"start":5,"action_noise":0.15,"location_history":"[5,4,0,1,3]","action_history":"[0,0,0,0]","mutagen_history":"[1,1,1,1]","location_rts":"[3367,819,18622,641]","trial_type":"fractal-mutation","trial_index":70,"time_elapsed":1570007,"internal_node_id":"0.0-5.0-16.0"},{"group":"hexagon_tri","fractal_assignment":["../images/blu_wht.png","../images/ylw_slt.png","../images/pnk_blu.png","../images/org_blu.png","../images/cyn_red.png","../images/gry_blk.png"],"mutagen_generator_assignment":[1,0],"goal":2,"start":3,"action_noise":0.15,"location_history":"[3,4,0,1,5,4,2]","action_history":"[1,1,1,1,0,1]","mutagen_history":"[0,0,0,0,1,0]","location_rts":"[1133,551,618,568,1275,1850]","trial_type":"fractal-mutation","trial_index":71,"time_elapsed":1585897,"internal_node_id":"0.0-5.0-17.0"},{"group":"hexagon_tri","fractal_assignment":["../images/blu_wht.png","../images/ylw_slt.png","../images/pnk_blu.png","../images/org_blu.png","../images/cyn_red.png","../images/gry_blk.png"],"mutagen_generator_assignment":[1,0],"goal":1,"start":2,"action_noise":0.15,"location_history":"[2,1]","action_history":"[0]","mutagen_history":"[1]","location_rts":"[24986]","trial_type":"fractal-mutation","trial_index":72,"time_elapsed":1615504,"internal_node_id":"0.0-5.0-18.0"},{"group":"hexagon_tri","fractal_assignment":["../images/blu_wht.png","../images/ylw_slt.png","../images/pnk_blu.png","../images/org_blu.png","../images/cyn_red.png","../images/gry_blk.png"],"mutagen_generator_assignment":[1,0],"goal":4,"start":1,"action_noise":0.15,"location_history":"[1,5,4]","action_history":"[0,0]","mutagen_history":"[1,1]","location_rts":"[1588,840]","trial_type":"fractal-mutation","trial_index":73,"time_elapsed":1623542,"internal_node_id":"0.0-5.0-19.0"},{"group":"hexagon_tri","fractal_assignment":["../images/blu_wht.png","../images/ylw_slt.png","../images/pnk_blu.png","../images/org_blu.png","../images/cyn_red.png","../images/gry_blk.png"],"mutagen_generator_assignment":[1,0],"goal":0,"start":4,"action_noise":0.15,"location_history":"[4,2,3,4,0]","action_history":"[0,0,0,0]","mutagen_history":"[1,1,1,1]","location_rts":"[1006,750,687,815]","trial_type":"fractal-mutation","trial_index":74,"time_elapsed":1634683,"internal_node_id":"0.0-5.0-20.0"},{"group":"hexagon_tri","fractal_assignment":["../images/blu_wht.png","../images/ylw_slt.png","../images/pnk_blu.png","../images/org_blu.png","../images/cyn_red.png","../images/gry_blk.png"],"mutagen_generator_assignment":[1,0],"goal":3,"start":0,"action_noise":0.15,"location_history":"[0,5,4,0,5,4,0,5,4,0,5,4,2,3]","action_history":"[0,0,0,0,0,0,0,0,0,0,0,1,1]","mutagen_history":"[1,1,1,1,1,1,1,1,1,1,1,0,0]","location_rts":"[2935,729,564,638,849,555,688,792,715,659,733,1337,1668]","trial_type":"fractal-mutation","trial_index":75,"time_elapsed":1665065,"internal_node_id":"0.0-5.0-21.0"},{"group":"hexagon_tri","fractal_assignment":["../images/blu_wht.png","../images/ylw_slt.png","../images/pnk_blu.png","../images/org_blu.png","../images/cyn_red.png","../images/gry_blk.png"],"mutagen_generator_assignment":[1,0],"goal":1,"start":3,"action_noise":0.15,"location_history":"[3,2,1]","action_history":"[0,0]","mutagen_history":"[1,1]","location_rts":"[802,528]","trial_type":"fractal-mutation","trial_index":76,"time_elapsed":1672014,"internal_node_id":"0.0-5.0-22.0"},{"group":"hexagon_tri","fractal_assignment":["../images/blu_wht.png","../images/ylw_slt.png","../images/pnk_blu.png","../images/org_blu.png","../images/cyn_red.png","../images/gry_blk.png"],"mutagen_generator_assignment":[1,0],"goal":0,"start":1,"action_noise":0.15,"location_history":"[1,5,4,0]","action_history":"[0,0,0]","mutagen_history":"[1,1,1]","location_rts":"[767,446,625]","trial_type":"fractal-mutation","trial_index":77,"time_elapsed":1680537,"internal_node_id":"0.0-5.0-23.0"},{"group":"hexagon_tri","fractal_assignment":["../images/blu_wht.png","../images/ylw_slt.png","../images/pnk_blu.png","../images/org_blu.png","../images/cyn_red.png","../images/gry_blk.png"],"mutagen_generator_assignment":[1,0],"goal":2,"start":0,"action_noise":0.15,"location_history":"[0,5,0,1,5,0,5,0,5,0,5,0,1,5,0,1,5,0,1,5,0,1,5,4,0,1,3,4,0,5,4,0,1,5,4,2]","action_history":"[0,1,1,1,1,0,1,0,0,0,1,1,1,1,1,1,1,1,1,1,1,1,1,0,0,0,1,0,0,0,0,1,1,1,1]","mutagen_history":"[1,0,0,0,0,1,0,1,1,1,0,0,0,0,0,0,0,0,0,0,0,0,0,1,1,1,0,1,1,1,1,0,0,0,0]","location_rts":"[3014,455,567,548,1767,2717,2986,6095,554,812,3862,409,951,419,894,559,565,545,9222,475,427,405,369,735,475,561,378,547,443,422,433,532,355,385,461]","trial_type":"fractal-mutation","trial_index":78,"time_elapsed":1765715,"internal_node_id":"0.0-5.0-24.0"},{"group":"hexagon_tri","fractal_assignment":["../images/blu_wht.png","../images/ylw_slt.png","../images/pnk_blu.png","../images/org_blu.png","../images/cyn_red.png","../images/gry_blk.png"],"mutagen_generator_assignment":[1,0],"goal":4,"start":2,"action_noise":0.15,"location_history":"[2,1,3,2,1,5,0,1,5,0,1,3,2,1,5,4]","action_history":"[0,0,0,0,1,1,1,1,1,1,1,0,0,0,0]","mutagen_history":"[1,1,1,1,0,0,0,0,0,0,0,1,1,1,1]","location_rts":"[1320,424,612,358,383,362,379,437,534,402,546,818,352,375,554]","trial_type":"fractal-mutation","trial_index":79,"time_elapsed":1792947,"internal_node_id":"0.0-5.0-25.0"},{"group":"hexagon_tri","fractal_assignment":["../images/blu_wht.png","../images/ylw_slt.png","../images/pnk_blu.png","../images/org_blu.png","../images/cyn_red.png","../images/gry_blk.png"],"mutagen_generator_assignment":[1,0],"goal":5,"start":4,"action_noise":0.15,"location_history":"[4,2,3,4,0,1,5]","action_history":"[1,1,1,1,1,1]","mutagen_history":"[0,0,0,0,0,0]","location_rts":"[1106,434,543,629,640,503]","trial_type":"fractal-mutation","trial_index":80,"time_elapsed":1806678,"internal_node_id":"0.0-5.0-26.0"},{"group":"hexagon_tri","fractal_assignment":["../images/blu_wht.png","../images/ylw_slt.png","../images/pnk_blu.png","../images/org_blu.png","../images/cyn_red.png","../images/gry_blk.png"],"mutagen_generator_assignment":[1,0],"goal":2,"start":5,"action_noise":0.15,"location_history":"[5,0,1,5,0,1,5,0,1,5,0,1,3,2]","action_history":"[1,1,1,1,1,1,1,1,1,0,0,0,0]","mutagen_history":"[0,0,0,0,0,0,0,0,0,1,1,1,1]","location_rts":"[1127,527,1347,1383,789,468,653,743,2245,718,612,1159,485]","trial_type":"fractal-mutation","trial_index":81,"time_elapsed":1836288,"internal_node_id":"0.0-5.0-27.0"},{"group":"hexagon_tri","fractal_assignment":["../images/blu_wht.png","../images/ylw_slt.png","../images/pnk_blu.png","../images/org_blu.png","../images/cyn_red.png","../images/gry_blk.png"],"mutagen_generator_assignment":[1,0],"goal":3,"start":2,"action_noise":0.15,"location_history":"[2,1,3]","action_history":"[1,0]","mutagen_history":"[0,1]","location_rts":"[893,2541]","trial_type":"fractal-mutation","trial_index":82,"time_elapsed":1845328,"internal_node_id":"0.0-5.0-28.0"},{"group":"hexagon_tri","fractal_assignment":["../images/blu_wht.png","../images/ylw_slt.png","../images/pnk_blu.png","../images/org_blu.png","../images/cyn_red.png","../images/gry_blk.png"],"mutagen_generator_assignment":[1,0],"goal":1,"start":3,"action_noise":0.15,"location_history":"[3,4,2,1]","action_history":"[0,1,0]","mutagen_history":"[1,0,1]","location_rts":"[1363,855,911]","trial_type":"fractal-mutation","trial_index":83,"time_elapsed":1855133,"internal_node_id":"0.0-5.0-29.0"},{"group":"hexagon_tri","fractal_assignment":["../images/blu_wht.png","../images/ylw_slt.png","../images/pnk_blu.png","../images/org_blu.png","../images/cyn_red.png","../images/gry_blk.png"],"mutagen_generator_assignment":[1,0],"goal":4,"start":1,"action_noise":0.15,"location_history":"[1,3,2,3,2,3,2,1,5,0,5,4]","action_history":"[0,0,0,0,0,0,1,0,0,0,0]","mutagen_history":"[1,1,1,1,1,1,0,1,1,1,1]","location_rts":"[1959,6103,747,656,594,577,44985,781,470,256,862]","trial_type":"fractal-mutation","trial_index":84,"time_elapsed":1928404,"internal_node_id":"0.0-5.0-30.0"},{"group":"hexagon_tri","fractal_assignment":["../images/blu_wht.png","../images/ylw_slt.png","../images/pnk_blu.png","../images/org_blu.png","../images/cyn_red.png","../images/gry_blk.png"],"mutagen_generator_assignment":[1,0],"goal":5,"start":4,"action_noise":0.15,"location_history":"[4,0,5]","action_history":"[0,0]","mutagen_history":"[1,1]","location_rts":"[5472,780]","trial_type":"fractal-mutation","trial_index":85,"time_elapsed":1940280,"internal_node_id":"0.0-5.0-31.0"},{"group":"hexagon_tri","fractal_assignment":["../images/blu_wht.png","../images/ylw_slt.png","../images/pnk_blu.png","../images/org_blu.png","../images/cyn_red.png","../images/gry_blk.png"],"mutagen_generator_assignment":[1,0],"goal":0,"start":5,"action_noise":0.15,"location_history":"[5,4,0]","action_history":"[0,0]","mutagen_history":"[1,1]","location_rts":"[925,920]","trial_type":"fractal-mutation","trial_index":86,"time_elapsed":1947754,"internal_node_id":"0.0-5.0-32.0"},{"group":"hexagon_tri","fractal_assignment":["../images/blu_wht.png","../images/ylw_slt.png","../images/pnk_blu.png","../images/org_blu.png","../images/cyn_red.png","../images/gry_blk.png"],"mutagen_generator_assignment":[1,0],"goal":2,"start":0,"action_noise":0.15,"location_history":"[0,5,0,5,4,0,5,0,1,5,0,5,0,5,4,0,5,4,0,5,4,2]","action_history":"[0,0,0,0,0,0,1,1,1,1,1,1,0,0,0,0,0,0,0,0,1]","mutagen_history":"[1,1,1,1,1,1,0,0,0,0,0,0,1,1,1,1,1,1,1,1,0]","location_rts":"[26466,579,893,803,1120,6335,572,375,677,11013,526,602,485,1081,706,938,4694,996,2137,22400,6217]","trial_type":"fractal-mutation","trial_index":87,"time_elapsed":2063685,"internal_node_id":"0.0-5.0-33.0"},{"group":"hexagon_tri","fractal_assignment":["../images/blu_wht.png","../images/ylw_slt.png","../images/pnk_blu.png","../images/org_blu.png","../images/cyn_red.png","../images/gry_blk.png"],"mutagen_generator_assignment":[1,0],"goal":0,"start":2,"action_noise":0.15,"location_history":"[2,1,3,2,1,3,4,0]","action_history":"[0,0,0,0,0,0,0]","mutagen_history":"[1,1,1,1,1,1,1]","location_rts":"[2823,6824,505,652,631,896,994]","trial_type":"fractal-mutation","trial_index":88,"time_elapsed":2088131,"internal_node_id":"0.0-5.0-34.0"},{"group":"hexagon_tri","fractal_assignment":["../images/blu_wht.png","../images/ylw_slt.png","../images/pnk_blu.png","../images/org_blu.png","../images/cyn_red.png","../images/gry_blk.png"],"mutagen_generator_assignment":[1,0],"goal":5,"start":0,"action_noise":0.15,"location_history":"[0,1,3,2,1,3,4,0,5]","action_history":"[0,0,0,1,1,1,0,0]","mutagen_history":"[1,1,1,0,0,0,1,1]","location_rts":"[2103,1463,1944,1147,1233,3154,640,700]","trial_type":"fractal-mutation","trial_index":89,"time_elapsed":2112615,"internal_node_id":"0.0-5.0-35.0"},{"group":"hexagon_tri","fractal_assignment":["../images/blu_wht.png","../images/ylw_slt.png","../images/pnk_blu.png","../images/org_blu.png","../images/cyn_red.png","../images/gry_blk.png"],"mutagen_generator_assignment":[1,0],"goal":1,"start":5,"action_noise":0.15,"location_history":"[5,4,2,1]","action_history":"[0,0,0]","mutagen_history":"[1,1,1]","location_rts":"[851,685,786]","trial_type":"fractal-mutation","trial_index":90,"time_elapsed":2121698,"internal_node_id":"0.0-5.0-36.0"},{"group":"hexagon_tri","fractal_assignment":["../images/blu_wht.png","../images/ylw_slt.png","../images/pnk_blu.png","../images/org_blu.png","../images/cyn_red.png","../images/gry_blk.png"],"mutagen_generator_assignment":[1,0],"goal":4,"start":1,"action_noise":0.15,"location_history":"[1,3,2,1,3,2,3,2,3,4]","action_history":"[0,0,0,0,0,1,1,1,1]","mutagen_history":"[1,1,1,1,1,0,0,0,0]","location_rts":"[945,396,947,1873,548,764,963,901,732]","trial_type":"fractal-mutation","trial_index":91,"time_elapsed":2142900,"internal_node_id":"0.0-5.0-37.0"},{"group":"hexagon_tri","fractal_assignment":["../images/blu_wht.png","../images/ylw_slt.png","../images/pnk_blu.png","../images/org_blu.png","../images/cyn_red.png","../images/gry_blk.png"],"mutagen_generator_assignment":[1,0],"goal":3,"start":4,"action_noise":0.15,"location_history":"[4,0,5,4,2,1,3]","action_history":"[0,0,0,0,0,0]","mutagen_history":"[1,1,1,1,1,1]","location_rts":"[962,478,348,716,2853,784]","trial_type":"fractal-mutation","trial_index":92,"time_elapsed":2159005,"internal_node_id":"0.0-5.0-38.0"},{"group":"hexagon_tri","fractal_assignment":["../images/blu_wht.png","../images/ylw_slt.png","../images/pnk_blu.png","../images/org_blu.png","../images/cyn_red.png","../images/gry_blk.png"],"mutagen_generator_assignment":[1,0],"goal":5,"start":3,"action_noise":0.15,"location_history":"[3,2,3,4,0,5]","action_history":"[1,1,0,0,0]","mutagen_history":"[0,0,1,1,1]","location_rts":"[841,622,777,555,785]","trial_type":"fractal-mutation","trial_index":93,"time_elapsed":2171365,"internal_node_id":"0.0-5.0-39.0"},{"group":"hexagon_tri","fractal_assignment":["../images/blu_wht.png","../images/ylw_slt.png","../images/pnk_blu.png","../images/org_blu.png","../images/cyn_red.png","../images/gry_blk.png"],"mutagen_generator_assignment":[1,0],"goal":1,"start":5,"action_noise":0.15,"location_history":"[5,4,0,5,4,0,1]","action_history":"[0,0,0,0,0,0]","mutagen_history":"[1,1,1,1,1,1]","location_rts":"[1261,521,2869,943,1756,4960]","trial_type":"fractal-mutation","trial_index":94,"time_elapsed":2193649,"internal_node_id":"0.0-5.0-40.0"},{"group":"hexagon_tri","fractal_assignment":["../images/blu_wht.png","../images/ylw_slt.png","../images/pnk_blu.png","../images/org_blu.png","../images/cyn_red.png","../images/gry_blk.png"],"mutagen_generator_assignment":[1,0],"goal":2,"start":1,"action_noise":0.15,"location_history":"[1,5,0,1,3,4,2]","action_history":"[1,1,1,1,1,0]","mutagen_history":"[0,0,0,0,0,1]","location_rts":"[1283,767,615,460,2077,1047]","trial_type":"fractal-mutation","trial_index":95,"time_elapsed":2209846,"internal_node_id":"0.0-5.0-41.0"},{"group":"hexagon_tri","fractal_assignment":["../images/blu_wht.png","../images/ylw_slt.png","../images/pnk_blu.png","../images/org_blu.png","../images/cyn_red.png","../images/gry_blk.png"],"mutagen_generator_assignment":[1,0],"goal":4,"start":2,"action_noise":0.15,"location_history":"[2,1,3,2,1,3,2,1,3,2,1,3,4]","action_history":"[0,0,0,0,0,0,0,0,0,0,0,0]","mutagen_history":"[1,1,1,1,1,1,1,1,1,1,1,1]","location_rts":"[974,404,561,434,325,627,423,676,610,3944,946,656]","trial_type":"fractal-mutation","trial_index":96,"time_elapsed":2236930,"internal_node_id":"0.0-5.0-42.0"},{"group":"hexagon_tri","fractal_assignment":["../images/blu_wht.png","../images/ylw_slt.png","../images/pnk_blu.png","../images/org_blu.png","../images/cyn_red.png","../images/gry_blk.png"],"mutagen_generator_assignment":[1,0],"goal":0,"start":4,"action_noise":0.15,"location_history":"[4,0]","action_history":"[0]","mutagen_history":"[1]","location_rts":"[905]","trial_type":"fractal-mutation","trial_index":97,"time_elapsed":2242398,"internal_node_id":"0.0-5.0-43.0"},{"group":"hexagon_tri","fractal_assignment":["../images/blu_wht.png","../images/ylw_slt.png","../images/pnk_blu.png","../images/org_blu.png","../images/cyn_red.png","../images/gry_blk.png"],"mutagen_generator_assignment":[1,0],"goal":3,"start":0,"action_noise":0.15,"location_history":"[0,5,4,0,5,4,2,3]","action_history":"[0,0,0,0,0,0,1]","mutagen_history":"[1,1,1,1,1,1,0]","location_rts":"[1118,357,364,549,372,250,651]","trial_type":"fractal-mutation","trial_index":98,"time_elapsed":2257065,"internal_node_id":"0.0-5.0-44.0"},{"group":"hexagon_tri","fractal_assignment":["../images/blu_wht.png","../images/ylw_slt.png","../images/pnk_blu.png","../images/org_blu.png","../images/cyn_red.png","../images/gry_blk.png"],"mutagen_generator_assignment":[1,0],"goal":0,"start":3,"action_noise":0.15,"location_history":"[3,4,0]","action_history":"[0,0]","mutagen_history":"[1,1]","location_rts":"[739,231]","trial_type":"fractal-mutation","trial_index":99,"time_elapsed":2263701,"internal_node_id":"0.0-5.0-45.0"},{"group":"hexagon_tri","fractal_assignment":["../images/blu_wht.png","../images/ylw_slt.png","../images/pnk_blu.png","../images/org_blu.png","../images/cyn_red.png","../images/gry_blk.png"],"mutagen_generator_assignment":[1,0],"goal":4,"start":0,"action_noise":0.15,"location_history":"[0,1,5,4]","action_history":"[1,0,0]","mutagen_history":"[0,1,1]","location_rts":"[1258,1520,1676]","trial_type":"fractal-mutation","trial_index":100,"time_elapsed":2274814,"internal_node_id":"0.0-5.0-46.0"},{"group":"hexagon_tri","fractal_assignment":["../images/blu_wht.png","../images/ylw_slt.png","../images/pnk_blu.png","../images/org_blu.png","../images/cyn_red.png","../images/gry_blk.png"],"mutagen_generator_assignment":[1,0],"goal":5,"start":4,"action_noise":0.15,"location_history":"[4,2,3,2,3,2,1,3,2,3,4,2,3,4,2,1,3,2,1,3,2,1,5]","action_history":"[1,1,1,1,0,0,0,0,0,1,1,1,1,1,0,0,0,0,0,0,0,0]","mutagen_history":"[0,0,0,0,1,1,1,1,1,0,0,0,0,0,1,1,1,1,1,1,1,1]","location_rts":"[813,520,451,723,763,414,397,387,461,603,539,566,559,472,394,370,403,410,441,366,423,417]","trial_type":"fractal-mutation","trial_index":101,"time_elapsed":2312670,"internal_node_id":"0.0-5.0-47.0"},{"group":"hexagon_tri","fractal_assignment":["../images/blu_wht.png","../images/ylw_slt.png","../images/pnk_blu.png","../images/org_blu.png","../images/cyn_red.png","../images/gry_blk.png"],"mutagen_generator_assignment":[1,0],"goal":2,"start":5,"action_noise":0.15,"location_history":"[5,0,1,5,0,1,5,0,5,0,5,4,0,5,4,0,5,4,2]","action_history":"[1,1,1,1,1,1,1,0,0,0,0,0,0,0,0,0,0,1]","mutagen_history":"[0,0,0,0,0,0,0,1,1,1,1,1,1,1,1,1,1,0]","location_rts":"[1336,1743,462,679,471,399,763,386,329,330,438,417,592,613,483,467,560,560]","trial_type":"fractal-mutation","trial_index":102,"time_elapsed":2346256,"internal_node_id":"0.0-5.0-48.0"},{"group":"hexagon_tri","fractal_assignment":["../images/blu_wht.png","../images/ylw_slt.png","../images/pnk_blu.png","../images/org_blu.png","../images/cyn_red.png","../images/gry_blk.png"],"mutagen_generator_assignment":[1,0],"goal":1,"start":2,"action_noise":0.15,"location_history":"[2,1]","action_history":"[0]","mutagen_history":"[1]","location_rts":"[1229]","trial_type":"fractal-mutation","trial_index":103,"time_elapsed":2352051,"internal_node_id":"0.0-5.0-49.0"},{"view_history":"[{\"page_index\":0,\"viewing_time\":3273}]","rt":3273,"trial_type":"instructions","trial_index":104,"time_elapsed":2356324,"internal_node_id":"0.0-6.0"},{"rt":34419,"responses":"{\"Q0\":\"No issues. I found the doors easier to navigate then the second one.\"}","trial_type":"survey-text","trial_index":105,"time_elapsed":2391745,"internal_node_id":"0.0-7.0-0.0"},{"rt":51607,"responses":"{\"Q0\":\"Something to do with complex color patterns and shape and memory?\"}","trial_type":"survey-text","trial_index":106,"time_elapsed":2444353,"internal_node_id":"0.0-7.0-1.0"},{"rt":38914,"responses":"{\"Q0\":\"<img src='../images/diagrams/hexagon_bi.png'>\"}","trial_type":"survey-multi-choice","trial_index":107,"time_elapsed":2484270,"internal_node_id":"0.0-7.0-2.0"},{"rt":61996,"assignments":["../images/blu_wht.png","../images/cyn_red.png","../images/gry_blk.png","../images/ylw_slt.png","../images/org_blu.png","../images/pnk_blu.png"],"trial_type":"drag-drop-on-image","trial_index":108,"time_elapsed":2547269,"internal_node_id":"0.0-7.0-3.0"},{"rt":13991,"responses":"{\"Q0\":\"2\"}","trial_type":"survey-likert","trial_index":109,"time_elapsed":2562262,"internal_node_id":"0.0-7.0-4.0"},{"rt":59488,"responses":"{\"Q0\":\"Just that I believe there's a color pattern you need to follow or that one color or pattern comes after another specific color or pattern.\"}","trial_type":"survey-text","trial_index":110,"time_elapsed":2622754,"internal_node_id":"0.0-7.0-5.0"},{"rt":6791,"responses":"{\"Q0\":\"Yes\"}","trial_type":"survey-multi-choice","trial_index":111,"time_elapsed":2630546,"internal_node_id":"0.0-7.0-6.0"},{"rt":16446,"responses":"{\"Q0\":\"Between sessions 1 and 2\"}","trial_type":"survey-multi-choice","trial_index":112,"time_elapsed":2647994,"internal_node_id":"0.0-7.0-7.0"},{"rt":28994,"responses":"{\"Q0\":\"Just that one color or pattern comes after another specific pattern or color. \"}","trial_type":"survey-text","trial_index":113,"time_elapsed":2677989,"internal_node_id":"0.0-7.0-8.0"},{"rt":9446,"responses":"{\"Q0\":\"1\"}","trial_type":"survey-likert","trial_index":114,"time_elapsed":2688436,"internal_node_id":"0.0-7.0-9.0"},{"rt":10321,"responses":"{\"Q0\":\"Different structure\"}","trial_type":"survey-multi-choice","trial_index":115,"time_elapsed":2699759,"internal_node_id":"0.0-7.0-10.0"},{"rt":62179,"responses":"{\"Q0\":\"left (black) door = acid, right (white) door = ray\",\"Q1\":\"Not at all confident\"}","trial_type":"survey-multi-choice","trial_index":116,"time_elapsed":2762941,"internal_node_id":"0.0-7.0-11.0"},{"rt":9564,"responses":"{\"Q0\":\"25-35\",\"Q1\":\"Bachelor's degree\",\"Q2\":\"Male\",\"Q3\":\"White\"}","trial_type":"survey-multi-choice","trial_index":117,"time_elapsed":2773511,"internal_node_id":"0.0-8.0"},{"rt":4771,"responses":"{\"Q0\":\"None.\"}","trial_type":"survey-text","trial_index":118,"time_elapsed":2779283,"internal_node_id":"0.0-9.0"}]