[{"view_history":"[{\"page_index\":0,\"viewing_time\":21822},{\"page_index\":1,\"viewing_time\":38820}]","rt":60642,"trial_type":"instructions","trial_index":0,"time_elapsed":60643,"internal_node_id":"0.0-0.0"},{"view_history":"[{\"page_index\":0,\"viewing_time\":4319},{\"page_index\":1,\"viewing_time\":11008}]","rt":15327,"trial_type":"instructions","trial_index":1,"time_elapsed":76971,"internal_node_id":"0.0-1.0"},{"group":"hexagon_tri","room_assignment":["blue","purple","green","grey","yellow","red"],"door_color_assignment":["white","black"],"door_generator_assignment":[0,1],"goal":2,"start":1,"action_noise":0.15,"location_history":"[1,3,4,0,1,3,4,2]","action_history":"[0,1,0,0,0,1,1]","door_history":"[0,1,0,0,0,1,1]","location_rts":"[3788,2199,1119,1958,1087,944,1098]","trial_type":"two-door-navigation","trial_index":2,"time_elapsed":99837,"internal_node_id":"0.0-2.0-0.0"},{"group":"hexagon_tri","room_assignment":["blue","purple","green","grey","yellow","red"],"door_color_assignment":["white","black"],"door_generator_assignment":[0,1],"goal":0,"start":2,"action_noise":0.15,"location_history":"[2,1,5,0]","action_history":"[0,1,1]","door_history":"[0,1,1]","location_rts":"[2931,2386,436]","trial_type":"two-door-navigation","trial_index":3,"time_elapsed":112165,"internal_node_id":"0.0-2.0-1.0"},{"group":"hexagon_tri","room_assignment":["blue","purple","green","grey","yellow","red"],"door_color_assignment":["white","black"],"door_generator_assignment":[0,1],"goal":5,"start":0,"action_noise":0.15,"location_history":"[0,1,5]","action_history":"[1,1]","door_history":"[1,1]","location_rts":"[2966,1791]","trial_type":"two-door-navigation","trial_index":4,"time_elapsed":122465,"internal_node_id":"0.0-2.0-2.0"},{"group":"hexagon_tri","room_assignment":["blue","purple","green","grey","yellow","red"],"door_color_assignment":["white","black"],"door_generator_assignment":[0,1],"goal":1,"start":5,"action_noise":0.15,"location_history":"[5,0,5,0,1]","action_history":"[0,0,1,1]","door_history":"[0,0,1,1]","location_rts":"[2435,1229,1074,655]","trial_type":"two-door-navigation","trial_index":5,"time_elapsed":135461,"internal_node_id":"0.0-2.0-3.0"},{"group":"hexagon_tri","room_assignment":["blue","purple","green","grey","yellow","red"],"door_color_assignment":["white","black"],"door_generator_assignment":[0,1],"goal":3,"start":1,"action_noise":0.15,"location_history":"[1,3]","action_history":"[0]","door_history":"[0]","location_rts":"[2088]","trial_type":"two-door-navigation","trial_index":6,"time_elapsed":142072,"internal_node_id":"0.0-2.0-4.0"},{"group":"hexagon_tri","room_assignment":["blue","purple","green","grey","yellow","red"],"door_color_assignment":["white","black"],"door_generator_assignment":[0,1],"goal":5,"start":3,"action_noise":0.15,"location_history":"[3,2,3,2,3,4,0,1,5]","action_history":"[0,1,0,0,1,1,1,1]","door_history":"[0,1,0,0,1,1,1,1]","location_rts":"[2579,1611,732,332,826,382,1112,1004]","trial_type":"two-door-navigation","trial_index":7,"time_elapsed":162324,"internal_node_id":"0.0-2.0-5.0"},{"group":"hexagon_tri","room_assignment":["blue","purple","green","grey","yellow","red"],"door_color_assignment":["white","black"],"door_generator_assignment":[0,1],"goal":4,"start":5,"action_noise":0.15,"location_history":"[5,4]","action_history":"[0]","door_history":"[0]","location_rts":"[2371]","trial_type":"two-door-navigation","trial_index":8,"time_elapsed":169220,"internal_node_id":"0.0-2.0-6.0"},{"group":"hexagon_tri","room_assignment":["blue","purple","green","grey","yellow","red"],"door_color_assignment":["white","black"],"door_generator_assignment":[0,1],"goal":0,"start":4,"action_noise":0.15,"location_history":"[4,0]","action_history":"[0]","door_history":"[0]","location_rts":"[2189]","trial_type":"two-door-navigation","trial_index":9,"time_elapsed":175934,"internal_node_id":"0.0-2.0-7.0"},{"group":"hexagon_tri","room_assignment":["blue","purple","green","grey","yellow","red"],"door_color_assignment":["white","black"],"door_generator_assignment":[0,1],"goal":2,"start":0,"action_noise":0.15,"location_history":"[0,5,0,1,5,4,2]","action_history":"[0,0,1,1,0,1]","door_history":"[0,0,1,1,0,1]","location_rts":"[2149,849,800,839,1578,1029]","trial_type":"two-door-navigation","trial_index":10,"time_elapsed":192804,"internal_node_id":"0.0-2.0-8.0"},{"group":"hexagon_tri","room_assignment":["blue","purple","green","grey","yellow","red"],"door_color_assignment":["white","black"],"door_generator_assignment":[0,1],"goal":4,"start":2,"action_noise":0.15,"location_history":"[2,1,3,2,1,5,4]","action_history":"[0,0,0,1,1,0]","door_history":"[0,0,0,1,1,0]","location_rts":"[1896,1707,957,729,535,673]","trial_type":"two-door-navigation","trial_index":11,"time_elapsed":208940,"internal_node_id":"0.0-2.0-9.0"},{"group":"hexagon_tri","room_assignment":["blue","purple","green","grey","yellow","red"],"door_color_assignment":["white","black"],"door_generator_assignment":[0,1],"goal":2,"start":4,"action_noise":0.15,"location_history":"[4,2]","action_history":"[1]","door_history":"[1]","location_rts":"[1756]","trial_type":"two-door-navigation","trial_index":12,"time_elapsed":215222,"internal_node_id":"0.0-2.0-10.0"},{"group":"hexagon_tri","room_assignment":["blue","purple","green","grey","yellow","red"],"door_color_assignment":["white","black"],"door_generator_assignment":[0,1],"goal":3,"start":2,"action_noise":0.15,"location_history":"[2,1,3]","action_history":"[0,0]","door_history":"[0,0]","location_rts":"[1848,853]","trial_type":"two-door-navigation","trial_index":13,"time_elapsed":223475,"internal_node_id":"0.0-2.0-11.0"},{"group":"hexagon_tri","room_assignment":["blue","purple","green","grey","yellow","red"],"door_color_assignment":["white","black"],"door_generator_assignment":[0,1],"goal":0,"start":3,"action_noise":0.15,"location_history":"[3,2,1,3,4,2,1,5,0]","action_history":"[0,0,0,1,1,0,0,1]","door_history":"[0,0,0,1,1,0,0,1]","location_rts":"[2021,1252,3527,805,770,1050,1578,1985]","trial_type":"two-door-navigation","trial_index":14,"time_elapsed":248126,"internal_node_id":"0.0-2.0-12.0"},{"group":"hexagon_tri","room_assignment":["blue","purple","green","grey","yellow","red"],"door_color_assignment":["white","black"],"door_generator_assignment":[0,1],"goal":5,"start":0,"action_noise":0.15,"location_history":"[0,1,5]","action_history":"[1,1]","door_history":"[1,1]","location_rts":"[2746,1434]","trial_type":"two-door-navigation","trial_index":15,"time_elapsed":257850,"internal_node_id":"0.0-2.0-13.0"},{"group":"hexagon_tri","room_assignment":["blue","purple","green","grey","yellow","red"],"door_color_assignment":["white","black"],"door_generator_assignment":[0,1],"goal":1,"start":5,"action_noise":0.15,"location_history":"[5,4,2,3,2,3,2,1]","action_history":"[0,1,1,0,1,0,0]","door_history":"[0,1,1,0,1,0,0]","location_rts":"[5152,789,1193,883,844,978,306]","trial_type":"two-door-navigation","trial_index":16,"time_elapsed":278661,"internal_node_id":"0.0-2.0-14.0"},{"group":"hexagon_tri","room_assignment":["blue","purple","green","grey","yellow","red"],"door_color_assignment":["white","black"],"door_generator_assignment":[0,1],"goal":5,"start":1,"action_noise":0.15,"location_history":"[1,5]","action_history":"[1]","door_history":"[1]","location_rts":"[1348]","trial_type":"two-door-navigation","trial_index":17,"time_elapsed":284537,"internal_node_id":"0.0-2.0-15.0"},{"group":"hexagon_tri","room_assignment":["blue","purple","green","grey","yellow","red"],"door_color_assignment":["white","black"],"door_generator_assignment":[0,1],"goal":3,"start":5,"action_noise":0.15,"location_history":"[5,4,0,5,4,0,1,5,0,5,0,5,4,0,5,4,2,3]","action_history":"[0,0,0,0,0,1,1,1,0,1,0,0,0,1,1,1,0]","door_history":"[0,0,0,0,0,1,1,1,0,1,0,0,0,1,1,1,0]","location_rts":"[1665,863,1633,875,570,419,419,1074,995,1984,475,380,1466,606,1103,1871,830]","trial_type":"two-door-navigation","trial_index":18,"time_elapsed":322643,"internal_node_id":"0.0-2.0-16.0"},{"group":"hexagon_tri","room_assignment":["blue","purple","green","grey","yellow","red"],"door_color_assignment":["white","black"],"door_generator_assignment":[0,1],"goal":2,"start":3,"action_noise":0.15,"location_history":"[3,4,0,1,3,2]","action_history":"[1,0,0,0,0]","door_history":"[1,0,0,0,0]","location_rts":"[2146,973,1336,1024,926]","trial_type":"two-door-navigation","trial_index":19,"time_elapsed":337659,"internal_node_id":"0.0-2.0-17.0"},{"group":"hexagon_tri","room_assignment":["blue","purple","green","grey","yellow","red"],"door_color_assignment":["white","black"],"door_generator_assignment":[0,1],"goal":1,"start":2,"action_noise":0.15,"location_history":"[2,3,2,3,2,3,4,2,1]","action_history":"[1,0,0,0,1,1,1,1]","door_history":"[1,0,0,0,1,1,1,1]","location_rts":"[1470,957,402,781,349,352,1157,944]","trial_type":"two-door-navigation","trial_index":20,"time_elapsed":355760,"internal_node_id":"0.0-2.0-18.0"},{"group":"hexagon_tri","room_assignment":["blue","purple","green","grey","yellow","red"],"door_color_assignment":["white","black"],"door_generator_assignment":[0,1],"goal":4,"start":1,"action_noise":0.15,"location_history":"[1,3,4]","action_history":"[0,1]","door_history":"[0,1]","location_rts":"[2046,839]","trial_type":"two-door-navigation","trial_index":21,"time_elapsed":364184,"internal_node_id":"0.0-2.0-19.0"},{"group":"hexagon_tri","room_assignment":["blue","purple","green","grey","yellow","red"],"door_color_assignment":["white","black"],"door_generator_assignment":[0,1],"goal":0,"start":4,"action_noise":0.15,"location_history":"[4,0]","action_history":"[0]","door_history":"[0]","location_rts":"[1663]","trial_type":"two-door-navigation","trial_index":22,"time_elapsed":370370,"internal_node_id":"0.0-2.0-20.0"},{"group":"hexagon_tri","room_assignment":["blue","purple","green","grey","yellow","red"],"door_color_assignment":["white","black"],"door_generator_assignment":[0,1],"goal":3,"start":0,"action_noise":0.15,"location_history":"[0,5,0,1,3]","action_history":"[0,1,0,0]","door_history":"[0,1,0,0]","location_rts":"[1636,740,605,350]","trial_type":"two-door-navigation","trial_index":23,"time_elapsed":381292,"internal_node_id":"0.0-2.0-21.0"},{"group":"hexagon_tri","room_assignment":["blue","purple","green","grey","yellow","red"],"door_color_assignment":["white","black"],"door_generator_assignment":[0,1],"goal":1,"start":3,"action_noise":0.15,"location_history":"[3,2,3,4,2,1]","action_history":"[0,1,1,1,0]","door_history":"[0,1,1,1,0]","location_rts":"[2880,748,748,582,2462]","trial_type":"two-door-navigation","trial_index":24,"time_elapsed":397325,"internal_node_id":"0.0-2.0-22.0"},{"group":"hexagon_tri","room_assignment":["blue","purple","green","grey","yellow","red"],"door_color_assignment":["white","black"],"door_generator_assignment":[0,1],"goal":0,"start":1,"action_noise":0.15,"location_history":"[1,5,0]","action_history":"[1,1]","door_history":"[1,1]","location_rts":"[4224,1665]","trial_type":"two-door-navigation","trial_index":25,"time_elapsed":408758,"internal_node_id":"0.0-2.0-23.0"},{"group":"hexagon_tri","room_assignment":["blue","purple","green","grey","yellow","red"],"door_color_assignment":["white","black"],"door_generator_assignment":[0,1],"goal":2,"start":0,"action_noise":0.15,"location_history":"[0,1,5,4,2]","action_history":"[1,1,0,0]","door_history":"[1,1,0,0]","location_rts":"[3631,1465,477,612]","trial_type":"two-door-navigation","trial_index":26,"time_elapsed":422524,"internal_node_id":"0.0-2.0-24.0"},{"group":"hexagon_tri","room_assignment":["blue","purple","green","grey","yellow","red"],"door_color_assignment":["white","black"],"door_generator_assignment":[0,1],"goal":4,"start":2,"action_noise":0.15,"location_history":"[2,3,2,1,3,2,3,4]","action_history":"[1,0,0,0,0,1,1]","door_history":"[1,0,0,0,0,1,1]","location_rts":"[2305,1261,397,1433,830,1270,648]","trial_type":"two-door-navigation","trial_index":27,"time_elapsed":441319,"internal_node_id":"0.0-2.0-25.0"},{"group":"hexagon_tri","room_assignment":["blue","purple","green","grey","yellow","red"],"door_color_assignment":["white","black"],"door_generator_assignment":[0,1],"goal":5,"start":4,"action_noise":0.15,"location_history":"[4,2,3,2,1,5]","action_history":"[1,1,1,0,1]","door_history":"[1,1,1,0,1]","location_rts":"[2057,1038,5756,936,2309]","trial_type":"two-door-navigation","trial_index":28,"time_elapsed":462040,"internal_node_id":"0.0-2.0-26.0"},{"group":"hexagon_tri","room_assignment":["blue","purple","green","grey","yellow","red"],"door_color_assignment":["white","black"],"door_generator_assignment":[0,1],"goal":2,"start":5,"action_noise":0.15,"location_history":"[5,0,5,4,0,1,3,4,0,1,5,4,2]","action_history":"[1,0,0,0,1,0,0,0,1,1,0,1]","door_history":"[1,0,0,0,1,0,0,0,1,1,0,1]","location_rts":"[1670,530,567,694,1287,758,1482,1591,720,872,1480,509]","trial_type":"two-door-navigation","trial_index":29,"time_elapsed":489975,"internal_node_id":"0.0-2.0-27.0"},{"group":"hexagon_tri","room_assignment":["blue","purple","green","grey","yellow","red"],"door_color_assignment":["white","black"],"door_generator_assignment":[0,1],"goal":3,"start":2,"action_noise":0.15,"location_history":"[2,1,5,0,1,3]","action_history":"[1,1,1,1,0]","door_history":"[1,1,1,1,0]","location_rts":"[1416,996,792,608,422]","trial_type":"two-door-navigation","trial_index":30,"time_elapsed":502827,"internal_node_id":"0.0-2.0-28.0"},{"group":"hexagon_tri","room_assignment":["blue","purple","green","grey","yellow","red"],"door_color_assignment":["white","black"],"door_generator_assignment":[0,1],"goal":1,"start":3,"action_noise":0.15,"location_history":"[3,2,1]","action_history":"[1,0]","door_history":"[1,0]","location_rts":"[1780,1209]","trial_type":"two-door-navigation","trial_index":31,"time_elapsed":511367,"internal_node_id":"0.0-2.0-29.0"},{"group":"hexagon_tri","room_assignment":["blue","purple","green","grey","yellow","red"],"door_color_assignment":["white","black"],"door_generator_assignment":[0,1],"goal":4,"start":1,"action_noise":0.15,"location_history":"[1,3,2,1,5,0,5,0,5,0,1,5,0,1,3,4]","action_history":"[0,0,0,1,0,0,1,0,1,1,0,1,1,1,1]","door_history":"[0,0,0,1,0,0,1,0,1,1,0,1,1,1,1]","location_rts":"[1505,646,625,708,325,809,659,559,840,358,693,527,937,831,1652]","trial_type":"two-door-navigation","trial_index":32,"time_elapsed":541881,"internal_node_id":"0.0-2.0-30.0"},{"group":"hexagon_tri","room_assignment":["blue","purple","green","grey","yellow","red"],"door_color_assignment":["white","black"],"door_generator_assignment":[0,1],"goal":5,"start":4,"action_noise":0.15,"location_history":"[4,0,1,3,4,0,1,3,4,0,1,5]","action_history":"[0,1,1,1,0,1,0,1,1,1,1]","door_history":"[0,1,1,1,0,1,0,1,1,1,1]","location_rts":"[1331,1904,1012,3189,840,545,1117,783,348,1076,1380]","trial_type":"two-door-navigation","trial_index":33,"time_elapsed":570151,"internal_node_id":"0.0-2.0-31.0"},{"group":"hexagon_tri","room_assignment":["blue","purple","green","grey","yellow","red"],"door_color_assignment":["white","black"],"door_generator_assignment":[0,1],"goal":0,"start":5,"action_noise":0.15,"location_history":"[5,0]","action_history":"[1]","door_history":"[1]","location_rts":"[3185]","trial_type":"two-door-navigation","trial_index":34,"time_elapsed":577860,"internal_node_id":"0.0-2.0-32.0"},{"group":"hexagon_tri","room_assignment":["blue","purple","green","grey","yellow","red"],"door_color_assignment":["white","black"],"door_generator_assignment":[0,1],"goal":2,"start":0,"action_noise":0.15,"location_history":"[0,5,4,0,5,0,1,3,2]","action_history":"[0,0,0,0,1,1,0,0]","door_history":"[0,0,0,0,1,1,0,0]","location_rts":"[1705,1152,1168,2042,1016,898,2253,605]","trial_type":"two-door-navigation","trial_index":35,"time_elapsed":600387,"internal_node_id":"0.0-2.0-33.0"},{"group":"hexagon_tri","room_assignment":["blue","purple","green","grey","yellow","red"],"door_color_assignment":["white","black"],"door_generator_assignment":[0,1],"goal":0,"start":2,"action_noise":0.15,"location_history":"[2,3,4,0]","action_history":"[1,0,0]","door_history":"[1,0,0]","location_rts":"[1479,1113,771]","trial_type":"two-door-navigation","trial_index":36,"time_elapsed":610320,"internal_node_id":"0.0-2.0-34.0"},{"group":"hexagon_tri","room_assignment":["blue","purple","green","grey","yellow","red"],"door_color_assignment":["white","black"],"door_generator_assignment":[0,1],"goal":5,"start":0,"action_noise":0.15,"location_history":"[0,1,5]","action_history":"[1,1]","door_history":"[1,1]","location_rts":"[1653,1068]","trial_type":"two-door-navigation","trial_index":37,"time_elapsed":618585,"internal_node_id":"0.0-2.0-35.0"},{"group":"hexagon_tri","room_assignment":["blue","purple","green","grey","yellow","red"],"door_color_assignment":["white","black"],"door_generator_assignment":[0,1],"goal":1,"start":5,"action_noise":0.15,"location_history":"[5,0,5,4,2,3,2,3,2,3,2,1]","action_history":"[1,0,0,1,0,0,1,1,1,0,0]","door_history":"[1,0,0,1,0,0,1,1,1,0,0]","location_rts":"[3554,507,866,795,456,554,489,505,532,687,413]","trial_type":"two-door-navigation","trial_index":38,"time_elapsed":642694,"internal_node_id":"0.0-2.0-36.0"},{"group":"hexagon_tri","room_assignment":["blue","purple","green","grey","yellow","red"],"door_color_assignment":["white","black"],"door_generator_assignment":[0,1],"goal":4,"start":1,"action_noise":0.15,"location_history":"[1,3,2,1,3,4]","action_history":"[1,0,0,1,1]","door_history":"[1,0,0,1,1]","location_rts":"[667,875,511,1197,2102]","trial_type":"two-door-navigation","trial_index":39,"time_elapsed":656666,"internal_node_id":"0.0-2.0-37.0"},{"group":"hexagon_tri","room_assignment":["blue","purple","green","grey","yellow","red"],"door_color_assignment":["white","black"],"door_generator_assignment":[0,1],"goal":3,"start":4,"action_noise":0.15,"location_history":"[4,2,1,3]","action_history":"[1,0,0]","door_history":"[1,0,0]","location_rts":"[1281,821,1877]","trial_type":"two-door-navigation","trial_index":40,"time_elapsed":667212,"internal_node_id":"0.0-2.0-38.0"},{"group":"hexagon_tri","room_assignment":["blue","purple","green","grey","yellow","red"],"door_color_assignment":["white","black"],"door_generator_assignment":[0,1],"goal":5,"start":3,"action_noise":0.15,"location_history":"[3,4,0,1,5]","action_history":"[1,0,1,1]","door_history":"[1,0,1,1]","location_rts":"[1667,664,886,1229]","trial_type":"two-door-navigation","trial_index":41,"time_elapsed":679242,"internal_node_id":"0.0-2.0-39.0"},{"group":"hexagon_tri","room_assignment":["blue","purple","green","grey","yellow","red"],"door_color_assignment":["white","black"],"door_generator_assignment":[0,1],"goal":1,"start":5,"action_noise":0.15,"location_history":"[5,4,2,1]","action_history":"[0,1,0]","door_history":"[0,1,0]","location_rts":"[1839,1419,1118]","trial_type":"two-door-navigation","trial_index":42,"time_elapsed":690185,"internal_node_id":"0.0-2.0-40.0"},{"group":"hexagon_tri","room_assignment":["blue","purple","green","grey","yellow","red"],"door_color_assignment":["white","black"],"door_generator_assignment":[0,1],"goal":2,"start":1,"action_noise":0.15,"location_history":"[1,3,2]","action_history":"[0,0]","door_history":"[0,0]","location_rts":"[1736,595]","trial_type":"two-door-navigation","trial_index":43,"time_elapsed":698064,"internal_node_id":"0.0-2.0-41.0"},{"group":"hexagon_tri","room_assignment":["blue","purple","green","grey","yellow","red"],"door_color_assignment":["white","black"],"door_generator_assignment":[0,1],"goal":4,"start":2,"action_noise":0.15,"location_history":"[2,3,4]","action_history":"[1,1]","door_history":"[1,1]","location_rts":"[1776,895]","trial_type":"two-door-navigation","trial_index":44,"time_elapsed":706276,"internal_node_id":"0.0-2.0-42.0"},{"group":"hexagon_tri","room_assignment":["blue","purple","green","grey","yellow","red"],"door_color_assignment":["white","black"],"door_generator_assignment":[0,1],"goal":0,"start":4,"action_noise":0.15,"location_history":"[4,2,3,4,2,1,5,0]","action_history":"[0,1,1,1,0,1,1]","door_history":"[0,1,1,1,0,1,1]","location_rts":"[1919,608,474,658,851,526,400]","trial_type":"two-door-navigation","trial_index":45,"time_elapsed":722371,"internal_node_id":"0.0-2.0-43.0"},{"group":"hexagon_tri","room_assignment":["blue","purple","green","grey","yellow","red"],"door_color_assignment":["white","black"],"door_generator_assignment":[0,1],"goal":3,"start":0,"action_noise":0.15,"location_history":"[0,1,3]","action_history":"[1,0]","door_history":"[1,0]","location_rts":"[2099,911]","trial_type":"two-door-navigation","trial_index":46,"time_elapsed":730928,"internal_node_id":"0.0-2.0-44.0"},{"group":"hexagon_tri","room_assignment":["blue","purple","green","grey","yellow","red"],"door_color_assignment":["white","black"],"door_generator_assignment":[0,1],"goal":0,"start":3,"action_noise":0.15,"location_history":"[3,2,3,4,0]","action_history":"[0,1,1,0]","door_history":"[0,1,1,0]","location_rts":"[2039,402,670,943]","trial_type":"two-door-navigation","trial_index":47,"time_elapsed":742572,"internal_node_id":"0.0-2.0-45.0"},{"group":"hexagon_tri","room_assignment":["blue","purple","green","grey","yellow","red"],"door_color_assignment":["white","black"],"door_generator_assignment":[0,1],"goal":4,"start":0,"action_noise":0.15,"location_history":"[0,5,4]","action_history":"[0,0]","door_history":"[0,0]","location_rts":"[2453,897]","trial_type":"two-door-navigation","trial_index":48,"time_elapsed":751462,"internal_node_id":"0.0-2.0-46.0"},{"group":"hexagon_tri","room_assignment":["blue","purple","green","grey","yellow","red"],"door_color_assignment":["white","black"],"door_generator_assignment":[0,1],"goal":5,"start":4,"action_noise":0.15,"location_history":"[4,2,3,4,0,1,5]","action_history":"[1,1,0,0,1,1]","door_history":"[1,1,0,0,1,1]","location_rts":"[1939,1275,924,435,657,1098]","trial_type":"two-door-navigation","trial_index":49,"time_elapsed":767410,"internal_node_id":"0.0-2.0-47.0"},{"group":"hexagon_tri","room_assignment":["blue","purple","green","grey","yellow","red"],"door_color_assignment":["white","black"],"door_generator_assignment":[0,1],"goal":2,"start":5,"action_noise":0.15,"location_history":"[5,4,0,1,3,2]","action_history":"[0,0,1,0,0]","door_history":"[0,0,1,0,0]","location_rts":"[2007,1531,1565,799,445]","trial_type":"two-door-navigation","trial_index":50,"time_elapsed":782377,"internal_node_id":"0.0-2.0-48.0"},{"group":"hexagon_tri","room_assignment":["blue","purple","green","grey","yellow","red"],"door_color_assignment":["white","black"],"door_generator_assignment":[0,1],"goal":1,"start":2,"action_noise":0.15,"location_history":"[2,3,4,0,1]","action_history":"[1,1,0,1]","door_history":"[1,1,0,1]","location_rts":"[1411,5400,2035,3690]","trial_type":"two-door-navigation","trial_index":51,"time_elapsed":802502,"internal_node_id":"0.0-2.0-49.0"},{"view_history":"[{\"page_index\":0,\"viewing_time\":12249}]","rt":12249,"trial_type":"instructions","trial_index":52,"time_elapsed":815751,"internal_node_id":"0.0-3.0"},{"view_history":"[{\"page_index\":0,\"viewing_time\":6896},{\"page_index\":1,\"viewing_time\":49596}]","rt":56492,"trial_type":"instructions","trial_index":53,"time_elapsed":873244,"internal_node_id":"0.0-4.0"},{"group":"hexagon_tri","fractal_assignment":["../images/pnk_blu.png","../images/cyn_red.png","../images/org_blu.png","../images/blu_wht.png","../images/gry_blk.png","../images/ylw_slt.png"],"mutagen_generator_assignment":[0,1],"goal":2,"start":1,"action_noise":0.15,"location_history":"[1,5,4,0,5,0,5,0,1,3,4,0,5,0,1,5,4,2]","action_history":"[1,0,0,0,0,0,1,1,0,0,0,1,1,1,1,1,1]","mutagen_history":"[1,0,0,0,0,0,1,1,0,0,0,1,1,1,1,1,1]","location_rts":"[6386,881,718,760,631,800,368,349,755,706,610,525,352,396,637,914,1661]","trial_type":"fractal-mutation","trial_index":54,"time_elapsed":911767,"internal_node_id":"0.0-5.0-0.0"},{"group":"hexagon_tri","fractal_assignment":["../images/pnk_blu.png","../images/cyn_red.png","../images/org_blu.png","../images/blu_wht.png","../images/gry_blk.png","../images/ylw_slt.png"],"mutagen_generator_assignment":[0,1],"goal":0,"start":2,"action_noise":0.15,"location_history":"[2,1,5,0]","action_history":"[1,1,1]","mutagen_history":"[1,1,1]","location_rts":"[18491,1166,534]","trial_type":"fractal-mutation","trial_index":55,"time_elapsed":938564,"internal_node_id":"0.0-5.0-1.0"},{"group":"hexagon_tri","fractal_assignment":["../images/pnk_blu.png","../images/cyn_red.png","../images/org_blu.png","../images/blu_wht.png","../images/gry_blk.png","../images/ylw_slt.png"],"mutagen_generator_assignment":[0,1],"goal":5,"start":0,"action_noise":0.15,"location_history":"[0,5]","action_history":"[0]","mutagen_history":"[0]","location_rts":"[1083]","trial_type":"fractal-mutation","trial_index":56,"time_elapsed":944187,"internal_node_id":"0.0-5.0-2.0"},{"group":"hexagon_tri","fractal_assignment":["../images/pnk_blu.png","../images/cyn_red.png","../images/org_blu.png","../images/blu_wht.png","../images/gry_blk.png","../images/ylw_slt.png"],"mutagen_generator_assignment":[0,1],"goal":1,"start":5,"action_noise":0.15,"location_history":"[5,0,1]","action_history":"[1,1]","mutagen_history":"[1,1]","location_rts":"[3741,781]","trial_type":"fractal-mutation","trial_index":57,"time_elapsed":954286,"internal_node_id":"0.0-5.0-3.0"},{"group":"hexagon_tri","fractal_assignment":["../images/pnk_blu.png","../images/cyn_red.png","../images/org_blu.png","../images/blu_wht.png","../images/gry_blk.png","../images/ylw_slt.png"],"mutagen_generator_assignment":[0,1],"goal":3,"start":1,"action_noise":0.15,"location_history":"[1,5,0,1,3]","action_history":"[1,1,1,0]","mutagen_history":"[1,1,1,0]","location_rts":"[851,409,404,405]","trial_type":"fractal-mutation","trial_index":58,"time_elapsed":963993,"internal_node_id":"0.0-5.0-4.0"},{"group":"hexagon_tri","fractal_assignment":["../images/pnk_blu.png","../images/cyn_red.png","../images/org_blu.png","../images/blu_wht.png","../images/gry_blk.png","../images/ylw_slt.png"],"mutagen_generator_assignment":[0,1],"goal":5,"start":3,"action_noise":0.15,"location_history":"[3,4,2,1,5]","action_history":"[1,1,0,1]","mutagen_history":"[1,1,0,1]","location_rts":"[1679,534,663,398]","trial_type":"fractal-mutation","trial_index":59,"time_elapsed":974900,"internal_node_id":"0.0-5.0-5.0"},{"group":"hexagon_tri","fractal_assignment":["../images/pnk_blu.png","../images/cyn_red.png","../images/org_blu.png","../images/blu_wht.png","../images/gry_blk.png","../images/ylw_slt.png"],"mutagen_generator_assignment":[0,1],"goal":4,"start":5,"action_noise":0.15,"location_history":"[5,0,1,3,2,1,3,2,3,2,1,3,4]","action_history":"[1,1,0,0,0,0,0,0,0,0,0,1]","mutagen_history":"[1,1,0,0,0,0,0,0,0,0,0,1]","location_rts":"[2374,822,1265,648,1277,894,686,759,967,1612,1006,837]","trial_type":"fractal-mutation","trial_index":60,"time_elapsed":1003906,"internal_node_id":"0.0-5.0-6.0"},{"group":"hexagon_tri","fractal_assignment":["../images/pnk_blu.png","../images/cyn_red.png","../images/org_blu.png","../images/blu_wht.png","../images/gry_blk.png","../images/ylw_slt.png"],"mutagen_generator_assignment":[0,1],"goal":0,"start":4,"action_noise":0.15,"location_history":"[4,2,1,5,0]","action_history":"[1,1,1,1]","mutagen_history":"[1,1,1,1]","location_rts":"[901,605,648,619]","trial_type":"fractal-mutation","trial_index":61,"time_elapsed":1014316,"internal_node_id":"0.0-5.0-7.0"},{"group":"hexagon_tri","fractal_assignment":["../images/pnk_blu.png","../images/cyn_red.png","../images/org_blu.png","../images/blu_wht.png","../images/gry_blk.png","../images/ylw_slt.png"],"mutagen_generator_assignment":[0,1],"goal":2,"start":0,"action_noise":0.15,"location_history":"[0,1,3,2]","action_history":"[1,0,0]","mutagen_history":"[1,0,0]","location_rts":"[1715,393,586]","trial_type":"fractal-mutation","trial_index":62,"time_elapsed":1023604,"internal_node_id":"0.0-5.0-8.0"},{"group":"hexagon_tri","fractal_assignment":["../images/pnk_blu.png","../images/cyn_red.png","../images/org_blu.png","../images/blu_wht.png","../images/gry_blk.png","../images/ylw_slt.png"],"mutagen_generator_assignment":[0,1],"goal":4,"start":2,"action_noise":0.15,"location_history":"[2,3,2,3,4]","action_history":"[1,1,1,1]","mutagen_history":"[1,1,1,1]","location_rts":"[1435,761,491,756]","trial_type":"fractal-mutation","trial_index":63,"time_elapsed":1034684,"internal_node_id":"0.0-5.0-9.0"},{"group":"hexagon_tri","fractal_assignment":["../images/pnk_blu.png","../images/cyn_red.png","../images/org_blu.png","../images/blu_wht.png","../images/gry_blk.png","../images/ylw_slt.png"],"mutagen_generator_assignment":[0,1],"goal":2,"start":4,"action_noise":0.15,"location_history":"[4,0,1,5,4,0,5,4,0,5,0,1,5,0,1,3,2]","action_history":"[1,1,1,0,0,0,0,0,0,1,1,1,0,1,1,1]","mutagen_history":"[1,1,1,0,0,0,0,0,0,1,1,1,0,1,1,1]","location_rts":"[918,820,450,375,424,592,603,485,764,587,591,719,291,244,346,322]","trial_type":"fractal-mutation","trial_index":64,"time_elapsed":1063225,"internal_node_id":"0.0-5.0-10.0"},{"group":"hexagon_tri","fractal_assignment":["../images/pnk_blu.png","../images/cyn_red.png","../images/org_blu.png","../images/blu_wht.png","../images/gry_blk.png","../images/ylw_slt.png"],"mutagen_generator_assignment":[0,1],"goal":3,"start":2,"action_noise":0.15,"location_history":"[2,3]","action_history":"[1]","mutagen_history":"[1]","location_rts":"[251]","trial_type":"fractal-mutation","trial_index":65,"time_elapsed":1068017,"internal_node_id":"0.0-5.0-11.0"},{"group":"hexagon_tri","fractal_assignment":["../images/pnk_blu.png","../images/cyn_red.png","../images/org_blu.png","../images/blu_wht.png","../images/gry_blk.png","../images/ylw_slt.png"],"mutagen_generator_assignment":[0,1],"goal":0,"start":3,"action_noise":0.15,"location_history":"[3,4,2,1,3,4,0]","action_history":"[1,1,0,0,1,1]","mutagen_history":"[1,1,0,0,1,1]","location_rts":"[11043,1033,586,637,469,334]","trial_type":"fractal-mutation","trial_index":66,"time_elapsed":1091817,"internal_node_id":"0.0-5.0-12.0"},{"group":"hexagon_tri","fractal_assignment":["../images/pnk_blu.png","../images/cyn_red.png","../images/org_blu.png","../images/blu_wht.png","../images/gry_blk.png","../images/ylw_slt.png"],"mutagen_generator_assignment":[0,1],"goal":5,"start":0,"action_noise":0.15,"location_history":"[0,1,5]","action_history":"[1,1]","mutagen_history":"[1,1]","location_rts":"[1560,593]","trial_type":"fractal-mutation","trial_index":67,"time_elapsed":1099532,"internal_node_id":"0.0-5.0-13.0"},{"group":"hexagon_tri","fractal_assignment":["../images/pnk_blu.png","../images/cyn_red.png","../images/org_blu.png","../images/blu_wht.png","../images/gry_blk.png","../images/ylw_slt.png"],"mutagen_generator_assignment":[0,1],"goal":1,"start":5,"action_noise":0.15,"location_history":"[5,4,0,1]","action_history":"[0,0,0]","mutagen_history":"[0,0,0]","location_rts":"[4358,542,544]","trial_type":"fractal-mutation","trial_index":68,"time_elapsed":1111569,"internal_node_id":"0.0-5.0-14.0"},{"group":"hexagon_tri","fractal_assignment":["../images/pnk_blu.png","../images/cyn_red.png","../images/org_blu.png","../images/blu_wht.png","../images/gry_blk.png","../images/ylw_slt.png"],"mutagen_generator_assignment":[0,1],"goal":5,"start":1,"action_noise":0.15,"location_history":"[1,5]","action_history":"[1]","mutagen_history":"[1]","location_rts":"[3733]","trial_type":"fractal-mutation","trial_index":69,"time_elapsed":1119837,"internal_node_id":"0.0-5.0-15.0"},{"group":"hexagon_tri","fractal_assignment":["../images/pnk_blu.png","../images/cyn_red.png","../images/org_blu.png","../images/blu_wht.png","../images/gry_blk.png","../images/ylw_slt.png"],"mutagen_generator_assignment":[0,1],"goal":3,"start":5,"action_noise":0.15,"location_history":"[5,0,1,5,4,0,1,5,0,1,5,0,1,3]","action_history":"[0,1,1,1,0,1,1,1,1,1,1,0,0]","mutagen_history":"[0,1,1,1,0,1,1,1,1,1,1,0,0]","location_rts":"[1212,443,393,407,655,465,366,1063,534,2709,625,404,566]","trial_type":"fractal-mutation","trial_index":70,"time_elapsed":1146600,"internal_node_id":"0.0-5.0-16.0"},{"group":"hexagon_tri","fractal_assignment":["../images/pnk_blu.png","../images/cyn_red.png","../images/org_blu.png","../images/blu_wht.png","../images/gry_blk.png","../images/ylw_slt.png"],"mutagen_generator_assignment":[0,1],"goal":2,"start":3,"action_noise":0.15,"location_history":"[3,2]","action_history":"[0]","mutagen_history":"[0]","location_rts":"[1369]","trial_type":"fractal-mutation","trial_index":71,"time_elapsed":1152509,"internal_node_id":"0.0-5.0-17.0"},{"group":"hexagon_tri","fractal_assignment":["../images/pnk_blu.png","../images/cyn_red.png","../images/org_blu.png","../images/blu_wht.png","../images/gry_blk.png","../images/ylw_slt.png"],"mutagen_generator_assignment":[0,1],"goal":1,"start":2,"action_noise":0.15,"location_history":"[2,1]","action_history":"[0]","mutagen_history":"[0]","location_rts":"[999]","trial_type":"fractal-mutation","trial_index":72,"time_elapsed":1158042,"internal_node_id":"0.0-5.0-18.0"},{"group":"hexagon_tri","fractal_assignment":["../images/pnk_blu.png","../images/cyn_red.png","../images/org_blu.png","../images/blu_wht.png","../images/gry_blk.png","../images/ylw_slt.png"],"mutagen_generator_assignment":[0,1],"goal":4,"start":1,"action_noise":0.15,"location_history":"[1,3,2,1,5,0,5,4]","action_history":"[0,0,0,1,1,0,0]","mutagen_history":"[0,0,0,1,1,0,0]","location_rts":"[1102,1025,637,443,498,659,558]","trial_type":"fractal-mutation","trial_index":73,"time_elapsed":1173684,"internal_node_id":"0.0-5.0-19.0"},{"group":"hexagon_tri","fractal_assignment":["../images/pnk_blu.png","../images/cyn_red.png","../images/org_blu.png","../images/blu_wht.png","../images/gry_blk.png","../images/ylw_slt.png"],"mutagen_generator_assignment":[0,1],"goal":0,"start":4,"action_noise":0.15,"location_history":"[4,0]","action_history":"[1]","mutagen_history":"[1]","location_rts":"[1089]","trial_type":"fractal-mutation","trial_index":74,"time_elapsed":1179316,"internal_node_id":"0.0-5.0-20.0"},{"group":"hexagon_tri","fractal_assignment":["../images/pnk_blu.png","../images/cyn_red.png","../images/org_blu.png","../images/blu_wht.png","../images/gry_blk.png","../images/ylw_slt.png"],"mutagen_generator_assignment":[0,1],"goal":3,"start":0,"action_noise":0.15,"location_history":"[0,1,5,4,2,3]","action_history":"[1,0,0,1,1]","mutagen_history":"[1,0,0,1,1]","location_rts":"[1592,771,784,443,458]","trial_type":"fractal-mutation","trial_index":75,"time_elapsed":1192032,"internal_node_id":"0.0-5.0-21.0"},{"group":"hexagon_tri","fractal_assignment":["../images/pnk_blu.png","../images/cyn_red.png","../images/org_blu.png","../images/blu_wht.png","../images/gry_blk.png","../images/ylw_slt.png"],"mutagen_generator_assignment":[0,1],"goal":1,"start":3,"action_noise":0.15,"location_history":"[3,2,3,2,1]","action_history":"[0,1,0,0]","mutagen_history":"[0,1,0,0]","location_rts":"[1443,1332,617,289]","trial_type":"fractal-mutation","trial_index":76,"time_elapsed":1203340,"internal_node_id":"0.0-5.0-22.0"},{"group":"hexagon_tri","fractal_assignment":["../images/pnk_blu.png","../images/cyn_red.png","../images/org_blu.png","../images/blu_wht.png","../images/gry_blk.png","../images/ylw_slt.png"],"mutagen_generator_assignment":[0,1],"goal":0,"start":1,"action_noise":0.15,"location_history":"[1,5,0]","action_history":"[1,1]","mutagen_history":"[1,1]","location_rts":"[1537,562]","trial_type":"fractal-mutation","trial_index":77,"time_elapsed":1211007,"internal_node_id":"0.0-5.0-23.0"},{"group":"hexagon_tri","fractal_assignment":["../images/pnk_blu.png","../images/cyn_red.png","../images/org_blu.png","../images/blu_wht.png","../images/gry_blk.png","../images/ylw_slt.png"],"mutagen_generator_assignment":[0,1],"goal":2,"start":0,"action_noise":0.15,"location_history":"[0,1,3,4,2]","action_history":"[0,0,1,1]","mutagen_history":"[0,0,1,1]","location_rts":"[910,713,766,396]","trial_type":"fractal-mutation","trial_index":78,"time_elapsed":1221412,"internal_node_id":"0.0-5.0-24.0"},{"group":"hexagon_tri","fractal_assignment":["../images/pnk_blu.png","../images/cyn_red.png","../images/org_blu.png","../images/blu_wht.png","../images/gry_blk.png","../images/ylw_slt.png"],"mutagen_generator_assignment":[0,1],"goal":4,"start":2,"action_noise":0.15,"location_history":"[2,3,4]","action_history":"[1,1]","mutagen_history":"[1,1]","location_rts":"[902,649]","trial_type":"fractal-mutation","trial_index":79,"time_elapsed":1228543,"internal_node_id":"0.0-5.0-25.0"},{"group":"hexagon_tri","fractal_assignment":["../images/pnk_blu.png","../images/cyn_red.png","../images/org_blu.png","../images/blu_wht.png","../images/gry_blk.png","../images/ylw_slt.png"],"mutagen_generator_assignment":[0,1],"goal":5,"start":4,"action_noise":0.15,"location_history":"[4,0,5]","action_history":"[0,0]","mutagen_history":"[0,0]","location_rts":"[981,818]","trial_type":"fractal-mutation","trial_index":80,"time_elapsed":1235909,"internal_node_id":"0.0-5.0-26.0"},{"group":"hexagon_tri","fractal_assignment":["../images/pnk_blu.png","../images/cyn_red.png","../images/org_blu.png","../images/blu_wht.png","../images/gry_blk.png","../images/ylw_slt.png"],"mutagen_generator_assignment":[0,1],"goal":2,"start":5,"action_noise":0.15,"location_history":"[5,0,1,3,2]","action_history":"[1,1,0,0]","mutagen_history":"[1,1,0,0]","location_rts":"[785,682,290,558]","trial_type":"fractal-mutation","trial_index":81,"time_elapsed":1245853,"internal_node_id":"0.0-5.0-27.0"},{"group":"hexagon_tri","fractal_assignment":["../images/pnk_blu.png","../images/cyn_red.png","../images/org_blu.png","../images/blu_wht.png","../images/gry_blk.png","../images/ylw_slt.png"],"mutagen_generator_assignment":[0,1],"goal":3,"start":2,"action_noise":0.15,"location_history":"[2,1,5,4,2,3]","action_history":"[0,0,1,1,1]","mutagen_history":"[0,0,1,1,1]","location_rts":"[2756,648,373,410,355]","trial_type":"fractal-mutation","trial_index":82,"time_elapsed":1259076,"internal_node_id":"0.0-5.0-28.0"},{"group":"hexagon_tri","fractal_assignment":["../images/pnk_blu.png","../images/cyn_red.png","../images/org_blu.png","../images/blu_wht.png","../images/gry_blk.png","../images/ylw_slt.png"],"mutagen_generator_assignment":[0,1],"goal":1,"start":3,"action_noise":0.15,"location_history":"[3,2,3,2,3,4,2,3,2,1]","action_history":"[0,0,0,1,1,1,1,0,0]","mutagen_history":"[0,0,0,1,1,1,1,0,0]","location_rts":"[952,601,628,426,509,462,440,448,614]","trial_type":"fractal-mutation","trial_index":83,"time_elapsed":1276937,"internal_node_id":"0.0-5.0-29.0"},{"group":"hexagon_tri","fractal_assignment":["../images/pnk_blu.png","../images/cyn_red.png","../images/org_blu.png","../images/blu_wht.png","../images/gry_blk.png","../images/ylw_slt.png"],"mutagen_generator_assignment":[0,1],"goal":4,"start":1,"action_noise":0.15,"location_history":"[1,3,4]","action_history":"[1,1]","mutagen_history":"[1,1]","location_rts":"[1096,538]","trial_type":"fractal-mutation","trial_index":84,"time_elapsed":1284144,"internal_node_id":"0.0-5.0-30.0"},{"group":"hexagon_tri","fractal_assignment":["../images/pnk_blu.png","../images/cyn_red.png","../images/org_blu.png","../images/blu_wht.png","../images/gry_blk.png","../images/ylw_slt.png"],"mutagen_generator_assignment":[0,1],"goal":5,"start":4,"action_noise":0.15,"location_history":"[4,2,3,2,1,3,2,1,5]","action_history":"[1,1,0,0,1,0,0,0]","mutagen_history":"[1,1,0,0,1,0,0,0]","location_rts":"[1400,444,275,374,933,595,296,1195]","trial_type":"fractal-mutation","trial_index":85,"time_elapsed":1301413,"internal_node_id":"0.0-5.0-31.0"},{"group":"hexagon_tri","fractal_assignment":["../images/pnk_blu.png","../images/cyn_red.png","../images/org_blu.png","../images/blu_wht.png","../images/gry_blk.png","../images/ylw_slt.png"],"mutagen_generator_assignment":[0,1],"goal":0,"start":5,"action_noise":0.15,"location_history":"[5,0]","action_history":"[1]","mutagen_history":"[1]","location_rts":"[2455]","trial_type":"fractal-mutation","trial_index":86,"time_elapsed":1308402,"internal_node_id":"0.0-5.0-32.0"},{"group":"hexagon_tri","fractal_assignment":["../images/pnk_blu.png","../images/cyn_red.png","../images/org_blu.png","../images/blu_wht.png","../images/gry_blk.png","../images/ylw_slt.png"],"mutagen_generator_assignment":[0,1],"goal":2,"start":0,"action_noise":0.15,"location_history":"[0,1,3,4,0,5,0,5,0,5,4,2]","action_history":"[1,0,0,0,0,1,1,1,0,0,1]","mutagen_history":"[1,0,0,0,0,1,1,1,0,0,1]","location_rts":"[821,529,464,427,529,401,520,687,196,401,316]","trial_type":"fractal-mutation","trial_index":87,"time_elapsed":1328535,"internal_node_id":"0.0-5.0-33.0"},{"group":"hexagon_tri","fractal_assignment":["../images/pnk_blu.png","../images/cyn_red.png","../images/org_blu.png","../images/blu_wht.png","../images/gry_blk.png","../images/ylw_slt.png"],"mutagen_generator_assignment":[0,1],"goal":0,"start":2,"action_noise":0.15,"location_history":"[2,3,2,1,3,4,2,3,4,0]","action_history":"[1,1,0,0,1,1,1,1,0]","mutagen_history":"[1,1,0,0,1,1,1,1,0]","location_rts":"[976,595,525,489,645,309,391,917,302]","trial_type":"fractal-mutation","trial_index":88,"time_elapsed":1346482,"internal_node_id":"0.0-5.0-34.0"},{"group":"hexagon_tri","fractal_assignment":["../images/pnk_blu.png","../images/cyn_red.png","../images/org_blu.png","../images/blu_wht.png","../images/gry_blk.png","../images/ylw_slt.png"],"mutagen_generator_assignment":[0,1],"goal":5,"start":0,"action_noise":0.15,"location_history":"[0,1,5]","action_history":"[1,1]","mutagen_history":"[1,1]","location_rts":"[900,806]","trial_type":"fractal-mutation","trial_index":89,"time_elapsed":1353765,"internal_node_id":"0.0-5.0-35.0"},{"group":"hexagon_tri","fractal_assignment":["../images/pnk_blu.png","../images/cyn_red.png","../images/org_blu.png","../images/blu_wht.png","../images/gry_blk.png","../images/ylw_slt.png"],"mutagen_generator_assignment":[0,1],"goal":1,"start":5,"action_noise":0.15,"location_history":"[5,0,1]","action_history":"[1,0]","mutagen_history":"[1,0]","location_rts":"[877,567]","trial_type":"fractal-mutation","trial_index":90,"time_elapsed":1360782,"internal_node_id":"0.0-5.0-36.0"},{"group":"hexagon_tri","fractal_assignment":["../images/pnk_blu.png","../images/cyn_red.png","../images/org_blu.png","../images/blu_wht.png","../images/gry_blk.png","../images/ylw_slt.png"],"mutagen_generator_assignment":[0,1],"goal":4,"start":1,"action_noise":0.15,"location_history":"[1,3,4]","action_history":"[0,1]","mutagen_history":"[0,1]","location_rts":"[1129,539]","trial_type":"fractal-mutation","trial_index":91,"time_elapsed":1368016,"internal_node_id":"0.0-5.0-37.0"},{"group":"hexagon_tri","fractal_assignment":["../images/pnk_blu.png","../images/cyn_red.png","../images/org_blu.png","../images/blu_wht.png","../images/gry_blk.png","../images/ylw_slt.png"],"mutagen_generator_assignment":[0,1],"goal":3,"start":4,"action_noise":0.15,"location_history":"[4,2,1,5,4,0,5,0,1,5,4,0,5,4,2,3]","action_history":"[1,1,1,0,0,0,1,1,1,0,0,0,0,1,1]","mutagen_history":"[1,1,1,0,0,0,1,1,1,0,0,0,0,1,1]","location_rts":"[1029,434,1368,503,639,556,392,1293,548,383,480,558,425,479,494]","trial_type":"fractal-mutation","trial_index":92,"time_elapsed":1396587,"internal_node_id":"0.0-5.0-38.0"},{"group":"hexagon_tri","fractal_assignment":["../images/pnk_blu.png","../images/cyn_red.png","../images/org_blu.png","../images/blu_wht.png","../images/gry_blk.png","../images/ylw_slt.png"],"mutagen_generator_assignment":[0,1],"goal":5,"start":3,"action_noise":0.15,"location_history":"[3,2,3,2,1,5]","action_history":"[1,0,0,0,1]","mutagen_history":"[1,0,0,0,1]","location_rts":"[11243,335,580,346,613]","trial_type":"fractal-mutation","trial_index":93,"time_elapsed":1418363,"internal_node_id":"0.0-5.0-39.0"},{"group":"hexagon_tri","fractal_assignment":["../images/pnk_blu.png","../images/cyn_red.png","../images/org_blu.png","../images/blu_wht.png","../images/gry_blk.png","../images/ylw_slt.png"],"mutagen_generator_assignment":[0,1],"goal":1,"start":5,"action_noise":0.15,"location_history":"[5,0,1]","action_history":"[1,0]","mutagen_history":"[1,0]","location_rts":"[1440,468]","trial_type":"fractal-mutation","trial_index":94,"time_elapsed":1425850,"internal_node_id":"0.0-5.0-40.0"},{"group":"hexagon_tri","fractal_assignment":["../images/pnk_blu.png","../images/cyn_red.png","../images/org_blu.png","../images/blu_wht.png","../images/gry_blk.png","../images/ylw_slt.png"],"mutagen_generator_assignment":[0,1],"goal":2,"start":1,"action_noise":0.15,"location_history":"[1,3,4,0,1,5,4,0,5,0,1,5,4,2]","action_history":"[0,1,0,0,0,0,0,0,1,1,1,0,0]","mutagen_history":"[0,1,0,0,0,0,0,0,1,1,1,0,0]","location_rts":"[3629,57,428,518,589,705,629,491,619,724,651,550,709]","trial_type":"fractal-mutation","trial_index":95,"time_elapsed":1453034,"internal_node_id":"0.0-5.0-41.0"},{"group":"hexagon_tri","fractal_assignment":["../images/pnk_blu.png","../images/cyn_red.png","../images/org_blu.png","../images/blu_wht.png","../images/gry_blk.png","../images/ylw_slt.png"],"mutagen_generator_assignment":[0,1],"goal":4,"start":2,"action_noise":0.15,"location_history":"[2,3,2,1,3,4]","action_history":"[1,0,0,0,1]","mutagen_history":"[1,0,0,0,1]","location_rts":"[2161,458,400,845,711]","trial_type":"fractal-mutation","trial_index":96,"time_elapsed":1466272,"internal_node_id":"0.0-5.0-42.0"},{"group":"hexagon_tri","fractal_assignment":["../images/pnk_blu.png","../images/cyn_red.png","../images/org_blu.png","../images/blu_wht.png","../images/gry_blk.png","../images/ylw_slt.png"],"mutagen_generator_assignment":[0,1],"goal":0,"start":4,"action_noise":0.15,"location_history":"[4,0]","action_history":"[1]","mutagen_history":"[1]","location_rts":"[3560]","trial_type":"fractal-mutation","trial_index":97,"time_elapsed":1474373,"internal_node_id":"0.0-5.0-43.0"},{"group":"hexagon_tri","fractal_assignment":["../images/pnk_blu.png","../images/cyn_red.png","../images/org_blu.png","../images/blu_wht.png","../images/gry_blk.png","../images/ylw_slt.png"],"mutagen_generator_assignment":[0,1],"goal":3,"start":0,"action_noise":0.15,"location_history":"[0,5,0,1,5,4,0,1,5,0,5,4,2,3]","action_history":"[0,1,1,1,0,0,1,1,1,0,1,1,1]","mutagen_history":"[0,1,1,1,0,0,1,1,1,0,1,1,1]","location_rts":"[2674,560,427,1252,393,505,411,340,402,805,397,64,631]","trial_type":"fractal-mutation","trial_index":98,"time_elapsed":1500142,"internal_node_id":"0.0-5.0-44.0"},{"group":"hexagon_tri","fractal_assignment":["../images/pnk_blu.png","../images/cyn_red.png","../images/org_blu.png","../images/blu_wht.png","../images/gry_blk.png","../images/ylw_slt.png"],"mutagen_generator_assignment":[0,1],"goal":0,"start":3,"action_noise":0.15,"location_history":"[3,2,1,5,0]","action_history":"[0,0,1,1]","mutagen_history":"[0,0,1,1]","location_rts":"[2084,714,663,628]","trial_type":"fractal-mutation","trial_index":99,"time_elapsed":1511862,"internal_node_id":"0.0-5.0-45.0"},{"group":"hexagon_tri","fractal_assignment":["../images/pnk_blu.png","../images/cyn_red.png","../images/org_blu.png","../images/blu_wht.png","../images/gry_blk.png","../images/ylw_slt.png"],"mutagen_generator_assignment":[0,1],"goal":4,"start":0,"action_noise":0.15,"location_history":"[0,1,5,0,1,3,2,1,5,4]","action_history":"[1,1,1,1,0,0,0,1,0]","mutagen_history":"[1,1,1,1,0,0,0,1,0]","location_rts":"[1091,817,680,726,679,657,519,536,568]","trial_type":"fractal-mutation","trial_index":100,"time_elapsed":1530924,"internal_node_id":"0.0-5.0-46.0"},{"group":"hexagon_tri","fractal_assignment":["../images/pnk_blu.png","../images/cyn_red.png","../images/org_blu.png","../images/blu_wht.png","../images/gry_blk.png","../images/ylw_slt.png"],"mutagen_generator_assignment":[0,1],"goal":5,"start":4,"action_noise":0.15,"location_history":"[4,2,3,4,0,1,3,4,2,3,4,0,1,5]","action_history":"[1,1,1,0,1,1,1,1,1,0,0,1,1]","mutagen_history":"[1,1,1,0,1,1,1,1,1,0,0,1,1]","location_rts":"[1261,673,554,991,496,353,623,611,562,330,488,593,646]","trial_type":"fractal-mutation","trial_index":101,"time_elapsed":1556037,"internal_node_id":"0.0-5.0-47.0"},{"group":"hexagon_tri","fractal_assignment":["../images/pnk_blu.png","../images/cyn_red.png","../images/org_blu.png","../images/blu_wht.png","../images/gry_blk.png","../images/ylw_slt.png"],"mutagen_generator_assignment":[0,1],"goal":2,"start":5,"action_noise":0.15,"location_history":"[5,4,0,1,5,4,0,1,3,2]","action_history":"[0,0,1,1,0,0,0,0,0]","mutagen_history":"[0,0,1,1,0,0,0,0,0]","location_rts":"[713,483,435,494,409,25,405,384,443]","trial_type":"fractal-mutation","trial_index":102,"time_elapsed":1572617,"internal_node_id":"0.0-5.0-48.0"},{"group":"hexagon_tri","fractal_assignment":["../images/pnk_blu.png","../images/cyn_red.png","../images/org_blu.png","../images/blu_wht.png","../images/gry_blk.png","../images/ylw_slt.png"],"mutagen_generator_assignment":[0,1],"goal":1,"start":2,"action_noise":0.15,"location_history":"[2,3,2,1]","action_history":"[1,0,0]","mutagen_history":"[1,0,0]","location_rts":"[1124,466,579]","trial_type":"fractal-mutation","trial_index":103,"time_elapsed":1581380,"internal_node_id":"0.0-5.0-49.0"},{"view_history":"[{\"page_index\":0,\"viewing_time\":2549}]","rt":2550,"trial_type":"instructions","trial_index":104,"time_elapsed":1584930,"internal_node_id":"0.0-6.0"},{"rt":28790,"responses":"{\"Q0\":\"To see if people could remember which doors led to which colors.\"}","trial_type":"survey-text","trial_index":105,"time_elapsed":1614724,"internal_node_id":"0.0-7.0-0.0"},{"rt":63897,"responses":"{\"Q0\":\"To see if you could remember which if you needed acid or gamma ray to get to the right answer.\"}","trial_type":"survey-text","trial_index":106,"time_elapsed":1679624,"internal_node_id":"0.0-7.0-1.0"},{"rt":51238,"responses":"{\"Q0\":\"<img src='../images/diagrams/hexagon_tri.png'>\"}","trial_type":"survey-multi-choice","trial_index":107,"time_elapsed":1731867,"internal_node_id":"0.0-7.0-2.0"},{"rt":106132,"assignments":["../images/pnk_blu.png","../images/ylw_slt.png","../images/cyn_red.png","../images/blu_wht.png","../images/gry_blk.png","../images/org_blu.png"],"trial_type":"drag-drop-on-image","trial_index":108,"time_elapsed":1839003,"internal_node_id":"0.0-7.0-3.0"},{"rt":11794,"responses":"{\"Q0\":\"3\"}","trial_type":"survey-likert","trial_index":109,"time_elapsed":1851800,"internal_node_id":"0.0-7.0-4.0"},{"rt":86311,"responses":"{\"Q0\":\"I noticed that I was trying to focus on remembering what would happen if I picked the white or black door, and also what would happen if I were to push acid or gamma ray. It was a matter of trying to figure out the solution and then when the \\\"haunted\\\" part happened or the \\\"mutation\\\" you had to think what the whole puzzle could be.\"}","trial_type":"survey-text","trial_index":110,"time_elapsed":1939118,"internal_node_id":"0.0-7.0-5.0"},{"rt":12105,"responses":"{\"Q0\":\"Yes\"}","trial_type":"survey-multi-choice","trial_index":111,"time_elapsed":1952225,"internal_node_id":"0.0-7.0-6.0"},{"rt":19492,"responses":"{\"Q0\":\"During session 1\"}","trial_type":"survey-multi-choice","trial_index":112,"time_elapsed":1972722,"internal_node_id":"0.0-7.0-7.0"},{"rt":40803,"responses":"{\"Q0\":\"I feel like both studies were very similar in the way that you had to remember the patterns and what goes to where.\"}","trial_type":"survey-text","trial_index":113,"time_elapsed":2014529,"internal_node_id":"0.0-7.0-8.0"},{"rt":7794,"responses":"{\"Q0\":\"2\"}","trial_type":"survey-likert","trial_index":114,"time_elapsed":2023326,"internal_node_id":"0.0-7.0-9.0"},{"rt":21974,"responses":"{\"Q0\":\"Same structure\"}","trial_type":"survey-multi-choice","trial_index":115,"time_elapsed":2046302,"internal_node_id":"0.0-7.0-10.0"},{"rt":112484,"responses":"{\"Q0\":\"left (white) door = acid, right (black) door = ray\",\"Q1\":\"Slightly confident\"}","trial_type":"survey-multi-choice","trial_index":116,"time_elapsed":2159791,"internal_node_id":"0.0-7.0-11.0"},{"rt":18084,"responses":"{\"Q0\":\"25-35\",\"Q1\":\"High school degree or GED\",\"Q2\":\"Female\",\"Q3\":\"White\"}","trial_type":"survey-multi-choice","trial_index":117,"time_elapsed":2178884,"internal_node_id":"0.0-8.0"},{"rt":5065,"responses":"{\"Q0\":\"no\"}","trial_type":"survey-text","trial_index":118,"time_elapsed":2184952,"internal_node_id":"0.0-9.0"}]