[{"view_history":"[{\"page_index\":0,\"viewing_time\":50936},{\"page_index\":1,\"viewing_time\":15663}]","rt":66600,"trial_type":"instructions","trial_index":0,"time_elapsed":66600,"internal_node_id":"0.0-0.0"},{"view_history":"[{\"page_index\":0,\"viewing_time\":2455},{\"page_index\":1,\"viewing_time\":23971}]","rt":26426,"trial_type":"instructions","trial_index":1,"time_elapsed":94029,"internal_node_id":"0.0-1.0"},{"group":"hexagon_tri","room_assignment":["green","grey","blue","red","purple","yellow"],"door_color_assignment":["black","white"],"door_generator_assignment":[0,1],"goal":2,"start":1,"action_noise":0.15,"location_history":"[1,5,0,5,0,5,4,0,1,5,0,1,5,0,1,5,4,2]","action_history":"[0,0,0,0,0,0,0,1,1,1,1,1,1,1,1,1,1]","door_history":"[0,0,0,0,0,0,0,1,1,1,1,1,1,1,1,1,1]","location_rts":"[2723,1600,1614,1553,1509,828,4022,1369,959,676,663,766,727,529,2217,657,477]","trial_type":"two-door-navigation","trial_index":2,"time_elapsed":137901,"internal_node_id":"0.0-2.0-0.0"},{"group":"hexagon_tri","room_assignment":["green","grey","blue","red","purple","yellow"],"door_color_assignment":["black","white"],"door_generator_assignment":[0,1],"goal":0,"start":2,"action_noise":0.15,"location_history":"[2,3,4,2,3,4,2,1,3,4,0]","action_history":"[1,1,1,1,1,1,0,0,0,0]","door_history":"[1,1,1,1,1,1,0,0,0,0]","location_rts":"[2972,887,960,2046,9340,2824,2519,807,661,737]","trial_type":"two-door-navigation","trial_index":3,"time_elapsed":175437,"internal_node_id":"0.0-2.0-1.0"},{"group":"hexagon_tri","room_assignment":["green","grey","blue","red","purple","yellow"],"door_color_assignment":["black","white"],"door_generator_assignment":[0,1],"goal":5,"start":0,"action_noise":0.15,"location_history":"[0,5]","action_history":"[1]","door_history":"[1]","location_rts":"[2547]","trial_type":"two-door-navigation","trial_index":4,"time_elapsed":182518,"internal_node_id":"0.0-2.0-2.0"},{"group":"hexagon_tri","room_assignment":["green","grey","blue","red","purple","yellow"],"door_color_assignment":["black","white"],"door_generator_assignment":[0,1],"goal":1,"start":5,"action_noise":0.15,"location_history":"[5,4,2,3,2,1]","action_history":"[1,1,1,1,0]","door_history":"[1,1,1,1,0]","location_rts":"[1980,618,584,597,444]","trial_type":"two-door-navigation","trial_index":5,"time_elapsed":195377,"internal_node_id":"0.0-2.0-3.0"},{"group":"hexagon_tri","room_assignment":["green","grey","blue","red","purple","yellow"],"door_color_assignment":["black","white"],"door_generator_assignment":[0,1],"goal":3,"start":1,"action_noise":0.15,"location_history":"[1,5,0,5,4,0,5,4,2,3]","action_history":"[1,1,0,0,0,0,0,0,1]","door_history":"[1,1,0,0,0,0,0,0,1]","location_rts":"[1311,2437,1033,731,804,1243,685,696,519]","trial_type":"two-door-navigation","trial_index":6,"time_elapsed":217573,"internal_node_id":"0.0-2.0-4.0"},{"group":"hexagon_tri","room_assignment":["green","grey","blue","red","purple","yellow"],"door_color_assignment":["black","white"],"door_generator_assignment":[0,1],"goal":5,"start":3,"action_noise":0.15,"location_history":"[3,4,0,1,5]","action_history":"[1,1,1,1]","door_history":"[1,1,1,1]","location_rts":"[1113,663,706,574]","trial_type":"two-door-navigation","trial_index":7,"time_elapsed":228238,"internal_node_id":"0.0-2.0-5.0"},{"group":"hexagon_tri","room_assignment":["green","grey","blue","red","purple","yellow"],"door_color_assignment":["black","white"],"door_generator_assignment":[0,1],"goal":4,"start":5,"action_noise":0.15,"location_history":"[5,0,1,5,4]","action_history":"[1,1,1,1]","door_history":"[1,1,1,1]","location_rts":"[944,627,2350,1494]","trial_type":"two-door-navigation","trial_index":8,"time_elapsed":241255,"internal_node_id":"0.0-2.0-6.0"},{"group":"hexagon_tri","room_assignment":["green","grey","blue","red","purple","yellow"],"door_color_assignment":["black","white"],"door_generator_assignment":[0,1],"goal":0,"start":4,"action_noise":0.15,"location_history":"[4,2,1,3,2,3,4,2,1,5,4,2,3,2,3,2,1,5,0]","action_history":"[0,0,0,0,1,1,1,1,1,1,1,1,0,0,0,0,1,1]","door_history":"[0,0,0,0,1,1,1,1,1,1,1,1,0,0,0,0,1,1]","location_rts":"[2057,715,519,774,519,532,406,565,9884,401,750,534,1069,683,662,471,568,551]","trial_type":"two-door-navigation","trial_index":9,"time_elapsed":284912,"internal_node_id":"0.0-2.0-7.0"},{"group":"hexagon_tri","room_assignment":["green","grey","blue","red","purple","yellow"],"door_color_assignment":["black","white"],"door_generator_assignment":[0,1],"goal":2,"start":0,"action_noise":0.15,"location_history":"[0,1,5,0,1,5,0,5,0,1,5,4,2]","action_history":"[1,1,1,1,1,1,1,1,1,1,0,0]","door_history":"[1,1,1,1,1,1,1,1,1,1,0,0]","location_rts":"[13484,881,678,664,1307,615,452,659,635,494,1167,6303]","trial_type":"two-door-navigation","trial_index":10,"time_elapsed":328079,"internal_node_id":"0.0-2.0-8.0"},{"group":"hexagon_tri","room_assignment":["green","grey","blue","red","purple","yellow"],"door_color_assignment":["black","white"],"door_generator_assignment":[0,1],"goal":4,"start":2,"action_noise":0.15,"location_history":"[2,1,3,2,1,3,2,1,3,4]","action_history":"[0,0,0,0,0,0,0,0,0]","door_history":"[0,0,0,0,0,0,0,0,0]","location_rts":"[2715,4342,3649,3769,2371,1261,1649,920,1559]","trial_type":"two-door-navigation","trial_index":11,"time_elapsed":363063,"internal_node_id":"0.0-2.0-9.0"},{"group":"hexagon_tri","room_assignment":["green","grey","blue","red","purple","yellow"],"door_color_assignment":["black","white"],"door_generator_assignment":[0,1],"goal":2,"start":4,"action_noise":0.15,"location_history":"[4,2]","action_history":"[0]","door_history":"[0]","location_rts":"[7349]","trial_type":"two-door-navigation","trial_index":12,"time_elapsed":374948,"internal_node_id":"0.0-2.0-10.0"},{"group":"hexagon_tri","room_assignment":["green","grey","blue","red","purple","yellow"],"door_color_assignment":["black","white"],"door_generator_assignment":[0,1],"goal":3,"start":2,"action_noise":0.15,"location_history":"[2,3]","action_history":"[0]","door_history":"[0]","location_rts":"[4811]","trial_type":"two-door-navigation","trial_index":13,"time_elapsed":384291,"internal_node_id":"0.0-2.0-11.0"},{"group":"hexagon_tri","room_assignment":["green","grey","blue","red","purple","yellow"],"door_color_assignment":["black","white"],"door_generator_assignment":[0,1],"goal":0,"start":3,"action_noise":0.15,"location_history":"[3,4,2,3,4,2,3,4,2,3,4,2,1,3,4,2,1,3,4,0]","action_history":"[1,1,1,1,1,1,1,1,1,1,0,0,1,1,1,0,0,0,0]","door_history":"[1,1,1,1,1,1,1,1,1,1,0,0,1,1,1,0,0,0,0]","location_rts":"[9174,1163,1077,4482,7893,16849,11539,4387,1174,5488,1139,4077,5441,705,737,1412,944,4472,552]","trial_type":"two-door-navigation","trial_index":14,"time_elapsed":489992,"internal_node_id":"0.0-2.0-12.0"},{"group":"hexagon_tri","room_assignment":["green","grey","blue","red","purple","yellow"],"door_color_assignment":["black","white"],"door_generator_assignment":[0,1],"goal":5,"start":0,"action_noise":0.15,"location_history":"[0,1,5]","action_history":"[1,1]","door_history":"[1,1]","location_rts":"[4985,632]","trial_type":"two-door-navigation","trial_index":15,"time_elapsed":501173,"internal_node_id":"0.0-2.0-13.0"},{"group":"hexagon_tri","room_assignment":["green","grey","blue","red","purple","yellow"],"door_color_assignment":["black","white"],"door_generator_assignment":[0,1],"goal":1,"start":5,"action_noise":0.15,"location_history":"[5,0,1]","action_history":"[1,1]","door_history":"[1,1]","location_rts":"[1850,463]","trial_type":"two-door-navigation","trial_index":16,"time_elapsed":509043,"internal_node_id":"0.0-2.0-14.0"},{"group":"hexagon_tri","room_assignment":["green","grey","blue","red","purple","yellow"],"door_color_assignment":["black","white"],"door_generator_assignment":[0,1],"goal":5,"start":1,"action_noise":0.15,"location_history":"[1,5]","action_history":"[1]","door_history":"[1]","location_rts":"[7644]","trial_type":"two-door-navigation","trial_index":17,"time_elapsed":521224,"internal_node_id":"0.0-2.0-15.0"},{"group":"hexagon_tri","room_assignment":["green","grey","blue","red","purple","yellow"],"door_color_assignment":["black","white"],"door_generator_assignment":[0,1],"goal":3,"start":5,"action_noise":0.15,"location_history":"[5,4,0,5,4,0,5,4,0,5,4,0,1,3]","action_history":"[0,0,0,0,0,0,0,1,0,0,0,1,1]","door_history":"[0,0,0,0,0,0,0,1,0,0,0,1,1]","location_rts":"[3346,2659,9345,3107,2097,3505,1122,1421,9576,6693,5689,3005,996]","trial_type":"two-door-navigation","trial_index":18,"time_elapsed":590626,"internal_node_id":"0.0-2.0-16.0"},{"group":"hexagon_tri","room_assignment":["green","grey","blue","red","purple","yellow"],"door_color_assignment":["black","white"],"door_generator_assignment":[0,1],"goal":2,"start":3,"action_noise":0.15,"location_history":"[3,2]","action_history":"[0]","door_history":"[0]","location_rts":"[4605]","trial_type":"two-door-navigation","trial_index":19,"time_elapsed":599765,"internal_node_id":"0.0-2.0-17.0"},{"group":"hexagon_tri","room_assignment":["green","grey","blue","red","purple","yellow"],"door_color_assignment":["black","white"],"door_generator_assignment":[0,1],"goal":1,"start":2,"action_noise":0.15,"location_history":"[2,3,4,2,3,2,1]","action_history":"[1,1,1,1,0,0]","door_history":"[1,1,1,1,0,0]","location_rts":"[5271,567,660,566,311,590]","trial_type":"two-door-navigation","trial_index":20,"time_elapsed":617390,"internal_node_id":"0.0-2.0-18.0"},{"group":"hexagon_tri","room_assignment":["green","grey","blue","red","purple","yellow"],"door_color_assignment":["black","white"],"door_generator_assignment":[0,1],"goal":4,"start":1,"action_noise":0.15,"location_history":"[1,5,0,1,5,4]","action_history":"[1,1,1,1,0]","door_history":"[1,1,1,1,0]","location_rts":"[806,2405,6124,955,1697]","trial_type":"two-door-navigation","trial_index":21,"time_elapsed":638015,"internal_node_id":"0.0-2.0-19.0"},{"group":"hexagon_tri","room_assignment":["green","grey","blue","red","purple","yellow"],"door_color_assignment":["black","white"],"door_generator_assignment":[0,1],"goal":0,"start":4,"action_noise":0.15,"location_history":"[4,2,3,4,0]","action_history":"[1,1,0,0]","door_history":"[1,1,0,0]","location_rts":"[2784,945,994,1031]","trial_type":"two-door-navigation","trial_index":22,"time_elapsed":651384,"internal_node_id":"0.0-2.0-20.0"},{"group":"hexagon_tri","room_assignment":["green","grey","blue","red","purple","yellow"],"door_color_assignment":["black","white"],"door_generator_assignment":[0,1],"goal":3,"start":0,"action_noise":0.15,"location_history":"[0,5,4,0,5,4,2,3]","action_history":"[0,0,0,0,1,1,1]","door_history":"[0,0,0,0,1,1,1]","location_rts":"[7229,979,918,565,459,857,2181]","trial_type":"two-door-navigation","trial_index":23,"time_elapsed":675274,"internal_node_id":"0.0-2.0-21.0"},{"group":"hexagon_tri","room_assignment":["green","grey","blue","red","purple","yellow"],"door_color_assignment":["black","white"],"door_generator_assignment":[0,1],"goal":1,"start":3,"action_noise":0.15,"location_history":"[3,4,2,1]","action_history":"[1,1,0]","door_history":"[1,1,0]","location_rts":"[6300,2934,823]","trial_type":"two-door-navigation","trial_index":24,"time_elapsed":691920,"internal_node_id":"0.0-2.0-22.0"},{"group":"hexagon_tri","room_assignment":["green","grey","blue","red","purple","yellow"],"door_color_assignment":["black","white"],"door_generator_assignment":[0,1],"goal":0,"start":1,"action_noise":0.15,"location_history":"[1,5,0]","action_history":"[1,1]","door_history":"[1,1]","location_rts":"[1066,1276]","trial_type":"two-door-navigation","trial_index":25,"time_elapsed":699827,"internal_node_id":"0.0-2.0-23.0"},{"group":"hexagon_tri","room_assignment":["green","grey","blue","red","purple","yellow"],"door_color_assignment":["black","white"],"door_generator_assignment":[0,1],"goal":2,"start":0,"action_noise":0.15,"location_history":"[0,1,3,2]","action_history":"[1,1,1]","door_history":"[1,1,1]","location_rts":"[628,878,1798]","trial_type":"two-door-navigation","trial_index":26,"time_elapsed":709715,"internal_node_id":"0.0-2.0-24.0"},{"group":"hexagon_tri","room_assignment":["green","grey","blue","red","purple","yellow"],"door_color_assignment":["black","white"],"door_generator_assignment":[0,1],"goal":4,"start":2,"action_noise":0.15,"location_history":"[2,3,4]","action_history":"[1,1]","door_history":"[1,1]","location_rts":"[1417,8792]","trial_type":"two-door-navigation","trial_index":27,"time_elapsed":725485,"internal_node_id":"0.0-2.0-25.0"},{"group":"hexagon_tri","room_assignment":["green","grey","blue","red","purple","yellow"],"door_color_assignment":["black","white"],"door_generator_assignment":[0,1],"goal":5,"start":4,"action_noise":0.15,"location_history":"[4,0,1,5]","action_history":"[1,1,1]","door_history":"[1,1,1]","location_rts":"[5371,839,528]","trial_type":"two-door-navigation","trial_index":28,"time_elapsed":738809,"internal_node_id":"0.0-2.0-26.0"},{"group":"hexagon_tri","room_assignment":["green","grey","blue","red","purple","yellow"],"door_color_assignment":["black","white"],"door_generator_assignment":[0,1],"goal":2,"start":5,"action_noise":0.15,"location_history":"[5,4,0,1,5,4,0,1,5,4,0,5,4,2]","action_history":"[0,0,0,0,1,1,1,0,0,0,0,1,1]","door_history":"[0,0,0,0,1,1,1,0,0,0,0,1,1]","location_rts":"[2244,998,876,634,748,651,633,570,12714,521,1415,410,545]","trial_type":"two-door-navigation","trial_index":29,"time_elapsed":778627,"internal_node_id":"0.0-2.0-27.0"},{"group":"hexagon_tri","room_assignment":["green","grey","blue","red","purple","yellow"],"door_color_assignment":["black","white"],"door_generator_assignment":[0,1],"goal":3,"start":2,"action_noise":0.15,"location_history":"[2,3]","action_history":"[1]","door_history":"[1]","location_rts":"[1797]","trial_type":"two-door-navigation","trial_index":30,"time_elapsed":784955,"internal_node_id":"0.0-2.0-28.0"},{"group":"hexagon_tri","room_assignment":["green","grey","blue","red","purple","yellow"],"door_color_assignment":["black","white"],"door_generator_assignment":[0,1],"goal":1,"start":3,"action_noise":0.15,"location_history":"[3,4,2,3,2,1]","action_history":"[1,1,1,0,0]","door_history":"[1,1,1,0,0]","location_rts":"[12354,549,389,385,416]","trial_type":"two-door-navigation","trial_index":31,"time_elapsed":807683,"internal_node_id":"0.0-2.0-29.0"},{"group":"hexagon_tri","room_assignment":["green","grey","blue","red","purple","yellow"],"door_color_assignment":["black","white"],"door_generator_assignment":[0,1],"goal":4,"start":1,"action_noise":0.15,"location_history":"[1,3,2,3,4]","action_history":"[0,0,0,0]","door_history":"[0,0,0,0]","location_rts":"[1040,11568,532,404]","trial_type":"two-door-navigation","trial_index":32,"time_elapsed":828833,"internal_node_id":"0.0-2.0-30.0"},{"group":"hexagon_tri","room_assignment":["green","grey","blue","red","purple","yellow"],"door_color_assignment":["black","white"],"door_generator_assignment":[0,1],"goal":5,"start":4,"action_noise":0.15,"location_history":"[4,2,3,4,2,1,5]","action_history":"[1,1,1,0,0,1]","door_history":"[1,1,1,0,0,1]","location_rts":"[481,657,501,374,648,9446]","trial_type":"two-door-navigation","trial_index":33,"time_elapsed":850599,"internal_node_id":"0.0-2.0-31.0"},{"group":"hexagon_tri","room_assignment":["green","grey","blue","red","purple","yellow"],"door_color_assignment":["black","white"],"door_generator_assignment":[0,1],"goal":0,"start":5,"action_noise":0.15,"location_history":"[5,4,2,3,2,1,3,2,3,2,1,3,2,1,5,0]","action_history":"[1,1,1,0,0,0,0,1,1,0,0,0,0,1,1]","door_history":"[1,1,1,0,0,0,0,1,1,0,0,0,0,1,1]","location_rts":"[1246,2630,553,443,479,619,513,12518,524,345,360,377,442,566,460]","trial_type":"two-door-navigation","trial_index":34,"time_elapsed":891589,"internal_node_id":"0.0-2.0-32.0"},{"group":"hexagon_tri","room_assignment":["green","grey","blue","red","purple","yellow"],"door_color_assignment":["black","white"],"door_generator_assignment":[0,1],"goal":2,"start":0,"action_noise":0.15,"location_history":"[0,1,3,2]","action_history":"[1,1,0]","door_history":"[1,1,0]","location_rts":"[9506,630,457]","trial_type":"two-door-navigation","trial_index":35,"time_elapsed":908760,"internal_node_id":"0.0-2.0-33.0"},{"group":"hexagon_tri","room_assignment":["green","grey","blue","red","purple","yellow"],"door_color_assignment":["black","white"],"door_generator_assignment":[0,1],"goal":0,"start":2,"action_noise":0.15,"location_history":"[2,3,2,3,4,2,1,5,0]","action_history":"[1,1,1,1,1,1,1,1]","door_history":"[1,1,1,1,1,1,1,1]","location_rts":"[1595,481,521,776,7053,1099,1383,475]","trial_type":"two-door-navigation","trial_index":36,"time_elapsed":933860,"internal_node_id":"0.0-2.0-34.0"},{"group":"hexagon_tri","room_assignment":["green","grey","blue","red","purple","yellow"],"door_color_assignment":["black","white"],"door_generator_assignment":[0,1],"goal":5,"start":0,"action_noise":0.15,"location_history":"[0,5]","action_history":"[1]","door_history":"[1]","location_rts":"[1925]","trial_type":"two-door-navigation","trial_index":37,"time_elapsed":940316,"internal_node_id":"0.0-2.0-35.0"},{"group":"hexagon_tri","room_assignment":["green","grey","blue","red","purple","yellow"],"door_color_assignment":["black","white"],"door_generator_assignment":[0,1],"goal":1,"start":5,"action_noise":0.15,"location_history":"[5,0,1]","action_history":"[1,1]","door_history":"[1,1]","location_rts":"[711,463]","trial_type":"two-door-navigation","trial_index":38,"time_elapsed":947051,"internal_node_id":"0.0-2.0-36.0"},{"group":"hexagon_tri","room_assignment":["green","grey","blue","red","purple","yellow"],"door_color_assignment":["black","white"],"door_generator_assignment":[0,1],"goal":4,"start":1,"action_noise":0.15,"location_history":"[1,5,0,5,0,5,4]","action_history":"[1,0,0,0,0,0]","door_history":"[1,0,0,0,0,0]","location_rts":"[3437,4380,436,416,391,1065]","trial_type":"two-door-navigation","trial_index":39,"time_elapsed":966845,"internal_node_id":"0.0-2.0-37.0"},{"group":"hexagon_tri","room_assignment":["green","grey","blue","red","purple","yellow"],"door_color_assignment":["black","white"],"door_generator_assignment":[0,1],"goal":3,"start":4,"action_noise":0.15,"location_history":"[4,2,3]","action_history":"[1,1]","door_history":"[1,1]","location_rts":"[12910,760]","trial_type":"two-door-navigation","trial_index":40,"time_elapsed":986071,"internal_node_id":"0.0-2.0-38.0"},{"group":"hexagon_tri","room_assignment":["green","grey","blue","red","purple","yellow"],"door_color_assignment":["black","white"],"door_generator_assignment":[0,1],"goal":5,"start":3,"action_noise":0.15,"location_history":"[3,2,1,5]","action_history":"[0,0,1]","door_history":"[0,0,1]","location_rts":"[3305,680,15345]","trial_type":"two-door-navigation","trial_index":41,"time_elapsed":1011987,"internal_node_id":"0.0-2.0-39.0"},{"group":"hexagon_tri","room_assignment":["green","grey","blue","red","purple","yellow"],"door_color_assignment":["black","white"],"door_generator_assignment":[0,1],"goal":1,"start":5,"action_noise":0.15,"location_history":"[5,4,2,3,2,1]","action_history":"[1,1,1,0,0]","door_history":"[1,1,1,0,0]","location_rts":"[2225,944,1574,449,427]","trial_type":"two-door-navigation","trial_index":42,"time_elapsed":1026232,"internal_node_id":"0.0-2.0-40.0"},{"group":"hexagon_tri","room_assignment":["green","grey","blue","red","purple","yellow"],"door_color_assignment":["black","white"],"door_generator_assignment":[0,1],"goal":2,"start":1,"action_noise":0.15,"location_history":"[1,5,0,1,5,4,2]","action_history":"[1,1,1,1,0,0]","door_history":"[1,1,1,1,0,0]","location_rts":"[9588,717,9072,849,745,471]","trial_type":"two-door-navigation","trial_index":43,"time_elapsed":1057338,"internal_node_id":"0.0-2.0-41.0"},{"group":"hexagon_tri","room_assignment":["green","grey","blue","red","purple","yellow"],"door_color_assignment":["black","white"],"door_generator_assignment":[0,1],"goal":4,"start":2,"action_noise":0.15,"location_history":"[2,3,4]","action_history":"[1,1]","door_history":"[1,1]","location_rts":"[1379,981]","trial_type":"two-door-navigation","trial_index":44,"time_elapsed":1065262,"internal_node_id":"0.0-2.0-42.0"},{"group":"hexagon_tri","room_assignment":["green","grey","blue","red","purple","yellow"],"door_color_assignment":["black","white"],"door_generator_assignment":[0,1],"goal":0,"start":4,"action_noise":0.15,"location_history":"[4,0]","action_history":"[1]","door_history":"[1]","location_rts":"[5853]","trial_type":"two-door-navigation","trial_index":45,"time_elapsed":1075650,"internal_node_id":"0.0-2.0-43.0"},{"group":"hexagon_tri","room_assignment":["green","grey","blue","red","purple","yellow"],"door_color_assignment":["black","white"],"door_generator_assignment":[0,1],"goal":3,"start":0,"action_noise":0.15,"location_history":"[0,5,4,0,5,0,5,4,2,1,3]","action_history":"[0,0,0,0,1,1,1,1,0,0]","door_history":"[0,0,0,0,1,1,1,1,0,0]","location_rts":"[2005,726,615,497,436,493,378,1051,2200,2576]","trial_type":"two-door-navigation","trial_index":46,"time_elapsed":1100407,"internal_node_id":"0.0-2.0-44.0"},{"group":"hexagon_tri","room_assignment":["green","grey","blue","red","purple","yellow"],"door_color_assignment":["black","white"],"door_generator_assignment":[0,1],"goal":0,"start":3,"action_noise":0.15,"location_history":"[3,4,2,3,2,1,3,4,2,1,3,2,1,5,4,0]","action_history":"[1,1,0,0,0,0,1,1,0,0,0,0,1,1,1]","door_history":"[1,1,0,0,0,0,1,1,0,0,0,0,1,1,1]","location_rts":"[1104,527,369,378,301,1393,10181,1006,487,483,458,427,810,621,626]","trial_type":"two-door-navigation","trial_index":47,"time_elapsed":1138484,"internal_node_id":"0.0-2.0-45.0"},{"group":"hexagon_tri","room_assignment":["green","grey","blue","red","purple","yellow"],"door_color_assignment":["black","white"],"door_generator_assignment":[0,1],"goal":4,"start":0,"action_noise":0.15,"location_history":"[0,5,4]","action_history":"[1,0]","door_history":"[1,0]","location_rts":"[13596,818]","trial_type":"two-door-navigation","trial_index":48,"time_elapsed":1158460,"internal_node_id":"0.0-2.0-46.0"},{"group":"hexagon_tri","room_assignment":["green","grey","blue","red","purple","yellow"],"door_color_assignment":["black","white"],"door_generator_assignment":[0,1],"goal":5,"start":4,"action_noise":0.15,"location_history":"[4,0,1,5]","action_history":"[0,1,1]","door_history":"[0,1,1]","location_rts":"[16668,2086,542]","trial_type":"two-door-navigation","trial_index":49,"time_elapsed":1184329,"internal_node_id":"0.0-2.0-47.0"},{"group":"hexagon_tri","room_assignment":["green","grey","blue","red","purple","yellow"],"door_color_assignment":["black","white"],"door_generator_assignment":[0,1],"goal":2,"start":5,"action_noise":0.15,"location_history":"[5,0,1,3,2]","action_history":"[1,1,0,0]","door_history":"[1,1,0,0]","location_rts":"[1277,15368,1223,694]","trial_type":"two-door-navigation","trial_index":50,"time_elapsed":1210503,"internal_node_id":"0.0-2.0-48.0"},{"group":"hexagon_tri","room_assignment":["green","grey","blue","red","purple","yellow"],"door_color_assignment":["black","white"],"door_generator_assignment":[0,1],"goal":1,"start":2,"action_noise":0.15,"location_history":"[2,3,2,1]","action_history":"[1,1,0]","door_history":"[1,1,0]","location_rts":"[6242,468,493]","trial_type":"two-door-navigation","trial_index":51,"time_elapsed":1224280,"internal_node_id":"0.0-2.0-49.0"},{"view_history":"[{\"page_index\":0,\"viewing_time\":2039}]","rt":2040,"trial_type":"instructions","trial_index":52,"time_elapsed":1227322,"internal_node_id":"0.0-3.0"},{"view_history":"[{\"page_index\":0,\"viewing_time\":2526},{\"page_index\":1,\"viewing_time\":17634}]","rt":20160,"trial_type":"instructions","trial_index":53,"time_elapsed":1248484,"internal_node_id":"0.0-4.0"},{"group":"hexagon_bi","fractal_assignment":["../images/ylw_slt.png","../images/org_blu.png","../images/cyn_red.png","../images/pnk_blu.png","../images/blu_wht.png","../images/gry_blk.png"],"mutagen_generator_assignment":[0,1],"goal":2,"start":1,"action_noise":0.15,"location_history":"[1,2]","action_history":"[0]","mutagen_history":"[0]","location_rts":"[67787]","trial_type":"fractal-mutation","trial_index":54,"time_elapsed":1320837,"internal_node_id":"0.0-5.0-0.0"},{"group":"hexagon_bi","fractal_assignment":["../images/ylw_slt.png","../images/org_blu.png","../images/cyn_red.png","../images/pnk_blu.png","../images/blu_wht.png","../images/gry_blk.png"],"mutagen_generator_assignment":[0,1],"goal":0,"start":2,"action_noise":0.15,"location_history":"[2,1,2,1,2,1,2,1,2,3,2,3,2,3,4,5,4,3,2,3,4,5,0]","action_history":"[0,0,0,0,0,0,1,1,1,1,1,1,1,1,1,1,1,1,1,0,0,0]","mutagen_history":"[0,0,0,0,0,0,1,1,1,1,1,1,1,1,1,1,1,1,1,0,0,0]","location_rts":"[15497,4053,4551,3339,2416,2402,4023,3365,2285,4362,2612,3976,2109,3326,5295,3842,3687,3379,2676,12817,20499,3393]","trial_type":"fractal-mutation","trial_index":55,"time_elapsed":1461299,"internal_node_id":"0.0-5.0-1.0"},{"group":"hexagon_bi","fractal_assignment":["../images/ylw_slt.png","../images/org_blu.png","../images/cyn_red.png","../images/pnk_blu.png","../images/blu_wht.png","../images/gry_blk.png"],"mutagen_generator_assignment":[0,1],"goal":5,"start":0,"action_noise":0.15,"location_history":"[0,5]","action_history":"[0]","mutagen_history":"[0]","location_rts":"[4091]","trial_type":"fractal-mutation","trial_index":56,"time_elapsed":1469932,"internal_node_id":"0.0-5.0-2.0"},{"group":"hexagon_bi","fractal_assignment":["../images/ylw_slt.png","../images/org_blu.png","../images/cyn_red.png","../images/pnk_blu.png","../images/blu_wht.png","../images/gry_blk.png"],"mutagen_generator_assignment":[0,1],"goal":1,"start":5,"action_noise":0.15,"location_history":"[5,0,5,0,1]","action_history":"[0,0,1,1]","mutagen_history":"[0,0,1,1]","location_rts":"[6300,6007,6688,5970]","trial_type":"fractal-mutation","trial_index":57,"time_elapsed":1502565,"internal_node_id":"0.0-5.0-3.0"},{"group":"hexagon_bi","fractal_assignment":["../images/ylw_slt.png","../images/org_blu.png","../images/cyn_red.png","../images/pnk_blu.png","../images/blu_wht.png","../images/gry_blk.png"],"mutagen_generator_assignment":[0,1],"goal":3,"start":1,"action_noise":0.15,"location_history":"[1,0,1,0,1,0,1,0,1,2,1,2,1,2,1,2,1,2,1,2,1,2,1,0,1,2,3]","action_history":"[1,1,1,1,1,1,1,0,0,0,0,0,0,0,0,0,0,0,0,1,1,1,1,1,1,1]","mutagen_history":"[1,1,1,1,1,1,1,0,0,0,0,0,0,0,0,0,0,0,0,1,1,1,1,1,1,1]","location_rts":"[980,13884,2986,3040,3395,3505,3090,4338,3712,1249,1283,1385,1297,1284,592,2107,1755,726,514,1540,650,1103,9936,1609,847,698]","trial_type":"fractal-mutation","trial_index":58,"time_elapsed":1600659,"internal_node_id":"0.0-5.0-4.0"},{"group":"hexagon_bi","fractal_assignment":["../images/ylw_slt.png","../images/org_blu.png","../images/cyn_red.png","../images/pnk_blu.png","../images/blu_wht.png","../images/gry_blk.png"],"mutagen_generator_assignment":[0,1],"goal":5,"start":3,"action_noise":0.15,"location_history":"[3,2,3,4,3,4,5]","action_history":"[1,0,0,0,1,1]","mutagen_history":"[1,0,0,0,1,1]","location_rts":"[5235,19466,2984,825,1801,5619]","trial_type":"fractal-mutation","trial_index":59,"time_elapsed":1646363,"internal_node_id":"0.0-5.0-5.0"},{"group":"hexagon_bi","fractal_assignment":["../images/ylw_slt.png","../images/org_blu.png","../images/cyn_red.png","../images/pnk_blu.png","../images/blu_wht.png","../images/gry_blk.png"],"mutagen_generator_assignment":[0,1],"goal":4,"start":5,"action_noise":0.15,"location_history":"[5,4]","action_history":"[1]","mutagen_history":"[1]","location_rts":"[525]","trial_type":"fractal-mutation","trial_index":60,"time_elapsed":1651441,"internal_node_id":"0.0-5.0-6.0"},{"group":"hexagon_bi","fractal_assignment":["../images/ylw_slt.png","../images/org_blu.png","../images/cyn_red.png","../images/pnk_blu.png","../images/blu_wht.png","../images/gry_blk.png"],"mutagen_generator_assignment":[0,1],"goal":0,"start":4,"action_noise":0.15,"location_history":"[4,5,4,5,4,5,0]","action_history":"[1,1,1,1,1,0]","mutagen_history":"[1,1,1,1,1,0]","location_rts":"[7204,2247,610,465,452,1475]","trial_type":"fractal-mutation","trial_index":61,"time_elapsed":1673678,"internal_node_id":"0.0-5.0-7.0"},{"group":"hexagon_bi","fractal_assignment":["../images/ylw_slt.png","../images/org_blu.png","../images/cyn_red.png","../images/pnk_blu.png","../images/blu_wht.png","../images/gry_blk.png"],"mutagen_generator_assignment":[0,1],"goal":2,"start":0,"action_noise":0.15,"location_history":"[0,5,4,3,4,3,4,5,4,5,4,5,0,1,2]","action_history":"[0,0,0,0,0,0,1,1,1,1,1,1,1,0]","mutagen_history":"[0,0,0,0,0,0,1,1,1,1,1,1,1,0]","location_rts":"[1772,578,631,421,389,480,1280,388,507,1237,12238,711,637,1192]","trial_type":"fractal-mutation","trial_index":62,"time_elapsed":1714213,"internal_node_id":"0.0-5.0-8.0"},{"group":"hexagon_bi","fractal_assignment":["../images/ylw_slt.png","../images/org_blu.png","../images/cyn_red.png","../images/pnk_blu.png","../images/blu_wht.png","../images/gry_blk.png"],"mutagen_generator_assignment":[0,1],"goal":4,"start":2,"action_noise":0.15,"location_history":"[2,1,2,3,4]","action_history":"[0,0,1,1]","mutagen_history":"[0,0,1,1]","location_rts":"[1781,1161,1042,537]","trial_type":"fractal-mutation","trial_index":63,"time_elapsed":1726417,"internal_node_id":"0.0-5.0-9.0"},{"group":"hexagon_bi","fractal_assignment":["../images/ylw_slt.png","../images/org_blu.png","../images/cyn_red.png","../images/pnk_blu.png","../images/blu_wht.png","../images/gry_blk.png"],"mutagen_generator_assignment":[0,1],"goal":2,"start":4,"action_noise":0.15,"location_history":"[4,5,0,1,0,1,2]","action_history":"[1,1,1,1,1,0]","mutagen_history":"[1,1,1,1,1,0]","location_rts":"[1678,10268,455,434,514,444]","trial_type":"fractal-mutation","trial_index":64,"time_elapsed":1749999,"internal_node_id":"0.0-5.0-10.0"},{"group":"hexagon_bi","fractal_assignment":["../images/ylw_slt.png","../images/org_blu.png","../images/cyn_red.png","../images/pnk_blu.png","../images/blu_wht.png","../images/gry_blk.png"],"mutagen_generator_assignment":[0,1],"goal":3,"start":2,"action_noise":0.15,"location_history":"[2,1,2,1,0,1,2,1,0,1,2,1,2,3]","action_history":"[0,0,0,0,0,0,0,1,0,0,0,0,1]","mutagen_history":"[0,0,0,0,0,0,0,1,0,0,0,0,1]","location_rts":"[1116,589,958,11376,1402,197,4534,16685,1545,670,540,455,709]","trial_type":"fractal-mutation","trial_index":65,"time_elapsed":1807756,"internal_node_id":"0.0-5.0-11.0"},{"group":"hexagon_bi","fractal_assignment":["../images/ylw_slt.png","../images/org_blu.png","../images/cyn_red.png","../images/pnk_blu.png","../images/blu_wht.png","../images/gry_blk.png"],"mutagen_generator_assignment":[0,1],"goal":0,"start":3,"action_noise":0.15,"location_history":"[3,2,3,4,3,4,3,4,5,4,5,4,5,0]","action_history":"[1,1,0,0,0,0,0,1,1,1,1,1,1]","mutagen_history":"[1,1,0,0,0,0,0,1,1,1,1,1,1]","location_rts":"[19817,1241,2034,778,747,723,710,1414,790,876,726,547,4678]","trial_type":"fractal-mutation","trial_index":66,"time_elapsed":1859900,"internal_node_id":"0.0-5.0-12.0"},{"group":"hexagon_bi","fractal_assignment":["../images/ylw_slt.png","../images/org_blu.png","../images/cyn_red.png","../images/pnk_blu.png","../images/blu_wht.png","../images/gry_blk.png"],"mutagen_generator_assignment":[0,1],"goal":5,"start":0,"action_noise":0.15,"location_history":"[0,1,0,1,2,1,2,1,2,1,2,1,2,1,2,1,2,1,2,1,0,1,0,1,0,5]","action_history":"[1,1,1,0,0,0,0,0,0,0,0,0,0,0,0,0,0,0,0,1,1,1,1,1,0]","mutagen_history":"[1,1,1,0,0,0,0,0,0,0,0,0,0,0,0,0,0,0,0,1,1,1,1,1,0]","location_rts":"[1516,681,916,541,540,424,347,3567,672,452,555,387,512,422,551,516,4421,7442,468,1904,801,471,385,423,409]","trial_type":"fractal-mutation","trial_index":67,"time_elapsed":1918706,"internal_node_id":"0.0-5.0-13.0"},{"group":"hexagon_bi","fractal_assignment":["../images/ylw_slt.png","../images/org_blu.png","../images/cyn_red.png","../images/pnk_blu.png","../images/blu_wht.png","../images/gry_blk.png"],"mutagen_generator_assignment":[0,1],"goal":1,"start":5,"action_noise":0.15,"location_history":"[5,4,3,4,3,2,1]","action_history":"[1,0,0,0,1,1]","mutagen_history":"[1,0,0,0,1,1]","location_rts":"[2369,788,661,14163,1917,470]","trial_type":"fractal-mutation","trial_index":68,"time_elapsed":1948841,"internal_node_id":"0.0-5.0-14.0"},{"group":"hexagon_bi","fractal_assignment":["../images/ylw_slt.png","../images/org_blu.png","../images/cyn_red.png","../images/pnk_blu.png","../images/blu_wht.png","../images/gry_blk.png"],"mutagen_generator_assignment":[0,1],"goal":5,"start":1,"action_noise":0.15,"location_history":"[1,0,5]","action_history":"[1,1]","mutagen_history":"[1,1]","location_rts":"[2320,696]","trial_type":"fractal-mutation","trial_index":69,"time_elapsed":1957465,"internal_node_id":"0.0-5.0-15.0"},{"group":"hexagon_bi","fractal_assignment":["../images/ylw_slt.png","../images/org_blu.png","../images/cyn_red.png","../images/pnk_blu.png","../images/blu_wht.png","../images/gry_blk.png"],"mutagen_generator_assignment":[0,1],"goal":3,"start":5,"action_noise":0.15,"location_history":"[5,0,5,4,3]","action_history":"[0,0,1,0]","mutagen_history":"[0,0,1,0]","location_rts":"[1447,621,1103,6382]","trial_type":"fractal-mutation","trial_index":70,"time_elapsed":1974690,"internal_node_id":"0.0-5.0-16.0"},{"group":"hexagon_bi","fractal_assignment":["../images/ylw_slt.png","../images/org_blu.png","../images/cyn_red.png","../images/pnk_blu.png","../images/blu_wht.png","../images/gry_blk.png"],"mutagen_generator_assignment":[0,1],"goal":2,"start":3,"action_noise":0.15,"location_history":"[3,2]","action_history":"[1]","mutagen_history":"[1]","location_rts":"[3275]","trial_type":"fractal-mutation","trial_index":71,"time_elapsed":1982520,"internal_node_id":"0.0-5.0-17.0"},{"group":"hexagon_bi","fractal_assignment":["../images/ylw_slt.png","../images/org_blu.png","../images/cyn_red.png","../images/pnk_blu.png","../images/blu_wht.png","../images/gry_blk.png"],"mutagen_generator_assignment":[0,1],"goal":1,"start":2,"action_noise":0.15,"location_history":"[2,3,2,1]","action_history":"[1,1,1]","mutagen_history":"[1,1,1]","location_rts":"[12185,595,445]","trial_type":"fractal-mutation","trial_index":72,"time_elapsed":2002401,"internal_node_id":"0.0-5.0-18.0"},{"group":"hexagon_bi","fractal_assignment":["../images/ylw_slt.png","../images/org_blu.png","../images/cyn_red.png","../images/pnk_blu.png","../images/blu_wht.png","../images/gry_blk.png"],"mutagen_generator_assignment":[0,1],"goal":4,"start":1,"action_noise":0.15,"location_history":"[1,2,1,2,1,2,1,2,1,0,5,0,5,4]","action_history":"[0,0,0,0,0,0,0,0,1,0,0,0,1]","mutagen_history":"[0,0,0,0,0,0,0,0,1,0,0,0,1]","location_rts":"[1826,502,370,537,426,609,1979,881,630,1144,2085,1012,1741]","trial_type":"fractal-mutation","trial_index":73,"time_elapsed":2033126,"internal_node_id":"0.0-5.0-19.0"},{"group":"hexagon_bi","fractal_assignment":["../images/ylw_slt.png","../images/org_blu.png","../images/cyn_red.png","../images/pnk_blu.png","../images/blu_wht.png","../images/gry_blk.png"],"mutagen_generator_assignment":[0,1],"goal":0,"start":4,"action_noise":0.15,"location_history":"[4,5,4,5,0]","action_history":"[1,1,1,0]","mutagen_history":"[1,1,1,0]","location_rts":"[1329,570,720,1325]","trial_type":"fractal-mutation","trial_index":74,"time_elapsed":2044757,"internal_node_id":"0.0-5.0-20.0"},{"group":"hexagon_bi","fractal_assignment":["../images/ylw_slt.png","../images/org_blu.png","../images/cyn_red.png","../images/pnk_blu.png","../images/blu_wht.png","../images/gry_blk.png"],"mutagen_generator_assignment":[0,1],"goal":3,"start":0,"action_noise":0.15,"location_history":"[0,1,0,1,2,3]","action_history":"[1,1,1,1,1]","mutagen_history":"[1,1,1,1,1]","location_rts":"[1248,7094,7031,6233,902]","trial_type":"fractal-mutation","trial_index":75,"time_elapsed":2076011,"internal_node_id":"0.0-5.0-21.0"},{"group":"hexagon_bi","fractal_assignment":["../images/ylw_slt.png","../images/org_blu.png","../images/cyn_red.png","../images/pnk_blu.png","../images/blu_wht.png","../images/gry_blk.png"],"mutagen_generator_assignment":[0,1],"goal":1,"start":3,"action_noise":0.15,"location_history":"[3,2,3,4,5,0,1]","action_history":"[1,1,0,0,0,0]","mutagen_history":"[1,1,0,0,0,0]","location_rts":"[1786,798,980,571,549,424]","trial_type":"fractal-mutation","trial_index":76,"time_elapsed":2090857,"internal_node_id":"0.0-5.0-22.0"},{"group":"hexagon_bi","fractal_assignment":["../images/ylw_slt.png","../images/org_blu.png","../images/cyn_red.png","../images/pnk_blu.png","../images/blu_wht.png","../images/gry_blk.png"],"mutagen_generator_assignment":[0,1],"goal":0,"start":1,"action_noise":0.15,"location_history":"[1,0]","action_history":"[1]","mutagen_history":"[1]","location_rts":"[741]","trial_type":"fractal-mutation","trial_index":77,"time_elapsed":2096148,"internal_node_id":"0.0-5.0-23.0"},{"group":"hexagon_bi","fractal_assignment":["../images/ylw_slt.png","../images/org_blu.png","../images/cyn_red.png","../images/pnk_blu.png","../images/blu_wht.png","../images/gry_blk.png"],"mutagen_generator_assignment":[0,1],"goal":2,"start":0,"action_noise":0.15,"location_history":"[0,1,0,5,0,5,0,5,4,5,4,5,4,3,4,5,4,3,2]","action_history":"[1,1,0,0,0,0,1,1,1,1,1,1,0,0,0,0,0,1]","mutagen_history":"[1,1,0,0,0,0,1,1,1,1,1,1,0,0,0,0,0,1]","location_rts":"[1373,1102,1342,534,410,431,455,572,524,1108,706,230,709,568,573,543,553,601]","trial_type":"fractal-mutation","trial_index":78,"time_elapsed":2130733,"internal_node_id":"0.0-5.0-24.0"},{"group":"hexagon_bi","fractal_assignment":["../images/ylw_slt.png","../images/org_blu.png","../images/cyn_red.png","../images/pnk_blu.png","../images/blu_wht.png","../images/gry_blk.png"],"mutagen_generator_assignment":[0,1],"goal":4,"start":2,"action_noise":0.15,"location_history":"[2,3,2,1,2,1,2,3,2,1,2,1,0,5,4]","action_history":"[1,1,0,0,0,0,1,1,0,0,1,1,1,1]","mutagen_history":"[1,1,0,0,0,0,1,1,0,0,1,1,1,1]","location_rts":"[1244,890,1465,441,958,421,798,443,593,424,671,428,506,569]","trial_type":"fractal-mutation","trial_index":79,"time_elapsed":2158703,"internal_node_id":"0.0-5.0-25.0"},{"group":"hexagon_bi","fractal_assignment":["../images/ylw_slt.png","../images/org_blu.png","../images/cyn_red.png","../images/pnk_blu.png","../images/blu_wht.png","../images/gry_blk.png"],"mutagen_generator_assignment":[0,1],"goal":5,"start":4,"action_noise":0.15,"location_history":"[4,5]","action_history":"[1]","mutagen_history":"[1]","location_rts":"[1551]","trial_type":"fractal-mutation","trial_index":80,"time_elapsed":2164809,"internal_node_id":"0.0-5.0-26.0"},{"group":"hexagon_bi","fractal_assignment":["../images/ylw_slt.png","../images/org_blu.png","../images/cyn_red.png","../images/pnk_blu.png","../images/blu_wht.png","../images/gry_blk.png"],"mutagen_generator_assignment":[0,1],"goal":2,"start":5,"action_noise":0.15,"location_history":"[5,4,5,4,5,0,5,0,5,4,5,4,5,0,1,2]","action_history":"[1,1,1,1,0,0,0,0,1,1,1,1,1,1,1]","mutagen_history":"[1,1,1,1,0,0,0,0,1,1,1,1,1,1,1]","location_rts":"[1801,1221,1258,599,929,487,440,514,397,458,407,290,568,4017,458]","trial_type":"fractal-mutation","trial_index":81,"time_elapsed":2197822,"internal_node_id":"0.0-5.0-27.0"},{"group":"hexagon_bi","fractal_assignment":["../images/ylw_slt.png","../images/org_blu.png","../images/cyn_red.png","../images/pnk_blu.png","../images/blu_wht.png","../images/gry_blk.png"],"mutagen_generator_assignment":[0,1],"goal":3,"start":2,"action_noise":0.15,"location_history":"[2,3]","action_history":"[1]","mutagen_history":"[1]","location_rts":"[451]","trial_type":"fractal-mutation","trial_index":82,"time_elapsed":2202827,"internal_node_id":"0.0-5.0-28.0"},{"group":"hexagon_bi","fractal_assignment":["../images/ylw_slt.png","../images/org_blu.png","../images/cyn_red.png","../images/pnk_blu.png","../images/blu_wht.png","../images/gry_blk.png"],"mutagen_generator_assignment":[0,1],"goal":1,"start":3,"action_noise":0.15,"location_history":"[3,2,3,4,3,4,3,4,3,2,1]","action_history":"[1,1,0,0,0,0,0,1,1,0]","mutagen_history":"[1,1,0,0,0,0,0,1,1,0]","location_rts":"[1155,704,511,594,508,682,612,394,403,460]","trial_type":"fractal-mutation","trial_index":83,"time_elapsed":2222756,"internal_node_id":"0.0-5.0-29.0"},{"group":"hexagon_bi","fractal_assignment":["../images/ylw_slt.png","../images/org_blu.png","../images/cyn_red.png","../images/pnk_blu.png","../images/blu_wht.png","../images/gry_blk.png"],"mutagen_generator_assignment":[0,1],"goal":4,"start":1,"action_noise":0.15,"location_history":"[1,0,1,0,5,0,1,0,1,2,3,2,3,2,1,0,1,2,1,2,3,2,3,4]","action_history":"[1,1,1,0,0,0,1,1,0,0,1,1,1,1,1,1,0,0,0,0,1,1,0]","mutagen_history":"[1,1,1,0,0,0,1,1,0,0,1,1,1,1,1,1,0,0,0,0,1,1,0]","location_rts":"[488,1496,500,541,547,758,411,398,327,898,399,631,391,389,5509,595,389,449,295,473,281,526,416]","trial_type":"fractal-mutation","trial_index":84,"time_elapsed":2267325,"internal_node_id":"0.0-5.0-30.0"},{"group":"hexagon_bi","fractal_assignment":["../images/ylw_slt.png","../images/org_blu.png","../images/cyn_red.png","../images/pnk_blu.png","../images/blu_wht.png","../images/gry_blk.png"],"mutagen_generator_assignment":[0,1],"goal":5,"start":4,"action_noise":0.15,"location_history":"[4,5]","action_history":"[1]","mutagen_history":"[1]","location_rts":"[710]","trial_type":"fractal-mutation","trial_index":85,"time_elapsed":2272590,"internal_node_id":"0.0-5.0-31.0"},{"group":"hexagon_bi","fractal_assignment":["../images/ylw_slt.png","../images/org_blu.png","../images/cyn_red.png","../images/pnk_blu.png","../images/blu_wht.png","../images/gry_blk.png"],"mutagen_generator_assignment":[0,1],"goal":0,"start":5,"action_noise":0.15,"location_history":"[5,4,5,0]","action_history":"[1,1,0]","mutagen_history":"[1,1,0]","location_rts":"[92236,776,514]","trial_type":"fractal-mutation","trial_index":86,"time_elapsed":2372759,"internal_node_id":"0.0-5.0-32.0"},{"group":"hexagon_bi","fractal_assignment":["../images/ylw_slt.png","../images/org_blu.png","../images/cyn_red.png","../images/pnk_blu.png","../images/blu_wht.png","../images/gry_blk.png"],"mutagen_generator_assignment":[0,1],"goal":2,"start":0,"action_noise":0.15,"location_history":"[0,1,0,1,0,1,2]","action_history":"[1,1,1,0,1,0]","mutagen_history":"[1,1,1,0,1,0]","location_rts":"[1388,697,1257,675,885,1241]","trial_type":"fractal-mutation","trial_index":87,"time_elapsed":2388678,"internal_node_id":"0.0-5.0-33.0"},{"group":"hexagon_bi","fractal_assignment":["../images/ylw_slt.png","../images/org_blu.png","../images/cyn_red.png","../images/pnk_blu.png","../images/blu_wht.png","../images/gry_blk.png"],"mutagen_generator_assignment":[0,1],"goal":0,"start":2,"action_noise":0.15,"location_history":"[2,3,4,3,4,5,4,5,0]","action_history":"[1,1,0,0,1,1,0,0]","mutagen_history":"[1,1,0,0,1,1,0,0]","location_rts":"[1201,616,1057,554,916,629,1016,811]","trial_type":"fractal-mutation","trial_index":88,"time_elapsed":2407323,"internal_node_id":"0.0-5.0-34.0"},{"group":"hexagon_bi","fractal_assignment":["../images/ylw_slt.png","../images/org_blu.png","../images/cyn_red.png","../images/pnk_blu.png","../images/blu_wht.png","../images/gry_blk.png"],"mutagen_generator_assignment":[0,1],"goal":5,"start":0,"action_noise":0.15,"location_history":"[0,1,0,1,0,5]","action_history":"[1,1,1,1,0]","mutagen_history":"[1,1,1,1,0]","location_rts":"[1297,893,442,510,615]","trial_type":"fractal-mutation","trial_index":89,"time_elapsed":2419807,"internal_node_id":"0.0-5.0-35.0"},{"group":"hexagon_bi","fractal_assignment":["../images/ylw_slt.png","../images/org_blu.png","../images/cyn_red.png","../images/pnk_blu.png","../images/blu_wht.png","../images/gry_blk.png"],"mutagen_generator_assignment":[0,1],"goal":1,"start":5,"action_noise":0.15,"location_history":"[5,4,5,4,5,0,5,4,5,4,5,0,1]","action_history":"[1,1,1,0,0,0,1,1,1,0,0,1]","mutagen_history":"[1,1,1,0,0,0,1,1,1,0,0,1]","location_rts":"[565,581,763,525,549,579,573,556,501,471,643,682]","trial_type":"fractal-mutation","trial_index":90,"time_elapsed":2442794,"internal_node_id":"0.0-5.0-36.0"},{"group":"hexagon_bi","fractal_assignment":["../images/ylw_slt.png","../images/org_blu.png","../images/cyn_red.png","../images/pnk_blu.png","../images/blu_wht.png","../images/gry_blk.png"],"mutagen_generator_assignment":[0,1],"goal":4,"start":1,"action_noise":0.15,"location_history":"[1,0,1,2,3,2,3,4]","action_history":"[1,1,1,1,1,1,1]","mutagen_history":"[1,1,1,1,1,1,1]","location_rts":"[560,542,462,426,1225,4289,517]","trial_type":"fractal-mutation","trial_index":91,"time_elapsed":2461670,"internal_node_id":"0.0-5.0-37.0"},{"group":"hexagon_bi","fractal_assignment":["../images/ylw_slt.png","../images/org_blu.png","../images/cyn_red.png","../images/pnk_blu.png","../images/blu_wht.png","../images/gry_blk.png"],"mutagen_generator_assignment":[0,1],"goal":3,"start":4,"action_noise":0.15,"location_history":"[4,5,4,3]","action_history":"[1,1,0]","mutagen_history":"[1,1,0]","location_rts":"[1001,442,408]","trial_type":"fractal-mutation","trial_index":92,"time_elapsed":2470166,"internal_node_id":"0.0-5.0-38.0"},{"group":"hexagon_bi","fractal_assignment":["../images/ylw_slt.png","../images/org_blu.png","../images/cyn_red.png","../images/pnk_blu.png","../images/blu_wht.png","../images/gry_blk.png"],"mutagen_generator_assignment":[0,1],"goal":5,"start":3,"action_noise":0.15,"location_history":"[3,4,3,4,5]","action_history":"[0,1,0,1]","mutagen_history":"[0,1,0,1]","location_rts":"[938,731,1225,539]","trial_type":"fractal-mutation","trial_index":93,"time_elapsed":2481269,"internal_node_id":"0.0-5.0-39.0"},{"group":"hexagon_bi","fractal_assignment":["../images/ylw_slt.png","../images/org_blu.png","../images/cyn_red.png","../images/pnk_blu.png","../images/blu_wht.png","../images/gry_blk.png"],"mutagen_generator_assignment":[0,1],"goal":1,"start":5,"action_noise":0.15,"location_history":"[5,0,1]","action_history":"[1,1]","mutagen_history":"[1,1]","location_rts":"[562,506]","trial_type":"fractal-mutation","trial_index":94,"time_elapsed":2487946,"internal_node_id":"0.0-5.0-40.0"},{"group":"hexagon_bi","fractal_assignment":["../images/ylw_slt.png","../images/org_blu.png","../images/cyn_red.png","../images/pnk_blu.png","../images/blu_wht.png","../images/gry_blk.png"],"mutagen_generator_assignment":[0,1],"goal":2,"start":1,"action_noise":0.15,"location_history":"[1,0,1,0,1,2]","action_history":"[1,1,1,1,0]","mutagen_history":"[1,1,1,1,0]","location_rts":"[504,7789,418,556,392]","trial_type":"fractal-mutation","trial_index":95,"time_elapsed":2506333,"internal_node_id":"0.0-5.0-41.0"},{"group":"hexagon_bi","fractal_assignment":["../images/ylw_slt.png","../images/org_blu.png","../images/cyn_red.png","../images/pnk_blu.png","../images/blu_wht.png","../images/gry_blk.png"],"mutagen_generator_assignment":[0,1],"goal":4,"start":2,"action_noise":0.15,"location_history":"[2,3,4]","action_history":"[1,0]","mutagen_history":"[1,0]","location_rts":"[792,533]","trial_type":"fractal-mutation","trial_index":96,"time_elapsed":2513236,"internal_node_id":"0.0-5.0-42.0"},{"group":"hexagon_bi","fractal_assignment":["../images/ylw_slt.png","../images/org_blu.png","../images/cyn_red.png","../images/pnk_blu.png","../images/blu_wht.png","../images/gry_blk.png"],"mutagen_generator_assignment":[0,1],"goal":0,"start":4,"action_noise":0.15,"location_history":"[4,5,0]","action_history":"[1,1]","mutagen_history":"[1,1]","location_rts":"[1129,685]","trial_type":"fractal-mutation","trial_index":97,"time_elapsed":2520647,"internal_node_id":"0.0-5.0-43.0"},{"group":"hexagon_bi","fractal_assignment":["../images/ylw_slt.png","../images/org_blu.png","../images/cyn_red.png","../images/pnk_blu.png","../images/blu_wht.png","../images/gry_blk.png"],"mutagen_generator_assignment":[0,1],"goal":3,"start":0,"action_noise":0.15,"location_history":"[0,1,0,5,0,1,2,3]","action_history":"[1,1,0,0,1,0,1]","mutagen_history":"[1,1,0,0,1,0,1]","location_rts":"[625,3802,850,1671,440,498,634]","trial_type":"fractal-mutation","trial_index":98,"time_elapsed":2539953,"internal_node_id":"0.0-5.0-44.0"},{"group":"hexagon_bi","fractal_assignment":["../images/ylw_slt.png","../images/org_blu.png","../images/cyn_red.png","../images/pnk_blu.png","../images/blu_wht.png","../images/gry_blk.png"],"mutagen_generator_assignment":[0,1],"goal":0,"start":3,"action_noise":0.15,"location_history":"[3,4,5,4,5,0]","action_history":"[0,1,1,1,0]","mutagen_history":"[0,1,1,1,0]","location_rts":"[947,840,666,678,417]","trial_type":"fractal-mutation","trial_index":99,"time_elapsed":2552220,"internal_node_id":"0.0-5.0-45.0"},{"group":"hexagon_bi","fractal_assignment":["../images/ylw_slt.png","../images/org_blu.png","../images/cyn_red.png","../images/pnk_blu.png","../images/blu_wht.png","../images/gry_blk.png"],"mutagen_generator_assignment":[0,1],"goal":4,"start":0,"action_noise":0.15,"location_history":"[0,5,4]","action_history":"[1,1]","mutagen_history":"[1,1]","location_rts":"[448,941]","trial_type":"fractal-mutation","trial_index":100,"time_elapsed":2559203,"internal_node_id":"0.0-5.0-46.0"},{"group":"hexagon_bi","fractal_assignment":["../images/ylw_slt.png","../images/org_blu.png","../images/cyn_red.png","../images/pnk_blu.png","../images/blu_wht.png","../images/gry_blk.png"],"mutagen_generator_assignment":[0,1],"goal":5,"start":4,"action_noise":0.15,"location_history":"[4,5]","action_history":"[1]","mutagen_history":"[1]","location_rts":"[506]","trial_type":"fractal-mutation","trial_index":101,"time_elapsed":2564261,"internal_node_id":"0.0-5.0-47.0"},{"group":"hexagon_bi","fractal_assignment":["../images/ylw_slt.png","../images/org_blu.png","../images/cyn_red.png","../images/pnk_blu.png","../images/blu_wht.png","../images/gry_blk.png"],"mutagen_generator_assignment":[0,1],"goal":2,"start":5,"action_noise":0.15,"location_history":"[5,4,5,4,3,2]","action_history":"[1,1,1,1,1]","mutagen_history":"[1,1,1,1,1]","location_rts":"[2417,1343,750,647,520]","trial_type":"fractal-mutation","trial_index":102,"time_elapsed":2578691,"internal_node_id":"0.0-5.0-48.0"},{"group":"hexagon_bi","fractal_assignment":["../images/ylw_slt.png","../images/org_blu.png","../images/cyn_red.png","../images/pnk_blu.png","../images/blu_wht.png","../images/gry_blk.png"],"mutagen_generator_assignment":[0,1],"goal":1,"start":2,"action_noise":0.15,"location_history":"[2,3,2,1]","action_history":"[1,1,1]","mutagen_history":"[1,1,1]","location_rts":"[1318,403,589]","trial_type":"fractal-mutation","trial_index":103,"time_elapsed":2587629,"internal_node_id":"0.0-5.0-49.0"},{"view_history":"[{\"page_index\":0,\"viewing_time\":3926}]","rt":3926,"trial_type":"instructions","trial_index":104,"time_elapsed":2592556,"internal_node_id":"0.0-6.0"},{"rt":25967,"responses":"{\"Q0\":\"If you could figure out the pattern.\"}","trial_type":"survey-text","trial_index":105,"time_elapsed":2619555,"internal_node_id":"0.0-7.0-0.0"},{"rt":41343,"responses":"{\"Q0\":\"If you could figure out the relationships between the patterns\"}","trial_type":"survey-text","trial_index":106,"time_elapsed":2661900,"internal_node_id":"0.0-7.0-1.0"},{"rt":86525,"responses":"{\"Q0\":\"<img src='../images/diagrams/hexagon_tri.png'>\"}","trial_type":"survey-multi-choice","trial_index":107,"time_elapsed":2749437,"internal_node_id":"0.0-7.0-2.0"},{"rt":153681,"assignments":["../images/blu_wht.png","../images/pnk_blu.png","../images/org_blu.png","../images/cyn_red.png","../images/ylw_slt.png","../images/gry_blk.png"],"trial_type":"drag-drop-on-image","trial_index":108,"time_elapsed":2904124,"internal_node_id":"0.0-7.0-3.0"},{"rt":12013,"responses":"{\"Q0\":\"2\"}","trial_type":"survey-likert","trial_index":109,"time_elapsed":2917141,"internal_node_id":"0.0-7.0-4.0"},{"rt":126673,"responses":"{\"Q0\":\"Sometimes 2 patterns would go back and forth between the 2 several times and you would have to go to the other side to change anything. Same with the spatial.\"}","trial_type":"survey-text","trial_index":110,"time_elapsed":3044819,"internal_node_id":"0.0-7.0-5.0"},{"rt":8206,"responses":"{\"Q0\":\"Yes\"}","trial_type":"survey-multi-choice","trial_index":111,"time_elapsed":3054035,"internal_node_id":"0.0-7.0-6.0"},{"rt":17411,"responses":"{\"Q0\":\"Between sessions 2 and 3\"}","trial_type":"survey-multi-choice","trial_index":112,"time_elapsed":3072459,"internal_node_id":"0.0-7.0-7.0"},{"rt":2959,"responses":"{\"Q0\":\"\"}","trial_type":"survey-text","trial_index":113,"time_elapsed":3076422,"internal_node_id":"0.0-7.0-8.0"},{"rt":10182,"responses":"{\"Q0\":\"2\"}","trial_type":"survey-likert","trial_index":114,"time_elapsed":3087608,"internal_node_id":"0.0-7.0-9.0"},{"rt":9657,"responses":"{\"Q0\":\"Same structure\"}","trial_type":"survey-multi-choice","trial_index":115,"time_elapsed":3098274,"internal_node_id":"0.0-7.0-10.0"},{"rt":96226,"responses":"{\"Q0\":\"left (black) door = acid, right (white) door = ray\",\"Q1\":\"Not at all confident\"}","trial_type":"survey-multi-choice","trial_index":116,"time_elapsed":3195515,"internal_node_id":"0.0-7.0-11.0"},{"rt":11206,"responses":"{\"Q0\":\">65\",\"Q1\":\"High school degree or GED\",\"Q2\":\"Female\",\"Q3\":\"White\"}","trial_type":"survey-multi-choice","trial_index":117,"time_elapsed":3207758,"internal_node_id":"0.0-8.0"},{"rt":9527,"responses":"{\"Q0\":\"\"}","trial_type":"survey-text","trial_index":118,"time_elapsed":3218289,"internal_node_id":"0.0-9.0"}]